time,seconds_elapsed,z,y,x
1686445430235541500,0.14954150390625,0.007694646155834197,0.010838935530930757,-0.014111527460813521
1686445430245557500,0.1595576171875,0.02533142513334751,-0.0043203474171459675,-0.019396189865469933
1686445430255574500,0.169574462890625,0.029130232894420623,-0.01220467092618346,-0.009953823259472847
1686445430265591600,0.179591552734375,0.005478139150142669,-0.010230886635184287,-0.0020779753178358077
1686445430275607600,0.189607666015625,-0.018521160596609115,-0.01167991639971733,-0.004563362392783165
1686445430285624600,0.19962451171875,-0.02955459578633308,-0.017935323532670737,-0.010692074406147003
1686445430295641300,0.209641357421875,-0.026000118175148964,-0.009261128287576139,-0.0206131644397974
1686445430305658600,0.21965869140625,-0.018772505009174347,-0.003966273282468319,-0.026576456758379934
1686445430315674600,0.229674560546875,-0.0021557167291641234,-0.0030564284285530445,-0.025405659413337705
1686445430325691400,0.23969140625,0.0017576573222875594,0.0033378026532009243,-0.02750000134408474
1686445430335708700,0.249708740234375,0.0058937342137098305,-0.0030124796889722345,-0.024890695628523824
1686445430345725400,0.259725341796875,0.008521744629740714,-0.015042049776576458,-0.050285833647847174
1686445430355741400,0.269741455078125,0.005105798706412315,-0.015238631794601679,-0.03655366089344025
1686445430365758500,0.279758544921875,-0.010893734458088875,-0.010921170454286038,-0.043484921461343765
1686445430375775500,0.289775390625,-0.010554127240180969,-0.011523264533281325,-0.04362403767108917
1686445430385791500,0.29979150390625,-0.005492752197384834,-0.004308328185789287,-0.03515606905519962
1686445430395808500,0.30980859375,-0.004249474138021469,-0.004141593316756189,-0.02454290510416031
1686445430405825500,0.319825439453125,-0.00848491975069046,0.0028251404233276844,-0.026143326038122177
1686445430415842600,0.329842529296875,-0.01234568683207035,0.013273651864565908,-0.016601006188988684
1686445430425858600,0.339858642578125,-0.02861877624094486,0.008249832353182137,0.0007213000118732452
1686445430435875600,0.34987548828125,-0.03682897070348263,0.01617857952583581,0.007239888125658035
1686445430445892600,0.359892578125,-0.059057753646373744,0.02003671625871211,0.01127250464260578
1686445430455909400,0.369909423828125,-0.04820318215489387,0.018885902255773544,0.03344984965920448
1686445430465925400,0.37992529296875,-0.07111468666493892,0.018433043921738862,0.03548632392287254
1686445430475942700,0.389942626953125,-0.04331541011333465,0.030784429842233656,0.03858019828498363
1686445430485959400,0.39995947265625,0.0009597849428653717,0.034394437032938,0.015209844091534613
1686445430495976400,0.4099765625,0.023359248277544972,0.002104717194288969,-0.026290041032433507
1686445430505992700,0.41999267578125,0.05021335293352604,-0.033787228387407955,-0.06229775848090648
1686445430516009500,0.430009521484375,0.06602408552765845,-0.022065993596613407,-0.0646282472550869
1686445430526026500,0.440026611328125,0.04527589653134346,-0.009856354234367608,-0.04379471806287765
1686445430536042500,0.45004248046875,0.04033902465105056,-0.006120199913345277,-0.02570084296762943
1686445430546059500,0.4600595703125,0.03693944534063339,-0.006218728384375572,-0.001875146222114563
1686445430556076500,0.47007666015625,0.00968786579966545,-0.0221105268580839,0.024851532661914824
1686445430566093600,0.480093505859375,-0.030827099940180777,-0.021702859372645614,0.02902735704183578
1686445430576109600,0.490109619140625,-0.0703618224710226,-0.009038571578077971,0.011892682367563247
1686445430586126600,0.500126708984375,-0.0870493378996849,0.007091419565677643,0.000713116705417633
1686445430596143400,0.510143310546875,-0.10367372496426105,0.012989976084977388,-0.023856676405668256
1686445430606160600,0.52016064453125,-0.09683248076736926,0.016246785923838613,-0.03122515934705734
1686445430616176600,0.5301767578125,-0.06711655693948268,0.018275953663885593,-0.03396832057535648
1686445430626194000,0.54019384765625,-0.03355623264312744,0.019858108288794755,-0.022834932142496107
1686445430636211000,0.5502109375,-0.007584756040573119,0.016692776125669478,-0.015264789149165153
1686445430646227200,0.560227294921875,0.006607435441017151,0.011315759262442588,-0.026954642421007154
1686445430656244000,0.570243896484375,0.007642039185762405,0.008334697625041007,-0.025600889724493026
1686445430666261000,0.580260986328125,-0.0071866966336965555,0.0001714475767686963,-0.03800795135498047
1686445430676278000,0.590278076171875,-0.0041799160331487655,0.00038684389311820265,-0.03571837911307812
1686445430686294000,0.6002939453125,0.007264438045024872,-0.016472411373257636,-0.031138650107383727
1686445430696311000,0.61031103515625,0.007221183425188064,-0.01765957533121109,-0.023856676405668256
1686445430706328000,0.620328125,0.005344868159294128,-0.021093495302647352,-0.02636544435620308
1686445430716345000,0.630344970703125,0.006553659427165985,-0.02683890708684921,-0.0373182155251503
1686445430726361000,0.640361083984375,-0.014387421792745589,-0.029756548099219796,-0.04692775539159774
1686445430736377900,0.6503779296875,-0.03836334066390991,-0.018635105832479893,-0.042488311639428136
1686445430746395100,0.66039501953125,-0.05420739100575447,-0.01063055347725749,-0.034816461837291715
1686445430756412000,0.670411865234375,-0.022937807995080946,-0.005296645103394985,-0.02865677016377449
1686445430766428000,0.680427978515625,-0.014472177466750145,-0.0020092574631795286,-0.012983984735608101
1686445430776445200,0.690445068359375,-0.003183306211233139,-0.0009888649068772793,-0.010067805027961731
1686445430786462000,0.7004619140625,-0.011889175236225128,0.013799246641248463,-0.008304302486777305
1686445430796479000,0.71047900390625,-0.017367898908257483,0.014147512089647351,-0.014983634120225905
1686445430806495000,0.720494873046875,-0.010293430477380752,0.0011349953792989254,-0.01702770716845989
1686445430816512000,0.730511962890625,-0.01312602355480194,-0.012239011587202548,-0.020752865171432495
1686445430826529000,0.740529052734375,-0.025077742633223533,-0.01973123050611466,-0.015194062000513075
1686445430836545000,0.750544921875,-0.03718085288107395,-0.016974186882935463,-0.012167992177605629
1686445430846562000,0.76056201171875,-0.034622985091805454,-0.025102986672334373,-0.005841127243638038
1686445430856579000,0.7705791015625,-0.007269698742032051,-0.021839162570796905,-0.0036059155374765393
1686445430866596000,0.78059619140625,-0.01249473991394043,0.003232113789021969,0.0017974048107862472
1686445430876611800,0.79061181640625,0.002769464713335037,0.018807868583500385,0.004497311419248581
1686445430886629000,0.800629150390625,0.008006780844926833,0.03307780147641897,-0.0035989012748003004
1686445430896646100,0.810646240234375,0.019907646518945693,0.038371560502983626,-0.009087561818957328
1686445430906663000,0.820662841796875,0.024490298134088515,0.04556450421437621,0.004743395134806633
1686445430916679200,0.83067919921875,0.004199205255508423,0.04252718234509229,0.01493687236905098
1686445430926696000,0.840696044921875,0.0005687397986650467,0.02035845902636647,0.02790332144796848
1686445430936713000,0.850712890625,-0.014781974068284034,-0.024782559078931808,-0.007345686587691307
1686445430946729000,0.86072900390625,-0.021947043392062184,-0.026091157459467648,-0.033981764578819275
1686445430956746000,0.87074609375,-0.027313538861274717,0.007736147210001945,-0.02574409758746624
1686445430966763000,0.880762939453125,-0.048209027373790736,0.013169606968201696,-0.01715630198419094
1686445430976780000,0.890780029296875,-0.043244682964682576,-0.004649396708421408,-0.02742050636708736
1686445430986796000,0.900796142578125,-0.03164543058574199,-0.029108861312828957,-0.017571312525868413
1686445430996813000,0.91081298828125,-0.003323591464757919,-0.07047668102234601,-0.005689736074209213
1686445431006830000,0.920830078125,-0.0012742577195167541,-0.045248277872055764,-0.01744037962257862
1686445431016847000,0.93084716796875,-0.02800970443189144,-0.017317337764799594,0.0023182138144969937
1686445431026863000,0.940863037109375,-0.0721393535375595,-0.014155220472067593,-0.0209007492095232
1686445431036880100,0.950880126953125,-0.06824760679602622,-0.013449556420743464,-0.04201251082122326
1686445431046897000,0.96089697265625,-0.0421802686035633,0.002183627649396658,-0.04109364241063595
1686445431056913200,0.9709130859375,-0.013279752811789511,-0.0025584157785400745,-0.04616846145689487
1686445431066930200,0.98093017578125,-0.0006102408528327941,-0.005305559062212705,-0.045348377245664595
1686445431076947000,0.990947021484375,0.01785772825181484,0.03280442789513618,-0.05879004262089729
1686445431086964200,1.000964111328125,0.0005810147583484649,0.05544789258614182,-0.04122457531392574
1686445431096980000,1.01097998046875,-0.005469955843687057,0.04969590493068099,-0.03649287061691284
1686445431106997000,1.0209970703125,0.01132218900322914,0.026679332610964772,-0.03777297355532646
1686445431117014000,1.031013916015625,0.03591594751179218,-0.00015544629003852605,-0.019426585003733635
1686445431127031000,1.041031005859375,0.05809563061594963,-0.015298837549239396,-0.018341712376475333
1686445431137047000,1.051047119140625,0.05008709620535373,-0.026128128468990323,0.01495206993818283
1686445431147064000,1.06106396484375,0.046316345494985575,-0.016560235787183044,0.009980126744508743
1686445431157081000,1.0710810546875,0.027919688060879706,-0.01727963610291481,0.011778700599074363
1686445431167097000,1.08109716796875,0.0321288301885128,-0.017980331718176604,0.008504208973050117
1686445431177114000,1.091114013671875,0.023280337822437287,-0.008841331972926855,0.003407762616872787
1686445431187131000,1.101130859375,0.03327215500473976,0.008419343701191247,0.009970774394273758
1686445431197148200,1.111148193359375,0.01008475616276264,0.01626665966808796,0.04274433222711086
1686445431207164200,1.1211640625,-0.023963059389591215,0.00803483789563179,0.05881751514971256
1686445431217181000,1.131180908203125,-0.04269347882270813,-0.018213994343578815,0.04352583799362182
1686445431227198200,1.1411982421875,-0.056306993633508676,-0.016027699813060462,0.014932780715823173
1686445431237215000,1.151215087890625,-0.06585340513586997,-0.010650865612924098,-0.02679974412024021
1686445431247231000,1.16123095703125,-0.08517945237457751,-0.0006883841229602695,-0.05165887556672096
1686445431257248000,1.171248046875,-0.10265022713541984,0.021971008789539337,-0.05234802687466144
1686445431267265000,1.18126513671875,-0.10758709901571273,0.017302286326140164,-0.05157353537082672
1686445431277282000,1.191281982421875,-0.0957376712679863,0.006125935534387826,-0.0546416907697916
1686445431287298000,1.201298095703125,-0.06755261026918888,-0.008564670456014573,-0.055302785027027124
1686445431297315000,1.211315185546875,-0.041670565515756604,-0.026468027947843073,-0.056009471991658205
1686445431307332000,1.22133203125,-0.008886486288905144,-0.04721121197547763,-0.037568975415825843
1686445431317348000,1.23134814453125,0.0007177928805351257,-0.02925396887194365,-0.027533319091796873
1686445431327364900,1.24136474609375,-0.014791326418519019,0.006966368413902819,-0.002529226216673851
1686445431337382100,1.251382080078125,-0.021387655943632126,-0.001983282771706581,0.00758650960624218
1686445431347399000,1.26139892578125,-0.013863105657696722,-0.029850656123459336,0.005486906978487968
1686445431357415000,1.271414794921875,-0.00921381854712963,-0.025052169800549744,-0.0019061258822679519
1686445431367432200,1.28143212890625,0.002050502789020538,0.007760843259841203,0.000022796353697776793
1686445431377449000,1.291448974609375,-0.015244915404915809,0.026598412861861286,-0.004261164575815201
1686445431387466000,1.301466064453125,-0.013588380369544028,0.02265752974897623,-0.005112812969088554
1686445431397482000,1.31148193359375,0.015226210704445837,0.0535710293309763,-0.036546646630764006
1686445431407499000,1.3214990234375,0.04209551292955875,0.061864372032321986,-0.032658407020568846
1686445431417516000,1.33151611328125,0.046665889585018154,0.047244712386280294,-0.01618599564731121
1686445431427532000,1.341531982421875,0.08524258073866367,0.016992343594133853,-0.01406710379719734
1686445431437549000,1.351549072265625,0.08616320271492003,0.011518734488636254,0.008708207112550735
1686445431447566000,1.361566162109375,0.06185176827907562,0.017976824586838483,0.04663724801242351
1686445431457582800,1.371582763671875,0.02321954754590988,0.01555836526826024,0.057528059861063956
1686445431467599000,1.38159912109375,-0.0011895020455121993,0.01689666466731578,0.04076104945540428
1686445431477616000,1.3916162109375,-0.011627893951535224,0.02681614726576954,0.04622516008019447
1686445431487633000,1.4016328125,-0.018618191230297086,0.014500965169817208,0.0362853653460741
1686445431497650200,1.411650146484375,-0.024272855991125105,-0.019512801982462406,0.00956628524661064
1686445431507666200,1.421666259765625,-0.03415010688304901,-0.001795358984172344,-0.011357260316610336
1686445431517683000,1.431682861328125,-0.05539689305126667,0.03151745682451874,-0.02149403892755508
1686445431527700000,1.441699951171875,-0.058739189216494556,0.05307798511702567,-0.027628596159815787
1686445431537716200,1.45171630859375,-0.04301613490581512,0.07363572957515716,-0.04325637340247631
1686445431547733000,1.46173291015625,-0.013522913917899131,0.1054563705973327,-0.005129764103889465
1686445431557750000,1.47175,-0.013517068699002266,0.09906670609284192,0.028378537744283675
1686445431567767000,1.48176708984375,-0.007813888621330261,0.04332929250821471,0.029008652341365813
1686445431577783000,1.491782958984375,0.014707155266404152,-0.05520396429505199,0.01998304984271526
1686445431587800000,1.501800048828125,0.05159866981208324,-0.15513020982667802,-0.027846038302779198
1686445431597816800,1.51181689453125,0.05210661933422088,-0.19825842680484054,-0.0941863501727581
1686445431607834000,1.521834228515625,0.025325579914450645,-0.16693696747645734,-0.12100187638401984
1686445431617850000,1.53185009765625,-0.022079145339131353,-0.1000420904636383,-0.12340601491630077
1686445431627866600,1.54186669921875,-0.05691723448634147,-0.045876346642524005,-0.0987175638616085
1686445431637883600,1.551883544921875,-0.04995090260505676,-0.0014240414537489414,-0.08069032426178455
1686445431647900700,1.561900634765625,-0.05222703084349632,-0.0022901567637920377,-0.048863691890239716
1686445431657916700,1.571916748046875,-0.05602642312645912,-0.007216799511015415,-0.0160164842993021
1686445431667933400,1.581933349609375,-0.06770107882916927,0.012668963969685136,0.002831424033641815
1686445431677950700,1.59195068359375,-0.06227028595209121,0.020966069530695675,-0.0068336454123258585
1686445431687966500,1.601966552734375,-0.06261983004212379,0.023777619820088147,-0.014796002593636512
1686445431697983500,1.6119833984375,-0.05230360321104526,0.015482998477108776,-0.013442834419012069
1686445431708000800,1.622000732421875,-0.0512912112981081,0.024268800870515406,-0.016751812836527824
1686445431718017500,1.632017578125,-0.04310147510170936,0.026683862655609843,-0.01076104798913002
1686445431728033500,1.642033447265625,-0.04982172326743602,0.05496222796104848,-0.0008142389923334122
1686445431738050600,1.652050537109375,-0.03586041793227195,0.058514294419437646,0.03388765655457973
1686445431748067600,1.662067626953125,-0.02785188352167606,0.03546064149234444,0.04112462207078933
1686445431758084600,1.672084716796875,0.004561608827114105,0.0070336980290710924,0.015610241585969924
1686445431768100600,1.6821005859375,0.03766834413707256,-0.022568974682688713,0.007672434324026108
1686445431778117600,1.69211767578125,0.06085340489149093,-0.04805029314812272,-0.004373392778635025
1686445431788134700,1.702134765625,0.08277999001741408,-0.02887728104665875,-0.02462766077816486
1686445431798150700,1.712150634765625,0.09071136753857136,0.008666158069111406,-0.007886369335651398
1686445431808167700,1.722167724609375,0.07626900068819523,0.021756818049587307,0.024918168157339094
1686445431818184700,1.732184814453125,0.06791267575323581,0.030969869411736725,0.04182020311951637
1686445431828201500,1.742201416015625,0.06926467488408088,0.034194822807610034,0.055878539088368415
1686445431838217500,1.752217529296875,0.0587023643374443,0.03234101163446903,0.057578913265466686
1686445431848234800,1.76223486328125,0.032716859209537506,0.0310068404212594,0.035358898150920866
1686445431858251500,1.77225146484375,0.021174305453896522,0.021697744806110857,0.007524550285935402
1686445431868268500,1.7822685546875,0.013180384090542792,0.013908698365092276,-0.022896891462802885
1686445431878284800,1.792284912109375,-0.011097732597589493,-0.008418576516211033,-0.04030570690333843
1686445431888301600,1.802301513671875,-0.035083003818988795,-0.023223493068665266,-0.062386021286249156
1686445431898318600,1.812318603515625,-0.049450551867485044,-0.012070961543917656,-0.07307108142971992
1686445431908334600,1.82233447265625,-0.08728723830878735,-0.013721760958246886,-0.06890928557515144
1686445431918351600,1.8323515625,-0.09115443513095378,-0.008302695051580667,-0.059931029349565505
1686445431928368600,1.84236865234375,-0.08992986177206039,-0.026592531110346315,-0.047175592672824854
1686445431938385400,1.852385498046875,-0.07603343836665154,-0.02019008018951863,-0.039563948625326154
1686445431948401700,1.862401611328125,-0.05877718313932419,-0.03300415171831846,-0.044455227798223494
1686445431958418700,1.872418701171875,-0.042297172981500625,-0.047181437891721724,-0.05340951862633228
1686445431968435500,1.882435546875,-0.03811491886079311,-0.04632423654049635,-0.048636897397041315
1686445431978452700,1.89245263671875,-0.014271101936697958,-0.03894508607462048,-0.02933072390258312
1686445431988468700,1.90246875,-0.017937223228812218,-0.019316219964437185,0.006626724663376808
1686445431998485500,1.912485595703125,-0.029517770907282827,0.006111760878562927,0.03214987297654152
1686445432008502500,1.92250244140625,-0.01466623873412609,0.008074621916748582,0.030255437532067296
1686445432018518800,1.932518798828125,0.0060930561780929565,0.010225333677232265,0.02214110465943813
1686445432028535600,1.94253564453125,0.01626665966808796,0.005679360810667276,0.0026817864298820495
1686445432038552600,1.952552490234375,0.002127075156569481,-0.0038185353748500343,-0.004868482819199562
1686445432048569600,1.962569580078125,-0.009435936865210532,-0.0027772096283733842,-0.02134557036757469
1686445432058585600,1.972585693359375,-0.006867547681927681,0.0008135083399713039,-0.011282441514730453
1686445432068602600,1.9826025390625,0.000263034850358963,0.05925079200044274,0.0301332724571228
1686445432078619400,1.992619384765625,0.02003507229089737,0.09001198709756135,0.06476093372404575
1686445432088636700,2.00263671875,0.042138183027505875,0.03794906077459454,0.04501169263720512
1686445432098652700,2.012652587890625,0.07375847917199134,-0.009144991094619035,-0.009128478351235389
1686445432108669400,2.02266943359375,0.08275427105426787,-0.005542582688480615,-0.051366614621877665
1686445432118686700,2.032686767578125,0.05874211182594299,0.016044541350007057,-0.05629471867382526
1686445432128702700,2.04270263671875,0.019660393759608267,0.029826873389072715,-0.06383446652889252
1686445432138719500,2.052719482421875,0.01917407154738903,0.006966478011757135,-0.057747255569696426
1686445432148736500,2.062736572265625,-0.0022217677026987073,-0.023041962489299475,-0.02889057891964912
1686445432158753500,2.07275341796875,-0.03709375911951065,-0.03992299119606614,-0.004697217905521392
1686445432168769500,2.08276953125,-0.07862520842552184,-0.0506289479970932,-0.010814824002981185
1686445432178786600,2.09278662109375,-0.11384615941047668,-0.027885493530333042,-0.016742460486292837
1686445432188803600,2.102803466796875,-0.1346633219897747,0.010580284594744443,-0.011395254239439963
1686445432198820600,2.112820556640625,-0.13928864370286465,0.026451076813042162,-0.01508884806036949
1686445432208836600,2.122836669921875,-0.09313771790266036,0.011023206056654453,-0.003269230929017067
1686445432218853400,2.132853271484375,-0.01694528958201408,-0.01840367169678211,-0.009907646030187607
1686445432228870700,2.14287060546875,0.03748305069804191,-0.01740033987313509,-0.02292494851350784
1686445432238886700,2.15288671875,0.07003390569090842,-0.015511018995195627,-0.025830022305250167
1686445432248903400,2.1629033203125,0.06975450422763824,-0.015921645622700452,-0.037034137886762616
1686445432258920700,2.172920654296875,0.04825637364685535,-0.026830541117303073,-0.0440191744685173
1686445432268937500,2.1829375,0.02696399477124214,-0.02986059299558401,-0.053800563770532606
1686445432278953500,2.192953369140625,-0.0018283844709396362,-0.017496055332571266,-0.04773731820881366
1686445432288970500,2.202970458984375,-0.009012158495187758,-0.00783697723597288,-0.033676644152402874
1686445432298987500,2.212987548828125,-0.018880057036876677,0.0030475510023534294,-0.015415595796704292
1686445432309004500,2.223004638671875,-0.0019236615389585494,0.006464812099933624,0.0042418753534555435
1686445432319020500,2.2330205078125,-0.013205518531799316,0.00766556619182229,-0.0007581248909235
1686445432329037600,2.24303759765625,-0.024169980138540267,0.002940875757485628,-0.008428221127390861
1686445432339054600,2.2530546875,-0.02898176433444023,0.013834171824157237,0.00007949497699737548
1686445432349070600,2.263070556640625,-0.025877953100204465,0.030354258264042436,-0.006831891846656799
1686445432359087400,2.27308740234375,-0.007471358793973922,0.03133665689751506,0.004258241966366767
1686445432369104600,2.283104736328125,0.01136661266684532,0.01570303443595767,0.011121113473176956
1686445432379121700,2.29312158203125,0.019081717088818548,-0.0013769874416291713,0.006273673442006111
1686445432389137400,2.303137451171875,0.021178981629014014,-0.01000522465314716,-0.0003092120796442032
1686445432399154700,2.31315478515625,0.014251228192448616,-0.008076338949799537,-0.006654781714081764
1686445432409171500,2.32317138671875,-0.002140519160032272,-0.001179272912442684,-0.010351882666349411
1686445432419188500,2.3331884765625,-0.019942717832326887,0.008325966329313815,0.003091536274552345
1686445432429204500,2.34320458984375,-0.04165069177150726,0.0032899814561009404,0.019058920735120773
1686445432439221500,2.353221435546875,-0.04459668209552765,-0.001975099465250969,0.012798106774687767
1686445432449238500,2.363238525390625,-0.03898351838886738,-0.006397993941418826,-0.0011959317862987517
1686445432459254500,2.373254638671875,-0.018191490250825882,0.0018264847747981546,-0.01047346321940422
1686445432469271600,2.383271484375,-0.002644377028942108,0.009113134651631116,-0.01241933659017086
1686445432479288600,2.39328857421875,0.018799393016099928,0.011945435468107462,-0.018204349732398987
1686445432489305600,2.4033056640625,0.02609130358994007,0.005729958486743271,-0.0031359599381685253
1686445432499321300,2.4133212890625,-0.00020867431461811065,0.016916538411565124,-0.009231354203820229
1686445432509338600,2.423338623046875,-0.010967384216189384,0.012231887726671994,-0.02058627643287182
1686445432519355600,2.433355712890625,-0.010443068081140518,0.0003755918467417359,-0.02469488079547882
1686445432529372700,2.44337255859375,-0.010922960552573203,0.0014164426691830158,-0.026504560565948486
1686445432539388700,2.453388671875,-0.009831658184528351,-0.017016455122083423,-0.01165244387090206
1686445432549405700,2.46340576171875,-0.008023147457838059,-0.023816490525752305,-0.007298340314626693
1686445432559422500,2.47342236328125,-0.029181086298823353,-0.014488836340606211,-0.002571311792731285
1686445432569438700,2.483438720703125,-0.027678865042328832,-0.00793006234690547,-0.009288052827119827
1686445432579455500,2.49345556640625,-0.014862053567171097,-0.007305500707775354,-0.02130465383529663
1686445432589472500,2.503472412109375,-0.01006429789662361,-0.011330810701102017,-0.02339607315659523
1686445432599489800,2.51348974609375,-0.008724573725461959,-0.000813069948554039,-0.014140169033408164
1686445432609505500,2.523505615234375,-0.016717326045036316,0.0005594239810481667,-0.014355857610702514
1686445432619522600,2.5335224609375,-0.023785364735126494,0.0005268368856981396,-0.019014497071504592
1686445432629539800,2.543539794921875,-0.03156535108685493,-0.012218991712480783,-0.028113164806365967
1686445432639556900,2.553556884765625,-0.025734745237231252,-0.02054532336797565,-0.028842063602805137
1686445432649572900,2.56357275390625,-0.02772913392484188,-0.014716909475438297,-0.04100771769285202
1686445432659590000,2.57358984375,-0.020659926190972327,-0.0020205095095559952,-0.016140402939915657
1686445432669606700,2.583606689453125,-0.0018681319594383238,0.0013030454225838183,-0.016959902629256247
1686445432679623000,2.593622802734375,0.006976853275299072,0.0034986557707190513,-0.012620412120223044
1686445432689639700,2.6036396484375,0.02318915240764618,0.0017426058836281298,-0.013777765461802483
1686445432699656700,2.61365673828125,0.018088029876351355,0.0007321501994505524,-0.012149287477135657
1686445432709674000,2.623674072265625,0.010337269619107246,0.0015210720874369143,0.0007364975810050964
1686445432719689700,2.633689697265625,0.011314005696773528,0.0009442951127886772,-0.004592588487267494
1686445432729706800,2.643706787109375,0.01961187844276428,0.025483108563721178,0.004282207363843917
1686445432739723800,2.653723876953125,0.005863339075446129,0.04240969344526529,0.004461071062088012
1686445432749740800,2.66374072265625,0.0022235212683677672,0.0378320102661848,0.012534487402439117
1686445432759756800,2.6737568359375,0.013777765461802483,0.0030218685718253254,0.0007943652480840683
1686445432769773800,2.68377392578125,0.020768062740564346,-0.01783814676851034,-0.012379004579782485
1686445432779790800,2.693790771484375,0.016260229927301407,-0.058779082835465665,-0.03798223239183426
1686445432789806800,2.703806884765625,-0.015834113469719885,-0.05200999055933207,-0.03615267887711525
1686445432799824000,2.713823974609375,-0.04309095370769501,-0.015156944860517978,-0.01811959405839443
1686445432809840600,2.723840576171875,-0.056629649716615674,0.009928542687743902,-0.007782324439287185
1686445432819858000,2.73385791015625,-0.051826048827171324,0.017799276062846182,0.014314941078424452
1686445432829874000,2.7438740234375,-0.04395604610443115,0.03286766585707664,0.020177695631980894
1686445432839890700,2.753890625,-0.025714286971092223,0.024236615633964537,0.025942835029959678
1686445432849908000,2.763907958984375,-0.01951777041852474,0.020184125372767446,0.010090601381659507
1686445432859924700,2.7739248046875,-0.024037878191471098,0.015759586928784847,-0.004939209967851638
1686445432869940700,2.783940673828125,-0.05302548774480819,0.02411708090752363,-0.02136953576505184
1686445432879957800,2.793957763671875,-0.05273205775618553,0.017440964144468305,-0.03634849371016025
1686445432889974800,2.803974853515625,-0.01933306150138378,0.002137742681056261,-0.055173021167516705
1686445432899990800,2.81399072265625,0.012429273462295531,-0.0038220425061881538,-0.031333295896649356
1686445432910007800,2.8240078125,0.024723522368073462,0.0018260463833808898,-0.008258125257492066
1686445432920024800,2.83402490234375,0.0280985517591238,-0.006666106825694441,0.00575870965719223
1686445432930041900,2.844041748046875,0.03709901981651783,-0.004495850114524364,-0.0054179333955049515
1686445432940057900,2.854057861328125,0.030719547912478447,-0.020877770192734894,-0.008927402821183204
1686445432950074600,2.86407470703125,0.0330219796359539,-0.03238981921225786,-0.005704349121451378
1686445432960092000,2.874091796875,0.037142274436354636,-0.03437544007152319,-0.0035381109982728955
1686445432970108700,2.884108642578125,0.02078969005048275,-0.027696985220909118,-0.011992051088809966
1686445432980124700,2.894124755859375,0.0017488894939422606,-0.01139320841282606,-0.025116905599832533
1686445432990142000,2.904141845703125,-0.022525135540962218,0.017770049968361852,-0.028963644155859947
1686445433000158700,2.91415869140625,-0.0354968453168869,0.0322888430558145,-0.027324644777178764
1686445433010174700,2.9241748046875,-0.026990882778167722,0.029095161581039426,-0.005549450820684433
1686445433020191700,2.934191650390625,-0.028110826718807217,0.027215485314279794,0.016633739414811135
1686445433030208800,2.944208740234375,-0.04005202440321445,0.01880352120194584,0.03579670504629612
1686445433040225800,2.954225830078125,-0.04219546617269516,0.02512658674363047,0.028715806874632835
1686445433050241800,2.96424169921875,-0.039139585733413695,0.024478753826767206,0.0033761984348297117
1686445433060258800,2.9742587890625,-0.03626256899237632,0.0038235038109123705,-0.009722352591156959
1686445433070275800,2.98427587890625,-0.019599018961191175,-0.018222908302396534,-0.02762275094091892
1686445433080292600,2.994292724609375,-0.016097732841968537,-0.024191022926568984,-0.028340543821454046
1686445433090308900,3.004308837890625,-0.037032384321093556,-0.02017152161952108,-0.019386837515234946
1686445433100326000,3.014325927734375,-0.052698740008473396,-0.01741261483281851,-0.020251345390081405
1686445433110342700,3.0243427734375,-0.04387421303987503,-0.020457243225723502,-0.01876315265893936
1686445433120358700,3.034358642578125,-0.01582651468515396,-0.03034355420693755,-0.0097118311971426
1686445433130376000,3.0443759765625,-0.00009761515557765961,-0.034675153670459986,-0.01251169104874134
1686445433140392700,3.054392822265625,0.0043850832164287566,-0.025912732152640817,-0.016070260313153267
1686445433150409700,3.06440966796875,0.029970190849900245,-0.01941036452129483,-0.01945113492310047
1686445433160426000,3.074426025390625,0.046613282614946364,-0.015263181713968515,-0.03297521788477897
1686445433170442800,3.08444287109375,0.05562134945690632,-0.006831453455239534,-0.04355623313188552
1686445433180459800,3.094459716796875,0.051615036424994466,-0.0037151845982298253,-0.03560439734458923
1686445433190476800,3.104476806640625,0.0120341366648674,0.01132792462427169,-0.047830841711163516
1686445433200492800,3.114492919921875,-0.011162614527344702,0.03623100481033325,-0.01822071634531021
1686445433210509800,3.124509765625,-0.019178163200616834,0.026799159598350525,-0.015756956580281256
1686445433220526600,3.134526611328125,-0.019041385078430173,0.0028077508971095086,-0.021446108132600783
1686445433230542800,3.14454296875,-0.003171615773439407,0.02070950095374137,-0.0007990414232015609
1686445433240559900,3.154559814453125,-0.00898117883503437,0.007645546317100524,-0.0030301614761352536
1686445433250576600,3.16457666015625,-0.014949731850624084,-0.011759119115769863,-0.018892331996560097
1686445433260594000,3.174593994140625,-0.009784896433353424,-0.00030000585988163947,-0.01614683268070221
1686445433270610000,3.18460986328125,-0.020855156502127645,0.00048471477702260015,-0.024841011267900465
1686445433280626700,3.194626708984375,-0.02232639809846878,-0.004139437892287969,-0.027827333602309226
1686445433290643700,3.204643798828125,-0.003425298273563385,0.008559738552570343,-0.021811434313654898
1686445433300660700,3.21466064453125,-0.0073883566856384275,0.021614012045413255,0.00637830286026001
1686445433310676700,3.2246767578125,0.00397884050309658,-0.006415420000255107,0.021180735194683074
1686445433320693800,3.23469384765625,-0.004542904126644134,-0.028240152186900375,0.02475800915956497
1686445433330710800,3.244710693359375,-0.00895896700322628,-0.03803235514387488,0.020153730234503744
1686445433340726800,3.254726806640625,-0.022564298507571218,-0.023369185149669645,0.0038280338555574415
1686445433350743800,3.264743896484375,-0.04009294093549251,-0.0027524770459160207,0.0002069207489490509
1686445433360760600,3.274760498046875,-0.04390636174380779,0.0077331150026991955,0.006734276691079139
1686445433370777900,3.28477783203125,-0.02128770270049572,0.014147073698230086,0.0075397478550672525
1686445433380793900,3.2947939453125,-0.004250058659911155,0.015705847447551786,0.006798574098944664
1686445433390810600,3.304810546875,-0.004288052582740783,0.0038106443293392657,0.00829319657087326
1686445433400828000,3.314827880859375,-0.00551554855108261,-0.01833440585285425,0.0005219780474901199
1686445433410845000,3.324844970703125,-0.01298573830127716,-0.05655979935079813,-0.03939151466786861
1686445433420860700,3.334860595703125,0.00042027123868465424,-0.05709913039188832,-0.0687672467559576
1686445433430877700,3.344877685546875,-0.008432312780618668,-0.01116232226639986,-0.05651625247001647
1686445433440894700,3.354894775390625,-0.019159458500146866,0.027332681953161953,-0.01588672043979168
1686445433450910700,3.36491064453125,0.003351648515462875,0.05697188728302717,0.00907353329360485
1686445433460927700,3.374927734375,0.03202478529214859,0.034238223557919265,0.020872692158818245
1686445433470944800,3.38494482421875,0.04122574435770512,0.007230426177568733,0.012266191855072975
1686445433480961800,3.3949619140625,0.032387773385643956,0.004271868632920086,-0.012164485046267508
1686445433490977800,3.404977783203125,0.019259996265172958,-0.0004749240353703499,-0.03159107005000114
1686445433500994600,3.41499462890625,-0.0013993454039096832,-0.014673837518692015,-0.06348433791697025
1686445433511011800,3.42501171875,-0.009958499434590339,-0.03695245095267892,-0.0770066673129797
1686445433521028900,3.43502880859375,-0.011288871255517006,-0.03229541892707348,-0.09242810832858085
1686445433531044600,3.445044677734375,-0.01848608928322792,-0.011769348248839377,-0.05910159278810024
1686445433541062000,3.455061767578125,-0.02996025397777557,0.004958353059738874,-0.026150340300798415
1686445433551079000,3.465078857421875,-0.03336275589764118,0.013922325031645595,0.0022977555483579635
1686445433561094700,3.4750947265625,-0.021695698979496955,0.013656513702310621,0.023976503393054006
1686445433571111700,3.485111572265625,-0.028044775745272636,0.011417940995283425,0.017319968113303184
1686445433581129000,3.49512890625,-0.035735330247879026,0.01061097199395299,0.015173603734374045
1686445433591145700,3.505145751953125,-0.014773790761828422,-0.008997508915327489,0.016095979276299476
1686445433601161700,3.51516162109375,0.006772270613908767,-0.022708821544796226,0.009813538005948067
1686445433611178800,3.5251787109375,0.007436872002482414,-0.02718509017601609,0.0026899697363376614
1686445433621195800,3.53519580078125,-0.005963876840472221,-0.02308905303403735,0.0073942019045352934
1686445433631212800,3.545212890625,-0.023172785794734953,-0.014929675443284213,0.010378186151385306
1686445433641228800,3.555228759765625,-0.040945758372545236,0.0056336219727993,0.01026654247045517
1686445433651245600,3.56524560546875,-0.04713642970621586,0.009193798672407865,0.0017237550526857375
1686445433661262800,3.575262939453125,-0.029952655193209648,0.006129004274308681,0.006519757157564162
1686445433671278600,3.585278564453125,-0.0063935004293918605,0.020027327375859022,0.005112228447198867
1686445433681295600,3.595295654296875,-0.00466682276725769,0.02380114682614803,0.014644026902318
1686445433691312600,3.605312744140625,0.005126256972551346,0.022390439778007566,0.0035118075132369994
1686445433701329700,3.61532958984375,0.02495674660205841,0.0071914093414321536,-0.02466916183233261
1686445433711345700,3.625345703125,0.017190788775682447,-0.00581420270409435,-0.0355535439401865
1686445433721362700,3.63536279296875,0.022283143478631973,-0.004980382228456437,-0.04600479532778263
1686445433731379700,3.645379638671875,0.036753567379713054,-0.009018843964301049,-0.04349135120213032
1686445433741396700,3.655396728515625,0.037619828820228574,-0.009536291967146098,-0.033201427856087685
1686445433751412700,3.665412841796875,0.021414543950557707,-0.014309972642362117,-0.022792262044548987
1686445433761429500,3.675429443359375,0.02181961762011051,-0.014821392763219773,-0.018513561812043187
1686445433771446800,3.68544677734375,-0.0032189620465040204,-0.013021394136548042,-0.01574409709870815
1686445433781462800,3.695462890625,-0.021768764215707778,-0.015910978098213673,-0.029684359645843504
1686445433791479600,3.7054794921875,-0.04206687135696411,-0.018056319563835858,-0.03220423351228237
1686445433801496800,3.715496826171875,-0.05688508578240871,-0.019887005589716136,-0.0389607220351696
1686445433811513600,3.725513671875,-0.06769815621972083,0.004886785660870373,-0.04363865071833133
1686445433821529600,3.735529541015625,-0.05191197354495525,0.00527136453166604,-0.030219197174906728
1686445433831546600,3.745546630859375,-0.018449848926067353,0.0016094810232520102,-0.010330839878320694
1686445433841563600,3.755563720703125,-0.000796118813753128,-0.007883300595730542,0.012280220380425453
1686445433851580700,3.76558056640625,0.015012860214710235,0.00723944973424077,0.02524082424044609
1686445433861596700,3.7755966796875,-0.001052139401435852,0.0073031626202166074,0.019020926812291145
1686445433871613700,3.78561376953125,-0.007808627924323082,0.008084960647672414,0.013404255974292754
1686445433881630700,3.795630615234375,-0.022458500045537948,0.0013607669591903686,-0.0065127428948879235
1686445433891646700,3.805646728515625,-0.03787351132035255,-0.011412059243768454,-0.0213321263641119
1686445433901663500,3.81566357421875,-0.03561199612915516,-0.01838832799717784,-0.04028583315908909
1686445433911680800,3.8256806640625,-0.01975391726195812,-0.01998904119208455,-0.039329555347561836
1686445433921697500,3.835697509765625,0.007323474755883216,-0.031179566639661788,-0.032250995263457295
1686445433931713500,3.845713623046875,0.017137012761831282,-0.0192407070428133,-0.00023790040910243987
1686445433941730800,3.855730712890625,0.027984569990634915,-0.0017453823626041411,0.015129180070757866
1686445433951747600,3.86574755859375,0.025901918497681618,0.009232084856182337,0.02546294255852699
1686445433961764600,3.8757646484375,0.018893501040339468,0.023554624719172714,0.029497897163033485
1686445433971780900,3.88578076171875,-0.011985036826133727,0.02869480061922222,0.020865677896142003
1686445433981797600,3.895797607421875,-0.03310089009106159,0.028091318300738927,0.008692425021529197
1686445433991814700,3.905814697265625,-0.031713819646835326,0.02327463873401284,0.0070674541682004925
1686445434001830700,3.91583056640625,-0.030600305446982383,0.021067337948083877,0.005339022940397262
1686445434011847700,3.92584765625,-0.033551556468009947,0.006186725810915231,-0.002214168918132782
1686445434021864700,3.93586474609375,-0.01751169129312038,0.004436521142721176,-0.03116904524564743
1686445434031881500,3.945881591796875,-0.00994973160624504,-0.002512713473290205,-0.03612988252341747
1686445434041897700,3.955897705078125,0.0005599719703197479,-0.00937806919813156,-0.04025368445515633
1686445434051914800,3.965914794921875,0.00010112228691577911,-0.025556319930404425,-0.03728548229932785
1686445434061931500,3.975931640625,-0.011408113721013068,-0.03154123955890536,-0.0290659354865551
1686445434071948800,3.98594873046875,-0.0388473247885704,-0.027851152869313955,-0.027481296643614768
1686445434081964800,3.99596484375,-0.03160743666291237,-0.03351531611084938,-0.01454115104973316
1686445434091981600,4.005981689453125,-0.014338321954011916,-0.0360699690297246,0.0018406594306230545
1686445434101998600,4.01599853515625,-0.0035486323922872542,-0.022252163818478582,0.0062158057749271385
1686445434112015600,4.026015625,0.01861585314273834,-0.022712474806606767,0.0013145897299051284
1686445434122031600,4.036031494140625,0.030497429594397545,-0.01789747574031353,-0.005667524242401123
1686445434132048600,4.046048583984375,0.02922492544054985,-0.010316226831078528,-0.029098668712377547
1686445434142065700,4.056065673828125,0.03420329837501049,-0.005562456432729959,-0.04091185610294342
1686445434152081700,4.06608154296875,0.006819032365083694,0.017790690897591412,-0.03979483477175236
1686445434162098700,4.0760986328125,-0.02966623946726322,0.016839637250453232,-0.032841362372040744
1686445434172115500,4.086115478515625,-0.054794835504889484,0.013571867626160382,-0.014851532173156738
1686445434182132700,4.0961328125,-0.07169628594517707,0.004590250399708748,-0.030258944663405417
1686445434192148700,4.106148681640625,-0.0715910720050335,-0.005705189371667802,-0.04080021242201328
1686445434202165500,4.11616552734375,-0.09171499162316321,-0.0014775252066552638,-0.034433599999547
1686445434212182800,4.126182861328125,-0.07979191411733627,0.007703998506069183,-0.03518178801834583
1686445434222199600,4.136199462890625,-0.05599953511953354,-0.0006267535962164401,-0.022696400454640386
1686445434232215600,4.146215576171875,-0.017044073781371117,0.003053250090777874,-0.017602292186021804
1686445434242232600,4.156232666015625,0.0016588731229305266,-0.007674334020167589,0.001073182189464569
1686445434252249600,4.16624951171875,0.02207797629535198,-0.010614917516708374,0.009510755667090415
1686445434262265600,4.176265625,0.049340661752223965,-0.01575476462319493,0.0065641808211803435
1686445434272282600,4.18628271484375,0.0767407098531723,-0.011206015277653933,-0.0011614449948072433
1686445434282299600,4.196299560546875,0.08920096297562122,-0.0031101313771679994,-0.012143442258238792
1686445434292316700,4.206316650390625,0.0817687671482563,-0.010417787509411573,-0.01502396613061428
1686445434302332700,4.216332763671875,0.05325228223800659,-0.020998364365100858,-0.020582184779644012
1686445434312349400,4.226349365234375,0.02407178046107292,-0.029445545921288428,-0.024734628283977506
1686445434322366700,4.23636669921875,-0.005657002848386764,-0.017171791814267635,-0.013892916274070738
1686445434332383700,4.2463837890625,-0.0332224706441164,-0.00559270544052124,-0.0023965397477149963
1686445434342399500,4.2563994140625,-0.04611468544304371,0.013532741192169486,0.0061275429695844645
1686445434352416800,4.266416748046875,-0.04298047907054424,0.01473868291582912,0.00165828860104084
1686445434362433800,4.276433837890625,-0.03403904772400856,0.002814180637896061,-0.008810498443245888
1686445434372449500,4.286449462890625,-0.019824644410610198,-0.00980243209004402,-0.013260463589429854
1686445434382466600,4.296466552734375,-0.01641863535940647,-0.0004633797280490398,-0.008472060269117355
1686445434392483600,4.306483642578125,-0.00916062705516815,0.0029176410123705862,-0.006570026040077209
1686445434402500600,4.31650048828125,0.005293430233001709,0.01405979727357626,0.006721417209506034
1686445434412516600,4.3265166015625,0.013707038313150404,0.005002192201465368,-0.005949848315119743
1686445434422533600,4.33653369140625,-0.0010176526099443435,-0.0049158290922641755,-0.0013765490502119064
1686445434432550700,4.346550537109375,-0.01388940914273262,-0.004637450542300939,-0.006169044023752212
1686445434442567700,4.356567626953125,-0.015823592075705526,0.0023876257888972756,-0.014834581038355827
1686445434452583400,4.36658349609375,-0.03707037824392319,-0.0039386546231806275,-0.022898645028471946
1686445434462600700,4.3766005859375,-0.047581250864267344,-0.005674538505077362,-0.025014029747247694
1686445434472617700,4.38661767578125,-0.03993453550338745,-0.001485708513110876,-0.030365327647328376
1686445434482633500,4.396633544921875,-0.01788520078063011,0.000008767828345298767,-0.026100071418285367
1686445434492650800,4.406650634765625,-0.0046294133663177485,0.001158668515831232,-0.021204700592160224
1686445434502667800,4.416667724609375,0.010977321088314056,-0.007858458415418863,-0.015301029506325722
1686445434512684500,4.4266845703125,0.023889994153380393,-0.016793606151640415,-0.012079729372262954
1686445434522700500,4.436700439453125,0.02163666226863861,-0.007734978166222572,-0.007581833431124687
1686445434532717800,4.4467177734375,0.006056815820932388,-0.00926876360476017,-0.009233107769489287
1686445434542734600,4.456734619140625,-0.0075707275152206415,-0.008471329616755247,-0.020907178950309753
1686445434552751900,4.466751953125,-0.026074352455139158,-0.009937164385616778,-0.025173019701242444
1686445434562768000,4.476767822265625,-0.033356326156854625,0.0027617197982966898,-0.01897007340788841
1686445434572784600,4.48678466796875,-0.025559388670325277,0.002933569233864546,-0.01698679063618183
1686445434582801700,4.4968017578125,-0.011789806514978409,-0.009219809896498917,-0.01725508618354797
1686445434592818700,4.506818603515625,-0.020306290447711945,-0.004118541234731674,0.0022317045748233796
1686445434602834700,4.516834716796875,-0.019083470654487608,0.004839256724715232,0.009914660292863845
1686445434612851700,4.526851806640625,-0.023552140501141548,0.010061375287175179,0.003971826240420341
1686445434622868700,4.53686865234375,-0.020457097095251082,0.00788578481376171,0.0022936638951301575
1686445434632884500,4.546884521484375,-0.0199988319337368,-0.0007518412806093692,-0.007870002722740172
1686445434642901500,4.556901611328125,-0.007380173379182815,-0.0049628831043839455,-0.02054828251004219
1686445434652918500,4.56691845703125,-0.005961538752913474,-0.0035068390771746632,-0.01853752720952034
1686445434662935600,4.576935546875,-0.006706219640374184,-0.0036170214533805846,-0.010889642804861068
1686445434672951600,4.58695166015625,-0.010366495713591575,-0.004357318426668644,-0.021712650114297866
1686445434682968600,4.596968505859375,-0.009541735327243804,-0.004723229129612446,-0.02070610342025757
1686445434692985600,4.606985595703125,0.001709142005443573,-0.0037624212734401223,-0.024686112967133522
1686445434703002400,4.61700244140625,0.016882161217927932,-0.0013772797025740145,-0.02234510279893875
1686445434713018400,4.627018310546875,0.027522797697782514,0.008147212228924035,-0.013179799568653106
1686445434723035600,4.63703564453125,0.02400339139997959,0.005059621477127075,0.002301262679696083
1686445434733052400,4.647052490234375,0.02339548863470554,0.002608903856761753,0.010350713622570036
1686445434743068400,4.657068359375,0.015274141499400137,-0.005318710804730654,0.012217676538228988
1686445434753085700,4.667085693359375,-0.007775310176610946,-0.0048494858577847475,0.009487959313392639
1686445434763102500,4.6771025390625,-0.03329085970520973,-0.015456073937565087,-0.009155950880050659
1686445434773119500,4.687119384765625,-0.058303135886788364,-0.013406411398760974,-0.016655951246619224
1686445434783135700,4.6971357421875,-0.06283259600996971,0.002845890950411558,-0.024613047730922696
1686445434793152500,4.707152587890625,-0.05211129550933838,0.005993541326373815,-0.012510522004961966
1686445434803169500,4.71716943359375,-0.03636310675740242,0.003413753966242075,-0.012001403439044952
1686445434813186600,4.7271865234375,-0.00447509958744049,-0.005525485423207283,-0.018849661898612976
1686445434823202600,4.73720263671875,0.022187866410613058,-0.011580365015380083,-0.021072598645091055
1686445434833219600,4.747219482421875,-0.005897825866937637,-0.0020601108675822617,-0.01669745230078697
1686445434843236400,4.757236328125,-0.012022446227073668,-0.0006927680371329188,-0.012492401826381682
1686445434853252600,4.767252685546875,-0.015341946038603782,-0.0061699208065867425,-0.019553426253795622
1686445434863269600,4.77726953125,0.0017839608073234557,-0.010939765556901692,-0.013962474378943442
1686445434873286400,4.787286376953125,0.0033434652090072628,-0.00200008777603507,-0.011212298887968063
1686445434883303700,4.7973037109375,0.0025379940450191494,0.0034647535011172294,0.0071282444447278975
1686445434893319700,4.807319580078125,-0.003505377772450447,0.0021812895618379116,0.02112520561516285
1686445434903336400,4.81733642578125,0.009644611179828642,-0.008225245901197194,0.013155834171175955
1686445434913353500,4.827353515625,0.00900514423251152,-0.019793518619984386,-0.0044137247890233995
1686445434923370500,4.83737060546875,0.0018336451679468154,-0.011747282547503709,-0.01952303111553192
1686445434933386500,4.847386474609375,-0.011870470535755157,-0.003239420312643051,-0.02994213379919529
1686445434943403500,4.857403564453125,-0.015517302605509757,0.00013666852433234452,-0.0314841025441885
1686445434953420500,4.867420654296875,-0.01166471883058548,0.005805763669312,-0.0219376910418272
1686445434963437600,4.8774375,-0.015452420675754546,-0.0069258537404239175,-0.011654781958460807
1686445434973453600,4.88745361328125,-0.000737082102894783,-0.004916559744626283,0.0069517188340425485
1686445434983470300,4.89747021484375,-0.005040916776657104,0.006578501607477664,0.007423427999019622
1686445434993487600,4.907487548828125,-0.008193243327736854,0.015498159513622522,0.010987842482328414
1686445435003503600,4.917503662109375,-0.0050900166153907776,0.010393237590044737,0.010336100575327873
1686445435013520400,4.927520263671875,0.010946341428160667,-0.00008004296626895666,-0.009414894077181815
1686445435023537700,4.93753759765625,0.002093172886967659,-0.017813998707942664,-0.014990648382902145
1686445435033554400,4.947554443359375,-0.00827098473906517,-0.019254845166020093,-0.024924597898125646
1686445435043570400,4.9575703125,-0.005541852036118507,-0.03068170012012124,-0.025940496942400932
1686445435053587500,4.96758740234375,-0.01068564466536045,-0.03147416567206383,-0.016580547922849655
1686445435063604500,4.9776044921875,-0.005245499438047409,-0.016978899590671063,-0.00801087249815464
1686445435073621500,4.98762158203125,-0.0017003741770982741,0.004418108703196049,-0.008531681501865387
1686445435083637500,4.997637451171875,-0.021406360644102094,0.01861293053328991,-0.011498130092024803
1686445435093654500,5.007654541015625,-0.017068623700737952,0.012876432707905769,-0.027072715842723846
1686445435103671600,5.017671630859375,-0.015858663389086723,0.012992314172536134,-0.0025251345634460447
1686445435113687600,5.0276875,-0.028274492847919462,0.009705985978245735,0.021098902130126954
1686445435123704300,5.037704345703125,-0.023384382718801496,0.002197656174749136,0.01414952138364315
1686445435133721600,5.0477216796875,-0.011510989573597908,-0.006472228221409022,-0.009296820655465126
1686445435143738600,5.057738525390625,0.006702712509036064,-0.023657354441285132,-0.021155016231536865
1686445435153754400,5.06775439453125,0.004773790273070335,-0.01439498404469341,-0.018756722918152807
1686445435163771600,5.077771728515625,-0.002982230681180954,-0.012348463311046361,-0.020999533408880233
1686445435173788700,5.08778857421875,-0.030665771898627278,-0.017898608251474796,-0.01980886231958866
1686445435183805400,5.097805419921875,-0.03649813131392002,-0.025586532405577598,-0.013809329643845557
1686445435193821400,5.107821533203125,-0.029407296270132062,-0.025113544598966836,-0.006398176604509353
1686445435203838500,5.11783837890625,-0.016833645901083945,-0.020478249481134116,0.007099018350243568
1686445435213855500,5.12785546875,0.002856558474898338,-0.014188793948106466,0.014231354448199271
1686445435223871500,5.13787158203125,0.005189385336637497,-0.013035130400955676,0.00924304464161396
1686445435233888500,5.147888427734375,0.014381576573848724,-0.0036194326061755417,-0.00417231724858284
1686445435243905500,5.157905517578125,0.00488075777888298,-0.002542377959191799,-0.02026537391543388
1686445435253922600,5.167922607421875,-0.0039028526574373243,0.009285422478616237,-0.04279577015340328
1686445435263938300,5.177938232421875,0.0016886837393045423,0.004939684891887008,-0.059336570587754246
1686445435273955600,5.18795556640625,0.0059749827563762665,0.014986995121091603,-0.051743631240725514
1686445435283972600,5.19797265625,-0.0015454758763313293,0.022684454288519916,-0.03201484842002392
1686445435293989400,5.2079892578125,-0.013662614649534225,0.01909004652574658,-0.02794949867725372
1686445435304005600,5.218005615234375,-0.012521043398976325,0.012403444901295005,-0.018127777364850044
1686445435314022700,5.228022705078125,0.013157587736845016,0.0032302506254985926,-0.0041284781068563455
1686445435324039400,5.238039306640625,0.007355623459815978,-0.005941372747719288,-0.0005225625693798065
1686445435334056700,5.248056640625,-0.002913257098197937,-0.011640607302635907,-0.01516249781847
1686445435344072700,5.25807275390625,-0.007288987964391708,-0.014766776499152182,-0.012382511711120604
1686445435354089500,5.26808935546875,-0.004399111741781234,-0.00868921015113592,-0.026442601245641708
1686445435364106800,5.278106689453125,0.006296469795703887,-0.016160276684165,-0.02267711123228073
1686445435374122500,5.28812255859375,-0.0038192660272121427,-0.013939385764300823,-0.01383095695376396
1686445435384139500,5.298139404296875,0.007490063494443893,-0.020175795935839413,-0.009282792130112648
1686445435394156500,5.308156494140625,0.006170213067531585,-0.01788870791196823,-0.009124386698007582
1686445435404173600,5.318173583984375,-0.009635843351483344,-0.015129180070757866,-0.014897709402441978
1686445435414189600,5.328189453125,-0.025700258445739744,-0.019222440733760594,-0.006853519156575202
1686445435424206600,5.33820654296875,-0.03139993139207363,-0.012368483185768126,-0.005371756166219711
1686445435434223600,5.3482236328125,-0.03790390645861626,-0.014936433977633714,0.015344868648052215
1686445435444240600,5.35824072265625,-0.021255553996562957,-0.007629618095606565,0.0141734867811203
1686445435454256600,5.368256591796875,-0.016532032606005668,0.00025528993532061573,0.005564648389816284
1686445435464273400,5.3782734375,-0.0031768764704465866,0.004312931295670569,0.0024368717581033706
1686445435474290700,5.388290771484375,-0.003959551280736923,-0.0034071780949831007,-0.01064297456741333
1686445435484306700,5.398306640625,-0.023213702327013013,-0.003645663025975227,-0.016596914535760877
1686445435494323500,5.408323486328125,-0.029220249265432357,0.00453720503821969,-0.02557224815189838
1686445435504340700,5.4183408203125,-0.020665771409869194,0.0070073945440351955,-0.020879121899604797
1686445435514357500,5.428357421875,-0.008214286115765572,0.0013710326248779893,-0.011828969481587409
1686445435524373500,5.43837353515625,0.008144143489003181,-0.005342201278172433,-0.009068857118487358
1686445435534390500,5.448390625,0.022553192591667173,-0.004142360501736402,-0.0072141691625118255
1686445435544407600,5.458407470703125,0.02888590274453163,-0.00446618562862277,0.00032031799554824825
1686445435554424600,5.468424560546875,0.02954991961121559,-0.004783727145195007,0.007102525481581688
1686445435564440600,5.478440673828125,0.02593874337673187,-0.009829466227442026,-0.004018003469705582
1686445435574457600,5.48845751953125,0.005534253251552581,-0.0038223347671329975,-0.01936228759586811
1686445435584474600,5.498474609375,-0.012437456768751144,-0.0007115092702209949,-0.022988076877593994
1686445435594490600,5.50849072265625,-0.02162614087462425,0.006966660674847662,-0.01930383540689945
1686445435604507400,5.51850732421875,-0.01945113492310047,0.009061258333921431,-0.028056466183066366
1686445435614524700,5.528524658203125,-0.012086159113049506,-0.006087210959196091,-0.028183891955018043
1686445435624541400,5.53854150390625,-0.011468319475650787,-0.011819471000880002,-0.021446108132600783
1686445435634557200,5.54855712890625,-0.011366028144955635,-0.002531527771614492,-0.02106324629485607
1686445435644574200,5.55857421875,-0.008111410263180732,-0.011494732558540999,-0.015275895065069198
1686445435654591000,5.568591064453125,0.0007312368839979171,-0.02570698044747114,-0.02187280911207199
1686445435664608300,5.578608154296875,0.0064507835745811455,-0.022800883742421865,-0.016938275319337844
1686445435674624300,5.588624267578125,-0.02192073990702629,-0.002885200047492981,-0.01798281593620777
1686445435684641000,5.59864111328125,-0.03158171769976616,0.015057137747853994,-0.0016553659915924071
1686445435694658300,5.608658203125,-0.027860066828131674,0.007473258490115404,0.00234627086520195
1686445435704675000,5.618675048828125,-0.021228665989637373,-0.0017420213617384433,-0.0043570261657238
1686445435714691000,5.628691162109375,-0.027411738538742063,-0.013103957853466271,-0.0008218377768993377
1686445435724708400,5.638708251953125,-0.025610826596617696,-0.017964805355481804,-0.0018646248281002043
1686445435734725000,5.64872509765625,-0.015226210704445837,-0.027004180651158092,-0.009293898046016692
1686445435744741000,5.6587412109375,-0.020244915649294853,-0.023228023113310337,-0.012066285368800162
1686445435754758100,5.668758056640625,-0.015481646770238876,-0.0027672727562487124,-0.000713116705417633
1686445435764775200,5.678775146484375,-0.009339490753412246,0.025923582340218125,0.005133855757117271
1686445435774792200,5.688792236328125,-0.008835048362612724,0.021343853334523735,0.00760346074104309
1686445435784808200,5.69880810546875,0.00611468348801136,0.005311112020164728,0.01016542018353939
1686445435794825200,5.7088251953125,0.021904373294115067,-0.012460691513866185,0.0006856441766023635
1686445435804842200,5.71884228515625,0.0332704014390707,-0.025900566790811715,-0.008455109134316444
1686445435814859300,5.728859375,0.023858429971337317,-0.029127127621881663,-0.026708558705449102
1686445435824875000,5.738875,0.011008885270357132,-0.015863741423003376,-0.041374797439575194
1686445435834892300,5.748892333984375,0.0019961422532796856,-0.00809033094253391,-0.04308803109824657
1686445435844909300,5.758909423828125,-0.004702478602528572,-0.01070124409329146,-0.036057401809096334
1686445435854926000,5.768926025390625,-0.0012988076388835907,0.005429514235444367,-0.027453824114799498
1686445435864942300,5.7789423828125,-0.011268997511267661,0.010951930918730795,-0.024131401693820952
1686445435874959000,5.788958984375,-0.01641688179373741,0.005221972431987524,-0.012846622091531753
1686445435884976000,5.79897607421875,-0.00509644635617733,-0.007154219136200845,-0.0015630115330219267
1686445435894992100,5.8089921875,-0.015048516049981116,-0.005723017289303243,-0.004373977300524711
1686445435905009200,5.819009033203125,-0.024212065714597702,-0.0006787760443985462,-0.009837503403425216
1686445435915026200,5.829026123046875,-0.03092062344253063,-0.004679061194323003,-0.012232289585471153
1686445435925043200,5.839043212890625,-0.02662672564089298,-0.0066708560660481446,-0.018577274698019026
1686445435935059200,5.84905908203125,-0.020108722048997878,-0.009342267232388258,-0.017747838136553763
1686445435945076200,5.859076171875,-0.016637831068038938,-0.0021603929042816163,-0.0244517196893692
1686445435955093200,5.86909326171875,-0.02299041496515274,-0.012681786918640137,-0.017327566897869108
1686445435965110300,5.8791103515625,-0.020201076507568357,-0.010634316336922347,-0.011513327661156654
1686445435975126300,5.889126220703125,-0.0010889642804861068,-0.013744118920527397,-0.00447509958744049
1686445435985143300,5.899143310546875,0.02200958723425865,-0.015004969169199465,-0.0067798693984746925
1686445435995160000,5.90916015625,0.03820493523180485,-0.007898315501771867,0.0070376435518264766
1686445436005176300,5.91917626953125,0.04373217422068119,-0.016476466493867338,0.001322188514471054
1686445436015193300,5.929193359375,0.043219548523426056,-0.009632299687527119,-0.006407528954744338
1686445436025210000,5.939210205078125,0.021163199537992478,-0.0034480946272611615,-0.0012853636354207992
1686445436035227400,5.949227294921875,0.007981061881780624,-0.005889934821426868,-0.010036240845918655
1686445436045243100,5.9592431640625,-0.01669043803811073,-0.0015232640445232391,-0.01305938805937767
1686445436055260200,5.96926025390625,-0.026839491608738896,0.015200528273917734,-0.009628244566917419
1686445436065277200,5.979277099609375,-0.032711598512530325,0.024591310823149977,-0.02195639574229717
1686445436075294200,5.989294189453125,-0.03918225583136081,0.019788732847012578,-0.03426642673909664
1686445436085310200,5.999310302734375,-0.025315058520436286,0.026134156350977718,-0.038650340911746024
1686445436095327200,6.0093271484375,-0.019510171633958816,0.01895385292544961,-0.02729775677025318
1686445436105344300,6.01934423828125,-0.0009463409394025802,0.002542560622282326,-0.019798925447463988
1686445436115360300,6.0293603515625,-0.003988192853331566,-0.021025252372026442,-0.015500351470708846
1686445436125377300,6.039377197265625,-0.009933364993333816,-0.03257668355386704,-0.016816694766283034
1686445436135394000,6.04939404296875,-0.038328853872418404,-0.0405370314411819,-0.001087210714817047
1686445436145411300,6.059411376953125,-0.06258300516307354,-0.04767974280267954,-0.00533259319961071
1686445436155427300,6.06942724609375,-0.06472878502011299,-0.03384279449954629,-0.0040916532278060915
1686445436165444000,6.079444091796875,-0.07077098779380321,-0.011754406408034265,-0.011667641440033912
1686445436175461400,6.08946142578125,-0.06656769088506698,0.011124036082625388,-0.01751402938067913
1686445436185478100,6.09947802734375,-0.034251229169964786,0.011640315041691064,-0.011982114216685295
1686445436195494100,6.109494140625,0.021501053190231323,0.017893274489231406,-0.0038069910675287244
1686445436205511200,6.11951123046875,0.020429040044546126,0.013643215829320252,0.012327566653490066
1686445436215528200,6.129528076171875,0.027541502398252486,0.019767799656838177,0.013016133439540863
1686445436225545200,6.139545166015625,0.03151742029190063,0.015000292994081973,0.011312836652994155
1686445436235561200,6.149561279296875,0.03256488351821899,0.01346416946798563,-0.0033288521617650985
1686445436245578200,6.159578125,0.031984453281760215,-0.0058219841517508026,-0.010941080731153487
1686445436255595300,6.16959521484375,0.027115970462560653,-0.01842676031142473,-0.014794249027967452
1686445436265611300,6.179611328125,-0.013792378509044646,-0.03205956434458494,-0.014753917017579077
1686445436275628000,6.1896279296875,-0.04014730147123337,-0.02836129434853792,-0.024699556970596313
1686445436285645300,6.199645263671875,-0.046695700201392173,-0.0355501464067027,-0.029042554610967636
1686445436295662000,6.209662109375,-0.030973230412602422,-0.026854944906197487,-0.026499299868941305
1686445436305678000,6.219677978515625,-0.012010755789279936,-0.01665708375778049,-0.017117723539471625
1686445436315695400,6.2296953125,-0.0031868133425712584,-0.0037761210052296517,-0.006942366483807564
1686445436325712100,6.239712158203125,0.018745617002248763,0.005524754770845175,0.0013765490502119064
1686445436335729200,6.249729248046875,0.019359949508309365,0.004322137515433132,-0.012656652477383613
1686445436345745200,6.2597451171875,0.024421909072995185,0.0012685586310923098,-0.028082185146212576
1686445436355762200,6.26976220703125,0.026382980012893676,0.006141717625409365,-0.026584640064835546
1686445436365779200,6.279779296875,0.0029278701454401013,0.01344433225635439,-0.0297018953025341
1686445436375795200,6.289795166015625,-0.014491466689109802,0.01580868676751852,-0.02887596587240696
1686445436385812200,6.299812255859375,-0.04315291302800178,0.011052432151138781,-0.03374795582294464
1686445436395829200,6.309829345703125,-0.05589724378883838,0.006203859608806669,-0.025683891832828522
1686445436405846000,6.319845947265625,-0.05969897415935993,0.012875007935799657,-0.015262451061606406
1686445436415862000,6.329862060546875,-0.04664952297210693,0.004746610005199909,-0.01775543692111969
1686445436425879300,6.33987939453125,-0.03455518055260181,-0.0009543781153857708,-0.023155250138044356
1686445436435896000,6.34989599609375,-0.03109013479053974,-0.02150233183186501,-0.020138532665371894
1686445436445913300,6.359913330078125,-0.00889583863914013,-0.03267649066653103,-0.01814239041209221
1686445436455929300,6.369929443359375,0.010689151796698569,-0.03540971502270549,-0.027142273947596548
1686445436465946000,6.379946044921875,0.031472412106394766,-0.030605529611371456,-0.03658697864115238
1686445436475963100,6.389963134765625,0.034306174227595326,-0.013778788375109433,-0.024323124873638153
1686445436485980200,6.399980224609375,0.03366553823649883,-0.015030505469255148,-0.020767478218674657
1686445436495996200,6.40999609375,0.02206219420433044,-0.00970467080399394,-0.0016997896552085876
1686445436506013200,6.42001318359375,-0.0024900632500648497,-0.007892360685020685,0.010107552516460418
1686445436516030200,6.4300302734375,-0.021337387061119078,0.003466945458203554,0.01132569613456726
1686445436526046200,6.440046142578125,-0.02763619494438171,0.0007530103243887424,0.008193243327736854
1686445436536063200,6.450063232421875,-0.011076689809560775,0.01056216441616416,0.004120294800400734
1686445436546080000,6.460080078125,-0.010534253495931624,0.0041352001085877416,0.0009451718956232071
1686445436556097300,6.47009716796875,-0.016960487151145932,0.010741466505825518,-0.008451017481088638
1686445436566113300,6.48011328125,-0.024935119292140005,0.006433722841925919,-0.01340834762752056
1686445436576130000,6.490130126953125,-0.012072715109586714,-0.010567863504588604,-0.019390344646573066
1686445436586147300,6.500147216796875,-0.0005336684852838516,-0.013256079675257205,-0.03673778528869152
1686445436596164400,6.510164306640625,-0.0017827917635440825,-0.011132803910970688,-0.019609540355205533
1686445436606180000,6.52018017578125,-0.008418284255266188,-0.009258826732635497,-0.010407996767759322
1686445436616197000,6.530197021484375,-0.0024456395864486695,0.009594488427788019,-0.0037269115686416623
1686445436626214100,6.540214111328125,-0.011200023928284645,0.006648059712350368,-0.001294131463766098
1686445436636230400,6.55023046875,-0.0015934066712856292,0.00047901568859815593,-0.006226327168941497
1686445436646247700,6.56024755859375,0.0034703064590692516,0.0023301965132355687,-0.01182020165324211
1686445436656264400,6.570264404296875,0.006799743142724037,0.0016609554821625351,-0.007325812843441963
1686445436666281500,6.580281494140625,-0.00199029703438282,0.0029879663022235035,-0.012274959683418274
1686445436676297500,6.59029736328125,-0.001827215427160263,0.0016581424705684185,-0.018288520884513854
1686445436686314500,6.600314453125,-0.0031797990798950195,0.004598872097581625,-0.036274259430170055
1686445436696331500,6.61033154296875,-0.012232289585471153,0.008731916781701148,-0.03367372154295444
1686445436706348500,6.6203486328125,-0.02009644708931446,0.002903064497746527,-0.022522212931513786
1686445436716364500,6.630364501953125,-0.035004677885770795,-0.01432882347330451,-0.024538228929042814
1686445436726381600,6.640381591796875,-0.034765608432888985,-0.014349574000388382,-0.01621463721990585
1686445436736398300,6.6503984375,-0.015841127732396126,-0.014893910010159014,-0.0014899462968111037
1686445436746415600,6.66041552734375,-0.020097031611204148,-0.025194208619743585,0.006177811852097511
1686445436756431600,6.670431640625,-0.02169979063272476,-0.03088949765190482,0.00452303038239479
1686445436766448400,6.680448486328125,-0.042300680112838746,-0.0181895905546844,-0.00893500160574913
1686445436776465700,6.690465576171875,-0.03782908765673637,-0.018410247568041084,-0.031710312515497205
1686445436786481700,6.700481689453125,-0.03263561066687107,-0.00715776280015707,-0.03740647833049297
1686445436796498400,6.71049853515625,-0.021790976047515866,0.002709989611059427,-0.0384685546040535
1686445436806515500,6.720515380859375,-0.011347323444485663,0.01267579556927085,-0.02076397108733654
1686445436816532700,6.73053271484375,0.012577157500386238,0.011704502851702272,-0.007855389675498009
1686445436826548500,6.740548583984375,0.03406944286227226,-0.00006838906109333039,0.015910101315379142
1686445436836565500,6.7505654296875,0.03393383378386497,0.0006869593508541583,0.025482816302776334
1686445436846582500,6.76058251953125,0.0024438860207796095,0.00042323038075119254,0.02296294243633747
1686445436856599600,6.770599609375,-0.008642740660905838,-0.00458601261600852,0.0019102175354957578
1686445436866615600,6.780615478515625,-0.020184709894657135,-0.005702595555782318,-0.019778467181324956
1686445436876632600,6.790632568359375,-0.0334054259955883,-0.01863130644019693,-0.048994040271639824
1686445436886649600,6.800649658203125,-0.0437666610121727,-0.009109335259348154,-0.06049801558256149
1686445436896665600,6.81066552734375,-0.039838089391589164,-0.00022080314382910728,-0.05888064351379871
1686445436906682400,6.820682373046875,-0.020974983489513398,-0.003955605757981539,-0.04527765009701252
1686445436916699600,6.83069970703125,0.007766542348265648,-0.00736508540790528,-0.030609657797217367
1686445436926716700,6.840716552734375,0.025358897662162778,-0.00412350967079401,-0.0017874679386615752
1686445436936732400,6.850732421875,0.028724574702978133,0.0010384031370282174,0.015965046373009682
1686445436946749400,6.86074951171875,0.030536592561006545,0.012063801150768995,0.014680851781368255
1686445436956766700,6.8707666015625,0.02959785040616989,0.000020202537812292575,0.019948563051223753
1686445436966783500,6.880783447265625,0.04255377809107303,0.0003110021779313683,0.017852467554807662
1686445436976799500,6.890799560546875,0.029360534518957135,-0.007844576020538806,0.0027799861073493958
1686445436986816800,6.900816650390625,0.017365560820698737,-0.010504552477411925,-0.029944471886754035
1686445436996833500,6.91083349609375,0.014583821147680281,-0.006464227578043938,-0.028185645520687103
1686445437006850600,6.9208505859375,-0.003245265531539917,-0.012668050654232502,-0.03072247052192688
1686445437016866600,6.930866455078125,-0.023221885633468626,-0.020400544602423906,-0.02748947995007038
1686445437026883600,6.940883544921875,-0.043650925678014756,-0.009748948337137698,-0.0311398191511631
1686445437036900600,6.950900634765625,-0.045482817280292506,-0.013838263477385043,-0.035056115812063214
1686445437046916600,6.96091650390625,-0.036951135778427124,-0.005440437488257885,-0.028154081338644027
1686445437056933600,6.97093359375,-0.04500234028697014,-0.0024373101495206353,-0.008494272100925446
1686445437066950700,6.98095068359375,-0.04757657468914985,0.0024252178529277444,0.007197802549600601
1686445437076967400,6.990967529296875,-0.04471475551724434,0.009623422261327504,0.022065116813778877
1686445437086983400,7.0009833984375,-0.03559387595057487,0.021911533687263725,0.024499065962433814
1686445437097000700,7.011000732421875,-0.006284779357910156,0.022972440917044878,0.006125789403915405
1686445437107017500,7.021017578125,0.018456278666853905,0.019396080267615617,-0.009339490753412246
1686445437117034500,7.031034423828125,0.03465980997085571,0.011529694274067878,-0.019135493102669716
1686445437127050800,7.04105078125,0.025917700588703154,-0.002307400159537792,-0.015583938100934027
1686445437137067500,7.051067626953125,0.007346271109580993,-0.0071906421564519405,-0.021887422159314156
1686445437147084500,7.06108447265625,-0.010128595304489136,-0.021851766324043273,-0.02918517795205116
1686445437157101600,7.0711015625,-0.026688100439310074,-0.02862330628558993,-0.03346387818455696
1686445437167117600,7.08111767578125,-0.04678630109429359,-0.03148760967552662,-0.033038346248865126
1686445437177134600,7.091134521484375,-0.04147124355137348,-0.034929822551272804,-0.021242694514989852
1686445437187151400,7.1011513671875,-0.009226678028702735,-0.029184447299689054,-0.019487375280261038
1686445437197167600,7.111167724609375,0.0076589903205633155,-0.011791377417556941,-0.004985971719026565
1686445437207184600,7.1211845703125,0.00793722274005413,0.015652582890354098,-0.00007364975810050964
1686445437217201400,7.131201416015625,0.0006324526846408844,0.025905279498547314,0.004134323325753211
1686445437227218700,7.14121875,0.011309329521656036,0.023689831938780843,0.009113280782103538
1686445437237234700,7.151234619140625,0.0059808279752731315,0.01798383884951472,0.021139234140515325
1686445437247251500,7.16125146484375,-0.008587795603275298,0.01086231640651822,0.024217910933494565
1686445437257268500,7.1712685546875,-0.026813188123703,0.012178367441147565,0.002110708543658256
1686445437267285500,7.181285400390625,-0.028406010273098945,0.013433920460194348,-0.011289455777406691
1686445437277301500,7.191301513671875,-0.02937397852241993,0.0024412922048941254,-0.010588029509782791
1686445437287318500,7.201318603515625,-0.033687165546417236,-0.02002192054837942,-0.021182488760352135
1686445437297335600,7.21133544921875,-0.03548983105421066,-0.03253068898767233,-0.03209492791891098
1686445437307351600,7.2213515625,-0.028279753544926643,-0.026225159102678298,-0.03412847957313061
1686445437317368600,7.23136865234375,-0.014471592944860457,-0.02903948587104678,-0.01865852324068546
1686445437327385300,7.24138525390625,0.009821721312403678,-0.020808248620480297,-0.008242343166470528
1686445437337402600,7.251402587890625,0.011331541353464127,-0.02676598798111081,-0.003705868780612945
1686445437347418600,7.261418701171875,0.004086392530798912,-0.021223368760012087,-0.0056873979866504665
1686445437357435400,7.271435302734375,0.022474282136559484,-0.006373736282996833,-0.007177928805351257
1686445437367452700,7.28145263671875,0.019845687198638915,0.006456044271588325,-0.004851531684398651
1686445437377469400,7.291469482421875,0.016370120042562483,0.005456511840224266,-0.024479776740074156
1686445437387485400,7.3014853515625,0.00858604203760624,0.0035504224905744193,-0.0336187764853239
1686445437397502500,7.31150244140625,-0.009760931035876273,0.0031472119845449924,-0.03971650883853435
1686445437407519500,7.32151953125,-0.026104163071513174,0.00330415611192584,-0.051883916494250296
1686445437417536500,7.33153662109375,-0.042539165043830866,0.008328121753782034,-0.0466115290492773
1686445437427552500,7.341552490234375,-0.03903729440271854,0.008328852406144142,-0.02888064204752445
1686445437437569500,7.351569580078125,-0.05525017805695533,0.010557342110574245,-0.01706745465695858
1686445437447586600,7.361586669921875,-0.02998480389714241,-0.0012232581846415996,-0.01301321083009243
1686445437457602600,7.3716025390625,0.008048281899094581,-0.0028137057138606903,-0.0007037643551826477
1686445437467619300,7.381619384765625,0.018849077376723287,0.004064655623026192,0.006354921984672546
1686445437477636600,7.39163671875,0.021541969722509383,0.002225895888544619,0.002743161228299141
1686445437487653400,7.4016533203125,0.008772504520416259,0.002129997766017914,-0.01364274090528488
1686445437497669400,7.41166943359375,0.0018885902255773544,-0.00474134930819273,-0.025939912420511243
1686445437507686700,7.421686767578125,0.006157938107848167,-0.010649696569144725,-0.036197687062621116
1686445437517703400,7.431703369140625,-0.0003951367974281311,-0.019823475366830826,-0.04426175105273723
1686445437527720400,7.441720458984375,-0.012848960179090499,-0.02001826728656888,-0.03158990100622177
1686445437537736700,7.45173681640625,-0.018719898039102553,-0.0160502404384315,-0.019949732095003128
1686445437547753500,7.46175341796875,-0.012222352713346481,-0.014284801668487489,-0.0037128830432891845
1686445437557770500,7.4717705078125,-0.011271335598826407,-0.012999474565684795,0.0065343702048063276
1686445437567786500,7.481786376953125,-0.013562076884508133,-0.010814933600835502,0.019055998125672338
1686445437577803500,7.491803466796875,-0.02027940244078636,-0.004113134407252073,0.019202713119983672
1686445437587820500,7.501820556640625,-0.018826281023025512,0.008008534410595894,0.01241933659017086
1686445437597837600,7.511837646484375,-0.012971709775924682,0.004116203147172927,-0.00042553193569183347
1686445437607853600,7.521853515625,-0.03016249855160713,0.017014555425941942,-0.01162497134208679
1686445437617870600,7.53187060546875,-0.022003742015361785,0.008122662309557199,-0.019144260931015015
1686445437627887400,7.541887451171875,-0.012988660910725593,0.006306698928773403,-0.01711538545191288
1686445437637904100,7.551904052734375,-0.006176642808318138,-0.014912760841101408,-0.016977438285946844
1686445437647920000,7.561920166015625,0.00127834937274456,-0.018017887249588964,-0.017553776869177817
1686445437657937200,7.571937255859375,0.015661679512262345,-0.017046959858201444,-0.009279284998774527
1686445437667954000,7.581953857421875,0.014405541971325873,-0.013326806823909281,-0.012330489262938499
1686445437677971200,7.59197119140625,-0.003452186280488968,0.0004065349742770195,-0.011497545570135116
1686445437687987200,7.6019873046875,-0.014776713371276855,-0.000011836568266153334,-0.010411503899097441
1686445437698004000,7.61200390625,-0.02707154679894447,0.0010720131456851958,-0.026608605462312696
1686445437708021200,7.622021240234375,-0.023026655322313308,-0.005799626189470291,-0.030936990055441854
1686445437718037200,7.632037353515625,-0.023244097465276718,-0.001240063188970089,-0.029028526085615156
1686445437728054000,7.642053955078125,-0.01997662010192871,0.0008603066237643361,-0.03111234662234783
1686445437738071000,7.652071044921875,-0.0030459435671567913,0.004372698658891022,-0.019838672935962677
1686445437748088000,7.662088134765625,0.01773848578631878,-0.003799209619872272,-0.006986790147423744
1686445437758104000,7.67210400390625,0.018868951120972633,-0.0022810966745018956,-0.009022095367312431
1686445437768121000,7.68212109375,0.026484102299809454,-0.00024126140996813772,-0.005051438170671462
1686445437778138000,7.69213818359375,0.005715455037355423,0.002521481301635504,-0.00026829554736614226
1686445437788155100,7.702155029296875,-0.02620060918331146,-0.01077346907928586,-0.007799275574088096
1686445437798171100,7.712171142578125,-0.033930326652526856,-0.03554126898050308,-0.023456278911232947
1686445437808188000,7.72218798828125,-0.02852817534804344,-0.028311317726969716,-0.031062077739834784
1686445437818205200,7.732205078125,-0.04139759379327297,-0.0057893970564007755,-0.02460778703391552
1686445437828221200,7.74222119140625,-0.04218436025679111,0.018205701439268886,-0.001110007068514824
1686445437838238000,7.752238037109375,-0.02630874573290348,0.007237440440244972,0.015241992795467375
1686445437848255200,7.762255126953125,-0.008594809865951538,-0.012426789244264363,0.012159808871150016
1686445437858272000,7.77227197265625,0.006879822641611099,-0.010886720195412635,-0.0029015666604042052
1686445437868288000,7.7822880859375,-0.005389876344799995,-0.009146561997197569,-0.0036684593796730038
1686445437878305300,7.79230517578125,-0.019368132814764974,0.002197838837839663,0.005531915163993835
1686445437888322000,7.802322021484375,-0.021955226698517797,0.003129530197381973,-0.0024304420173168182
1686445437898339000,7.812339111328125,-0.005434884530305862,0.005086801744997501,-0.012815057909488677
1686445437908355000,7.82235498046875,-0.0069838675379753105,0.0025524609617888928,-0.013117840248346328
1686445437918372000,7.8323720703125,0.005323240849375724,0.002429565234482288,0.002384264788031578
1686445437928389000,7.84238916015625,0.016147417202591895,-0.011296908431500196,-0.008898176726698875
1686445437938405000,7.852405029296875,0.012277882292866707,-0.014160152375511824,-0.023651509222388265
1686445437948422100,7.862422119140625,0.0013373860836029053,-0.0069976038023829455,-0.0399321974158287
1686445437958439200,7.872439208984375,0.0016273089408874511,-0.0000865092396736145,-0.05095861834287643
1686445437968456000,7.8824560546875,0.015901333487033844,0.013579758671671152,-0.040972646379470824
1686445437978472000,7.892471923828125,0.012991583520174026,-0.001790828939527273,-0.016902034962177275
1686445437988489200,7.9024892578125,0.022301848179101944,-0.021187895587831733,-0.019835165804624556
1686445437998506000,7.912506103515625,0.023021979147195816,-0.024267997152917085,-0.004773790273070335
1686445438008523000,7.92252294921875,0.014050737184286117,-0.010852817925810812,0.005823007065057754
1686445438018539300,7.932539306640625,-0.01497603533565998,-0.0026924539543688297,-0.003328267639875412
1686445438028556000,7.94255615234375,-0.03837853823304176,-0.00553450897987932,-0.024806524476408957
1686445438038573000,7.952572998046875,-0.0591249736636877,-0.005819499933719634,-0.015461773025989532
1686445438048590000,7.962590087890625,-0.05265431634485721,-0.011250438941270112,-0.022445640563964843
1686445438058606000,7.972606201171875,-0.030436054795980452,-0.000682575436681509,-0.030276480320096014
1686445438068623000,7.982623046875,-0.021351415586471557,-0.0011440554685890674,-0.020571663385629654
1686445438078639900,7.992639892578125,-0.006577040302753448,-0.013862959527224302,-0.025068390282988545
1686445438088657200,8.0026572265625,0.01381575938463211,-0.027256694107502696,-0.014555179575085639
1686445438098673200,8.012673095703125,0.023718144717812535,0.0039028526574373243,-0.0003653261810541153
1686445438108690000,8.02268994140625,0.006278349617123604,0.0711274365486577,0.03405249172747135
1686445438118707200,8.032707275390624,-0.05008358907401562,0.0952982934700325,0.09424363331794738
1686445438128723200,8.04272314453125,-0.06061375091671943,-0.01003547366093844,0.07088730764985084
1686445438138740000,8.052739990234375,-0.021844167539477346,-0.08805120841860771,0.009703647890686989
1686445438148757000,8.062757080078125,-0.0026566519886255264,-0.08885138235297053,-0.035026889717578884
1686445438158774000,8.07277392578125,-0.03783259478807449,-0.04967500827312469,-0.07497896087765693
1686445438168790000,8.0827900390625,-0.04862286887168884,0.008002543061226606,-0.07013678154349327
1686445438178807000,8.09280712890625,0.001619125634431839,0.013025047398358582,-0.0524152468919754
1686445438188824000,8.102823974609375,0.048233577293157574,0.0014255027584731577,-0.023548633369803427
1686445438198841000,8.112841064453125,0.06645955433547496,-0.0017779694579541682,0.009635258829593658
1686445438208857000,8.122857177734375,0.05166939696073532,0.007620558006316423,0.02039630681872368
1686445438218873900,8.132873779296874,0.015758710145950316,-0.000044862055033445356,0.016153262421488762
1686445438228891100,8.14289111328125,-0.008927402821183204,-0.02262275069653988,-0.00916939488351345
1686445438238908200,8.152908203125,-0.035540099936723704,-0.044642859324812885,-0.03958732950091362
1686445438248924000,8.162923828125,-0.06264204187393188,-0.05971577916368842,-0.061223991769552226
1686445438258941200,8.172941162109375,-0.06266308466196059,-0.02102320654541254,-0.057573652568459505
1686445438268958200,8.182958251953124,-0.05271452209949493,0.012653145346045494,-0.050828269961476324
1686445438278974000,8.192973876953126,-0.04624444930255413,0.02408142507225275,-0.03987900592386722
1686445438288991000,8.202990966796875,-0.03136544460058212,0.024556056846678255,-0.005722469300031662
1686445438299008300,8.21300830078125,-0.002979308071732521,0.020687837111204862,0.014865560698509216
1686445438309025000,8.22302490234375,-0.0010158990442752838,0.010057904688455164,0.008294365614652632
1686445438319041000,8.233041015625,0.0004506663769483566,-0.0018325857220217584,0.0003355155646800995
1686445438329058000,8.24305810546875,0.01965630210638046,-0.012294541166722774,-0.03536649693548679
1686445438339075000,8.253074951171875,0.03301379632949829,-0.026208207967877387,-0.030843466553092003
1686445438349092000,8.263092041015625,0.0334141938239336,-0.024312895740568635,-0.0071212301820516586
1686445438359108000,8.273108154296875,0.02104804872572422,-0.020199761333316562,0.028059388792514798
1686445438369125000,8.283125,0.020759294912219048,-0.033869645973853765,0.034438276174664495
1686445438379142100,8.29314208984375,0.012138181561231613,-0.01637611139193177,0.022148703444004058
1686445438389158000,8.303157958984375,-0.016287702456116677,0.0007096461066976189,0.009233692291378975
1686445438399175200,8.313175048828125,-0.0386468337804079,0.015102766987867652,-0.021509236496686936
1686445438409192200,8.323192138671875,-0.04122457531392574,0.02975716915372759,-0.014473346510529518
1686445438419209000,8.333208984375,-0.022878186762332914,0.02532967156767845,0.02172550959587097
1686445438429225000,8.343224853515625,-0.0013853168785572052,0.023605039732158183,0.029493805509805678
1686445438439242200,8.3532421875,0.01241407589316368,0.02689399827495217,0.01564823550879955
1686445438449259000,8.363259033203125,0.022191958063840864,0.01895209935978055,0.013783026158809662
1686445438459276000,8.373276123046875,0.029473931765556335,0.010933664609678088,-0.0010772738426923752
1686445438469292300,8.383292236328124,0.019445289704203606,-0.0011511793291196226,-0.01622340504825115
1686445438479309000,8.39330908203125,0.0009188684105873108,-0.0054850072823464865,-0.027312369817495345
1686445438489326000,8.403326171875,-0.02330488774180412,-0.024868885655514896,-0.034220834031701085
1686445438499342000,8.413342041015625,-0.02934825955927372,-0.03410769251342863,-0.04867489131987095
1686445438509359000,8.423359130859374,-0.030298107630014417,-0.04312017980217933,-0.05173661697804927
1686445438519376100,8.433376220703124,-0.02666471956372261,-0.03727393799200654,-0.03375555460751056
1686445438529393200,8.44339306640625,-0.030486323678493497,-0.025777707596123217,-0.029497897163033485
1686445438539409200,8.4534091796875,-0.020564064601063727,-0.01978354521524161,-0.022861235627532003
1686445438549426200,8.46342626953125,-0.0009662146836519241,-0.021387071421742437,-0.019421324306726453
1686445438559443000,8.47344287109375,0.01976268509030342,-0.018273177184909582,-0.021444939088821408
1686445438569460200,8.483460205078124,0.019269933137297628,0.0004687500229105353,-0.019863807377219198
1686445438579476200,8.493476318359376,-0.011788637471199036,0.0068806994244456285,-0.030291677889227864
1686445438589493000,8.503492919921875,-0.03639759354889393,0.0028036957764998077,-0.03828793734014034
1686445438599510300,8.51351025390625,-0.05211188003122806,-0.0010107479451224206,-0.043077509704232214
1686445438609527000,8.523527099609375,-0.048023149412870406,-0.012651245649904013,-0.040327334213256835
1686445438619543000,8.53354296875,-0.0461497567564249,-0.0016784546062350273,-0.02304360645711422
1686445438629560000,8.54356005859375,-0.03855331027805805,0.01175930177886039,-0.011837737309932707
1686445438639577600,8.55357763671875,-0.01737023699581623,0.012516659484803676,-0.003803483936190605
1686445438649594600,8.5635947265625,0.0041167876690626146,-0.003322970410250127,-0.007597031000256538
1686445438659610600,8.573610595703125,0.025416180807352064,-0.007138619708269834,0.004127893584966659
1686445438669627400,8.58362744140625,0.04290098409354687,-0.00742456051018089,-0.001463058289885521
1686445438679644700,8.593644775390626,0.028282676154375075,-0.00413505397811532,-0.00339022696018219
1686445438689660700,8.60366064453125,0.015591536885499952,-0.00018397826477885244,-0.008632803788781165
1686445438699677400,8.613677490234375,0.025718963146209715,0.011818009696155787,-0.01005085389316082
1686445438709694700,8.62369482421875,0.013861352092027664,0.001992342860996723,-0.01279576868712902
1686445438719711500,8.63371142578125,-0.0006441431224346161,-0.009140314919501543,-0.015479893204569816
1686445438729727500,8.6437275390625,0.00012801029384136198,-0.01796261339839548,-0.015448913544416427
1686445438739744500,8.65374462890625,-0.001613280415534973,-0.0009071779727935791,-0.01016542018353939
1686445438749761500,8.663761474609375,-0.01841419309079647,0.013278912561573087,0.013881810358166694
1686445438759778600,8.673778564453125,-0.01651449694931507,0.0116128790454939,0.017581249397993087
1686445438769794600,8.683794677734374,-0.0008604162216186523,0.0022654607139527797,0.012115969729423522
1686445438779811600,8.6938115234375,0.0016904373049736023,-0.006573825432360172,0.00042027123868465424
1686445438789828600,8.70382861328125,-0.0028068741142749784,-0.008417845863848925,-0.0036620296388864514
1686445438799844600,8.7138447265625,-0.020311551144719123,-0.00475201683267951,-0.00144610715508461
1686445438809861400,8.723861328125,-0.03993512002527713,-0.0008463876962661743,-0.013290858727693557
1686445438819878700,8.733878662109374,-0.04947276369929313,-0.01998115014657378,-0.03163958536684513
1686445438829895400,8.7438955078125,-0.033164602977037425,-0.023691256710886954,-0.040294016465544695
1686445438839911400,8.753911376953125,-0.021509236496686936,-0.012053681615553796,-0.031164953592419622
1686445438849928700,8.7639287109375,-0.02653086405098438,0.002857325659878552,-0.005486322456598282
1686445438859945500,8.773945556640625,-0.013093290328979492,-0.00009147767573595046,0.0031616789013147353
1686445438869962500,8.78396240234375,0.0031108254969120022,-0.01000394601151347,0.0021539631634950635
1686445438879978500,8.793978515625,-0.01443184545636177,-0.0068226856268942355,-0.006873392900824547
1686445438889995500,8.80399560546875,-0.012380173623561858,-0.0004417524181306362,-0.006342062503099441
1686445438900012500,8.814012451171875,-0.019622399836778638,-0.003366992215067148,-0.026165537869930266
1686445438910029600,8.824029541015625,-0.028279753544926643,-0.0014476780576631427,-0.03018646394908428
1686445438920045600,8.834045654296874,-0.01648234824538231,-0.004474807326495647,-0.03664192369878292
1686445438930062600,8.8440625,-0.00018470891714096068,-0.0106846217520535,-0.039050153884291644
1686445438940079400,8.854079345703125,0.0013935001850128173,-0.006855272722244263,-0.031184827336668965
1686445438950096600,8.8640966796875,0.0064256491333246225,-0.0017593743553385138,-0.026309914776682854
1686445438960112600,8.874112548828125,0.006465396621823311,-0.0013544468162581323,-0.014615385329723358
1686445438970129400,8.88412939453125,-0.0006008885025978088,-0.008321801610849798,-0.013469722425937651
1686445438980146700,8.894146728515626,-0.0044803602844476695,-0.012559914104640484,-0.015738251879811285
1686445438990162700,8.90416259765625,-0.007409399473667144,-0.022118454436212777,-0.0022398878812789915
1686445439000179500,8.914179443359375,-0.018109657186269758,-0.002105155585706234,-0.002339256602525711
1686445439010196500,8.924196533203125,-0.013056465449929236,-0.001247369712591171,-0.001786298894882202
1686445439020213500,8.934213623046874,-0.007469605228304863,-0.002333228720538318,-0.002329319730401039
1686445439030229500,8.9442294921875,0.005875614035129547,-0.010163228226453064,0.0011415712505578994
1686445439040246500,8.95424658203125,0.0003039513826370239,-0.007886625063978135,0.004224924218654632
1686445439050263600,8.964263671875,-0.009276946911215781,0.00027359277699142695,0.008235913425683975
1686445439060280600,8.974280517578125,-0.006460135924816131,0.0018827450066804885,-0.0037841947138309477
1686445439070296600,8.984296630859374,-0.025262451550364492,0.0007271086981520057,-0.007961772659420966
1686445439080313300,8.994313232421876,-0.03726970020830631,-0.004210749562829732,-0.011167290702462196
1686445439090330600,9.00433056640625,-0.04476385535597801,0.00190685653463006,-0.02272328846156597
1686445439100347400,9.014347412109375,-0.03424012325406074,0.003384381741285324,-0.016086042404174803
1686445439110363400,9.02436328125,-0.030569325786828992,0.0017966741584241389,-0.008058218771219252
1686445439120380700,9.034380615234374,-0.012827917391061781,0.009546119241416453,-0.004207388561964035
1686445439130397400,9.0443974609375,0.0038368016839027404,-0.007271415775083005,0.0021738369077444076
1686445439140413400,9.054413330078125,0.026997897040843963,-0.00806581755578518,0.011133972954750061
1686445439150430500,9.064430419921875,0.020368249768018723,-0.0031393209390342233,0.000024549919366836548
1686445439160447500,9.074447509765625,0.01119067157804966,-0.012672872959822416,-0.01096796873807907
1686445439170464500,9.084464599609374,-0.006882160729169845,-0.014824059644341468,-0.017865327036380767
1686445439180480500,9.09448046875,-0.017362638211250305,-0.008066255947202443,-0.02899579285979271
1686445439190497500,9.10449755859375,-0.03836684779524803,-0.0073546005465090275,-0.027590017715096473
1686445439200514600,9.1145146484375,-0.04446867180168628,-0.004518171544186771,-0.03460661847889423
1686445439210531600,9.124531494140625,-0.029902970832586286,-0.00475917722582817,-0.051173722398281093
1686445439220547300,9.13454736328125,0.004074117571115494,-0.005542728818953037,-0.034109774872660634
1686445439230564600,9.144564697265626,0.008570259946584701,0.006873831292241811,-0.006706219640374184
1686445439240581600,9.15458154296875,0.004760930791497231,-0.0007695230677723884,-0.008875964894890785
1686445439250598400,9.164598388671875,0.01906301238834858,-0.010302015642635524,-0.014047814574837683
1686445439260614700,9.17461474609375,0.003039513826370239,-0.017219722609221933,-0.014395020577311514
1686445439270631400,9.18463134765625,-0.00776946495771408,-0.010413220932148396,-0.01699848107397556
1686445439280648400,9.1946484375,-0.02815174325108528,-0.009625468087941407,-0.01346153911948204
1686445439290664400,9.20466455078125,-0.03949439052045345,-0.01630724740680307,-0.020939327654242515
1686445439300681500,9.214681396484375,-0.043460956063866615,-0.020548976629786192,-0.015635376027226446
1686445439310698500,9.224698486328125,-0.02839139722585678,-0.02459901920557022,-0.020168927803635595
1686445439320715500,9.234715576171874,-0.009576806640625,-0.017029460734128952,-0.012900398105382918
1686445439330731500,9.2447314453125,-0.011661211699247359,-0.0050436932556331155,-0.012918518283963202
1686445439340748500,9.25474853515625,-0.027957681983709334,-0.0008795593135058879,-0.013951368463039397
1686445439350765600,9.264765625,-0.01825461861491203,0.004607932186871767,-0.006631985360383987
1686445439360782600,9.274782470703125,-0.00374444722533226,-0.009090484428405762,0.009220248287916183
1686445439370798600,9.284798583984376,-0.0010410334855318068,-0.007509791108220815,0.009658055183291435
1686445439380815600,9.294815673828126,-0.00947743791937828,0.004272562752664089,0.015270634368062018
1686445439390832400,9.304832275390625,-0.014905308187007903,0.014846125345677136,0.0066834232866764065
1686445439400849700,9.314849609375,-0.007117723050713539,0.02118530177194625,-0.008432312780618668
1686445439410865700,9.32486572265625,-0.0018763152658939361,0.007789082973636686,-0.01907820995748043
1686445439420882400,9.33488232421875,-0.004281622841954231,-0.002151880804263055,-0.03571954815685749
1686445439430899700,9.344899658203126,-0.000008767828345298767,-0.012679412298463285,-0.039835751304030415
1686445439440915700,9.354915771484375,0.014399696752429008,-0.02661821354087442,-0.03905132292807102
1686445439450932500,9.364932373046875,0.003822773158550262,-0.02118099092300981,-0.02956862431168556
1686445439460949500,9.374949462890624,-0.019420739784836768,-0.020282178919762372,0.0033130700707435607
1686445439470966500,9.384966552734374,-0.02706687062382698,-0.017181728686392308,0.018560908085107804
1686445439480982500,9.394982421875,-0.0197200149923563,0.004321954852342606,0.006594575959444046
1686445439490999600,9.40499951171875,-0.023244681987166404,0.01393295602351427,0.009620645782351493
1686445439501016600,9.4150166015625,-0.01969955672621727,0.022713351589441298,0.004139584022760391
1686445439511033600,9.42503369140625,-0.02977905219197273,0.022429566211998462,-0.009581482815742491
1686445439521049600,9.435049560546876,-0.03183130854666233,0.008158610405772924,-0.011064414849877358
1686445439531066400,9.44506640625,-0.036570027506351466,0.013053835101425647,-0.008783025914430618
1686445439541083600,9.455083740234375,-0.03972176953554153,0.014863514871895312,-0.011019991186261176
1686445439551100400,9.465100341796875,-0.03856500071585178,0.007649820633418857,-0.020752865171432495
1686445439561116400,9.475116455078124,-0.013315408647060394,-0.004062134872376918,-0.019728782820701597
1686445439571133700,9.4851337890625,0.0030038579910993575,-0.026447971540503202,-0.013591302978992461
1686445439581150500,9.495150390625,0.009327800315618515,-0.03593815934360027,-0.0038379707276821134
1686445439591166500,9.50516650390625,-0.002029460000991821,-0.039048400318622584,-0.003986439287662506
1686445439601183700,9.515183837890625,0.005180617508292198,-0.03708981359675526,-0.011724924585223197
1686445439611200500,9.525200439453124,0.005269464835524559,-0.028243805448710916,0.002153378641605377
1686445439621217500,9.535217529296874,0.004711246430873871,-0.02924085366204381,-0.011699790143966673
1686445439631233500,9.545233642578125,0.0023626374781131744,-0.0290234115190804,-0.017316460981965064
1686445439641250300,9.555250244140625,-0.0019581483304500578,-0.013627835597097872,-0.02746025385558605
1686445439651267600,9.565267578125,-0.005643558844923973,0.0010122457824647427,-0.03801905727088451
1686445439661284400,9.575284423828125,-0.003965396499633789,0.009704816934466362,-0.03062836249768734
1686445439671300400,9.58530029296875,0.008518822020292282,0.017067308526486157,-0.039675592306256294
1686445439681317400,9.5953173828125,0.012880524361133575,0.02029460000991821,-0.032176176461577416
1686445439691334400,9.60533447265625,0.006416881304979324,0.022449439956247805,-0.01830664106309414
1686445439701351400,9.615351318359375,-0.026018238353729246,0.02150733680054545,-0.0139250649780035
1686445439711367400,9.625367431640624,-0.03985094887316227,0.02050400497689843,-0.013388473883271216
1686445439721384400,9.635384521484376,-0.03584931201636791,0.020451836398243904,-0.020595044261217117
1686445439731401500,9.6454013671875,-0.01451893921792507,0.0022168357992544767,-0.018099720314145088
1686445439741417500,9.65541748046875,0.0009884265154600142,-0.004519377120584249,-0.010664017355442047
1686445439751434200,9.665434326171875,0.0012865326792001724,-0.005457205959968269,-0.003173369339108467
1686445439761451500,9.675451416015624,0.010780337211489677,-0.011293401300162076,-0.006857610809803009
1686445439771468300,9.68546826171875,-0.0017769465446472166,-0.018512977290153502,-0.011047463715076446
1686445439781484300,9.695484375,0.0030938743621110915,-0.021820640533417462,-0.02864917137920856
1686445439791501600,9.70550146484375,-0.013642156383395195,-0.021324198785983024,-0.02684942848086357
1686445439801518300,9.715518310546875,-0.019803017100691794,-0.011860204870067536,-0.01580079572200775
1686445439811535400,9.725535400390624,-0.014084639453887939,-0.020138386534899473,-0.012310030996799469
1686445439821551400,9.73555126953125,-0.020609072786569593,-0.018897446563094854,-0.002053425398468971
1686445439831568400,9.745568359375,0.0004278700232505798,-0.013080430847406387,0.004637012150883675
1686445439841585400,9.75558544921875,0.0016360767692327497,-0.014844773638807237,0.0058615855097770685
1686445439851602400,9.7656025390625,-0.008622282394766806,0.0002937222495675087,0.004309095370769501
1686445439861618400,9.775618408203124,-0.003939677536487579,0.007779255699366331,-0.0005821838021278381
1686445439871635500,9.785635498046876,-0.012491817304491996,0.007336041976511478,-0.0014940379500389099
1686445439881652500,9.795652587890626,-0.020934651479125023,0.005119425372965634,-0.013822189125418662
1686445439891669500,9.80566943359375,-0.021740707165002822,-0.0032993338063359258,-0.02658113293349743
1686445439901685500,9.815685546875,-0.04226502427756786,0.001637866867519915,-0.022557868766784665
1686445439911702300,9.825702392578124,-0.040105800417065615,-0.016738332300446926,-0.018881810602545738
1686445439921719300,9.83571923828125,-0.03480535592138767,-0.015946743531338868,-0.005320318239927292
1686445439931735600,9.845735595703125,-0.033522914895415305,-0.017145597927086056,-0.008037175983190536
1686445439941752300,9.85575244140625,-0.002325228077173233,-0.009080657154135405,-0.014648703077435493
1686445439951769300,9.865769287109375,0.01575812562406063,-0.009013729397766292,-0.012985153779387474
1686445439961786600,9.87578662109375,0.02398936287462711,0.002031067436188459,-0.013556231665611266
1686445439971802400,9.88580224609375,0.029203298130631446,0.004879625267721712,-0.008775427129864692
1686445439981819400,9.8958193359375,0.014487959557771681,0.015111498283594847,-0.01286766487956047
1686445439991836400,9.90583642578125,0.013248188629746437,0.01090308680832386,-0.022790508478879926
1686445440001853400,9.915853515625,0.004839256724715232,0.01574117448925972,-0.029559271961450573
1686445440011869400,9.925869384765624,-0.01914659901857376,0.020972937662899493,-0.03215162654221058
1686445440021886500,9.935886474609376,-0.024388006803393363,0.006942256885953247,-0.026311083820462225
1686445440031903500,9.945903564453126,-0.02345569438934326,0.004695172078907489,-0.02578793672919273
1686445440041919500,9.95591943359375,-0.005374094253778458,-0.004216448651254177,-0.014390344402194022
1686445440051936500,9.9659365234375,0.004281038320064544,-0.013608400244265795,-0.016679916644096373
1686445440061953300,9.975953369140624,0.009688450321555138,-0.004767177869193256,-0.01799333733022213
1686445440071970600,9.985970458984376,0.012813888865709304,-0.009556640635430812,-0.009321370574831962
1686445440081986300,9.995986328125,-0.004768529576063156,-0.0022992168530821797,0.003611760756373405
1686445440092003300,10.00600341796875,-0.006123451316356659,-0.010417056857049465,0.013326514562964438
1686445440102020600,10.0160205078125,-0.020579846692085266,-0.023186814320087432,0.009338321709632873
1686445440112037400,10.026037353515624,-0.02224748764336109,-0.018553455431014297,-0.011035188755393027
1686445440122053400,10.036053466796876,-0.041889176702499385,-0.01842646805047989,-0.025294600254297254
1686445440132070400,10.0460703125,-0.04134323325753212,-0.010529138929396867,-0.03939677536487579
1686445440142087400,10.05608740234375,-0.04028992481231689,-0.015352905824035406,-0.025738836890459058
1686445440152104400,10.0661044921875,-0.029312603724002836,-0.020853987458348273,-0.026100655940175056
1686445440162120400,10.076120361328124,-0.014672668474912642,-0.008345657410472631,-0.0037906244546175
1686445440172137500,10.086137451171876,-0.000754033237695694,-0.009157667913101613,0.009717676416039467
1686445440182154500,10.096154541015625,0.0016898527830839156,-0.014359328209422527,0.015926467928290368
1686445440192171300,10.106171142578125,0.012954174119234085,-0.01224982524216175,0.0224082311630249
1686445440202187300,10.116187255859375,0.004471592456102371,-0.0007601707175374031,0.014532383221387862
1686445440212204500,10.12620458984375,-0.010014613536000251,0.004180792815983295,-0.004423077139258384
1686445440222221300,10.13622119140625,-0.014980711510777473,0.01656257387474179,-0.02371756019592285
1686445440232238300,10.14623828125,-0.0031990883022546767,0.009519852288998662,-0.034924598386883735
1686445440242254600,10.156254638671875,0.009061842855811119,0.008203655123896897,-0.03623860359489917
1686445440252271400,10.166271240234375,0.012872341054677962,0.0023169351728633044,-0.042130584242939945
1686445440262288400,10.176288330078124,0.022197218760848045,0.015227416280843316,-0.027093174108862875
1686445440272304400,10.186304443359376,0.019202713119983672,0.015242577317357063,-0.013300211077928543
1686445440282321400,10.1963212890625,0.006989712756872176,0.00551905568242073,-0.0021516250759363175
1686445440292338400,10.20633837890625,-0.0015934066712856292,-0.005992956804484128,-0.015818915900588034
1686445440302355500,10.21635546875,0.00696516283750534,-0.009255757992714643,-0.013547463837265968
1686445440312371500,10.226371337890624,-0.00614215601682663,-0.003536357432603836,-0.02096446209549904
1686445440322388500,10.236388427734376,-0.011276596295833587,-0.009832242706418037,-0.01667173333764076
1686445440332405200,10.2464052734375,-0.0154021517932415,-0.016488485725224017,-0.019597849917411803
1686445440342422500,10.256422607421875,-0.017877601996064186,-0.013687602960318327,-0.015794950503110885
1686445440352438500,10.2664384765625,-0.025101708030700682,-0.005396598346531391,-0.012840776872634886
1686445440362455300,10.276455322265624,-0.03045651306211948,-0.007046995902061462,-0.020569909819960593
1686445440372472600,10.28647265625,-0.020326748713850974,-0.016472557503730056,-0.024649872609972954
1686445440382489300,10.2964892578125,-0.017294249150156975,-0.019990502496808765,-0.004541735082864761
1686445440392505300,10.30650537109375,-0.026405191844701765,-0.01510477628186345,-0.0009328969359397888
1686445440402522400,10.3165224609375,-0.02889057891964912,-0.010495967312157153,0.005718962168693542
1686445440412539400,10.326539306640624,-0.03756020758748054,-0.005539660079032183,0.0027408231407403945
1686445440422556400,10.336556396484376,-0.042618660020828245,-0.003653554071485996,-0.004992401459813118
1686445440432572400,10.346572509765625,-0.03415945923328399,-0.000661094257235527,-0.014468670335412024
1686445440442589400,10.35658935546875,-0.01799684446156025,0.003617752105742693,-0.025979659909009932
1686445440452606500,10.3666064453125,0.009756254860758781,-0.004887297117523849,-0.038158758002519604
1686445440462622500,10.37662255859375,0.020064298385381697,-0.010396744721382856,-0.03605097206830978
1686445440472639200,10.38663916015625,0.008130699485540389,-0.010066343723237513,-0.027166239345073697
1686445440482656500,10.396656494140625,0.015187047737836837,-0.014354944295249878,-0.011115852776169777
1686445440492673300,10.40667333984375,0.016909049224853513,-0.021410013905912635,0.0016758242577314376
1686445440502689300,10.416689208984375,0.013411270236968994,-0.0033658231712877748,0.009984802919626235
1686445440512706600,10.42670654296875,0.00019698387682437897,0.013129969077557325,0.012011340311169624
1686445440522723300,10.436723388671876,-0.013844400957226752,0.01621642731819302,0.0016910218268632888
1686445440532740400,10.446740234375,-0.008470891225337982,0.020693572732247412,-0.008940262302756309
1686445440542756400,10.45675634765625,-0.006519757157564162,0.023708353976160286,-0.00788403124809265
1686445440552773400,10.4667734375,-0.009734627550840378,0.0036133681915700433,0.003267477363348007
1686445440562790400,10.476790283203124,-0.023583120161294935,0.0004194309884682297,-0.004890694651007652
1686445440572807400,10.486807373046876,-0.026906711626052855,0.006330079804360866,-0.01507189692556858
1686445440582823400,10.496823486328125,-0.022612813824415205,0.0025695582270622254,-0.012249240720272064
1686445440592840400,10.50684033203125,0.0002653729379177093,-0.00010784428864717483,-0.010008183795213699
1686445440602857500,10.516857421875,0.0007405892342329024,-0.005289448177628219,-0.013429390415549277
1686445440612873200,10.526873291015624,-0.019176994156837462,-0.018691694857925177,-0.010011690926551818
1686445440622890500,10.536890380859376,-0.02357552137672901,-0.007896781131811439,-0.014546996268630027
1686445440632907300,10.5469072265625,-0.027182605957984923,-0.01435907248109579,-0.01319616618156433
1686445440642924300,10.55692431640625,-0.023612346255779265,-0.03202303172647953,-0.008873626807332039
1686445440652940300,10.566940185546875,-0.004366378515958786,-0.026551760708540678,-0.014911737927794455
1686445440662957300,10.576957275390624,0.0015875614523887633,-0.023079846814274788,-0.017631518280506134
1686445440672974300,10.586974365234376,0.006931260567903518,-0.01165682778507471,-0.014689035087823868
1686445440682991400,10.596991455078125,0.009267594560980797,-0.007720766977779567,-0.00263210206925869
1686445440693007000,10.607007080078125,-0.0077729720890522,-0.003310001330822706,-0.008602408650517463
1686445440703024400,10.6170244140625,-0.0016109423279762267,0.0004858838208019733,-0.020673370194435117
1686445440713041400,10.62704150390625,-0.017260931402444838,0.00578139641303569,-0.014742811101675033
1686445440723058200,10.63705810546875,-0.009105681997537612,0.016351853733509777,-0.023610592690110205
1686445440733074200,10.64707421875,0.0037982232391834255,0.007729279077798128,-0.018782441881299017
1686445440743091500,10.657091552734375,-0.009847440275549887,-0.0007088423890992999,-0.026440263158082962
1686445440753108200,10.667108154296875,-0.01865209349989891,-0.003580050443857908,-0.02792027258276939
1686445440763125200,10.677125244140624,-0.003267477363348007,-0.006852350112795829,-0.04322656278610229
1686445440773141500,10.6871416015625,-0.02223696624934673,0.002765117331780493,-0.03707505441904068
1686445440783158300,10.697158203125,-0.019272271224856377,-0.00013264993634074925,-0.02455927171707153
1686445440793175300,10.70717529296875,-0.017446224841475486,0.0033854411872103808,-0.01646656615436077
1686445440803192300,10.7171923828125,-0.001869301003217697,-0.003597878361493349,-0.007939560827612876
1686445440813208300,10.727208251953124,0.007110124266147613,-0.00843172825872898,-0.007054010164737701
1686445440823225300,10.737225341796876,0.019338322198390958,-0.0031162323243916035,-0.004115034103393554
1686445440833242000,10.7472421875,0.01915536684691906,-0.014997187721543013,-0.007006079369783401
1686445440843258400,10.75725830078125,0.011203531059622764,-0.01494370396863669,-0.018108488142490387
1686445440853275400,10.767275390625,-0.013128361642360687,-0.022823387835174798,-0.02386953588724136
1686445440863292200,10.777292236328124,-0.029506664991378783,-0.021050679074227807,-0.018075754916667935
1686445440873309400,10.787309326171876,-0.035381109982728955,-0.00870601515546441,-0.015240239229798317
1686445440883325400,10.797325439453125,-0.021003040540218353,-0.0004205634996294975,-0.001132218900322914
1686445440893342200,10.80734228515625,0.0020166005194187163,0.010727730241417884,0.008746201035380362
1686445440903359200,10.817359130859375,0.006341477981209755,0.007590893520414829,0.012038228318095206
1686445440913376300,10.827376220703124,0.005189969858527183,-0.0025145766368135807,0.018803484669327734
1686445440923392300,10.837392333984376,-0.012842530438303947,0.006889649915881454,0.013763736936450003
1686445440933409300,10.8474091796875,-0.024275778600573537,-0.005885843168199062,-0.002172667863965034
1686445440943426300,10.85742626953125,-0.029663316857814787,-0.018818389977514744,-0.013248773151636122
1686445440953443300,10.867443359375,-0.022590601992607116,-0.01989946321249008,-0.02292494851350784
1686445440963459300,10.877459228515624,-0.02030687496960163,-0.010739238016121089,-0.022120646393299102
1686445440973476000,10.88747607421875,-0.014148936861753463,-0.012337795786559582,-0.021622049221396444
1686445440983493400,10.897493408203125,-0.004307926326990127,-0.0059749827563762665,-0.01925122843682766
1686445440993510100,10.90751025390625,0.01289864453971386,0.002799896384216845,-0.01607493648827076
1686445441003526100,10.917526123046875,0.025168343526124952,0.005338146157562732,0.0011450783818960188
1686445441013543400,10.92754345703125,0.02749649421274662,-0.004921820441633463,0.019037877947092056
1686445441023560200,10.937560302734376,0.010457681128382683,-0.006153225400112569,0.010232640200853347
1686445441033576200,10.947576171875,0.010249006813764571,-0.01787040507029742,-0.010793196693062782
1686445441043593200,10.95759326171875,-0.0016308160722255706,-0.022957681739330292,-0.03601064005792141
1686445441053610200,10.9676103515625,-0.014200374788045882,-0.014610709154605864,-0.033628128835558886
1686445441063627300,10.977627197265624,-0.011586977419257164,-0.010658866256289184,-0.031767011138796805
1686445441073643300,10.987643310546876,-0.037080315116047854,-0.015323825860023498,-0.03032148850560188
1686445441083660300,10.997660400390625,-0.04027823437452316,-0.009639496613293885,-0.03410392965376377
1686445441093677300,11.00767724609375,-0.037946576556563374,-0.003930909708142281,-0.037279637080430986
1686445441103694000,11.017694091796875,-0.02391980476975441,0.009669891751557589,-0.027262685456871986
1686445441113710300,11.02771044921875,-0.00300853416621685,0.013399470201320946,-0.006942366483807564
1686445441123727400,11.037727294921876,0.010786182430386542,0.006950695920735597,-0.0006423895567655563
1686445441133744000,11.047744140625,0.007958850049972533,0.01170300501435995,0.006973930665850639
1686445441143761400,11.057761474609375,-0.0036000703185796734,0.011987374913692474,0.004220248043537139
1686445441153777400,11.06777734375,-0.008683657193183899,0.0056736617222428315,0.001356090784072876
1686445441163794200,11.077794189453124,-0.01764554680585861,-0.00029591420665383335,-0.004027355819940567
1686445441173811200,11.087811279296876,-0.013306056296825408,-0.007278028178960084,-0.019002222111821173
1686445441183828500,11.097828369140625,-0.02574526663124561,-0.0049715048022568225,-0.015295184287428855
1686445441193844200,11.10784423828125,-0.030936405533552168,-0.006663841803371906,-0.028543957439064977
1686445441203861200,11.117861328125,-0.01969254246354103,-0.001088525889068842,-0.025346622702479362
1686445441213878300,11.127878173828124,0.0036386487632989882,-0.009143968181312084,-0.010983166307210922
1686445441223895300,11.137895263671876,0.025198738664388654,-0.019221563950926064,-0.00006079027652740478
1686445441233911300,11.147911376953125,0.026244448325037955,-0.0063487845048308365,0.010525485667586326
1686445441243928300,11.15792822265625,-0.000741173756122589,-0.00504851556122303,0.02537760236263275
1686445441253945300,11.1679453125,-0.01407937875688076,-0.008525653619877994,0.0034580314993858333
1686445441263961300,11.17796142578125,-0.01693067653477192,-0.011343231791257858,-0.018866028511524198
1686445441273978000,11.18797802734375,-0.025531916141510007,-0.007560644512623548,-0.02762099737524986
1686445441283995400,11.197995361328125,-0.028276830935478208,-0.0012250117503106593,-0.017056348741054533
1686445441294012400,11.208012451171875,-0.025986089649796484,0.004082739268988371,-0.012953005075454712
1686445441304028200,11.218028076171874,-0.0208048876196146,-0.0020196327267214655,-0.02376198385953903
1686445441314045200,11.228045166015624,-0.021987959924340248,-0.009234824802540242,-0.015353051954507826
1686445441324062500,11.2380625,0.010620178213715553,-0.005024842424690723,-0.0003916296660900116
1686445441334079200,11.248079345703125,0.009771452429890632,0.0048572673054412,0.007563128730654716
1686445441344095200,11.25809521484375,-0.0006570026040077209,0.005740589478611946,0.012364976054430007
1686445441354112500,11.268112548828125,-0.00587502951323986,-0.004551635422371327,-0.003067570877075195
1686445441364129300,11.27812939453125,-0.011111176601052283,-0.00895092982724309,-0.01850830111503601
1686445441374146300,11.288146240234376,-0.02151157458424568,-0.009393412897735834,-0.04627776705026626
1686445441384162300,11.298162353515625,-0.0282990427672863,-0.006270458571612835,-0.0328828634262085
1686445441394179300,11.308179443359375,-0.0378583137512207,-0.00853412918727845,-0.025840543699264525
1686445441404196400,11.3181962890625,-0.019056582647562027,-0.007719744064472615,-0.01736322273313999
1686445441414212400,11.32821240234375,-0.01329553490281105,-0.004317278677225113,-0.01205634849667549
1686445441424229400,11.3382294921875,0.008080430603027343,0.0038856092616915703,-0.01538169352710247
1686445441434246400,11.348246337890625,0.004206219518184662,-0.0020309213057160378,-0.006406359910964965
1686445441444263200,11.35826318359375,0.010625438910722733,-0.006454436836391687,-0.006439093136787414
1686445441454279200,11.368279052734374,0.005649988585710525,-0.012489771477878093,-0.009192775759100914
1686445441464296400,11.37829638671875,-0.003738602006435394,-0.009159019619971513,-0.005434300008416175
1686445441474313200,11.388313232421876,-0.0068634560286998745,-0.012119038469344376,-0.014872574961185454
1686445441484330200,11.398330322265625,-0.019648118799924848,-0.018674889853596686,-0.025609657552838325
1686445441494346500,11.408346435546875,-0.02123918738365173,-0.0021437340304255484,-0.021398177337646485
1686445441504363300,11.41836328125,-0.029973697981238362,-0.004086502128653228,-0.009218494722247124
1686445441514380300,11.42838037109375,-0.029423662883043288,0.0020111936919391155,0.005682721811532974
1686445441524397300,11.438397216796876,-0.01658814670741558,-0.0032024493031203743,0.004595511096715927
1686445441534413300,11.448413330078125,-0.019479191973805425,-0.008060264597833156,0.004693126252293587
1686445441544430300,11.458430419921875,-0.018583119916915893,-0.0013980302296578884,0.007847790890932082
1686445441554447000,11.468447021484375,-0.012595277678966522,0.005417202743142843,-0.002029460000991821
1686445441564464400,11.47846435546875,-0.002237549793720245,0.010162789835035801,-0.020415596041083336
1686445441574480400,11.48848046875,0.0022106617867946625,0.012700637749582529,-0.019730536386370658
1686445441584497200,11.4984970703125,0.02006371386349201,-0.002745499315857887,-0.020608488264679908
1686445441594514400,11.508514404296875,0.034438276174664495,-0.0235923263810575,-0.02796118911504745
1686445441604530400,11.518530517578125,0.021094810476899147,-0.022179208180122076,-0.022632103046774862
1686445441614547200,11.528547119140624,-0.009575637596845626,-0.02496200729906559,-0.011422142246365546
1686445441624564200,11.538564208984376,-0.008626374047994613,-0.022012363713234662,-0.011837152788043022
1686445441634581200,11.548581298828125,-0.012154548174142837,-0.01232753012087196,-0.004922843354940414
1686445441644597200,11.55859716796875,-0.01875146222114563,0.013110679855197668,-0.011848843225836753
1686445441654614500,11.568614501953125,-0.023671967488527297,0.01779547667056322,-0.012457330513000488
1686445441664631300,11.57863134765625,-0.018508885636925695,0.02288110937178135,-0.01643207936286926
1686445441674648600,11.588648681640626,-0.0026630817294120788,0.014290391159057616,-0.011502221745252608
1686445441684664600,11.59866455078125,-0.01018938558101654,0.006184241592884063,0.0004068272352218628
1686445441694681300,11.608681396484375,-0.017930208966135976,0.008521635031886398,0.0052174423873424525
1686445441704698400,11.618698486328125,-0.029310850158333776,0.014176007531769574,0.0017518121033906935
1686445441714715400,11.62871533203125,-0.045046763950586315,0.011623400439508259,-0.0012684125006198882
1686445441724731400,11.6387314453125,-0.03301379632949829,-0.0030882848715409633,-0.0037584757506847377
1686445441734748400,11.64874853515625,-0.013560323318839072,-0.029354835430532692,-0.012458499556779861
1686445441744765400,11.658765380859375,-0.011997896307706831,-0.048277270304411646,-0.01332300743162632
1686445441754782500,11.668782470703125,-0.024980711999535558,-0.05028345902767032,-0.02139525472819805
1686445441764798500,11.678798583984374,-0.012122983992099762,-0.04109071980118751,-0.026344986090064047
1686445441774815200,11.688815185546876,-0.0006827215671539307,-0.03125365478917956,-0.019817045626044274
1686445441784832500,11.69883251953125,-0.00282031811773777,-0.02443254006486386,-0.0174368724912405
1686445441794848500,11.7088486328125,0.014150105905532836,-0.027012217827141284,-0.0041822541207075115
1686445441804865300,11.718865234375,0.027031214788556097,-0.017561192990653215,-0.006412205129861831
1686445441814882600,11.728882568359374,0.02702595409154892,-0.001213723171316087,-0.012848375657200813
1686445441824899300,11.7388994140625,0.021933014866709708,0.019318046595342458,-0.026637831556797026
1686445441834915300,11.748915283203125,-0.0006412205129861831,0.025435214301384984,-0.03457622334063053
1686445441844932400,11.758932373046875,-0.017570143482089042,0.029370179130136963,-0.03656067515611648
1686445441854949400,11.768949462890625,-0.031606267619132995,0.028779958152025935,-0.039841596522927285
1686445441864966400,11.77896630859375,-0.030676877814531326,0.027226006708294153,-0.028733927053213117
1686445441874982400,11.788982421875,-0.0218026664853096,0.014339929389208554,-0.022085575079917905
1686445441884999400,11.79899951171875,-0.010965630650520324,0.0032221769168972966,-0.014234277057647704
1686445441895016400,11.809016357421875,-0.0035468788266181943,0.000244037888944149,-0.008034253373742103
1686445441905033500,11.819033447265625,-0.012044658058881759,-0.004465893367677927,-0.007878186029195785
1686445441915049200,11.82904931640625,-0.0035807810962200162,-0.00924757468625903,-0.01799158376455307
1686445441925066500,11.83906640625,0.010138532176613807,-0.014481639414839445,-0.012376081970334052
1686445441935083300,11.849083251953125,0.0024257658421993253,-0.02117591288909316,-0.01846563101708889
1686445441945100300,11.859100341796875,0.00027238720059394837,-0.019778028789907694,-0.02751636795699596
1686445441955116500,11.869116455078125,0.012232289585471153,-0.027694208741933107,-0.030397476351261138
1686445441965133300,11.87913330078125,0.01211480068564415,-0.030415888790786265,-0.019473346754908562
1686445441975150300,11.889150390625,-0.0036287118911743164,-0.011714110930263996,-0.007411153039336204
1686445441985166300,11.899166259765625,-0.0235585702419281,-0.00003565583527088165,-0.0016015899777412413
1686445441995183400,11.909183349609375,-0.026632570859789848,-0.0036512159839272498,0.014343582651019095
1686445442005200400,11.919200439453125,-0.02034954506754875,-0.013511077349632977,0.020474048230051993
1686445442015217400,11.929217529296874,-0.01685994938611984,-0.009300473917275667,0.01602817473709583
1686445442025233400,11.9392333984375,-0.016543723043799398,0.004928834704309702,0.00003156418204307556
1686445442035250400,11.94925048828125,-0.02312193239033222,0.011911971589922904,-0.017477204501628874
1686445442045267500,11.959267333984375,-0.02145195335149765,0.012550561754405498,-0.013701777616143225
