time,seconds_elapsed,z,y,x
1686445575395852300,0.137852294921875,0.0027157855220139027,0.059707753360271454,-0.011161449365317822
1686445575405869300,0.147869384765625,0.004605988040566444,0.05253910273313522,-0.01375659555196762
1686445575415886300,0.15788623046875,0.00629603024572134,0.03807174414396286,-0.01073870062828064
1686445575425903400,0.1679033203125,0.006751221138983965,0.025295211002230644,-0.010693082585930824
1686445575435920100,0.177920166015625,0.007888390682637691,0.0146164670586586,-0.00628981227055192
1686445575445936000,0.18793603515625,0.006314855068922043,-0.0017129494808614254,-0.0003657243214547634
1686445575455953400,0.197953369140625,0.0058243004605174065,-0.017153425142169,0.00806264765560627
1686445575465970200,0.20797021484375,0.006404530256986618,-0.028000259771943092,0.013471991755068302
1686445575475987200,0.2179873046875,0.008736394345760345,-0.040835097432136536,0.018821749836206436
1686445575486004500,0.22800439453125,0.01108008623123169,-0.03842726722359657,0.01866348460316658
1686445575496021200,0.238021240234375,0.011967984959483147,-0.03479631245136261,0.016930032521486282
1686445575506038300,0.248038330078125,0.010809822008013725,-0.04176023602485657,0.0250049140304327
1686445575516054300,0.25805419921875,0.0053921532817184925,-0.04658934473991394,0.0325230173766613
1686445575526071300,0.2680712890625,0.006088920868933201,-0.05890550836920738,0.03469216451048851
1686445575536088300,0.27808837890625,0.005674266722053289,-0.05412273854017258,0.031096365302801132
1686445575546105300,0.288105224609375,0.0036779611837118864,-0.044420577585697174,0.030261196196079254
1686445575556122400,0.298122314453125,0.0016313218511641026,-0.03999413549900055,0.024415291845798492
1686445575566139100,0.30813916015625,0.003682810114696622,-0.03209884092211723,0.02330806292593479
1686445575576156400,0.318156494140625,0.008286883123219013,-0.03165329620242119,0.024551760405302048
1686445575586172400,0.32817236328125,0.005214272066950798,-0.03798658773303032,0.027067672461271286
1686445575596189200,0.338189208984375,0.0006184550002217293,-0.023145586252212524,0.02179381437599659
1686445575606206200,0.348206298828125,0.0026194234378635883,0.012829173356294632,0.0011398724745959044
1686445575616223200,0.35822314453125,0.006758508272469044,-0.022189531475305557,-0.0005032978951931
1686445575626240300,0.368240234375,0.028523990884423256,0.07588803023099899,0.0031843811739236116
1686445575636257500,0.378257568359375,-0.08973394334316254,0.20267874002456665,-0.06515073031187057
1686445575646274300,0.3882744140625,-0.31294921040534973,0.23813576996326447,-0.146320641040802
1686445575656291300,0.398291259765625,-0.5370054841041565,0.14055249094963074,-0.1629217118024826
1686445575666307300,0.408307373046875,-0.6805269718170166,0.031345758587121964,-0.11602060496807098
1686445575676324400,0.418324462890625,-0.6878615617752075,-0.03282630443572998,-0.041422802954912186
1686445575686341400,0.42834130859375,-0.6384971737861633,-0.1238890141248703,0.029062096029520035
1686445575696358100,0.438358154296875,-0.6318254470825195,-0.2205071598291397,0.08431123197078705
1686445575706375400,0.44837548828125,-0.6336774230003357,-0.17991270124912262,0.10558490455150604
1686445575716392200,0.45839208984375,-0.6133108735084534,-0.06552435457706451,0.06751687824726105
1686445575726409200,0.4684091796875,-0.5972620844841003,0.059813857078552246,-0.002362930215895176
1686445575736425500,0.478425537109375,-0.5283538699150085,0.1887473315000534,-0.07052014768123627
1686445575746442200,0.488442138671875,-0.3972220718860626,0.2452373504638672,-0.10570809245109558
1686445575756459300,0.498459228515625,-0.25363242626190186,0.18611064553260803,-0.0910005122423172
1686445575766476800,0.508476806640625,-0.16897478699684143,0.0351417139172554,-0.024886667728424072
1686445575776494000,0.518494140625,-0.1847846508026123,-0.0948019027709961,0.05758530646562576
1686445575786510800,0.5285107421875,-0.23949536681175232,-0.08153641223907471,0.09581784158945084
1686445575796527900,0.53852783203125,-0.30229294300079346,0.01960591971874237,0.06249742582440376
1686445575806544100,0.548544189453125,-0.25993070006370544,0.2327648401260376,-0.035669613629579544
1686445575816561000,0.558560791015625,-0.22292554378509521,0.3428974747657776,-0.0912439227104187
1686445575826578000,0.568577880859375,-0.0993323028087616,0.38834336400032043,-0.10636216402053833
1686445575836595000,0.578594970703125,-0.0005593942478299141,0.28131598234176636,-0.0832429975271225
1686445575846612000,0.588612060546875,0.03333789110183716,0.1881897896528244,-0.043502382934093475
1686445575856629000,0.59862890625,0.052940890192985535,0.2163708209991455,-0.025330305099487305
1686445575866646000,0.60864599609375,0.08230526745319366,0.3153124451637268,-0.02796660177409649
1686445575876662000,0.618662109375,0.10931824147701263,0.41721269488334656,-0.03973910212516785
1686445575886679000,0.628678955078125,0.13503262400627136,0.5001651048660278,-0.049255769699811935
1686445575896695800,0.63869580078125,0.15089839696884155,0.5854285955429077,-0.05758613720536232
1686445575906713000,0.648713134765625,0.17887549102306366,0.7719636559486389,-0.07332397997379303
1686445575916729900,0.658729736328125,0.20236696302890778,1.0068694353103638,-0.09994280338287354
1686445575926747000,0.668746826171875,0.20395539700984955,1.1658380031585693,-0.0954277515411377
1686445575936764000,0.678763916015625,0.17788518965244293,1.290988564491272,-0.06630103290081024
1686445575946781000,0.688781005859375,0.12596328556537628,1.30837881565094,-0.017183778807520866
1686445575956797000,0.698796875,0.05845189839601517,1.2931604385375977,0.009143698960542679
1686445575966814000,0.70881396484375,0.008515240624547005,1.2521716356277466,0.00541360629722476
1686445575976831000,0.7188310546875,-0.027639832347631454,1.142897605895996,-0.0215852539986372
1686445575986848000,0.728847900390625,-0.033851124346256256,1.1438871622085571,-0.05592804774641991
1686445575996865000,0.738864990234375,-0.021735873073339462,1.1876146793365479,-0.08157561719417572
1686445576006882000,0.748882080078125,0.013111144304275513,1.158903956413269,-0.08996321260929108
1686445576016898800,0.75889892578125,-0.0018291897140443325,0.42163366079330444,0.040861908346414566
1686445576026915000,0.7689150390625,0.17202582955360413,0.4680077135562897,0.041388772428035736
1686445576036932000,0.77893212890625,0.3915259540081024,1.6202768087387085,-0.20966662466526031
1686445576046948900,0.788948974609375,0.4365452826023102,1.7961851358413696,-0.2638721168041229
1686445576056966100,0.798966064453125,0.3574342131614685,1.2978676557540894,-0.09014773368835449
1686445576066983000,0.80898291015625,0.269458144903183,1.1346795558929443,0.07274816930294037
1686445576077000000,0.819,0.19374288618564606,1.1315783262252808,0.16343066096305847
1686445576087017000,0.829016845703125,0.07199610024690628,1.0005131959915161,0.2143610417842865
1686445576097034000,0.839033935546875,-0.06818071007728577,0.84645676612854,0.19848087430000305
1686445576107050000,0.849050048828125,-0.15355348587036133,0.7908320426940918,0.1491493135690689
1686445576117066800,0.859066650390625,-0.15803852677345276,0.758908748626709,0.10661596059799194
1686445576127084000,0.869083984375,-0.11814504861831665,0.6787140369415283,0.10452394187450409
1686445576137101000,0.87910107421875,-0.0435405857861042,0.5492923855781555,0.12690888345241547
1686445576147117800,0.889117919921875,0.059446245431900024,0.39217108488082886,0.1548135131597519
1686445576157135000,0.899135009765625,0.142722487449646,0.2559266984462738,0.17401224374771118
1686445576167151900,0.90915185546875,0.16693557798862457,0.17548656463623047,0.16491974890232086
1686445576177168000,0.91916796875,0.09821801632642746,0.06892737746238708,0.11057022213935852
1686445576187185200,0.92918505859375,0.0225069560110569,0.05881446227431297,0.03660587966442108
1686445576197202000,0.939201904296875,0.011277737095952034,0.15283070504665375,-0.04440242052078247
1686445576207219000,0.949218994140625,0.017086077481508255,0.2650076448917389,-0.12149929255247116
1686445576217236000,0.959236083984375,-0.10987719893455505,0.3402709662914276,-0.1407526135444641
1686445576227253000,0.9692529296875,-0.053464535623788834,0.12663434445858002,-0.007777483202517033
1686445576237269800,0.979269775390625,-0.030225258320569992,0.2984500527381897,-0.0337504968047142
1686445576247285800,0.98928564453125,-0.19800834357738495,0.3734937608242035,-0.07428690046072006
1686445576257303000,0.999302978515625,-0.2632206380367279,0.08848997950553894,0.16253258287906647
1686445576267319800,1.00931982421875,-0.19632482528686523,0.05335727334022522,0.34379276633262634
1686445576277337000,1.019337158203125,-0.16535544395446777,0.09971118718385696,0.27789735794067383
1686445576287354000,1.02935400390625,-0.17605748772621155,0.16777276992797852,0.12338566780090332
1686445576297371000,1.039370849609375,-0.2033117413520813,0.24957148730754852,0.024344567209482193
1686445576307388200,1.04938818359375,-0.22610455751419067,0.25567951798439026,0.03039413131773472
1686445576317405000,1.059405029296875,-0.23268736898899078,0.22619619965553284,0.09606315195560455
1686445576327421000,1.0694208984375,-0.25403302907943726,0.2210184782743454,0.1681658774614334
1686445576337438000,1.07943798828125,-0.25124046206474304,0.34578490257263184,0.10243799537420273
1686445576347455000,1.089455078125,-0.13033460080623627,0.5578778982162476,-0.13136979937553406
1686445576357472000,1.099471923828125,-0.0936514213681221,0.6775749921798706,-0.25352394580841064
1686445576367488800,1.10948876953125,-0.13512372970581055,0.6758378744125366,-0.23046031594276428
1686445576377506000,1.119506103515625,-0.16913895308971405,0.6832627654075623,-0.14139488339424133
1686445576387522800,1.129522705078125,-0.16394254565238953,0.618095338344574,-0.07627220451831818
1686445576397538800,1.139538818359375,-0.14191927015781403,0.4961041808128357,-0.053396180272102356
1686445576407556000,1.14955615234375,-0.11255726218223572,0.39533525705337524,-0.028628364205360413
1686445576417572900,1.15957275390625,-0.1033291444182396,0.3303093910217285,0.005319749470800161
1686445576427590000,1.16958984375,-0.09739319235086441,0.3361456096172333,0.025140248239040375
1686445576437607200,1.179607177734375,-0.08573706448078156,0.41754671931266785,0.039639826864004135
1686445576447624000,1.1896240234375,-0.07353375852108002,0.4954175651073456,0.0558728352189064
1686445576457641000,1.199640869140625,-0.06631845235824585,0.5618717074394226,0.05499239265918732
1686445576467657000,1.209656982421875,-0.05599861592054367,0.5988318920135498,0.03663394972681999
1686445576477674000,1.219674072265625,-0.048189427703619,0.5689688324928284,0.019689587876200676
1686445576487691000,1.22969091796875,-0.027861827984452248,0.4883180558681488,-0.005019105970859528
1686445576497707800,1.239707763671875,-0.014499150216579437,0.4307916462421417,-0.03157401829957962
1686445576507725000,1.24972509765625,-0.030905582010746002,0.41773906350135803,-0.021112244576215744
1686445576517741800,1.259741943359375,-0.04182933643460274,0.3818846642971039,-0.035383060574531555
1686445576527759000,1.269759033203125,-0.04417780786752701,0.3027482032775879,-0.08356786519289017
1686445576537775000,1.279775146484375,-0.0547042191028595,0.299452543258667,-0.1519450545310974
1686445576547792000,1.2897919921875,-0.07909037172794342,0.2930876612663269,-0.18433703482151031
1686445576557809000,1.299808837890625,-0.10307054221630096,0.30358371138572693,-0.14347721636295319
1686445576567826000,1.309825927734375,-0.14646823704242706,0.4299960434436798,-0.06685283035039902
1686445576577843000,1.319843017578125,-0.21570642292499542,0.6423647403717041,0.01256822794675827
1686445576587860000,1.32985986328125,-0.2808364927768707,0.795195996761322,0.051460493355989456
1686445576597877000,1.339876953125,-0.2938220798969269,0.8145630359649658,0.05480862036347389
1686445576607893000,1.34989306640625,-0.29274722933769226,0.8432080745697021,0.049050938338041306
1686445576617910000,1.359909912109375,-0.2929360568523407,0.889752984046936,0.09864086657762527
1686445576627927000,1.369927001953125,-0.28470736742019653,0.9111593961715698,0.14288324117660522
1686445576637944000,1.379944091796875,-0.2559864819049835,0.9287956953048706,0.14144858717918396
1686445576647960800,1.3899609375,-0.22290733456611633,0.8738856911659241,0.12307555973529816
1686445576657978000,1.39997802734375,-0.197340190410614,0.737223207950592,0.07812805473804474
1686445576667995000,1.409994873046875,-0.1961379051208496,0.5308898687362671,0.05955582484602928
1686445576678012000,1.420011962890625,-0.2065548598766327,0.3011448383331299,0.06928754597902298
1686445576688028000,1.43002783203125,-0.19570590555667877,0.012002216652035713,0.05375164747238159
1686445576698045000,1.440044921875,-0.13410991430282593,-0.17179985344409943,0.05008953437209129
1686445576708062000,1.45006201171875,-0.047819625586271286,-0.3407365083694458,0.024130448698997498
1686445576718079000,1.460078857421875,0.010115578770637512,-0.475548654794693,-0.00970075000077486
1686445576728096000,1.470095947265625,0.04300004243850708,-0.5360692739486694,-0.03811138868331909
1686445576738113000,1.480113037109375,0.08921493589878082,-0.5328385829925537,-0.08493669331073761
1686445576748129800,1.4901298828125,0.11709459125995636,-0.4440315365791321,-0.10604282468557358
1686445576758146000,1.50014599609375,0.08003058284521103,-0.2945786714553833,-0.10306594520807266
1686445576768162300,1.510162353515625,0.03324873372912407,-0.09435340017080307,-0.08533201366662979
1686445576778179300,1.520179443359375,-0.012002899311482906,0.06321385502815247,-0.06475323438644409
1686445576788196400,1.5301962890625,-0.019150683656334877,0.1092471033334732,-0.059204425662755966
1686445576798213000,1.540213134765625,0.0014699064195156097,0.095513716340065,-0.0711793303489685
1686445576808230400,1.55023046875,0.02085910364985466,0.018922241404652596,-0.08790762722492218
1686445576818247400,1.560247314453125,0.020537393167614937,-0.06650184094905853,-0.12046157568693161
1686445576828263200,1.57026318359375,0.000602304469794035,-0.14252617955207825,-0.16349610686302185
1686445576838280400,1.580280517578125,-0.017384419217705727,-0.20407050848007202,-0.20699352025985718
1686445576848297500,1.59029736328125,-0.036536119878292084,-0.27038460969924927,-0.2330559343099594
1686445576858314200,1.600314208984375,-0.032222598791122437,-0.2952713370323181,-0.24520207941532135
1686445576868331500,1.61033154296875,-0.024209290742874146,-0.34206607937812805,-0.2147178053855896
1686445576878348300,1.620348388671875,0.0006092400290071964,-0.3933793306350708,-0.15335963666439056
1686445576888365300,1.630365234375,0.04251851141452789,-0.48664095997810364,-0.14365318417549133
1686445576898381300,1.64038134765625,0.039755482226610184,-0.5251771807670593,-0.08819206058979034
1686445576908398300,1.6503984375,0.028177136555314064,-0.5303280353546143,-0.04253246635198593
1686445576918415400,1.660415283203125,0.012155825272202492,-0.5007232427597046,-0.03963601216673851
1686445576928432000,1.67043212890625,-0.005733455531299114,-0.49131500720977783,-0.04509914293885231
1686445576938449400,1.680449462890625,0.0005135219544172287,-0.515512228012085,-0.0882338285446167
1686445576948466200,1.690466064453125,-0.018999002873897552,-0.5252224206924438,-0.10828803479671478
1686445576958483200,1.700483154296875,-0.018447458744049072,-0.5489165782928467,-0.12129411101341248
1686445576968499500,1.71049951171875,-0.025376303121447563,-0.5714789628982544,-0.12900739908218384
1686445576978516200,1.72051611328125,-0.04101544991135597,-0.5329832434654236,-0.1278419941663742
1686445576988533200,1.730533203125,-0.03600446134805679,-0.5032243132591248,-0.12272042036056519
1686445576998550500,1.740550537109375,0.009643984958529472,-0.48137834668159485,-0.15706056356430054
1686445577008567300,1.7505673828125,0.025968968868255615,-0.465457946062088,-0.1787032037973404
1686445577018584300,1.760584228515625,0.006275958381593227,-0.38461530208587646,-0.10775019228458405
1686445577028601300,1.770601318359375,0.002934911521151662,-0.3431781530380249,-0.07174152880907059
1686445577038618400,1.780618408203125,0.0062838364392519,-0.3280996084213257,-0.07167787849903107
1686445577048634400,1.79063427734375,0.01692499965429306,-0.28925400972366333,-0.07637584209442139
1686445577058651400,1.8006513671875,0.00951581820845604,-0.26199230551719666,-0.09341954439878464
1686445577068668400,1.81066845703125,0.004898348357528448,-0.26424798369407654,-0.09949611872434616
1686445577078685200,1.820685302734375,0.011075017973780632,-0.23377344012260437,-0.09657462686300278
1686445577088702500,1.830702392578125,0.029117409139871597,-0.1782781183719635,-0.09125609695911407
1686445577098719200,1.84071923828125,0.035174235701560974,-0.15484681725502014,-0.08844219893217087
1686445577108736300,1.850736328125,0.030247027054429054,-0.16645272076129913,-0.0763828381896019
1686445577118752300,1.860752197265625,0.07198595255613327,-0.12459048628807068,-0.09068427979946136
1686445577128769300,1.870769287109375,0.10498007386922836,-0.055055487900972366,-0.11728141456842422
1686445577138786300,1.880786376953125,0.10681605339050293,0.0051362100057303905,-0.1429217904806137
1686445577148803300,1.89080322265625,0.10335482656955719,0.09756339341402054,-0.15368196368217468
1686445577158820400,1.9008203125,0.13036060333251953,0.13739149272441864,-0.16100353002548218
1686445577168837400,1.91083740234375,0.15884239971637726,0.1580600142478943,-0.16726146638393402
1686445577178854100,1.920854248046875,0.11241471022367477,-0.04826333001255989,-0.15121619403362274
1686445577188870400,1.930870361328125,0.22355890274047852,-0.19871728122234344,-0.22323833405971527
1686445577198887400,1.940887451171875,0.34192442893981934,-0.2468818724155426,-0.2520390748977661
1686445577208904200,1.950904296875,0.4274088144302368,-0.07868678122758865,-0.240600124001503
1686445577218921500,1.96092138671875,0.5158830285072327,0.1202327087521553,-0.2421322464942932
1686445577228938200,1.970938232421875,0.5844510197639465,0.2491818070411682,-0.2547992467880249
1686445577238955300,1.980955322265625,0.5723410844802856,0.3291650414466858,-0.2613000273704529
1686445577248972300,1.99097216796875,0.49184468388557434,0.30246713757514954,-0.27404433488845825
1686445577258988300,2.00098828125,0.38780832290649414,0.25147104263305664,-0.25097230076789856
1686445577269005300,2.01100537109375,0.3065912127494812,0.19346341490745544,-0.22603607177734375
1686445577279022300,2.021022216796875,0.2662006616592407,0.21562036871910095,-0.2212468981742859
1686445577289039400,2.031039306640625,0.28770899772644043,0.2652119994163513,-0.24629999697208405
1686445577299056400,2.041056396484375,0.3305574059486389,0.30041712522506714,-0.287003755569458
1686445577309073400,2.051073486328125,0.33876216411590576,0.2873411476612091,-0.3089221119880676
1686445577319090400,2.06109033203125,0.3083491325378418,0.24531377851963043,-0.29414981603622437
1686445577329106400,2.0711064453125,0.27131229639053345,0.21512213349342346,-0.26140519976615906
1686445577339123200,2.081123291015625,0.2649156451225281,0.22281360626220703,-0.23483270406723022
1686445577349140500,2.091140380859375,0.28912270069122314,0.2810152769088745,-0.23434793949127197
1686445577359157200,2.1011572265625,0.3309287428855896,0.3553059995174408,-0.257023423910141
1686445577369174300,2.11117431640625,0.35376328229904175,0.36915913224220276,-0.29449164867401123
1686445577379191300,2.12119140625,0.3381212055683136,0.3084678053855896,-0.33474504947662354
1686445577389208300,2.131208251953125,0.27471017837524414,0.21431522071361542,-0.37924590706825256
1686445577399225300,2.141225341796875,0.20849625766277313,0.1499122530221939,-0.3898141086101532
1686445577409241300,2.151241455078125,0.13669538497924805,0.14028088748455048,-0.37289607524871826
1686445577419258400,2.16125830078125,0.08623247593641281,0.17480850219726562,-0.3344072699546814
1686445577429275400,2.171275390625,0.08702720701694489,0.22442038357257843,-0.3160336911678314
1686445577439292400,2.18129248046875,0.05787544697523117,0.2720765769481659,-0.3324534296989441
1686445577449309400,2.191309326171875,0.05747521296143532,0.3661690056324005,-0.3475920557975769
1686445577459326200,2.201326171875,0.04606303572654724,0.40618541836738586,-0.3280276656150818
1686445577469343500,2.211343505859375,0.04574839398264885,0.3628019690513611,-0.2914240062236786
1686445577479359500,2.221359375,0.021271279081702232,0.28797298669815063,-0.22408756613731384
1686445577489376300,2.231376220703125,-0.007546772714704275,0.22318994998931885,-0.17560715973377228
1686445577499393300,2.241393310546875,-0.052271898835897446,0.20375633239746094,-0.1745845079421997
1686445577509410300,2.251410400390625,-0.09239351004362106,0.23251482844352722,-0.18958789110183716
1686445577519427300,2.26142724609375,-0.14201433956623077,0.2908109128475189,-0.18439525365829468
1686445577529444000,2.271444091796875,-0.1743985414505005,0.31083887815475464,-0.18143382668495178
1686445577539461400,2.28146142578125,-0.1746387481689453,0.3051932454109192,-0.21149106323719025
1686445577549477400,2.291477294921875,-0.15241163969039917,0.3126186430454254,-0.23988470435142517
1686445577559494100,2.301494140625,-0.09778114408254623,0.3315177857875824,-0.2410767376422882
1686445577569511400,2.311511474609375,-0.04528481513261795,0.35377827286720276,-0.2166515737771988
1686445577579528400,2.321528564453125,-0.009116425178945065,0.3703039884567261,-0.1749563217163086
1686445577589545200,2.331545166015625,0.004865770228207111,0.32808831334114075,-0.11911006271839142
1686445577599562500,2.3415625,0.01051486749202013,0.31304728984832764,-0.0650247260928154
1686445577609579300,2.351579345703125,0.015622217208147049,0.3303321897983551,-0.038280028849840164
1686445577619595300,2.36159521484375,0.04166846349835396,0.34068629145622253,-0.04548494517803192
1686445577629612500,2.371612548828125,0.06695231050252914,0.35111719369888306,-0.08032005280256271
1686445577639629300,2.38162939453125,0.07073106616735458,0.33699044585227966,-0.13232892751693726
1686445577649646300,2.391646240234375,0.06437358260154724,0.3159959018230438,-0.15967004001140594
1686445577659663400,2.401663330078125,0.035591740161180496,0.3295322060585022,-0.16248872876167297
1686445577669680400,2.411680419921875,0.024523692205548286,0.33828842639923096,-0.14530886709690094
1686445577679697200,2.421697265625,0.03130117058753967,0.2957462966442108,-0.13200877606868744
1686445577689713200,2.431713134765625,0.05353093519806862,0.24690161645412445,-0.13958406448364258
1686445577699730400,2.44173046875,0.07561492919921875,0.22606423497200012,-0.1495956927537918
1686445577709747200,2.451747314453125,0.09704963862895966,0.20386284589767456,-0.16304409503936768
1686445577719764200,2.46176416015625,0.11334098875522614,0.2132057398557663,-0.16948440670967102
1686445577729781500,2.471781494140625,0.1323479413986206,0.22364051640033722,-0.16772906482219696
1686445577739798300,2.48179833984375,0.18686418235301971,0.23273654282093048,-0.17011046409606934
1686445577749815300,2.491815185546875,0.26054710149765015,0.2106396108865738,-0.19472581148147583
1686445577759831600,2.50183154296875,0.364193856716156,0.18994605541229248,-0.2669858932495117
1686445577769848000,2.51184814453125,0.45980051159858704,0.1491510421037674,-0.3496242165565491
1686445577779865300,2.521865234375,0.5014952421188354,0.12066534161567688,-0.40233296155929565
1686445577789882000,2.531882080078125,0.4685102701187134,0.1192016452550888,-0.41214367747306824
1686445577799899100,2.541899169921875,0.40437230467796326,0.14674511551856995,-0.3829612731933594
1686445577809916200,2.551916259765625,0.302704393863678,0.19730857014656067,-0.35510367155075073
1686445577819933200,2.56193310546875,0.171950101852417,0.3285587430000305,-0.3435862958431244
1686445577829950200,2.5719501953125,0.07245349138975143,0.4896252155303955,-0.3426876962184906
1686445577839966000,2.581966064453125,0.0008884947746992111,0.5843610167503357,-0.3583521246910095
1686445577849983200,2.591983154296875,-0.06624943017959595,0.6072157025337219,-0.36978304386138916
1686445577860000300,2.602000244140625,-0.10008223354816437,0.5289584398269653,-0.3754560947418213
1686445577870017000,2.61201708984375,-0.1368851214647293,0.4051395654678345,-0.40710440278053284
1686445577880034300,2.622034423828125,-0.15458661317825317,0.2590497136116028,-0.4250514507293701
1686445577890051000,2.632051025390625,-0.1822836697101593,0.1269424706697464,-0.4180603325366974
1686445577900068400,2.642068359375,-0.19891990721225739,0.04336875304579735,-0.38275107741355896
1686445577910084400,2.65208447265625,-0.24296757578849792,0.013860483653843403,-0.32521843910217285
1686445577920101000,2.66210107421875,-0.2907683849334717,0.023844409734010696,-0.22805728018283844
1686445577930118100,2.6721181640625,-0.32170018553733826,0.05992811173200607,-0.12982843816280365
1686445577940135200,2.68213525390625,-0.35734713077545166,0.10344655811786652,-0.07955463230609894
1686445577950152200,2.692152099609375,-0.3950527012348175,0.14452022314071655,-0.07625177502632141
1686445577960169000,2.7021689453125,-0.4077402651309967,0.1639716774225235,-0.1127495989203453
1686445577970186200,2.712186279296875,-0.4022274911403656,0.1925451010465622,-0.15546631813049316
1686445577980202200,2.7222021484375,-0.37580305337905884,0.23237428069114685,-0.1748562604188919
1686445577990219000,2.732218994140625,-0.3504517674446106,0.21695202589035034,-0.16834448277950287
1686445578000236300,2.742236328125,-0.3305038809776306,0.15992656350135803,-0.14945414662361145
1686445578010253300,2.75225341796875,-0.34636712074279785,0.15140663087368011,-0.09493754059076309
1686445578020270000,2.76227001953125,-0.3919159471988678,0.20140428841114044,-0.02682586759328842
1686445578030287400,2.772287353515625,-0.42737066745758057,0.34366992115974426,0.06765327602624893
1686445578040304000,2.78230419921875,-0.4437943994998932,0.5054441690444946,0.15511707961559296
1686445578050320100,2.792320068359375,-0.4083966612815857,0.6130363941192627,0.16718429327011108
1686445578060337200,2.802337158203125,-0.3483591377735138,0.7208108305931091,0.0987282544374466
1686445578070354200,2.812354248046875,-0.29199907183647156,0.8522491455078125,0.04776566103100777
1686445578080371200,2.82237109375,-0.23605909943580627,1.0057731866836548,0.03412628173828125
1686445578090388000,2.832387939453125,-0.19473308324813843,1.0787044763565063,0.05997394025325775
1686445578100405200,2.8424052734375,-0.1536644846200943,1.0786596536636353,0.08754830807447433
1686445578110422000,2.852422119140625,-0.12501570582389832,1.045578956604004,0.10374432802200317
1686445578120438000,2.86243798828125,-0.11139790713787079,1.0258952379226685,0.08658745139837265
1686445578130455300,2.872455322265625,-0.10072514414787292,1.0158122777938843,0.04816429689526558
1686445578140472000,2.88247216796875,-0.10231772065162659,0.9162511229515076,0.005128679797053337
1686445578150489000,2.892489013671875,-0.08542724698781967,0.806449830532074,0.002343820407986641
1686445578160506400,2.90250634765625,-0.10582892596721649,0.6202219128608704,0.03356645256280899
1686445578170523100,2.912523193359375,-0.11366233974695206,0.6078259348869324,0.11955136060714722
1686445578180540200,2.9225400390625,-0.16955143213272095,0.47662660479545593,0.06658747792243958
1686445578190557200,2.93255712890625,-0.1816132366657257,0.2660095691680908,-0.09961481392383575
1686445578200573200,2.9425732421875,-0.300284206867218,-0.06374569237232208,-0.2272297590970993
1686445578210590200,2.952590087890625,-0.4595944285392761,-0.32611382007598877,-0.31737008690834045
1686445578220607200,2.962607177734375,-0.6184032559394836,-0.5461122393608093,-0.31070658564567566
1686445578230624300,2.972624267578125,-0.6621710062026978,-0.765743613243103,-0.2256464660167694
1686445578240641000,2.98264111328125,-0.6128780245780945,-0.9029810428619385,-0.1137247309088707
1686445578250658300,2.992658203125,-0.5230814814567566,-0.7915318012237549,-0.010867064818739891
1686445578260675000,3.002675048828125,-0.4048866331577301,-0.6340652108192444,0.06214908882975578
1686445578270691000,3.012691162109375,-0.2977868616580963,-0.5047116279602051,0.06702305376529694
1686445578280708000,3.0227080078125,-0.2395768016576767,-0.42890819907188416,0.015381700359284878
1686445578290725000,3.03272509765625,-0.21173278987407684,-0.37001028656959534,0.011259240098297596
1686445578300742100,3.0427421875,-0.16221264004707336,-0.31038743257522583,0.05182956904172897
1686445578310759200,3.05275927734375,-0.1104959174990654,-0.22461500763893127,0.08564212918281555
1686445578320776200,3.062776123046875,-0.06746802479028702,-0.09807863086462021,0.10441900789737701
1686445578330793200,3.072793212890625,-0.04173848032951355,0.01878770999610424,0.11643721163272858
1686445578340809200,3.082809326171875,0.0056279669515788555,0.13696707785129547,0.08582551032304764
1686445578350826200,3.092826171875,0.07778298854827881,0.3616771399974823,0.004064981359988451
1686445578360843300,3.10284326171875,0.16491709649562836,0.6027904152870178,-0.12044978141784668
1686445578370860000,3.112860107421875,0.2179080694913864,0.6872507333755493,-0.23435215651988983
1686445578380877300,3.122877197265625,0.2823139727115631,0.7609912753105164,-0.2271302044391632
1686445578390894000,3.13289404296875,0.23253659904003143,0.6976866722106934,-0.20980913937091827
1686445578400911000,3.1429111328125,0.1840614676475525,0.587428867816925,-0.2085457444190979
1686445578410927000,3.152927001953125,0.18524126708507538,0.4935998022556305,-0.13895365595817566
1686445578420944100,3.162944091796875,0.17375211417675018,0.4241432249546051,-0.07180444151163101
1686445578430961200,3.172961181640625,0.1487441062927246,0.3480452597141266,-0.04140084236860275
1686445578440978200,3.182978271484375,0.11846794933080673,0.2555725872516632,-0.010708445683121681
1686445578450995200,3.1929951171875,0.0811832919716835,0.15186619758605957,0.013333926908671856
1686445578461012200,3.20301220703125,0.02682710811495781,0.0710776150226593,0.021920757368206978
1686445578471029200,3.213029296875,0.009305795654654503,0.03268285468220711,0.01427404209971428
1686445578481046300,3.22304638671875,-0.002293603029102087,0.0005616708658635616,0.026214590296149254
1686445578491062300,3.233062255859375,-0.0009352648630738258,-0.005341196432709694,0.03340749442577362
1686445578501079000,3.2430791015625,-0.005734547507017851,0.01285485178232193,0.03747786954045296
1686445578511096300,3.253096435546875,-0.11267032474279404,0.022334527224302292,0.11379018425941467
1686445578521113000,3.263113037109375,-0.16920922696590424,0.02406478300690651,0.20589400827884674
1686445578531130000,3.273130126953125,-0.15404260158538818,0.005652821157127619,0.05131291598081589
1686445578541147100,3.283147216796875,-0.15568256378173828,0.0032967226579785347,0.06891427934169769
1686445578551164200,3.2931640625,-0.1572776436805725,-0.026124881580471992,0.10265074670314789
1686445578561180200,3.30318017578125,-0.14412376284599304,-0.038474757224321365,0.12203243374824524
1686445578571197200,3.313197265625,-0.10885600000619888,-0.067668616771698,0.11982608586549759
1686445578581214200,3.323214111328125,-0.07552947103977203,-0.06924201548099518,0.08418793231248856
1686445578591231200,3.333231201171875,-0.014128299430012703,-0.07294005900621414,0.0485917404294014
1686445578601248300,3.343248291015625,0.01194084994494915,-0.11093617230653763,0.0754270851612091
1686445578611265300,3.353265380859375,0.003822706174105406,-0.21060596406459808,0.07290621101856232
1686445578621282000,3.363281982421875,0.006902651861310005,-0.16338013112545013,0.07296400517225266
1686445578631298000,3.373298095703125,-0.007540803402662277,-0.11502929776906967,0.09887944906949997
1686445578641315300,3.3833154296875,-0.04852338880300522,-0.08819662034511566,0.07017030566930771
1686445578651332000,3.39333203125,-0.07899438589811325,-0.062255192548036575,0.027843855321407318
1686445578661349000,3.40334912109375,-0.07860609143972397,-0.07912364602088928,0.03896841034293175
1686445578671366100,3.4133662109375,-0.07158220559358597,-0.11441247165203094,0.037993475794792175
1686445578681383200,3.423383056640625,-0.1144561693072319,-0.19939740002155304,0.046837832778692245
1686445578691400000,3.43339990234375,-0.16451774537563324,-0.24145814776420593,0.030670642852783203
1686445578701416200,3.443416259765625,-0.19421012699604034,-0.26223400235176086,0.01692340523004532
1686445578711433200,3.45343310546875,-0.19624999165534973,-0.26445063948631287,0.021372348070144653
1686445578721450000,3.463449951171875,-0.18524155020713806,-0.27966421842575073,0.04381107538938522
1686445578731467300,3.47346728515625,-0.17568665742874146,-0.3023681044578552,0.0614023394882679
1686445578741484300,3.483484375,-0.16260893642902374,-0.32933899760246277,0.06987012922763824
1686445578751501000,3.4935009765625,-0.14686329662799835,-0.36940422654151917,0.0693219006061554
1686445578761518600,3.5035185546875,-0.13293443620204926,-0.40790608525276184,0.06857195496559143
1686445578771535600,3.51353564453125,-0.11524692922830582,-0.45575958490371704,0.07144592702388763
1686445578781551600,3.523551513671875,-0.08441445231437683,-0.5013840794563293,0.07865936309099197
1686445578791568600,3.533568603515625,-0.07086874544620514,-0.5482144951820374,0.09851887077093124
1686445578801585400,3.54358544921875,-0.07272683084011078,-0.6165754199028015,0.10903888940811157
1686445578811602700,3.553602783203125,-0.08404563367366791,-0.6995317935943604,0.10075681656599045
1686445578821619500,3.563619384765625,-0.10031595826148987,-0.7699196338653564,0.08047817647457123
1686445578831636500,3.573636474609375,-0.11857129633426666,-0.8267442584037781,0.04557235911488533
1686445578841653500,3.583653564453125,-0.12704066932201385,-0.8678981065750122,0.019351672381162643
1686445578851669500,3.59366943359375,-0.12763191759586334,-0.9117823839187622,-0.0017903234111145139
1686445578861686500,3.6036865234375,-0.12095855921506882,-0.94899982213974,-0.01320782769471407
1686445578871703600,3.61370361328125,-0.11233822256326675,-0.9865501523017883,-0.02220863103866577
1686445578881720600,3.623720458984375,-0.11085457354784012,-1.0064455270767212,-0.03767414018511772
1686445578891737300,3.6337373046875,-0.1096406951546669,-1.003631591796875,-0.05221347138285637
1686445578901754600,3.643754638671875,-0.12031836807727814,-0.9838905930519104,-0.05816829949617386
1686445578911771600,3.653771728515625,-0.12781618535518646,-0.9721239805221558,-0.055835284292697906
1686445578921787400,3.663787353515625,-0.1213710606098175,-0.9521896839141846,-0.04876352474093437
1686445578931804700,3.6738046875,-0.10472346097230911,-0.9523198008537292,-0.03432680293917656
1686445578941821700,3.68382177734375,-0.08035767078399658,-0.9855321049690247,-0.006936457008123398
1686445578951838500,3.69383837890625,-0.0707755908370018,-1.0198864936828613,0.0060506341978907585
1686445578961855700,3.703855712890625,-0.06371581554412842,-1.0580447912216187,0.003701459616422653
1686445578971872500,3.71387255859375,-0.07186312228441238,-1.0813497304916382,-0.0008658947772346437
1686445578981889500,3.7238896484375,-0.07907389849424362,-1.064487338066101,-0.008842594921588898
1686445578991906600,3.733906494140625,-0.0849217027425766,-0.972920835018158,-0.0362701416015625
1686445579001922600,3.743922607421875,-0.08702400326728821,-0.8402197957038879,-0.06379125267267227
1686445579011939600,3.753939697265625,-0.0893411859869957,-0.707119345664978,-0.054499562829732895
1686445579021956400,3.763956298828125,-0.08253281563520432,-0.6157071590423584,-0.02197464182972908
1686445579031973600,3.7739736328125,-0.07436924427747726,-0.5569250583648682,0.011317027732729912
1686445579041990400,3.783990478515625,-0.06120177358388901,-0.5145142078399658,0.04359853267669678
1686445579052007400,3.79400732421875,-0.043536536395549774,-0.516615092754364,0.06342321634292603
1686445579062024700,3.804024658203125,-0.03779103234410286,-0.5583958029747009,0.07496136426925659
1686445579072040400,3.81404052734375,-0.044283732771873474,-0.6167164444923401,0.07653369754552841
1686445579082057500,3.824057373046875,-0.044831015169620514,-0.6568018198013306,0.05990012735128403
1686445579092074800,3.83407470703125,-0.05530733987689018,-0.6860175728797913,0.039759665727615356
1686445579102091500,3.844091552734375,-0.07170655578374863,-0.7071947455406189,0.026392994448542595
1686445579112108500,3.854108642578125,-0.07427366077899933,-0.7024348974227905,0.01972760260105133
1686445579122125600,3.86412548828125,-0.07283022999763489,-0.6879646182060242,0.016070552170276642
1686445579132142600,3.874142578125,-0.06804327666759491,-0.6476229429244995,0.01816006377339363
1686445579142158600,3.88415869140625,-0.05199054256081581,-0.5613279938697815,0.029069969430565834
1686445579152175400,3.89417529296875,-0.03105258010327816,-0.44986623525619507,0.03905542194843292
1686445579162192600,3.904192626953125,-0.024509990587830544,-0.350909560918808,0.042266394942998886
1686445579172209400,3.91420947265625,-0.026119548827409744,-0.2470448613166809,0.044570136815309525
1686445579182226700,3.924226806640625,-0.024972788989543915,-0.1316937655210495,0.044030312448740005
1686445579192243500,3.934243408203125,-0.029963651672005653,-0.015255944803357124,0.03355027735233307
1686445579202260500,3.944260498046875,-0.034656137228012085,0.07847853749990463,0.026895835995674133
1686445579212277800,3.95427783203125,-0.04577374830842018,0.14962175488471985,0.022878358140587807
1686445579222293500,3.96429345703125,-0.05321994796395302,0.18919126689434052,0.01693178527057171
1686445579232310500,3.974310546875,-0.05810917541384697,0.2107517272233963,0.0051449672318995
1686445579242327600,3.98432763671875,-0.06255798041820526,0.21677766740322113,-0.010202297940850258
1686445579252344600,3.994344482421875,-0.06113578751683235,0.21679703891277313,-0.028981000185012817
1686445579262361600,4.004361572265625,-0.05811389908194542,0.20611242949962616,-0.04389842972159386
1686445579272378400,4.01437841796875,-0.05084929242730141,0.19893205165863037,-0.05542357638478279
1686445579282395600,4.024395751953125,-0.04285368323326111,0.19469043612480164,-0.06096108630299568
1686445579292411600,4.03441162109375,-0.031174495816230774,0.2131139636039734,-0.05132709816098213
1686445579302428400,4.044428466796875,-0.027570705860853195,0.24581384658813477,-0.03216458857059479
1686445579312445700,4.05444580078125,-0.021232254803180695,0.2927773892879486,-0.0008507209131494164
1686445579322462500,4.06446240234375,-0.01437354926019907,0.3499234914779663,0.023944374173879623
1686445579332479500,4.0744794921875,-0.004327631555497646,0.4041578769683838,0.03628482297062874
1686445579342496500,4.08449658203125,-0.010289384052157402,0.4570764899253845,0.026810361072421074
1686445579352513500,4.094513427734375,-0.019618671387434006,0.485950231552124,0.00039672874845564365
1686445579362529500,4.104529541015625,-0.0313112810254097,0.4913170337677002,-0.027357405051589012
1686445579372546600,4.114546630859375,-0.0406450554728508,0.4637708365917206,-0.042050737887620926
1686445579382563600,4.1245634765625,-0.048217758536338806,0.41180962324142456,-0.04424917697906494
1686445579392580600,4.13458056640625,-0.04519575461745262,0.35028985142707825,-0.035674676299095154
1686445579402597400,4.144597412109375,-0.0440836176276207,0.29245877265930176,-0.02079186402261257
1686445579412614700,4.15461474609375,-0.039516571909189224,0.24481207132339478,-0.0027271287981420755
1686445579422631400,4.16463134765625,-0.03773465007543564,0.21296092867851257,0.01097616646438837
1686445579432647400,4.1746474609375,-0.032995644956827164,0.19457581639289856,0.017312947660684586
1686445579442664700,4.184664794921875,-0.02472679689526558,0.19557397067546844,0.024400683119893074
1686445579452681500,4.194681396484375,-0.017647305503487587,0.21001799404621124,0.03190194442868233
1686445579462698500,4.204698486328125,-0.009927602484822273,0.22084960341453552,0.030787678435444832
1686445579472715500,4.214715576171875,-0.0010599419474601746,0.22738885879516602,0.03061741404235363
1686445579482732500,4.224732666015625,0.010227067396044731,0.22765570878982544,0.03253195807337761
1686445579492749600,4.23474951171875,0.01748308725655079,0.21730674803256989,0.026909038424491882
1686445579502766600,4.2447666015625,0.02712373062968254,0.19676072895526886,0.017845503985881805
1686445579512782600,4.254782470703125,0.03204251825809479,0.1644553244113922,0.011328973807394505
1686445579522799600,4.264799560546875,0.03933452069759369,0.12962384521961212,-0.001111716264858842
1686445579532816600,4.274816650390625,0.04723444953560829,0.08980952948331833,-0.007738266605883837
1686445579542833700,4.284833740234375,0.05144783854484558,0.04624900594353676,-0.012068034149706364
1686445579552850400,4.294850341796875,0.05377505347132683,0.005610318388789892,-0.01537642627954483
1686445579562867700,4.30486767578125,0.06196613982319832,-0.030508538708090782,-0.017691778019070625
1686445579572884500,4.314884521484375,0.06737634539604187,-0.05569697916507721,-0.0064374287612736225
1686445579582900500,4.324900390625,0.07768117636442184,-0.07213081419467926,0.005169160198420286
1686445579592917500,4.33491748046875,0.08201348036527634,-0.08281927555799484,0.021565787494182587
1686445579602934500,4.3449345703125,0.07622537016868591,-0.09632229804992676,0.025938164442777634
1686445579612951600,4.35495166015625,0.05803467705845833,-0.11458847671747208,0.021438144147396088
1686445579622968300,4.36496826171875,0.035456929355859756,-0.1357896327972412,0.013526692055165768
1686445579632985600,4.374985595703125,0.01497478038072586,-0.1663544923067093,0.004475025925785303
1686445579643002600,4.385002685546875,-0.000010827090591192245,-0.20209145545959473,0.0036513102240860462
1686445579653018400,4.395018310546875,-0.018630702048540115,-0.23386698961257935,0.0014981611166149378
1686445579663035600,4.40503564453125,-0.032460231333971024,-0.25590941309928894,0.014282666146755219
1686445579673052700,4.415052734375,-0.040560539811849594,-0.25992950797080994,0.016188830137252808
1686445579683069400,4.4250693359375,-0.0474030002951622,-0.24522271752357483,0.011394606903195381
1686445579693086700,4.435086669921875,-0.053002435714006424,-0.20682550966739655,0.0034212558530271053
1686445579703103500,4.445103515625,-0.05705763027071953,-0.13496437668800354,-0.003928003832697868
1686445579713120500,4.45512060546875,-0.06419773399829865,-0.0460951067507267,0.005512336269021034
1686445579723137500,4.465137451171875,-0.06313886493444443,0.03779659792780876,0.020989296957850456
1686445579733153500,4.475153564453125,-0.05777382478117943,0.10282737016677856,0.0322541669011116
1686445579743170600,4.485170654296875,-0.05802895501255989,0.14613781869411469,0.037740811705589294
1686445579753187600,4.4951875,-0.05519990622997284,0.16627046465873718,0.03988875448703766
1686445579763204600,4.50520458984375,-0.05627289414405823,0.17438484728336334,0.045100025832653046
1686445579773221600,4.5152216796875,-0.052403319627046585,0.18192851543426514,0.05144421011209488
1686445579783238700,4.52523876953125,-0.04600800573825836,0.1801127791404724,0.06012718006968498
1686445579793255700,4.535255615234375,-0.04132835566997528,0.17908017337322235,0.05630144104361534
1686445579803271700,4.545271728515625,-0.03958398848772049,0.17643432319164276,0.056381337344646454
1686445579813288700,4.555288818359375,-0.03696399927139282,0.17181730270385742,0.044668834656476974
1686445579823305700,4.5653056640625,-0.03815096616744995,0.16837063431739807,0.039247702807188034
1686445579833322800,4.57532275390625,-0.03629538416862488,0.1639903038740158,0.03297765925526619
1686445579843339800,4.58533984375,-0.029128553345799446,0.15496698021888733,0.03369298204779625
1686445579853356500,4.5953564453125,-0.018708249554038048,0.1544826477766037,0.03964519128203392
1686445579863373800,4.605373779296875,-0.007231091149151325,0.16085000336170197,0.049180105328559875
1686445579873390600,4.615390625,0.00031882990151643753,0.17140252888202667,0.05067110061645508
1686445579883406600,4.625406494140625,-0.003919058479368687,0.18478091061115265,0.057817425578832626
1686445579893423600,4.635423583984375,-0.004854360595345497,0.18552739918231964,0.05460325628519058
1686445579903440600,4.645440673828125,-0.005532401613891125,0.16845999658107758,0.05122077465057373
1686445579913457700,4.655457763671875,-0.0011459840461611748,0.1374567598104477,0.04003143683075905
1686445579923474700,4.665474609375,0.006321519613265991,0.09547735750675201,0.027183284983038902
1686445579933491700,4.67549169921875,0.006083230022341013,0.049446951597929,0.00992853194475174
1686445579943508700,4.6855087890625,0.007449431344866753,0.012720361351966858,-0.004667454864829779
1686445579953524500,4.6955244140625,0.0014870832674205303,-0.00940618198364973,-0.016003334894776344
1686445579963541800,4.705541748046875,-0.008754901587963104,-0.011531118303537369,-0.023895079270005226
1686445579973558800,4.715558837890625,-0.017435990273952484,-0.008967602625489235,-0.02528129518032074
1686445579983575600,4.725575439453125,-0.022563375532627106,-0.004333436489105225,-0.022233573719859123
1686445579993592800,4.7355927734375,-0.02580282837152481,-0.003766226815059781,-0.02080403082072735
1686445580003609600,4.745609619140625,-0.028244417160749435,0.00046234019100666046,-0.014413774013519287
1686445580013626600,4.755626708984375,-0.02293729968369007,-0.0035967626608908176,-0.011534283868968487
1686445580023643600,4.7656435546875,-0.014909733086824417,-0.011319929733872414,0.0029197565745562315
1686445580033659600,4.77565966796875,-0.006667766720056534,-0.020954757928848267,0.023541636765003204
1686445580043676700,4.7856767578125,0.0055593387223780155,-0.021905239671468735,0.05648307502269745
1686445580053693700,4.795693603515625,0.007544998079538345,-0.0000453670509159565,0.08902613073587418
1686445580063710700,4.805710693359375,0.0037148394621908665,0.032181013375520706,0.11067496240139008
1686445580073727500,4.8157275390625,-0.003291492350399494,0.07135079056024551,0.11393757164478302
1686445580083744800,4.825744873046875,-0.01431005448102951,0.10042718052864075,0.11135270446538925
1686445580093761800,4.83576171875,-0.028338627889752388,0.110483318567276,0.10518031567335129
1686445580103777500,4.845777587890625,-0.039704203605651855,0.09646043926477432,0.10733427852392197
1686445580113794600,4.855794677734375,-0.04954817518591881,0.07547427713871002,0.11130858212709427
1686445580123811800,4.865811767578125,-0.04680884629487991,0.05716078355908394,0.1083865612745285
1686445580133828600,4.87582861328125,-0.05265568569302559,0.05005965009331703,0.09914692491292953
1686445580143845600,4.885845703125,-0.0577058419585228,0.05343174189329147,0.08932571858167648
1686445580153862700,4.895862548828125,-0.05393436551094055,0.05177674815058708,0.08042147755622864
1686445580163879700,4.905879638671875,-0.039575397968292236,0.058347299695014954,0.07263439148664474
1686445580173895700,4.915895751953125,-0.03093152865767479,0.0779791921377182,0.07189390808343887
1686445580183912700,4.92591259765625,-0.02643052116036415,0.10155989229679108,0.06404397636651993
1686445580193929700,4.9359296875,-0.027069788426160812,0.10813207179307938,0.04985600337386131
1686445580203946500,4.945946533203125,-0.027867406606674194,0.10807960480451584,0.03657348453998566
1686445580213963800,4.9559638671875,-0.030298780649900436,0.10307393223047256,0.030496975407004356
1686445580223980500,4.96598046875,-0.03002260997891426,0.08350582420825958,0.035482946783304214
1686445580233997600,4.97599755859375,-0.02773125469684601,0.04383786395192146,0.05713905021548271
1686445580244014800,4.986014892578125,-0.023388439789414406,-0.00326440017670393,0.07739798724651337
1686445580254030600,4.996030517578125,-0.02739088609814644,-0.050917983055114746,0.09177182614803314
1686445580264047600,5.006047607421875,-0.02944657951593399,-0.10950912535190582,0.0879717618227005
1686445580274065000,5.01606494140625,-0.024681411683559418,-0.1650076061487198,0.060077112168073654
1686445580284081700,5.02608154296875,-0.013189337216317654,-0.1996675729751587,0.02600463107228279
1686445580294098700,5.0360986328125,0.0042128427885472775,-0.2184530794620514,-0.0021187681704759598
1686445580304115700,5.04611572265625,0.014708094298839569,-0.22569873929023743,-0.00969919003546238
1686445580314132700,5.0561328125,0.018528539687395096,-0.21644224226474762,-0.01158374547958374
1686445580324148700,5.066148681640625,0.004306994378566742,-0.19530713558197021,-0.010013813152909279
1686445580334165500,5.07616552734375,-0.007998275570571423,-0.16906341910362244,-0.013966565951704979
1686445580344182800,5.086182861328125,-0.02257402241230011,-0.14753468334674835,-0.010155582800507545
1686445580354199600,5.096199462890625,-0.03422560915350914,-0.12486788630485535,0.002897305181249976
1686445580364216600,5.106216552734375,-0.03535905107855797,-0.09716994315385818,0.01685146987438202
1686445580374233600,5.116233642578125,-0.032553788274526596,-0.06398888677358627,0.037769075483083725
1686445580384250600,5.126250732421875,-0.020695529878139496,-0.029030103236436844,0.049017470329999924
1686445580394267600,5.136267578125,-0.001114292535930872,-0.011594235897064209,0.06524092704057693
1686445580404283600,5.14628369140625,0.0073644137009978294,-0.02537103369832039,0.07611434161663055
1686445580414300700,5.15630078125,0.015413662418723106,-0.060498327016830444,0.08660233020782471
1686445580424317700,5.166317626953125,0.009739264845848083,-0.10042763501405716,0.08271784335374832
1686445580434334700,5.176334716796875,0.01402765791863203,-0.16157685220241547,0.06914534419775009
1686445580444351700,5.186351806640625,0.004979302175343037,-0.23822662234306335,0.02922988310456276
1686445580454368500,5.196368408203125,-0.007506336085498333,-0.32691672444343567,-0.019869646057486534
1686445580464385800,5.2063857421875,-0.03111179545521736,-0.3808840811252594,-0.05572511628270149
1686445580474401800,5.21640185546875,-0.04383663088083267,-0.37807387113571167,-0.057248275727033615
1686445580484418600,5.22641845703125,-0.04398816451430321,-0.31049561500549316,-0.037019435316324234
1686445580494435800,5.236435791015625,-0.019980456680059433,-0.16953159868717194,-0.020568840205669403
1686445580504452600,5.24645263671875,0.0033176748547703028,0.022897232323884964,-0.015762099996209145
1686445580514469600,5.2564697265625,0.009477484971284866,0.19368159770965576,-0.013405739329755306
1686445580524486700,5.266486572265625,-0.008038392290472984,0.29209020733833313,-0.004607188515365124
1686445580534503700,5.276503662109375,-0.010983685962855816,0.31559476256370544,0.00567342434078455
1686445580544520700,5.286520751953125,-0.016978461295366287,0.2766271233558655,0.00790036004036665
1686445580554536700,5.29653662109375,-0.023540224879980087,0.1829214096069336,0.0011449854355305433
1686445580564553700,5.3065537109375,-0.032661814242601395,0.0639612004160881,-0.010340696200728416
1686445580574570800,5.31657080078125,-0.041459061205387115,-0.049687400460243225,-0.020129308104515076
1686445580584587500,5.32658740234375,-0.04296720772981644,-0.12975800037384033,-0.023464385420084
1686445580594604800,5.336604736328125,-0.030636467039585114,-0.16630949079990387,-0.017051419243216515
1686445580604621600,5.34662158203125,-0.01984081231057644,-0.1616779863834381,-0.0011222551111131907
1686445580614638600,5.356638671875,-0.01277153193950653,-0.13621284067630768,0.013256462290883064
1686445580624654800,5.36665478515625,-0.007036680355668068,-0.10184980183839798,0.030700964853167534
1686445580634671600,5.376671630859375,-0.0025516003370285034,-0.06823434680700302,0.03312133252620697
1686445580644688600,5.386688720703125,-0.004049096256494522,-0.03801732137799263,0.035200994461774826
1686445580654705700,5.39670556640625,-0.006104574538767338,-0.005175725556910038,0.026387976482510567
1686445580664722700,5.40672265625,-0.012967273592948914,0.0062489695847034454,0.013927845284342766
1686445580674739700,5.41673974609375,-0.015609382651746273,0.013829346746206284,0.0086803138256073
1686445580684756700,5.4267568359375,-0.015245861373841763,0.014810455963015556,0.00477212481200695
1686445580694773800,5.436773681640625,-0.01104005053639412,0.014448615722358227,0.006645180284976959
1686445580704789800,5.446789794921875,-0.010853629559278488,0.008765430189669132,0.01512867957353592
1686445580714806500,5.456806640625,-0.00001558242365717888,0.010932579636573792,0.02434336207807064
1686445580724823800,5.46682373046875,-0.00013622362166643143,0.003364675212651491,0.03413473814725876
1686445580734840600,5.476840576171875,0.0013282264117151499,-0.008068871684372425,0.04270702600479126
1686445580744857900,5.48685791015625,-0.003985845483839512,-0.026867592707276344,0.0482511930167675
1686445580754874600,5.49687451171875,-0.007761748041957617,-0.0448322594165802,0.05105649679899216
1686445580764891100,5.50689111328125,-0.0032910997979342937,-0.04848824813961983,0.05834290757775307
1686445580774907100,5.5169072265625,0.0011106682941317558,-0.05070548132061958,0.07023788243532181
1686445580784924000,5.526923828125,0.009667671285569668,-0.04388805478811264,0.07594077289104462
1686445580794941000,5.53694091796875,0.015673616901040077,-0.031476087868213654,0.08312389254570007
1686445580804958200,5.546958251953125,0.016898138448596,-0.026558557525277138,0.08416439592838287
1686445580814975000,5.55697509765625,0.013175117783248425,-0.03245704248547554,0.08066260814666748
1686445580824992000,5.566991943359375,0.010813958942890167,-0.05359455198049545,0.07514427602291107
1686445580835009000,5.577009033203125,0.007263680920004845,-0.07787198573350906,0.0676845908164978
1686445580845025000,5.58702490234375,0.00017967214807868004,-0.11002592742443085,0.05273893103003502
1686445580855042000,5.5970419921875,-0.0020643044263124466,-0.13528324663639069,0.042151208966970444
1686445580865059000,5.60705908203125,-0.003339958842843771,-0.15140202641487122,0.027384784072637558
1686445580875076000,5.617076171875,-0.007288363762199879,-0.1506551057100296,0.012764083221554756
1686445580885092900,5.6270927734375,-0.004341309890151024,-0.13606658577919006,-0.00021802750416100025
1686445580895110100,5.637110107421875,-0.0035169017501175404,-0.10784662514925003,-0.007434112019836903
1686445580905127200,5.647127197265625,-0.006714293267577887,-0.07589641213417053,-0.009840811602771282
1686445580915144000,5.65714404296875,-0.001935611478984356,-0.047426801174879074,-0.006744588725268841
1686445580925160000,5.667159912109375,-0.0036586765199899673,-0.013154048472642899,0.001718937186524272
1686445580935177000,5.677177001953125,-0.0012231403961777687,0.01011963002383709,0.0072125717997550964
1686445580945194000,5.687194091796875,-0.003239952027797699,0.022794412449002266,0.008234160020947456
1686445580955211300,5.697211181640625,-0.0008539971895515919,0.0272924043238163,0.01000907737761736
1686445580965228000,5.70722802734375,-0.0022231279872357845,0.026769623160362244,0.00511099211871624
1686445580975245000,5.7172451171875,-0.003444824367761612,0.020756512880325317,0.0015626095701009035
1686445580985262000,5.727261962890625,-0.00084637850522995,0.02132350020110607,0.00475334282964468
1686445580995278000,5.737278076171875,0.0006388039328157902,0.028040964156389236,0.009091263636946678
1686445581005295000,5.747295166015625,0.0014244364574551582,0.032312676310539246,0.016360094770789146
1686445581015312000,5.757311767578125,0.005548633635044098,0.03633199259638786,0.019915124401450157
1686445581025329200,5.7673291015625,0.0027480535209178925,0.036104295402765274,0.021423805505037308
1686445581035346000,5.777345947265625,0.0027080962900072336,0.034730248153209686,0.024256059899926186
1686445581045363000,5.787363037109375,-0.005044365301728249,0.03547167405486107,0.022077329456806183
1686445581055380200,5.797380126953125,-0.008512992411851883,0.034615177661180496,0.023141639307141304
1686445581065397000,5.80739697265625,-0.012205464765429497,0.03067716397345066,0.019546106457710266
1686445581075413000,5.8174130859375,-0.016835857182741165,0.02469823695719242,0.017663128674030304
1686445581085430300,5.82743017578125,-0.015581508167088032,0.01079041138291359,0.012241732329130173
1686445581095447000,5.837447021484375,-0.010644789785146713,0.0017529302276670933,0.009213410317897797
1686445581105464000,5.847464111328125,-0.006797322537750006,-0.0038831173442304134,0.009195568040013313
1686445581115481000,5.857481201171875,-0.0033602393232285976,-0.0033050563652068377,0.010641267523169518
1686445581125498000,5.867498046875,0.0011112079955637455,0.004281490575522184,0.006498720496892929
1686445581135515000,5.877514892578125,0.0029993976932018995,0.009811182506382465,0.008086003363132477
1686445581145532200,5.8875322265625,0.00573233375325799,0.01041332259774208,0.005747481249272823
1686445581155548200,5.897548095703125,0.006855357438325882,-0.0005666392389684916,0.002328381408005953
1686445581165565000,5.90756494140625,0.005608998239040375,-0.015402045100927353,0.0012237022165209055
1686445581175582000,5.91758203125,0.006945151835680008,-0.027515564113855362,-0.0013194710481911898
1686445581185599000,5.927598876953125,0.007293227128684521,-0.03693756088614464,-0.002331738593056798
1686445581195616000,5.937615966796875,0.006167634390294552,-0.03635537251830101,-0.0043867467902600765
1686445581205633300,5.94763330078125,0.00008497433736920357,-0.026510464027523994,-0.006521536968648434
1686445581215650000,5.957650146484375,-0.0037136971950531006,-0.019573966041207314,-0.0069383177906274796
1686445581225666000,5.967666015625,-0.006016532890498638,-0.012489425018429756,-0.006714612245559692
1686445581235683000,5.97768310546875,-0.009558221325278282,-0.006987830623984337,-0.006274468265473843
1686445581245700000,5.9877001953125,-0.0070359413512051105,-0.004918554797768593,-0.00887424685060978
1686445581255717000,5.997717041015625,-0.006600514519959688,-0.005414168816059828,-0.004344209097325802
1686445581265734000,6.00773388671875,0.0008009425364434719,-0.0016836128197610378,0.0032202336005866528
1686445581275751200,6.017751220703125,0.0021528578363358974,0.0005769873969256878,0.003232185961678624
1686445581285768000,6.027767822265625,0.0029115923680365086,0.0038079344667494297,0.005536618642508984
1686445581295784000,6.037783935546875,0.005389131139963865,0.010058639571070671,0.012808379717171192
1686445581305801200,6.04780126953125,0.0050469147972762585,0.013641657307744026,0.011428862810134888
1686445581315818000,6.05781787109375,0.006258433219045401,0.011598082259297371,0.00930673535913229
1686445581325835000,6.0678349609375,0.0030812821350991726,0.0005259898025542498,0.005970326252281666
1686445581335852000,6.07785205078125,0.00512112258002162,-0.012749578803777695,0.004413063172250986
1686445581345869000,6.087869140625,0.0035413354635238647,-0.023535115644335747,0.0022772082593292
1686445581355886000,6.097885986328125,0.005033327266573906,-0.025668570771813393,0.0015587152447551489
1686445581365903000,6.107903076171875,0.010361513122916222,-0.016902243718504906,0.005635748617351055
1686445581375919000,6.117919189453125,0.008877872489392757,-0.002983392681926489,0.010245620273053646
1686445581385936100,6.12793603515625,0.0048285359516739845,0.00582740968093276,0.007972345687448978
1686445581395953000,6.137952880859375,0.006671142298728228,0.012253066524863243,0.010173320770263672
1686445581405970200,6.14797021484375,0.004975773859769106,0.010275935754179955,0.00874719861894846
1686445581415987000,6.157987060546875,0.00360039621591568,0.0017067654989659786,0.0025122615043073893
1686445581426004000,6.16800390625,0.0008179256692528725,-0.001398480380885303,-0.002265982097014785
1686445581436021000,6.17802099609375,-0.0012311595492064953,-0.004909032955765724,-0.004578760825097561
1686445581446038000,6.1880380859375,-0.0032743364572525024,-0.003250149777159095,-0.007531140930950642
1686445581456054000,6.198053955078125,-0.0009089321829378605,-0.0005848146975040436,-0.002673228969797492
1686445581466071000,6.208071044921875,-0.0022857864387333393,-0.0016918906476348639,-0.002793604042381048
1686445581476088000,6.218088134765625,-0.0011984999291598797,-0.001227119006216526,-0.0027732038870453835
1686445581486105000,6.22810498046875,-0.002012095879763365,-0.00025293463841080666,0.0014068935997784138
1686445581496122000,6.2381220703125,-0.0016718516126275063,-0.0023521019611507654,0.0015369255561381578
1686445581506139100,6.24813916015625,0.004799895919859409,-0.002618151716887951,0.0008698038291186094
1686445581516156000,6.258156005859375,0.003985927440226078,-0.004415151663124561,0.003083807183429599
1686445581526172200,6.268172119140625,0.004046380985528231,0.0004957171622663736,0.0006321012042462826
1686445581536189200,6.278189208984375,0.0007631559856235981,0.008978797122836113,-0.0035991370677948
1686445581546206000,6.2882060546875,0.0009141573682427406,0.013007094152271748,-0.003037476446479559
1686445581556223200,6.29822314453125,0.0008914130739867687,0.008280289359390736,-0.0024640802294015884
1686445581566240000,6.308239990234375,0.0019018163438886404,0.0002737618051469326,-0.0007652498316019773
1686445581576257000,6.318257080078125,0.002358796773478389,-0.012378976680338383,-0.001809912035241723
1686445581586274000,6.328274169921875,0.0028016804717481136,-0.017598506063222885,0.0048083094879984856
1686445581596290000,6.3382900390625,0.004882644396275282,-0.016062041744589806,0.005561531521379948
1686445581606307000,6.34830712890625,0.002611766802147031,-0.009300275705754757,0.008576762862503529
1686445581616323800,6.35832373046875,0.0032465553376823664,-0.003242078935727477,0.008328309282660484
1686445581626341000,6.368341064453125,0.002599939936771989,0.0013627929147332907,0.006621755659580231
1686445581636358100,6.378358154296875,0.0014454054180532694,0.001171231735497713,0.00891523901373148
1686445581646375000,6.388375,0.005967453122138977,-0.002669845474883914,0.008576218970119953
1686445581656392200,6.39839208984375,0.0015244302339851856,-0.006612597033381462,0.008452524431049824
1686445581666409000,6.408408935546875,0.0061119915917515755,-0.013625498861074448,0.004546999000012875
1686445581676425000,6.418425048828125,0.007527931593358517,-0.010498078539967537,0.007543004117906094
1686445581686442200,6.428442138671875,0.011893917806446552,-0.01033748872578144,0.002572480356320739
1686445581696459000,6.438458984375,0.011806330643594265,-0.006558018736541271,0.0027620166074484587
1686445581706476000,6.44847607421875,0.004911939147859812,-0.004906059708446264,0.002393168630078435
1686445581716493000,6.4584931640625,0.003780018538236618,-0.0018136455910280347,0.0019731251522898674
1686445581726510000,6.468510009765625,0.003300915937870741,-0.002479968359693885,-0.00005620368756353855
1686445581736526800,6.47852685546875,0.0043840776197612286,-0.000550790224224329,-0.0005215582787059247
1686445581746544000,6.488544189453125,-0.0017744824290275574,-0.001687427400611341,-0.004932019393891096
1686445581756560100,6.49856005859375,-0.001506442204117775,-0.003538568504154682,-0.005753718316555023
1686445581766577200,6.5085771484375,-0.0034830402582883835,-0.004124996718019247,-0.002464714227244258
1686445581776594200,6.51859423828125,-0.005752689205110073,-0.0035033728927373886,-0.004959286190569401
1686445581786611200,6.528611083984375,-0.0009696520864963531,0.0006346467416733503,-0.00016612920444458723
1686445581796628200,6.538628173828125,-0.00408122967928648,0.0021625934168696404,0.002460919786244631
1686445581806645200,6.548645263671875,0.0011960901319980621,0.0071605476550757885,0.0017812810838222504
1686445581816662000,6.558662109375,-0.0012280461378395557,0.007001800928264856,0.0027819443494081497
1686445581826678300,6.56867822265625,-0.0018719984218478203,0.00947720929980278,0.005345769692212343
1686445581836695300,6.5786953125,0.0013058779295533895,0.00597430719062686,0.005480724386870861
1686445581846712000,6.588712158203125,-0.0016627474687993526,0.0037761335261166096,0.0027022487483918667
1686445581856729300,6.598729248046875,0.0015942323952913284,0.0026342389173805714,0.0014337387401610613
1686445581866746000,6.60874609375,0.005112534388899803,0.003275528084486723,0.002455593552440405
1686445581876763100,6.61876318359375,0.0030242232605814934,0.003569785039871931,0.004857612308114767
1686445581886780200,6.6287802734375,0.0019765356555581093,0.005497114732861519,0.004939637612551451
1686445581896797200,6.638797119140625,-0.0021140645258128643,0.007163411006331444,0.002281763358041644
1686445581906813200,6.648813232421875,0.0001821131445467472,0.010069452226161957,0.0026668563950806856
1686445581916830000,6.658829833984375,0.0022925459779798985,0.009903988800942898,0.0012966662179678679
1686445581926847200,6.66884716796875,-0.0006047068163752556,0.007352679967880249,0.003595506539568305
1686445581936864300,6.6788642578125,0.0013109436258673668,0.0017043077386915684,0.0026010735891759396
1686445581946881000,6.688881103515625,-0.002972484566271305,0.00106781255453825,0.0006977124139666557
1686445581956898300,6.698898193359375,0.0013586673885583878,-0.003761383006349206,0.001955238403752446
1686445581966915000,6.7089150390625,0.004020763095468283,-0.004766193684190512,0.004388835281133652
1686445581976931000,6.71893115234375,0.0017629868816584349,-0.0049368650652468204,0.0050926292315125465
1686445581986948400,6.7289482421875,0.004582209046930075,-0.004358426667749882,-0.000011584954336285591
1686445581996965000,6.738965087890625,-0.0006676195189356804,-0.0028517849277704954,0.005221632309257984
1686445582006982100,6.748982177734375,0.002865063725039363,-0.003621704876422882,0.0011113095097243786
1686445582016999200,6.758999267578125,0.00039151962846517563,-0.005305621773004532,0.0016013309359550476
1686445582027016200,6.76901611328125,0.003388641169294715,-0.006448916159570217,-0.004295440390706062
1686445582037033000,6.779032958984375,0.0006884317845106125,-0.005806740839034319,-0.003099601250141859
1686445582047050200,6.78905029296875,-0.002296172548085451,-0.003164352383464575,-0.005261555314064026
1686445582057066200,6.799066162109375,-0.0004265890456736088,-0.0017274420242756605,-0.005339173134416342
1686445582067083000,6.8090830078125,-0.0008271285332739353,0.00102866324596107,0.0008124627638608217
1686445582077100300,6.819100341796875,-0.00039837369695305824,0.0016175319906324148,-0.0031196544878184795
1686445582087117300,6.829117431640625,0.001338806003332138,0.0015565457288175821,0.0022045369260013103
1686445582097134000,6.839134033203125,-0.0034308978356420994,-0.0022525128442794085,0.0019056343007832766
1686445582107151400,6.8491513671875,-0.0014460436068475246,-0.0006293162005022168,0.00029016088228672743
1686445582117168000,6.859168212890625,-0.0051750014536082745,-0.0030850169714540243,0.002208169549703598
1686445582127184100,6.86918408203125,-0.00208094110712409,-0.0037971462588757277,0.000987909035757184
1686445582137201200,6.879201171875,-0.001047979574650526,0.00044511700980365276,-0.0020936443470418453
1686445582147218200,6.88921826171875,-0.002657327800989151,-0.0009975172579288483,-0.0018731345189735293
1686445582157235200,6.899235107421875,0.0015246644616127014,0.004516736604273319,0.0006152421701699495
1686445582167252000,6.909251953125,-0.0006972108967602253,0.0027017926331609488,-0.00047798536252230406
1686445582177269200,6.919269287109375,-0.0015039495192468166,-0.000755188288167119,0.0023798071779310703
1686445582187286000,6.9292861328125,-0.00019793538376688957,-0.004124619532376528,0.00042611209210008383
1686445582197303000,6.939302978515625,-0.0026224562898278236,-0.005979182664304972,-0.0011764110531657934
1686445582207319300,6.9493193359375,-0.001223231665790081,-0.006171196699142456,-0.0007977095665410161
1686445582217336000,6.959336181640625,-0.003699377179145813,-0.009945603087544441,0.0007070812862366438
1686445582227353000,6.96935302734375,-0.008378551341593266,-0.009767170995473862,-0.003492990043014288
1686445582237370400,6.979370361328125,-0.006694258190691471,-0.010342778638005257,-0.0033378510270267725
1686445582247387100,6.98938720703125,-0.0031511886045336723,-0.004518978297710419,0.00046993675641715527
1686445582257404200,6.999404052734375,0.000006271060556173325,-0.002904613269492984,0.002432378241792321
1686445582267421200,7.009421142578125,-0.00044273771345615387,-0.0033110114745795727,-0.0002643386833369732
1686445582277437200,7.019437255859375,-0.002483193762600422,-0.004843673203140497,0.00014727911911904812
1686445582287454200,7.0294541015625,-0.0012999512255191803,-0.010778261348605156,0.0014413092285394669
1686445582297471200,7.03947119140625,-0.0016901628114283085,-0.0073114484548568726,-0.00036388891749083996
1686445582307488300,7.04948828125,-0.0024475660175085068,-0.0090715317055583,-0.0010608381126075983
1686445582317505000,7.059505126953125,0.00037353532388806343,-0.007476075552403927,-0.0014851196901872754
1686445582327522300,7.069522216796875,-0.0013537909835577011,-0.0015113940462470055,-0.0019176170462742448
1686445582337539000,7.0795390625,0.0011729863472282887,0.0045457873493433,-0.0003457391867414117
1686445582347555000,7.08955517578125,0.0017769911792129278,0.0033047543838620186,0.0003655911423265934
1686445582357572000,7.099572021484375,0.0028562145307660103,0.002969261258840561,0.001156211132183671
1686445582367589000,7.109589111328125,-0.00018671341240406036,0.004350909031927586,-0.0007269099587574601
1686445582377606100,7.119606201171875,-0.00011427560821175575,0.002421715296804905,0.0005932189524173737
1686445582387623200,7.129623046875,-0.0017451951280236244,0.000404637074097991,0.0012579439207911491
1686445582397640200,7.13964013671875,-0.004182066302746534,-0.002102246042340994,0.001123126596212387
1686445582407657200,7.1496572265625,-0.00379351107403636,-0.005408560857176781,0.00045280891936272383
1686445582417674000,7.159674072265625,-0.004052136093378067,-0.006014876067638397,-0.0013143812539055943
1686445582427690200,7.169690185546875,-0.0033261580392718315,-0.0031210854649543762,0.00020681635942310095
1686445582437707300,7.179707275390625,-0.0011066645383834839,0.0008010726887732744,0.0009221516083925962
1686445582447724000,7.18972412109375,-0.002984725870192051,0.0024913810193538666,-0.0015407397877424955
1686445582457741300,7.1997412109375,-0.0015982994809746742,0.00528012216091156,-0.0027429009787738323
1686445582467758000,7.209758056640625,0.00023022713139653206,-0.00045819056686013937,0.0008758024778217077
1686445582477775000,7.219775146484375,0.0005944548174738884,-0.002927839756011963,-0.0018269272986799479
1686445582487792000,7.229792236328125,0.00038220128044486046,0.0020384229719638824,-0.0027723493985831738
1686445582497809200,7.23980908203125,-0.0009263837710022926,-0.002826641546562314,-0.0009912893874570727
1686445582507825200,7.2498251953125,-0.0012467619962990284,0.0005723510403186083,-0.004029423464089632
1686445582517842200,7.25984228515625,-0.0016599581576883793,-0.001871077693067491,-0.003077456261962652
1686445582527859200,7.269859130859375,-0.0009459648281335831,-0.003424233291298151,-0.006251677870750427
1686445582537876200,7.279876220703125,-0.0013268780894577503,-0.005659044720232487,-0.004198388196527958
1686445582547893200,7.289893310546875,-0.002142870333045721,-0.006322970613837242,-0.0021490855142474174
1686445582557910300,7.29991015625,-0.0035656378604471684,-0.0037591063883155584,-0.0011905976571142673
1686445582567927000,7.309927001953125,-0.002001296728849411,-0.001094613689929247,0.0002725430531427264
1686445582577943000,7.319943115234375,-0.0017051375471055508,0.0001146842259913683,0.0026501722168177366
1686445582587960300,7.329960205078125,-0.0009464030154049397,-0.0024097261484712362,-0.00010353617835789919
1686445582597977000,7.33997705078125,-0.00020750751718878746,-0.0018921357113867998,0.0001760020386427641
1686445582607994000,7.349994140625,-0.0004107062704861164,-0.003365929238498211,-0.001287671271711588
1686445582618011100,7.36001123046875,0.001319253584370017,-0.0030641048215329647,-0.001130998833104968
1686445582628028200,7.370028076171875,-0.001224597916007042,-0.003375428495928645,0.0009891437366604805
1686445582638045200,7.380045166015625,0.0014673694968223572,-0.002296406077221036,-0.0017018207581713796
1686445582648062200,7.390062255859375,0.000976016279309988,-0.001217293320223689,-0.001857882016338408
1686445582658078200,7.400078125,0.0013340425211936235,0.0022122981026768684,0.0020124316215515137
1686445582668095200,7.41009521484375,0.002445113379508257,-0.003489796072244644,-0.00024726043920964
1686445582678112300,7.4201123046875,-0.002602407243102789,-0.0012530017411336303,-0.000800799229182303
1686445582688129300,7.43012939453125,-0.0035395734012126923,-0.00266261282376945,-0.0028493027202785015
1686445582698146000,7.44014599609375,-0.002883666194975376,-0.0036688209511339664,-0.003019963391125202
1686445582708163300,7.450163330078125,-0.005327649414539337,-0.002123122103512287,-0.0020686821080744267
1686445582718180000,7.46018017578125,-0.000854790210723877,-0.0034324454609304667,-0.0021737043280154467
1686445582728196000,7.470196044921875,-0.003087052144110203,-0.0030758483335375786,-0.00016621348913758993
1686445582738213000,7.480213134765625,-0.003251057118177414,-0.0011039082892239094,0.0005373478634282947
1686445582748230100,7.490230224609375,0.0003031976521015167,-0.0022525296080857515,0.0021301843225955963
1686445582758247200,7.5002470703125,-0.0009787529706954956,-0.0036260788328945637,-0.0012060207081958652
1686445582768264400,7.510264404296875,0.00036587705835700035,-0.0020833094604313374,0.0011114621302112937
1686445582778281500,7.520281494140625,-0.0036631589755415916,-0.005119222216308117,-0.004683916922658682
1686445582788298500,7.530298583984375,-0.0023478236980736256,-0.004970351234078407,-0.0016966492403298616
1686445582798315500,7.5403154296875,-0.000045408960431814194,-0.004604796878993511,-0.004296224098652601
1686445582808331500,7.55033154296875,-0.002225472591817379,-0.007309769280254841,-0.0019286738242954016
1686445582818348300,7.560348388671875,-0.000698387622833252,-0.005101933144032955,-0.002545073628425598
1686445582828365600,7.570365478515625,-0.0007340740412473679,-0.005750146694481373,-0.002098195254802704
1686445582838382600,7.580382568359375,-0.0032687424682080746,-0.0018558386946097016,-0.0021647727116942406
1686445582848399400,7.5903994140625,-0.0044061788357794285,-0.0002970905043184757,-0.003633239772170782
1686445582858416600,7.600416748046875,-0.006240801885724068,-0.004856070503592491,-0.003750848351046443
1686445582868433400,7.610433349609375,-0.004618138074874878,-0.005758083425462246,-0.005431835539638996
1686445582878450400,7.620450439453125,-0.0050140018574893475,-0.0053740860894322395,-0.0006740668904967606
1686445582888466400,7.630466552734375,-0.003531952854245901,-0.0013396632857620716,-0.0022386740893125534
1686445582898483500,7.6404833984375,-0.001989398617297411,-0.0020084967836737633,-0.001474903430789709
1686445582908500500,7.65050048828125,-0.0018628984689712524,-0.0030953327659517527,-0.000599522318225354
1686445582918517200,7.660517333984375,-0.00273439334705472,-0.004984288010746241,-0.0017743288772180676
1686445582928534500,7.670534423828125,-0.0033519803546369076,-0.004626092966645956,-0.0003756366204470396
1686445582938551600,7.680551513671875,-0.003535593394190073,-0.002914124634116888,-0.0006738316151313484
1686445582948568300,7.690568359375,-0.0000010454095900058746,-0.0017322138883173466,-0.004105847328901291
1686445582958584600,7.70058447265625,0.0011878712102770805,-0.0014050881145521998,-0.0025232883635908365
1686445582968601300,7.710601318359375,-0.002927511464804411,0.0020564887672662735,-0.0011099488474428654
1686445582978618400,7.720618408203125,-0.0007889545522630215,0.0022851387038826942,-0.001541934092529118
1686445582988635600,7.7306357421875,-0.0019708657637238503,0.0032659810967743397,-0.001907852478325367
1686445582998652400,7.74065234375,-0.0009355805814266205,0.0005582086741924286,-0.00009837769903242588
1686445583008669400,7.75066943359375,-0.0015909848734736443,-0.0013062702491879463,0.00034423975739628077
1686445583018686500,7.7606865234375,-0.005324931815266609,-0.004919711966067553,-0.00048810255248099566
1686445583028703500,7.770703369140625,-0.00030460720881819725,-0.007602047640830278,-0.0000950199319049716
1686445583038719500,7.780719482421875,-0.005932455882430077,-0.00801681075245142,0.0030091514345258474
1686445583048736500,7.790736572265625,-0.0023486404679715633,-0.006662327330559492,-0.0026130478363484144
1686445583058753500,7.80075341796875,-0.0019334377720952034,-0.004146222025156021,-0.0019016026053577662
1686445583068770300,7.810770263671875,-0.004169428255409002,-0.000001810956746339798,-0.0010126394918188453
1686445583078787600,7.82078759765625,-0.0032152547501027584,0.0028160421643406153,0.0031567467376589775
1686445583088804600,7.8308046875,-0.004384648520499468,0.003698613727465272,-0.0018950036028400064
1686445583098821400,7.8408212890625,-0.0019139498472213745,0.004210027866065502,0.0004930755821987987
1686445583108837400,7.85083740234375,0.0012970236130058765,0.0033690016716718674,-0.0006174625596031547
1686445583118854400,7.8608544921875,-0.004303726367652416,-0.0036328223068267107,-0.0015791761688888073
1686445583128871400,7.870871337890625,-0.005374317057430744,-0.005127388052642345,-0.006076189689338207
1686445583138888400,7.880888427734375,-0.004642253741621971,-0.008469749242067337,-0.001561905024573207
1686445583148905500,7.890905517578125,-0.0042283982038497925,-0.012097240425646305,-0.0014878690708428621
1686445583158922500,7.900922607421875,-0.006629148963838816,-0.008761605247855186,-0.002104345243424177
1686445583168939300,7.910939208984375,-0.003928437363356352,-0.008122713305056095,-0.002244427567347884
1686445583178956500,7.92095654296875,-0.002171143889427185,-0.0006507041398435831,-0.0022995169274508953
1686445583188972500,7.93097265625,0.00015645893290638924,0.007079653441905975,-0.0037573312874883413
1686445583198989300,7.9409892578125,-0.0013924650847911835,0.005866937804967165,-0.0007144871051423252
1686445583209006600,7.951006591796875,-0.00073972437530756,0.0027672844007611275,-0.0006433807429857552
1686445583219023400,7.9610234375,-0.0003166091628372669,-0.0016216968651860952,0.004962423350661993
1686445583229040400,7.971040283203125,-0.0017286171205341816,-0.0071914317086339,0.0008715416770428419
1686445583239057700,7.9810576171875,-0.004702558275312185,-0.011407705023884773,-0.002498763147741556
1686445583249074400,7.991074462890625,-0.005094841588288546,-0.013123845681548119,-0.00020258559379726648
1686445583259091500,8.001091552734374,-0.006703776773065329,-0.009692074730992317,-0.00264610443264246
1686445583269107500,8.011107421875,-0.008599681779742241,-0.008514691144227982,-0.0016508811386302114
1686445583279124500,8.02112451171875,-0.010642610490322113,-0.010025563649833202,-0.002299034968018532
1686445583289141500,8.0311416015625,-0.009007962420582771,-0.008337652310729027,-0.001049746060743928
1686445583299158500,8.041158447265625,-0.004712454508990049,-0.0075955865904688835,0.0017847302369773388
1686445583309175600,8.051175537109375,-0.006799839902669191,-0.01024756208062172,0.0016515722963958979
1686445583319192300,8.0611923828125,-0.007448866497725248,-0.00884882640093565,-0.0012123004999011755
1686445583329209600,8.071209716796876,-0.004837903659790754,-0.00926907267421484,-0.0028189856093376875
1686445583339225600,8.0812255859375,-0.001884443685412407,0.0010406153742223978,-0.0031064916402101517
1686445583349242400,8.091242431640625,-0.0005739019252359867,0.003929878585040569,-0.00790790468454361
1686445583359259400,8.10125927734375,0.0012151137925684452,0.005172031000256538,-0.0018733637407422066
1686445583369276400,8.1112763671875,-0.00040115881711244583,0.0045824069529771805,-0.0020912103354930878
1686445583379293400,8.12129345703125,-0.00046447664499282837,0.005195131059736013,0.0006384445587173104
1686445583389310500,8.131310546875,-0.0006128144450485706,-0.0028508109971880913,0.002612113021314144
1686445583399327500,8.141327392578125,0.0007935059256851673,-0.0028020814061164856,0.001654154621064663
1686445583409344500,8.151344482421875,0.0005756593309342861,-0.008037855848670006,0.003927162848412991
1686445583419360500,8.161360595703124,-0.0009554228745400906,-0.00804426334798336,0.005769670009613037
1686445583429377500,8.17137744140625,-0.0009735324420034885,-0.00852043554186821,0.0004353583790361881
1686445583439394600,8.18139453125,-0.002087539527565241,-0.0074454257264733315,0.00422456581145525
1686445583449411300,8.191411376953125,-0.0017429264262318611,-0.0066217100247740746,-0.0006676610792055726
1686445583459428600,8.2014287109375,-0.0032410738058388233,-0.0008507189340889454,-0.00393748888745904
1686445583469445400,8.2114453125,-0.005321269389241934,0.004186916630715132,-0.0047481548972427845
1686445583479462400,8.22146240234375,-0.0034027262590825558,0.00453835166990757,-0.0043161408975720406
1686445583489479400,8.2314794921875,-0.004179303999990225,0.004957267083227634,-0.005224012304097414
1686445583499495400,8.241495361328125,-0.0033910400234162807,-0.00026110955514013767,-0.0052668084390461445
1686445583509512400,8.251512451171875,0.0015211605932563543,0.0007114768959581852,-0.004798091948032379
1686445583519529200,8.261529296875,-0.0016905502416193485,0.0020588617771863937,-0.0022163186222314835
1686445583529546500,8.27154638671875,0.0008841939270496368,0.004589930176734924,-0.0013185669668018818
1686445583539563500,8.2815634765625,-0.0001989593729376793,0.0017157113179564476,-0.0019136626506224275
1686445583549580500,8.29158056640625,-0.0012905891053378582,0.0005854656919836998,-0.00037648610305041075
1686445583559597600,8.30159765625,-0.0005693105049431324,-0.003740464337170124,-0.0026641725562512875
1686445583569613600,8.311613525390625,-0.0029959827661514282,-0.008538682013750076,-0.0028282233979552984
1686445583579630300,8.32163037109375,-0.002575548831373453,-0.01140732504427433,-0.00105856207665056
1686445583589647600,8.331647705078124,0.00043116044253110886,-0.010944200679659843,0.0011491983896121383
1686445583599664400,8.341664306640626,-0.0033681998029351234,-0.008295160718262196,-0.00008280063048005104
1686445583609681400,8.351681396484375,-0.00032473914325237274,-0.0048349155113101006,0.0009323963895440102
1686445583619698400,8.361698486328125,-0.0023077772930264473,-0.001977480947971344,0.003933903761208057
1686445583629715500,8.371715576171875,-0.0009013619273900986,-0.0009308586595579982,0.001953044906258583
1686445583639732500,8.381732421875,-0.0015745447017252445,-0.002348897745832801,0.001507065026089549
1686445583649748500,8.39174853515625,-0.003590557724237442,-0.0030533040408045053,0.0007533906027674675
1686445583659765500,8.401765625,0.001155806239694357,-0.003458587918430567,0.001466647139750421
1686445583669782500,8.411782470703125,0.000590949784964323,0.00015665311366319656,0.003227795474231243
1686445583679799600,8.421799560546875,0.0018535081762820482,0.0012374946381896734,0.002143478486686945
1686445583689816600,8.431816650390624,-0.0003414689563214779,0.002219934482127428,0.002656136639416218
1686445583699833300,8.441833251953126,-0.00047591235488653183,0.0049095964059233665,0.0028525562956929207
1686445583709850600,8.4518505859375,-0.0011789868585765362,0.0003028607461601496,0.00242724921554327
1686445583719867400,8.461867431640625,-0.0014189998619258404,-0.000919089769013226,0.0021416551899164915
1686445583729883400,8.47188330078125,-0.0009153960272669792,-0.004413423128426075,0.002794129541143775
1686445583739900400,8.481900390625,-0.005628235638141632,-0.0037160066422075033,0.0024136356078088284
1686445583749917400,8.49191748046875,-0.0025211255997419357,-0.002284291200339794,0.0015832619974389672
1686445583759934500,8.5019345703125,0.0006020888686180115,-0.0009731954196467996,0.0043970453552901745
1686445583769951200,8.511951171875,-0.0012219101190567017,0.0020801187492907047,-0.001712512574158609
1686445583779968300,8.52196826171875,0.0008152672089636326,0.003449005540460348,-0.001887328689917922
1686445583789985300,8.5319853515625,0.005774072837084532,0.003447407390922308,0.0007081882795318961
1686445583800001300,8.542001220703124,0.0017139893025159836,0.0046481178142130375,0.0016858658054843545
1686445583810018300,8.552018310546876,0.0057510752230882645,0.004488061647862196,-0.0004920672508887947
1686445583820035300,8.562035400390625,0.0018113504629582167,0.001595372799783945,-0.003864406142383814
1686445583830052400,8.57205224609375,0.0036361482925713062,-0.00194769655354321,-0.0007852591807022691
1686445583840069400,8.5820693359375,0.0036940337158739567,-0.005935506895184517,-0.0019016379956156015
1686445583850086100,8.592086181640624,0.001189596951007843,-0.005781576037406921,0.0012720510130748153
1686445583860103400,8.602103515625,-0.0007956544868648052,-0.0020599369890987873,-0.002513192594051361
1686445583870120200,8.6121201171875,-0.0014944677241146564,-0.003463955596089363,0.0021854224614799023
1686445583880136200,8.62213623046875,0.0005067824386060238,0.00005911197513341904,-0.0005009816959500313
1686445583890153500,8.632153564453125,-0.0016045719385147095,0.004991020075976849,0.003493227530270815
1686445583900170200,8.642170166015624,-0.0026419139467179775,0.010960856452584267,0.0028700469993054867
1686445583910187300,8.652187255859374,0.001057217363268137,0.011741163209080696,0.0036255856975913048
1686445583920204300,8.662204345703126,0.0002884133718907833,0.009240531362593174,0.005803555250167847
1686445583930221300,8.67222119140625,0.0010194513015449047,0.007279645651578903,0.003902590833604336
1686445583940238300,8.68223828125,0.0014643319882452488,0.0033336745109409094,0.004457287490367889
1686445583950255400,8.69225537109375,0.002446772065013647,0.004121970385313034,0.0057723564095795155
1686445583960271400,8.702271240234374,0.0007894956506788731,0.0030863750725984573,0.0025908807292580605
1686445583970288400,8.712288330078126,0.001565540675073862,0.0017574578523635864,0.002972777932882309
1686445583980305200,8.72230517578125,0.0005661039613187313,0.005257889162749052,0.0034208125434815884
1686445583990322400,8.732322509765625,0.001893157372251153,0.001493777148425579,0.0026636761613190174
1686445584000339200,8.742339111328125,0.0008134273812174797,-0.0006117100128903985,0.0022392182145267725
1686445584010356200,8.752356201171875,0.0008704192005097866,0.0005132092628628016,0.0031468234956264496
1686445584020373200,8.762373291015624,0.0022506003733724356,-0.0016773785464465618,0.0019402381731197238
1686445584030390300,8.772390380859376,0.0017041198443621397,0.0016600950621068478,0.0046081929467618465
1686445584040406300,8.78240625,0.0024582799524068832,-0.001996028935536742,0.0004194300854578614
1686445584050423300,8.79242333984375,0.00160393794067204,0.0009403724689036608,-0.0012676824117079377
1686445584060440300,8.8024404296875,0.00027079181745648384,0.00017009954899549484,-0.0026033399626612663
1686445584070457300,8.812457275390624,0.0015094277914613485,-0.00092712277546525,0.0008891295874491334
1686445584080474400,8.822474365234376,0.0014804298989474773,-0.0018204341176897287,0.000011802883818745613
1686445584090491400,8.832491455078125,0.0023566100280731916,-0.003181842155754566,-0.0008284244686365128
1686445584100508200,8.842508056640625,0.0033507985062897205,-0.0008981659775599837,0.0016391286626458168
1686445584110524200,8.852524169921875,0.0004831068217754364,-0.000051014358177781105,0.000794640276581049
1686445584120541400,8.86254150390625,0.000940701924264431,-0.0016831723041832447,0.0031114243902266026
1686445584130558200,8.87255810546875,-0.0007746401242911816,0.0041669937781989574,0.002723934594541788
1686445584140575500,8.882575439453126,0.00043709343299269676,0.008460374549031258,0.0026394682936370373
1686445584150592300,8.89259228515625,-0.000720316544175148,0.005339415743947029,0.0035843579098582268
1686445584160609300,8.902609375,-0.0017901230603456497,0.006984290666878223,0.00005527806933969259
1686445584170626300,8.912626220703125,-0.0013842573389410973,0.0045898426324129105,-0.00007787998765707016
1686445584180643300,8.922643310546874,-0.0014719502069056034,0.0023455489426851273,0.00279619125649333
1686445584190659300,8.932659423828126,0.0019371621310710907,0.0010214250069111586,0.000804679817520082
1686445584200676000,8.942676025390625,0.005295830313116312,0.0029530522879213095,0.0015671350993216038
1686445584210693400,8.952693359375,0.00043902359902858734,0.006257236935198307,0.0023807308170944452
1686445584220710400,8.96271044921875,0.004469883628189564,0.0023884521797299385,0.002418004907667637
1686445584230727200,8.97272705078125,0.0002714102156460285,-0.0011610087240114808,0.0030707456171512604
1686445584240744400,8.982744384765626,-0.0019615991041064262,-0.006088516674935818,0.002071134280413389
1686445584250761200,8.99276123046875,-0.004428218584507704,-0.004923916421830654,0.0033633001148700714
1686445584260778200,9.0027783203125,-0.005020848009735346,-0.003230931470170617,0.0017598059494048357
1686445584270794500,9.01279443359375,-0.0021699341014027596,-0.001406932482495904,0.004168901592493057
1686445584280811300,9.022811279296874,-0.0005324496887624264,-0.0015472862869501114,0.001777533907443285
1686445584290828300,9.032828369140624,0.0006321505643427372,-0.001406405121088028,0.004303808324038982
1686445584300845300,9.04284521484375,0.0012517902068793774,-0.005988258868455887,0.0007729793433099985
1686445584310862300,9.0528623046875,0.0003905240446329117,-0.005816218908876181,0.0013791148085147142
1686445584320879000,9.062879150390625,0.0036499514244496822,-0.00650140643119812,-0.001485074288211763
1686445584330896400,9.072896484375,0.0035226522013545036,0.0010188273154199123,-0.002410789020359516
1686445584340912400,9.082912353515624,0.005525011103600264,0.004621288739144802,-0.00027400930412113667
1686445584350929200,9.09292919921875,0.0023915357887744904,0.008669027127325535,-0.00004977115895599127
1686445584360946200,9.1029462890625,0.004284285008907318,0.01068379171192646,0.0015209177508950233
1686445584370963500,9.11296337890625,0.0050046700052917,0.011719228699803352,0.005122044123709202
1686445584380980200,9.122980224609375,0.0031906962394714355,0.00872759148478508,0.0047548250295221806
1686445584390997500,9.13299755859375,0.007273321971297264,0.0043592085130512714,0.011321913450956345
1686445584401014300,9.14301416015625,0.0018222692888230085,-0.0006629877025261521,0.0065404558554291725
1686445584411031300,9.15303125,0.004181031137704849,-0.0022310568019747734,0.004942559637129307
1686445584421047300,9.16304736328125,0.0018362908158451319,-0.00042767159175127745,0.009572227485477924
1686445584431064300,9.173064208984375,0.0014256315771490335,-0.000480135902762413,0.0026418836787343025
1686445584441081300,9.183081298828125,0.003645783755928278,0.0007140038069337606,0.0009639381896704435
1686445584451098000,9.19309814453125,-0.00021420186385512352,0.0038719801232218742,0.0014449050650000572
1686445584461115400,9.203115478515626,0.0037968617398291826,0.012065879069268703,-0.000024082022719085217
1686445584471132200,9.213132080078125,0.0023355851881206036,0.013519431464374065,0.002157579641789198
1686445584481149200,9.223149169921875,0.004721370059996843,0.014920808374881744,0.0020291029941290617
1686445584491165400,9.23316552734375,0.0034502435009926558,0.01026320643723011,0.0002975157694891095
1686445584501182200,9.24318212890625,0.0033897897228598595,0.0064261239022016525,-0.004003223031759262
1686445584511199200,9.25319921875,0.0020126691088080406,-0.0006227308185771108,-0.005273817107081413
1686445584521216500,9.263216552734375,0.0013723056763410568,-0.003181043080985546,-0.007979919202625751
1686445584531233300,9.2732333984375,0.0044005862437188625,-0.004498508758842945,-0.004920213483273983
1686445584541250300,9.283250244140625,0.0019120767246931791,-0.00038076634518802166,-0.0035211758222430944
1686445584551267300,9.293267333984375,0.0010982146486639977,0.002745518460869789,-0.0010215329239144921
1686445584561284400,9.303284423828124,0.0021446850150823593,0.005940745119005442,0.0005971083883196115
1686445584571300400,9.31330029296875,-0.0006399163976311684,0.0023547993041574955,0.00031827553175389767
1686445584581317000,9.323317138671875,0.002199828624725342,-0.0004961581435054541,0.0036122980527579784
1686445584591334400,9.33333447265625,0.003200910985469818,0.0018146666698157787,0.004441606346517801
1686445584601351200,9.34335107421875,0.0025640702806413174,0.005290738772600889,0.007026460953056812
1686445584611368200,9.3533681640625,0.005007520318031311,0.006799685303121805,0.004678618162870407
1686445584621385200,9.36338525390625,0.002261629793792963,0.006819501984864473,0.0027576489374041557
1686445584631402200,9.37340234375,0.005188976414501667,0.007588356267660856,0.0027264896780252457
1686445584641419500,9.38341943359375,-0.0014045722782611847,0.0007380647584795952,0.004727620165795088
1686445584651435300,9.393435302734375,0.003016008762642741,0.0057626510970294476,0.0023321066983044147
1686445584661452300,9.403452392578124,0.0015050414949655533,0.005340605042874813,0.00511557050049305
1686445584671469300,9.41346923828125,0.0038257199339568615,0.004899851977825165,0.0016862178454175591
1686445584681486300,9.423486328125,0.0026431966107338667,0.006066266447305679,0.003489650785923004
1686445584691503400,9.43350341796875,0.00026872241869568825,0.003545584622770548,0.0047804852947592735
1686445584701520100,9.44352001953125,0.001833736663684249,0.00583641417324543,0.0025986693799495697
1686445584711537400,9.453537353515625,0.0010568927973508835,0.004717886447906494,-0.0009100452298298478
1686445584721554200,9.46355419921875,0.002507625613361597,0.004378131590783596,-0.0008483303245157003
1686445584731570200,9.473570068359376,-0.0007779165171086788,0.003648691810667515,0.0006694052135571837
1686445584741587500,9.48358740234375,0.001467208843678236,0.0004809123929589987,0.00022631394676864147
1686445584751604200,9.493604248046875,0.002624352229759097,0.00323382206261158,0.001494777505286038
1686445584761621200,9.503621337890625,0.002368610119447112,0.002249897690489888,0.0019893175922334194
1686445584771639000,9.51363916015625,0.005864807870239019,0.0017415003385394812,0.0010422974592074752
1686445584781656000,9.523656005859374,0.005134365987032652,-0.0019313356606289744,0.004043996334075928
1686445584791672800,9.5336728515625,0.005585505161434412,-0.001971815712749958,0.002123324666172266
1686445584801690000,9.543690185546875,0.0049248067662119865,-0.003019057447090745,0.003218334633857012
1686445584811706000,9.5537060546875,0.0020555169321596622,-0.001986017217859626,0.0024926234036684036
1686445584821723000,9.563722900390625,0.00136077543720603,-0.0004316450795158744,-0.0007636129739694297
1686445584831740200,9.573740234375,0.0026268423534929752,0.003408899297937751,0.0012305621057748795
1686445584841757200,9.583757080078126,0.0022517715115100145,0.001959926914423704,0.000749948900192976
1686445584851774000,9.59377392578125,0.002008624840527773,0.0007894674781709909,0.0013148053549230099
1686445584861791200,9.603791259765625,-0.002645574975758791,0.00234812474809587,-0.00142516172491014
1686445584871808000,9.61380810546875,0.002327079651877284,-0.00015418161638081074,0.0010433222632855177
1686445584881825000,9.623824951171875,-0.000801632646471262,-0.0002225374337285757,0.00206312770023942
1686445584891841000,9.633841064453126,0.0033941776491701603,0.0024936203844845295,0.001282022218219936
1686445584901858000,9.643858154296876,0.0034355465322732925,0.005807395558804274,0.003566241590306163
1686445584911875000,9.653875,0.005317602772265673,0.008642597123980522,0.005235777236521244
1686445584921891800,9.663891845703125,0.003092435887083411,0.007690359838306904,0.0016633792547509074
1686445584931909000,9.6739091796875,0.0024322383105754852,0.006347593851387501,0.003543038386851549
1686445584941926000,9.68392578125,0.0004691346548497677,0.0004020826891064644,0.001070003374479711
1686445584951943200,9.693943115234376,-0.0016113268211483955,-0.00006982940249145031,0.003211717586964369
1686445584961959200,9.703959228515625,0.0008894582279026508,0.00033528590574860573,-0.001130236778408289
1686445584971976000,9.713975830078125,-0.001083411742001772,0.0038983291015028954,-0.0014511477202177048
1686445584981993000,9.723992919921875,-0.0021424400620162487,0.0007715770043432713,0.0013927692780271173
1686445584992010200,9.73401025390625,0.0030824157875031233,0.001104472205042839,0.0027957228012382984
1686445585002027000,9.744027099609376,0.0008981856517493725,0.0006667575798928738,0.00022440881002694368
1686445585012044000,9.7540439453125,0.001982092158868909,0.0007810071110725403,0.001519770477898419
1686445585022061000,9.76406103515625,0.001226046122610569,0.0004510893486440182,-0.000013347016647458076
1686445585032078000,9.774078125,0.003358971793204546,-0.000436009606346488,0.0018287614220753312
1686445585042094000,9.784093994140624,0.0019570563454180956,-0.0009464281611144543,0.00429188646376133
1686445585052111000,9.794111083984374,0.0013469262048602104,-0.0015363183338195086,0.002541124355047941
1686445585062128000,9.804128173828126,0.0011051059700548649,-0.0038481808733195066,0.0017925177235156298
1686445585072145000,9.814144775390625,-0.0010616416111588478,-0.0002867355942726135,-0.0004898114129900932
1686445585082162200,9.824162109375,-0.0002553877420723438,-0.00165084027685225,-0.0010914481244981289
1686445585092179000,9.834178955078125,0.0021252119913697243,0.0013590643648058176,-0.0002355080796405673
1686445585102196000,9.844196044921874,0.0013069151900708675,0.000388183631002903,0.0006403765873983502
1686445585112213200,9.854213134765626,-0.0005035018548369408,0.0024281651712954044,0.0005932388594374061
1686445585122229000,9.86422900390625,0.0005135759711265564,0.002405218780040741,0.00018227123655378819
1686445585132246000,9.87424609375,-0.0010542268864810467,0.005027367267757654,-0.00005688064265996218
1686445585142263000,9.884262939453125,-0.000056140124797821045,0.0017683617770671844,0.0020575858652591705
1686445585152280000,9.894280029296874,0.0013092623557895422,0.001623752061277628,0.002959331963211298
1686445585162297000,9.904297119140624,0.0015859217382967472,-0.0006188653642311692,0.0005617291899397969
1686445585172313900,9.91431396484375,-0.0030647567473351955,-0.0007038201438263059,-0.00007236958481371403
1686445585182331100,9.9243310546875,-0.0010399548336863518,-0.0023563115391880274,0.0016686164308339357
1686445585192348000,9.934347900390625,-0.002596306148916483,0.0004714326933026314,-0.0011641879100352526
1686445585202364000,9.944364013671875,-0.0014523393474519253,-0.0006719875382259488,-0.0014363389927893877
1686445585212381200,9.954381103515624,-0.00044992566108703613,0.0033368689473718405,-0.0007750760414637625
1686445585222398000,9.96439794921875,-0.0008277785964310169,0.0004904561210423708,0.0023721782490611076
1686445585232415000,9.9744150390625,-0.0003814329393208027,-0.001436340855434537,0.00019371230155229568
1686445585242432000,9.984431884765625,0.0008214372210204601,0.0010981394443660975,-0.0028722179122269154
1686445585252449000,9.994448974609375,-0.001817222684621811,-0.001955707324668765,-0.00043782254215329885
1686445585262466000,10.004466064453124,-0.000737843569368124,-0.003295912640169263,-0.00046186987310647964
1686445585272483000,10.014483154296874,-0.005719020031392574,-0.0019946920219808817,-0.003176163649186492
1686445585282499000,10.0244990234375,-0.0018833363428711891,-0.0038300740998238325,-0.002506875665858388
1686445585292516000,10.03451611328125,-0.0041169291362166405,-0.005891893059015274,-0.0034099535550922155
1686445585302533000,10.044533203125,-0.0036681341007351875,-0.006589400582015514,-0.0050248317420482635
1686445585312550100,10.054550048828125,-0.001688872929662466,-0.006611504592001438,-0.002111866371706128
1686445585322567000,10.06456689453125,-0.0033243056386709213,-0.005408864468336105,-0.0025792913511395454
1686445585332584200,10.074584228515626,-0.0008867140859365463,-0.0030184113420546055,-0.003986505791544914
1686445585342601000,10.08460107421875,-0.0026122089475393295,-0.0026613594964146614,0.00046047335490584373
1686445585352617000,10.094616943359375,-0.003780537750571966,-0.005432644858956337,0.0001763141481205821
1686445585362634000,10.104634033203125,-0.002593236044049263,-0.00662884209305048,-0.0003932367544621229
1686445585372651000,10.114651123046874,-0.005636696703732014,-0.007789181545376778,-0.0007482361979782581
1686445585382668000,10.12466796875,-0.007710298057645559,-0.009954426437616348,-0.000888950249645859
1686445585392685000,10.13468505859375,-0.0060815089382231236,-0.003605716396123171,-0.0013704497832804918
1686445585402702000,10.1447021484375,-0.006005842238664627,-0.0019496846944093704,0.0006668356945738196
1686445585412719000,10.154718994140625,-0.0024087107740342617,0.00013343989849090576,0.0036319992505013943
1686445585422736000,10.16473583984375,0.00001932494342327118,-0.0001789324451237917,0.0012217041803523898
1686445585432752000,10.174752197265626,-0.004770636558532715,-0.0020173124503344297,-0.0010712775401771069
1686445585442769200,10.18476904296875,-0.0003779865801334381,-0.0037793463561683893,-0.0002870591124519706
1686445585452786000,10.194785888671875,-0.001469616312533617,-0.004935158416628838,-0.0008809440769255161
1686445585462803200,10.20480322265625,0.0013700968120247126,-0.004142558202147484,-0.0037035872228443623
1686445585472820000,10.214820068359375,0.0017466677818447351,-0.00295265787281096,-0.0044663166627287865
1686445585482837000,10.2248369140625,-0.0003404999151825905,-0.0030679460614919662,-0.004942846950143576
1686445585492854000,10.23485400390625,0.001139152329415083,-0.002491904189810157,-0.0005291900597512722
1686445585502871000,10.24487109375,0.004186232108622789,-0.0021432586945593357,-0.00021891226060688496
1686445585512887000,10.254886962890625,0.0030871457420289516,0.0009055279660969973,0.0005411539459601045
1686445585522904000,10.264904052734375,-0.0000892840325832367,0.0014366772957146168,0.0038522512186318636
1686445585532921000,10.274921142578124,-0.0005412222817540169,0.003202087013050914,0.004516443237662315
1686445585542938000,10.284938232421876,0.0022317541297525167,0.0017955135554075241,0.003784576430916786
1686445585552955100,10.294955078125,-0.0025840401649475098,-0.0025901803746819496,0.004366477020084858
1686445585562972200,10.30497216796875,-0.0028842557221651077,-0.001187378540635109,0.001817022799514234
1686445585572989000,10.314989013671875,-0.0035561714321374893,0.001365261385217309,0.00013976404443383217
1686445585583006200,10.325006103515625,-0.0014884313568472862,0.002261875895783305,-0.0029225533362478018
1686445585593022200,10.335022216796874,-0.00026071397587656975,0.0027167440857738256,0.0011246524518355727
1686445585603039000,10.3450390625,0.0013699394185096025,0.005537297576665878,-0.0017435719491913915
1686445585613056000,10.355055908203125,-0.0004351511597633362,0.004865914583206177,-0.003240800928324461
1686445585623073000,10.365072998046875,-0.00028534047305583954,0.003215266391634941,-0.0072487457655370235
1686445585633090000,10.375090087890625,-0.0015612607821822166,0.0016607791185379028,-0.005782409571111202
1686445585643106800,10.38510693359375,-0.0001249704509973526,0.0013133729808032513,-0.005722079426050186
1686445585653124000,10.3951240234375,-0.0009699915535748005,0.0010523831006139517,-0.0050618816167116165
1686445585663141000,10.40514111328125,-0.001395511906594038,0.0008750411216169596,-0.004004326183348894
1686445585673156900,10.415156982421875,-0.0002173292450606823,0.0037962626665830612,-0.005530850030481815
1686445585683174100,10.425174072265625,-0.001905936747789383,0.002899752464145422,-0.0022734797094017267
1686445585693191200,10.435191162109374,-0.0017922194674611092,0.0015987984370440245,-0.0023435207549482584
1686445585703208000,10.4452080078125,0.0017237481661140919,-0.00080397620331496,0.0018472805386409163
1686445585713225200,10.45522509765625,-0.00042009633034467697,-0.0033377078361809254,-0.0006086865905672312
1686445585723242000,10.465241943359375,-0.0013958788476884365,-0.0010417965240776539,0.0026419679634273052
1686445585733259000,10.475259033203125,0.0007114806212484837,-0.005596334580332041,0.00271493848413229
1686445585743275000,10.48527490234375,0.0012389905750751495,-0.007333177607506514,0.0010320357978343964
1686445585753292000,10.4952919921875,0.00020701531320810318,-0.006514521781355143,0.004159119911491871
1686445585763309000,10.50530908203125,-0.0011791600845754147,-0.004390917252749205,0.0007502734661102295
1686445585773325600,10.51532568359375,-0.0018747774884104729,-0.0035035517066717148,0.0001121800160035491
1686445585783342600,10.525342529296875,-0.001176765188574791,-0.00011963862925767899,0.002053043805062771
1686445585793359600,10.535359619140625,-0.0002987207844853401,0.001916081877425313,0.0028402740135788918
1686445585803376600,10.545376708984374,0.0020951966289430857,0.0033506257459521294,0.000742283882573247
1686445585813393700,10.5553935546875,-0.0002561081200838089,0.006213790271431208,0.0005095235537737608
1686445585823409700,10.56540966796875,0.002574596321210265,0.005014215596020222,-0.0014104300644248724
1686445585833426400,10.575426513671875,-0.003562391735613346,0.001981140812858939,-0.0006817891262471676
1686445585843443700,10.585443603515625,-0.00005403952673077583,-0.0005702766356989741,-0.002675131894648075
1686445585853460500,10.59546044921875,-0.004973164759576321,0.0005077708046883345,-0.0027571571990847588
1686445585863477500,10.6054775390625,-0.0003265109844505787,-0.00003143143840134144,-0.00039698416367173195
1686445585873494500,10.61549462890625,-0.0016937777400016785,-0.0026852714363485575,-0.004358702339231968
1686445585883511600,10.625511474609375,-0.0019905944354832172,-0.009205999784171581,-0.00216996343806386
1686445585893528600,10.635528564453125,-0.003695017658174038,-0.007987603545188904,-0.004297030158340931
1686445585903544600,10.645544677734375,-0.004707049578428268,-0.009439738467335701,-0.004195749294012785
1686445585913561600,10.6555615234375,-0.002868669107556343,-0.010362522676587105,0.0001574537018314004
1686445585923578600,10.66557861328125,0.0018712703604251146,-0.007910681888461113,0.0006119344616308808
1686445585933595600,10.675595703125,-0.0037346836179494858,-0.0010743471793830395,-0.0014040784444659948
1686445585943612700,10.68561279296875,-0.0011616135016083717,-0.0005982223665341735,-0.0021860466804355383
1686445585953629400,10.69562939453125,0.0006069918163120747,0.0027389847673475742,-0.001206003362312913
1686445585963646700,10.705646728515624,-0.0020180088467895985,0.002948727225884795,-0.00391895417124033
1686445585973663500,10.71566357421875,-0.0004480755887925625,-0.0012723831459879875,-0.0023333081044256687
1686445585983679500,10.725679443359375,0.0020229299552738667,-0.001883926335722208,-0.00014318490866571665
1686445585993696800,10.73569677734375,0.000051658134907484055,0.0022788606584072113,-0.0011064503341913223
1686445586003713500,10.745713623046875,0.00018957816064357758,-0.0018677586922422051,0.004128291271626949
1686445586013730600,10.75573046875,-0.0013920734636485577,-0.000007540686056017876,0.005216991528868675
1686445586023747600,10.76574755859375,0.0016835634596645832,-0.0017914708005264401,-0.000882704509422183
1686445586033764600,10.7757646484375,-0.003088554833084345,-0.0015603085048496723,0.002074203221127391
1686445586043781600,10.78578173828125,0.00021256553009152412,0.00012931390665471554,-0.0029493242036551237
1686445586053798700,10.795798583984375,-0.0004931720905005932,-0.00224436167627573,-0.002075807424262166
1686445586063814700,10.805814697265625,-0.003697190433740616,0.00008179922588169575,-0.003148760413751006
1686445586073831700,10.815831787109374,-0.000014038756489753723,0.00006155925802886486,-0.002141552744433284
1686445586083848400,10.825848388671876,-0.004736234433948994,-0.0014637234853580594,-0.0014356570318341255
1686445586093865700,10.83586572265625,-0.0018163449130952358,-0.0039367349818348885,-0.00373343238607049
1686445586103882500,10.845882568359375,-0.0008334261365234852,-0.003703978843986988,-0.0009022493613883853
1686445586113899500,10.8558994140625,0.0008124075829982758,-0.004438478499650955,-0.0008926619775593281
1686445586123916500,10.86591650390625,0.0011994093656539917,-0.0005009601591154933,0.0008906162111088634
1686445586133933600,10.87593359375,0.00019699521362781525,-0.0001693966332823038,-0.0022604360710829496
1686445586143949600,10.885949462890625,0.003074691165238619,-0.0012951147509738803,0.0012213807785883546
1686445586153966600,10.895966552734375,0.004280570428818464,-0.0022120410576462746,0.0010344268521293998
1686445586163983600,10.905983642578125,0.0028785052709281445,-0.006860026158392429,0.0009744089329615235
1686445586174000400,10.91600048828125,0.0026968775782734156,-0.012538950890302658,0.002237013541162014
1686445586184017700,10.926017578125,-0.0010187500156462193,-0.011378619819879532,-0.004205986857414246
1686445586194034700,10.93603466796875,-0.0022824201732873917,-0.010890995152294636,-0.0015934259863570333
1686445586204051500,10.946051513671875,-0.004412608686834574,-0.00918400939553976,-0.004625922068953514
1686445586214068700,10.95606884765625,-0.005711964797228575,-0.010377105325460434,-0.00244159740395844
1686445586224084700,10.966084716796875,-0.004814999643713236,-0.006167655810713768,-0.0035210642963647842
1686445586234101500,10.9761015625,-0.010752784088253975,-0.00044931622687727213,-0.004050500690937042
1686445586244118800,10.986118896484374,-0.006690756417810917,0.0032309626694768667,-0.005068281665444374
1686445586254135600,10.996135498046876,-0.004846516996622086,0.005583332851529121,-0.0002088117180392146
1686445586264152600,11.006152587890625,-0.004479800350964069,0.0037731819320470095,-0.001778212608769536
1686445586274169600,11.016169677734375,-0.0003178119659423828,0.002852793550118804,0.00012727919965982437
1686445586284186600,11.0261865234375,-0.0009583169594407082,-0.002935543190687895,0.0028823597822338343
1686445586294203400,11.036203369140624,-0.0016528693959116936,-0.0037368882913142443,0.002396066440269351
1686445586304219400,11.046219482421876,0.0013266131281852722,-0.006896820850670338,-0.0008086186135187745
1686445586314236700,11.056236572265625,-0.0027983570471405983,-0.005692539736628532,0.0038809417746961117
1686445586324253400,11.06625341796875,-0.0012662247754633427,-0.007086215540766716,0.0007812473922967911
1686445586334270500,11.0762705078125,-0.00008351495489478111,-0.006586606148630381,-0.00014606525655835867
1686445586344287700,11.086287841796874,-0.002963426522910595,-0.007828525267541409,-0.0005115323001518846
1686445586354304500,11.096304443359376,-0.0006970767863094807,-0.004215414635837078,-0.0038199773989617825
1686445586364321500,11.106321533203126,-0.0017909472808241844,-0.0031032422557473183,-0.004939548205584288
1686445586374338600,11.116338623046875,-0.004528144374489784,0.0023525094147771597,-0.004420498386025429
1686445586384354600,11.1263544921875,-0.000701243057847023,-0.0013582666870206594,-0.0041952477768063545
1686445586394371600,11.13637158203125,-0.002317249309271574,0.00029023014940321445,-0.0013781562447547913
1686445586404388600,11.146388671875,-0.0006835730746388435,-0.0026852120645344257,-0.0008245150092989206
1686445586414405600,11.156405517578126,-0.001639647874981165,-0.007138283923268318,-0.003768373280763626
1686445586424422400,11.16642236328125,0.0007600942626595497,-0.006883067078888416,-0.003806905820965767
1686445586434439700,11.176439697265625,0.0026397535111755133,-0.005238564684987068,-0.0010294950334355235
1686445586444456700,11.186456787109375,-0.0014616092666983604,-0.0031969305127859116,-0.0007513775490224361
1686445586454473500,11.196473388671874,0.002543252194300294,-0.005961557850241661,-0.0028432905673980713
1686445586464489700,11.20648974609375,-0.0036309100687503815,-0.004466926213353872,-0.00002787006087601185
1686445586474506500,11.216506591796875,-0.0028298310935497284,-0.004682642407715321,0.001099179731681943
1686445586484523500,11.2265234375,-0.0006172172725200653,-0.0022532776929438114,0.00038492411840707064
1686445586494540800,11.236540771484375,-0.0022116517648100853,0.00314148748293519,-0.0017932752380147576
1686445586504557600,11.2465576171875,-0.004403960891067982,0.001763469073921442,0.0012731333263218403
1686445586514574600,11.25657470703125,-0.0072133298963308334,0.000536816893145442,-0.002443574368953705
1686445586524591600,11.266591552734376,-0.0033583268523216248,-0.00019060727208852768,-0.0000797412358224392
1686445586534608600,11.276608642578125,-0.001964162103831768,-0.0004979359218850732,0.0030225752852857113
1686445586544624600,11.286624755859375,0.0011203112080693245,-0.0038918685168027878,-0.00019558868370950222
1686445586554641400,11.296641357421874,-0.001679736189544201,-0.0031930548138916492,0.0019447938539087772
1686445586564658700,11.30665869140625,0.00011932291090488434,-0.003805309534072876,-0.0022446047514677048
1686445586574675500,11.316675537109376,-0.0020844428800046444,-0.0022239245008677244,-0.0029130580369383097
1686445586584692500,11.3266923828125,0.0018711972516030073,-0.0000420247670263052,-0.0022554313763976097
1686445586594709800,11.336709716796875,0.005072849337011576,0.0020189958158880472,0.0008372975280508399
1686445586604726500,11.3467265625,0.004710550419986248,0.005191022530198097,0.0024493802338838577
1686445586614743600,11.35674365234375,0.005133727099746466,0.0042746285907924175,0.0022483114153146744
1686445586624759600,11.366759521484376,0.0045556565746665,0.009171543642878532,0.005402980837970972
1686445586634776600,11.376776611328125,0.003898388473317027,0.002176219131797552,0.0060951365157961845
1686445586644793600,11.386793701171875,0.003130888333544135,-0.0005597862182185054,0.007172117475420237
1686445586654810600,11.396810546875,0.004727986175566912,-0.0031755431555211544,0.002992818597704172
1686445586664827600,11.40682763671875,0.002100668614730239,-0.008755994960665703,0.0003699427470564842
1686445586674844400,11.416844482421874,-0.003432048950344324,-0.0075700897723436356,0.002632297808304429
1686445586684861700,11.42686181640625,-0.0008055777288973331,-0.006031653843820095,-0.0006308198207989335
1686445586694878500,11.43687841796875,-0.0008545801974833012,0.0007623361889272928,-0.002998103853315115
1686445586704894500,11.44689453125,0.0002784235402941704,0.00685166148468852,0.0009852047078311443
1686445586714911700,11.456911865234375,-0.0010595489293336868,0.013417419046163559,0.000689593842253089
1686445586724928500,11.466928466796874,0.000321144238114357,0.01562417857348919,-0.003495369106531143
1686445586734945500,11.476945556640626,0.0033542185556143522,0.013494182378053665,0.0003379848785698414
1686445586744962800,11.486962890625,0.001752201933413744,0.010197700001299381,-0.0014789772685617208
1686445586754979600,11.4969794921875,0.004228941630572081,0.0024135466665029526,-0.0003569875843822956
1686445586764996600,11.50699658203125,0.0020545911975204945,0.004242193419486284,-0.0006911046802997589
1686445586775013600,11.517013671875,0.002308123977854848,0.005754602607339621,-0.0011220041196793318
1686445586785029600,11.527029541015626,0.002381396945565939,0.0020006916020065546,0.0015456468099728227
1686445586795046700,11.537046630859376,0.00006764242425560951,0.0017775187734514475,0.0014204782200977206
1686445586805063400,11.5470634765625,0.0015167784877121449,-0.0008592121303081512,-0.0011436853092163801
1686445586815080700,11.557080810546875,0.00023473287001252174,-0.0016451110132038593,0.0002270436380058527
1686445586825097500,11.567097412109375,0.0034970571286976337,-0.00043910194654017687,0.005194761324673891
1686445586835114500,11.577114501953124,0.00040059955790638924,0.0012115251738578081,0.0012737895594909787
1686445586845131500,11.587131591796876,-0.00006843125447630882,0.002235373482108116,0.004560788627713919
1686445586855148500,11.5971484375,0.001597908791154623,0.00177784264087677,0.0024859197437763214
1686445586865164500,11.60716455078125,0.0036648199893534184,-0.0007897969335317612,0.003922877833247185
1686445586875181600,11.617181640625,0.005336219910532236,-0.004683338571339846,0.0028328457847237587
1686445586885198600,11.627198486328124,0.0007339655421674252,-0.0057994406670331955,0.0006739940727129579
1686445586895215600,11.637215576171876,0.0020551595371216536,0.0022499633487313986,0.002827692311257124
1686445586905232600,11.647232666015626,0.003404769580811262,0.000010358402505517006,-0.00020885176490992308
1686445586915249700,11.657249755859375,0.002057210076600313,0.005486882757395506,-0.0020573518704622984
1686445586925266400,11.667266357421875,0.001633877633139491,0.006448185071349144,0.0019372664391994476
1686445586935283700,11.67728369140625,-0.0001800013706088066,0.005811156705021858,0.004796436056494713
1686445586945299700,11.6872998046875,0.0017237404827028513,0.0061279237270355225,-0.00045280251652002335
1686445586955316500,11.69731640625,-0.0015847044996917248,0.006752701476216316,0.00002789811696857214
1686445586965333800,11.707333740234375,0.0008961977437138557,0.006036417558789253,0.0025321748107671738
1686445586975350500,11.7173505859375,-0.0014298069290816784,0.0037575506139546633,0.0029090121388435364
1686445586985367600,11.727367431640625,0.0014332325663417578,0.0028914690483361483,0.0010651517659425735
1686445586995384600,11.737384521484374,0.0030625546351075172,-0.000009778421372175217,0.0011162844020873308
1686445587005401600,11.747401611328126,0.001387599390000105,0.0034684680867940187,0.0004539861110970378
1686445587015418600,11.757418701171876,0.003292025765404105,0.006295946426689625,0.0002523846924304962
1686445587025434400,11.767434326171875,0.003969485871493816,0.00827027764171362,0.004747392144054174
1686445587035451600,11.77745166015625,0.0021031424403190613,0.0036057501565665007,0.0010469298576936126
1686445587045468700,11.78746875,0.005158272106200457,-0.00005410308949649334,-0.0006573672872036695
1686445587055485400,11.7974853515625,0.0021947063505649567,-0.004951123613864183,0.00015969062224030495
1686445587065502700,11.807502685546876,0.0028590422589331865,-0.00642264261841774,-0.0012412384385243058
1686445587075519500,11.81751953125,0.001308017410337925,-0.003941642120480537,-0.0027573760598897934
1686445587085536500,11.82753662109375,-0.0005618827417492867,-0.002746155019849539,-0.00027053593657910824
1686445587095553500,11.837553466796875,-0.002610919065773487,-0.00019724364392459393,-0.003154472913593054
1686445587105569500,11.847569580078124,-0.002621919848024845,0.0014722396153956652,0.0013211797922849655
1686445587115586600,11.857586669921876,0.0021523290779441595,0.00388506380841136,0.0004974640905857086
1686445587125603600,11.867603515625,0.0013265488669276237,0.005808760412037373,0.0023548498284071684
1686445587135620600,11.87762060546875,0.002540950197726488,0.0037187112029641867,0.0006629438139498234
1686445587145637600,11.8876376953125,-0.00041916966438293457,0.005380566697567701,0.002042769454419613
1686445587155654700,11.897654541015624,0.0009172046557068825,0.005174438003450632,0.002517078537493944
1686445587165671700,11.907671630859374,0.0005466192960739136,0.005294733215123415,0.00487337913364172
1686445587175688400,11.9176884765625,0.0010622073896229267,0.002424378413707018,0.0026901199016720057
1686445587185704400,11.927704345703125,0.004536034539341927,0.0009756188374012709,0.0013345708139240742
1686445587195721700,11.9377216796875,0.0035567902959883213,-0.001407644129358232,0.004802006296813488
1686445587205738500,11.947738525390625,0.0024289260618388653,-0.0023751268163323402,-0.00004783552139997482
1686445587215755800,11.957755859375,-0.00023743091151118279,-0.0015010773204267025,0.0018443404696881771
1686445587225772500,11.9677724609375,0.0014702938497066498,-0.003563469275832176,0.00018757360521703959
1686445587235789600,11.97778955078125,0.0026149204932153225,-0.0012209528358653188,-0.0011613174574449658
1686445587245806600,11.987806640625,0.0009374311193823814,-0.0034207054413855076,-0.004138604272156954
