time,seconds_elapsed,z,y,x
1686445601764757200,0.14775732421875,-0.07492284677624703,0.005861000987887382,-0.11730243734419345
1686445601774773200,0.157773193359375,-0.07388356685638427,-0.019190739554399622,-0.08281213872134685
1686445601784790300,0.167790283203125,-0.11052315246760845,-0.022866770319174973,-0.0263514158308506
1686445601794807800,0.177807861328125,-0.17722060721218585,0.0012257332695182412,0.01504617796242237
1686445601804824800,0.187824951171875,-0.20793430990576742,0.029409049835801122,0.04195698124170303
1686445601814841900,0.197841796875,-0.17596914584636686,0.04115326364338398,0.02922843257188797
1686445601824859000,0.20785888671875,-0.1558078168272972,0.019260873048007488,0.043294367325305935
1686445601834876000,0.2178759765625,-0.16732289805412293,-0.04168254821449518,0.059603697091341015
1686445601844892700,0.227892578125,-0.18243161985874176,-0.08943447947055101,0.04900982236266136
1686445601854910000,0.237909912109375,-0.19227964465618133,-0.1108387942880392,0.031500469157099725
1686445601864926700,0.2479267578125,-0.19568565370738505,-0.10143296943330206,-0.0009071779727935791
1686445601874942700,0.257942626953125,-0.1717939059883356,-0.07012948415302671,-0.019728782820701597
1686445601884960000,0.2679599609375,-0.10705343053042889,-0.037850148711074144,-0.04559387643933296
1686445601894976800,0.277976806640625,-0.021027590459585188,-0.007836392714083195,-0.05187631770968437
1686445601904993800,0.287993896484375,0.01402443369925022,0.004554594564437866,-0.05194646033644676
1686445601915010800,0.2980107421875,0.03759001820385456,-0.007859499595034868,-0.01683481494486332
1686445601925027800,0.30802783203125,0.09639584291577338,-0.0035270050823688506,0.0325642989963293
1686445601935044900,0.318044921875,0.19855682522952556,0.007722392679285257,0.05635960060358047
1686445601945062000,0.328061767578125,0.3221761906355619,0.012300094124674796,0.06581073503792285
1686445601955079000,0.338078857421875,0.4075274924457073,0.0035021446357481178,0.06635550943911075
1686445601965095700,0.348095703125,0.39617081665098663,-0.026238036850560455,-0.00011339724659919739
1686445601975111700,0.358111572265625,0.299160056707263,-0.0610357939873822,-0.1144897180110216
1686445601985129000,0.36812890625,0.20676234351694583,-0.07483694032477214,-0.18769173234403133
1686445601995145700,0.378145751953125,0.11902443883121012,-0.052099605071544645,-0.2076262668699026
1686445602005162800,0.388162841796875,0.0349608387440443,0.016937983058393,-0.1742383765310049
1686445602015179800,0.3981796875,0.000019289222359657286,0.05363687937511131,-0.10501228009164333
1686445602025196800,0.40819677734375,0.030835867768526076,0.03234218067824841,-0.02200608010292053
1686445602035213800,0.4182138671875,0.08847206417918205,0.005737666869163513,-0.0415139136493206
1686445602045230800,0.42823095703125,0.14820669417381285,-0.01210778642296791,-0.05858545995950699
1686445602055248000,0.438247802734375,0.15417758527696132,-0.002970247982442379,-0.055388709744811054
1686445602065265000,0.448264892578125,0.11456804394423961,0.03242459826469421,-0.04252630556225776
1686445602075281000,0.458281005859375,0.08640402573347092,0.039726737971603865,-0.04954699797928333
1686445602085298000,0.4682978515625,0.0559095187485218,0.04081950164437294,-0.05177168829143047
1686445602095314700,0.478314697265625,0.028252281016111373,0.043833881029486654,-0.02893909423649311
1686445602105332000,0.48833203125,0.016628478717803954,0.037911486976873125,-0.013020809614658355
1686445602115348700,0.4983486328125,-0.011924246549606322,0.014344459433853625,0.010220949763059616
1686445602125365800,0.50836572265625,-0.030042087042331692,-0.013323902480769902,0.03413783192336559
1686445602135382800,0.5183828125,-0.05721709421575069,-0.04232144890623167,0.05851531733274459
1686445602145399800,0.52839990234375,-0.07522270650565624,-0.056310500764846796,0.0661702160000801
1686445602155416800,0.538416748046875,-0.09032207596004009,-0.0743725194171071,0.07885843265950679
1686445602165433900,0.548433837890625,-0.10100830514729023,-0.08560001587420701,0.06627133828699588
1686445602175449900,0.558449951171875,-0.11318915680646896,-0.09902122298330068,0.05469312869608402
1686445602185467000,0.568466796875,-0.10551789152622222,-0.09269055865705013,0.05630290198028087
1686445602195484000,0.57848388671875,-0.11481062052845954,-0.07539689402878284,0.047938978260755535
1686445602205501000,0.5885009765625,-0.10478431655466557,-0.043322132115066046,0.03169511494636536
1686445602215517700,0.598517578125,-0.06839490631222725,0.006827800193428993,0.01845510962307453
1686445602225535000,0.608534912109375,-0.023201427367329597,0.02094341930747032,0.021947627913951873
1686445602235551700,0.6185517578125,0.013866612789034843,0.02633123155934736,0.023646248525381088
1686445602245568800,0.62856884765625,0.04415010737180709,0.033518530981242654,0.028831542208790778
1686445602255585800,0.638585693359375,0.052715691143274304,0.036141572961211205,0.01857669017612934
1686445602265602800,0.648602783203125,0.05885901620388031,0.023432313513755798,0.02076338656544685
1686445602275618800,0.658618896484375,0.044486207458376885,-0.013093308595288544,-0.018906945043802262
1686445602285635600,0.668635498046875,0.04657061251699924,-0.02376196559322998,-0.07308218734562397
1686445602295652900,0.67865283203125,0.05173720149993896,-0.009542904371023177,-0.10069733950197696
1686445602305670000,0.688669921875,0.04779284778833389,-0.015144103645253926,-0.1291910280585289
1686445602315687000,0.69868701171875,0.02926058127582073,-0.021454291439056396,-0.15866437530219554
1686445602325704000,0.708703857421875,0.03826864811778068,-0.04255204279171303,-0.15150515119731425
1686445602335720700,0.718720703125,0.03780278417170047,-0.050679819667804986,-0.14147124843895434
1686445602345738000,0.728738037109375,0.024931612160801885,-0.040894612707197665,-0.11381225714087485
1686445602355754800,0.738754638671875,0.013142390167713165,-0.025469080038368702,-0.0862345143854618
1686445602365771800,0.748771728515625,0.01840893239378929,-0.009642273092269896,-0.054873161438107484
1686445602375787800,0.758787841796875,0.012075053197145462,-0.030148762287199496,-0.038424715462327
1686445602385804800,0.7688046875,0.011370119798183441,-0.05559387692809105,-0.049338908186554904
1686445602395821800,0.77882177734375,0.014433014500141143,-0.07550093892514705,-0.029354104778170582
1686445602405838800,0.7888388671875,0.019394436299800873,-0.0794266062025912,-0.03812076407968998
1686445602415855900,0.79885595703125,0.017336334726214406,-0.07278146909968927,-0.041186581391096114
1686445602425873000,0.808872802734375,-0.018739771783351896,-0.050748774984478946,-0.032167408633232114
1686445602435889700,0.8188896484375,-0.029863807865977286,-0.029050445656478404,-0.008006780844926833
1686445602445907000,0.828906982421875,-0.05002455236315727,0.01149460469437763,0.028818682727217673
1686445602455923700,0.838923828125,-0.06597323212325573,0.041659130806289614,0.06190671333670616
1686445602465940700,0.848940673828125,-0.06225216577351093,0.060028936766088004,0.09253098418116569
1686445602475957800,0.858957763671875,-0.046318683582544325,0.05139202305776998,0.12150222712159156
1686445602485973800,0.868973876953125,-0.0348258141875267,0.03550502862334251,0.12566636106371878
1686445602495990800,0.87899072265625,-0.01803425386250019,0.03277733895881101,0.10593524015545844
1686445602506007800,0.8890078125,0.014538812962174415,0.040509686776529996,0.08764671927094458
1686445602516024800,0.89902490234375,0.03258884891569614,0.028375030612945554,0.06760989341437816
1686445602526041900,0.909041748046875,0.01839899552166462,0.04639669898850843,0.027629180681705473
1686445602536059000,0.919058837890625,0.035545945155620574,0.06956745722293853,0.006936521264910698
1686445602546076000,0.929075927734375,0.025981997996568678,0.0950356604784727,0.0069803604066371915
1686445602556092700,0.9390927734375,0.01705167256593704,0.11064794789105653,0.020734160470962524
1686445602566110000,0.94910986328125,0.012013093876838684,0.04598258349597454,0.03825695767998695
1686445602576126700,0.959126708984375,0.0012263269245624542,-0.04905044663399458,-0.001025251394510269
1686445602586142700,0.969142822265625,-0.0061859951585531234,-0.10224398442208767,-0.06833411603569985
1686445602596160000,0.979159912109375,0.000374094009399414,-0.09581950433254241,-0.08347732463181018
1686445602606176800,0.9891767578125,0.014001052823662758,-0.09867986219972372,-0.08720774333178996
1686445602616193800,0.99919384765625,0.03511164539158344,-0.1319850609575398,-0.07763970451951026
1686445602626210800,1.0092109375,0.0460147321999073,-0.15016427624868228,-0.06969371395111083
1686445602636227800,1.019227783203125,0.004202127864956855,-0.13837505425559357,-0.02788812387883663
1686445602646244900,1.029244873046875,-0.031547230908274645,-0.09128916742652654,0.012670096480846405
1686445602656262000,1.039261962890625,-0.05163140303790569,-0.026088983768690375,0.044949733316898347
1686445602666279000,1.04927880859375,-0.021674656191468238,0.03484800775302574,0.056852352556586265
1686445602676295700,1.059295654296875,0.00028758476972579955,0.06972966204732656,0.0166220489770174
1686445602686311700,1.069311767578125,0.03393675639331341,0.09331890142215415,-0.022860651105642317
1686445602696329000,1.079328857421875,0.06021627603173255,0.09564297872185706,-0.034787820264697074
1686445602706345700,1.089345703125,0.0658306087821722,0.07658140937192365,-0.03379997827112675
1686445602716362800,1.09936279296875,0.0680570526599884,0.031445524099469185,-0.02264437800645828
1686445602726379800,1.1093798828125,0.0709457598388195,-0.03362171736108139,0.00663490796983242
1686445602736396800,1.119396728515625,0.03164367702007294,-0.05081920987218618,-0.028265725019574164
1686445602746413800,1.129413818359375,-0.018231822261214257,-0.007482775237131863,-0.011177812096476555
1686445602756430800,1.139430908203125,-0.03324059082269668,-0.010696166059374809,0.0099906481385231
1686445602766447900,1.14944775390625,-0.06115501818656921,-0.041005671866238116,-0.02538286305963993
1686445602776465000,1.15946484375,-0.0833896463483572,-0.0684229633629322,-0.05975625730454921
1686445602786481000,1.16948095703125,-0.08041501445174216,-0.07792728928923606,-0.08010755593776703
1686445602796497700,1.17949755859375,-0.07375497204065322,-0.06720861913710832,-0.06802607299983501
1686445602806514400,1.189514404296875,-0.06168751762807369,-0.03169630225645378,-0.04895838443636894
1686445602816531700,1.19953173828125,-0.05448445438146591,0.017248948703706263,-0.010806056174635887
1686445602826548500,1.209548583984375,-0.044720016214251514,0.039306740727555,0.03208440652489662
1686445602836565500,1.2195654296875,-0.029451135411858557,0.045506472150515766,0.060224459338188166
1686445602846582500,1.22958251953125,-0.02495850016772747,0.02309972055852413,0.07075520570278167
1686445602856599600,1.239599609375,-0.029145430463552474,0.0021881576940417286,0.0657213031888008
1686445602866616600,1.249616455078125,-0.0255453601449728,-0.020282325050234792,0.048127194309234615
1686445602876633600,1.259633544921875,-0.018822189369797706,-0.021370102020632473,0.024637597650289535
1686445602886649600,1.269649658203125,-0.012906243324279785,-0.004711538691818714,0.005399228695034981
1686445602896666600,1.27966650390625,-0.0025870938837528226,0.0014779635980725287,0.005110474881529808
1686445602906683600,1.28968359375,0.011527940708398817,-0.009202712631225586,-0.0006733692169189453
1686445602916700700,1.29970068359375,0.02291325807571411,-0.012197802793979645,-0.03880640825629234
1686445602926717400,1.309717529296875,0.02658405554294586,-0.011752397114038467,-0.045913025391101835
1686445602936734700,1.319734619140625,0.020932313391566277,-0.026362247752118855,-0.03704056762754917
1686445602946751500,1.32975146484375,0.04344517397284507,-0.024708343065250663,-0.01907353378236294
1686445602956768500,1.3397685546875,0.07410860778391361,-0.024327782782446593,-0.014072949016094207
1686445602966785800,1.349785888671875,0.08592237969636916,-0.02085924815535545,0.009089315384626389
1686445602976802600,1.359802490234375,0.09721066642999648,-0.021172844149172306,0.00537350973188877
1686445602986818600,1.369818603515625,0.09308569545447826,-0.02897535285996273,-0.027317045992612837
1686445602996835600,1.379835693359375,0.06690437549352646,-0.013772797025740146,-0.01954348938167095
1686445603006852600,1.3898525390625,0.046941783916950225,-0.0009697218149900435,-0.04303717769384384
1686445603016869600,1.39986962890625,0.020639467924833295,0.020873861202597616,-0.04457447026371956
1686445603026886400,1.409886474609375,0.010648819786310196,0.022432196560502052,-0.033146482798457146
1686445603036903700,1.419903564453125,0.0016547814697027206,0.00476443792283535,-0.04081774807870388
1686445603046920400,1.42992041015625,-0.019053660038113592,-0.007745517826545983,-0.04233516690433025
1686445603056937500,1.4399375,-0.023477321699261665,-0.03389410456167534,-0.047104281002283095
1686445603066954500,1.44995458984375,-0.02296118887066841,-0.06950403659790753,-0.06827507932484149
1686445603076971500,1.459971435546875,-0.02065291192829609,-0.08070027940021827,-0.09272972162365913
1686445603086987500,1.469987548828125,-0.024115035080909727,-0.07012160224067047,-0.09204407744705677
1686445603097004500,1.480004638671875,-0.044077042135596274,-0.05445815089643001,-0.08823825542330742
1686445603107021600,1.490021484375,-0.0558048893302679,-0.03847997104721144,-0.06781798320710658
1686445603117038600,1.50003857421875,-0.0649766223013401,-0.03204816616773605,-0.051178398573398586
1686445603127055600,1.5100556640625,-0.08572656486332415,-0.033579631785023954,-0.029044308176636693
1686445603137072600,1.52007275390625,-0.10312953508496284,-0.035762510515749454,-0.014108604851365088
1686445603147089400,1.53008935546875,-0.11797171490788459,-0.02921528082937002,-0.006502221500873566
1686445603157106700,1.540106689453125,-0.11166413919627666,-0.032630934491753576,-0.04082067068815231
1686445603167123500,1.55012353515625,-0.07014496484994888,-0.03756753237741068,-0.058792380708456035
1686445603177139500,1.560139404296875,-0.049770285341143604,-0.03492841604547575,-0.023229484418034553
1686445603187156700,1.57015673828125,-0.019438859963417054,-0.02386485971212387,-0.0019259996265172958
1686445603197173500,1.580173583984375,0.006367196944355964,-0.01762861393736675,0.0009013327538967132
1686445603207190500,1.5901904296875,0.013960720813274383,-0.03934066126346588,-0.003073416095972061
1686445603217207600,1.60020751953125,0.012546762362122535,-0.03632160570323467,-0.0009802432090044021
1686445603227224600,1.610224609375,0.009309095615148543,-0.004864993954170495,0.013165771043300628
1686445603237241600,1.62024169921875,0.028715222352743146,0.004311141197383403,0.024801263779401776
1686445603247258600,1.630258544921875,0.0380371774494648,0.006850304286181926,0.012456161469221114
1686445603257275600,1.640275634765625,0.0431564201593399,0.006362813030183315,0.012227028888463973
1686445603267292400,1.65029248046875,0.05799275476336479,0.004590542660653591,0.002420505145192146
1686445603277309700,1.660309814453125,0.058791796186566346,0.0024959084689617156,-0.015049100571870803
1686445603287325700,1.67032568359375,0.0642664282053709,0.014262041847407817,-0.025410920110344886
1686445603297342500,1.680342529296875,0.06481354069411754,0.007654606406390666,-0.032279636836051936
1686445603307359500,1.690359375,0.05175707524418831,-0.0013853168785572052,-0.026658874344825743
1686445603317376500,1.70037646484375,0.05183014048039913,-0.024046353758871555,-0.028042437657713887
1686445603327393500,1.7103935546875,0.05235796374678611,-0.022697880025673658,-0.013910451930761337
1686445603337410800,1.720410888671875,0.03954816653430462,-0.012070687549281865,-0.0009884265154600142
1686445603347427600,1.730427490234375,0.02602992879152298,-0.02119447145909071,-0.0018108488142490385
1686445603357444600,1.740444580078125,-0.007938391783833503,-0.01564794324785471,-0.016963994282484053
1686445603367461600,1.750461669921875,-0.02000409263074398,-0.02140287177907303,-0.02165361340343952
1686445603377478700,1.760478759765625,-0.03251870628893375,-0.022054321425128726,-0.009185176974534987
1686445603387494700,1.77049462890625,-0.054205052918195724,-0.02785100673884153,-0.014641688814759253
1686445603397511400,1.780511474609375,-0.0559223782300949,-0.026707955917250364,-0.008781272348761558
1686445603407528700,1.79052880859375,-0.07128478253483772,-0.021501071456540375,-0.0176589908093214
1686445603417545500,1.80054541015625,-0.07394961782991885,-0.02900837834673002,-0.011095979031920432
1686445603427562500,1.8105625,-0.07560030764639378,-0.030337873384822158,-0.01609013405740261
1686445603437579500,1.82057958984375,-0.06000467910766601,-0.03404460068196058,-0.02689385214447975
1686445603447596500,1.830596435546875,-0.052097266983985896,-0.034522447326779365,-0.029060090267658233
1686445603457613600,1.840613525390625,-0.04457856191694736,-0.01722819817662239,-0.0393657957047224
1686445603467630600,1.850630615234375,-0.02192073990702629,-0.009819675485789775,-0.0451607457190752
1686445603477647600,1.860647705078125,0.0011094225466251372,-0.008776011651754378,-0.03634849371016025
1686445603487663600,1.87066357421875,0.02171148107051849,-0.011456629037857055,-0.030945757883787152
1686445603497680600,1.8806806640625,0.019766776743531226,-0.026034020444750783,-0.03159107005000114
1686445603507697700,1.89069775390625,0.02042319482564926,-0.03559446047246456,-0.03633738779425621
1686445603517714400,1.90071435546875,0.0034305589705705642,-0.04933015862451866,-0.030754034703969955
1686445603527731700,1.910731689453125,-0.010721300500631331,-0.04221243557380512,-0.027772973066568372
1686445603537748500,1.92074853515625,-0.006445522877573967,-0.032551147253811356,-0.02647416542768478
1686445603547765500,1.930765625,0.0018704700469970702,-0.014580606277287005,-0.02857084544599056
1686445603557782500,1.940782470703125,0.03990004871189594,-0.009512527499068528,-0.018241759133338926
1686445603567799600,1.950799560546875,0.07023264313340187,0.006929214741289615,-0.009987725529074669
1686445603577816600,1.960816650390625,0.06882452990114689,-0.006893851166963577,-0.003632219022512436
1686445603587832600,1.97083251953125,0.07333586984574794,-0.006566811169683933,0.01635726056098938
1686445603597849600,1.980849609375,0.04485270268321037,-0.015842296776175498,0.011019991186261176
1686445603607866600,1.99086669921875,0.014360533785820006,-0.020908055733144283,0.006934183177351951
1686445603617883600,2.000883544921875,-0.015196400088071823,-0.029245073179434984,-0.008393734335899353
1686445603627900700,2.010900634765625,-0.03098258276283741,-0.02013913545357063,-0.0031359599381685253
1686445603637917400,2.02091748046875,-0.044333062723279,-0.011385920155514031,-0.007428688696026801
1686445603647934700,2.030934814453125,-0.029085224708914757,0.00008707549525424838,-0.010965630650520324
1686445603657951500,2.040951416015625,-0.007648468926548958,0.004459902018308639,-0.015122750329971313
1686445603667968500,2.050968505859375,-0.0025578677892684936,0.005753138432931155,-0.013218962535262106
1686445603677985800,2.06098583984375,-0.0001315174251794815,-0.0024760529910214245,0.0078080434024333945
1686445603688001500,2.07100146484375,0.021231588599085808,-0.01624680419014767,0.0017617489755153656
1686445603698018600,2.0810185546875,0.011983867782354354,-0.04310353919463232,0.0036988545179367062
1686445603708035600,2.09103564453125,-0.01169043779373169,-0.056821957418322556,-0.008716390419006348
1686445603718052600,2.101052490234375,-0.024717677149176595,-0.049270829652715474,-0.009797171393036841
1686445603728069600,2.111069580078125,-0.0517050527960062,-0.030641240245569495,0.008441080608963966
1686445603738086400,2.12108642578125,-0.049722354546189305,-0.005211323173809796,-0.0021048633247613907
1686445603748103700,2.131103759765625,-0.028573768055438993,0.01564706646502018,-0.018629297146201134
1686445603758120400,2.141120361328125,-0.005350128856301308,0.009911134895216674,-0.042756022664904594
1686445603768137500,2.151137451171875,0.013255202892422675,-0.0010948277656920254,-0.04871288524270057
1686445603778154500,2.161154541015625,0.017175591206550597,-0.027755437409877775,-0.04675824404358864
1686445603788169700,2.171169677734375,0.005937573355436325,-0.034461364789307114,-0.042537411478161806
1686445603798186800,2.181186767578125,0.006913724911212921,-0.052181145875155925,-0.04622749816775322
1686445603808203800,2.191203857421875,0.02522913380265236,-0.0676209993302822,-0.030267712491750715
1686445603818220800,2.201220703125,0.010922960552573203,-0.04647241283953189,-0.016542554000020027
1686445603828237800,2.21123779296875,-0.014564531925320624,-0.022668927925825116,-0.0023357494711875914
1686445603838254600,2.221254638671875,-0.0076326868355274195,-0.0025444237858057023,-0.011210545322299002
1686445603848272000,2.23127197265625,-0.004164718464016914,0.020386643941234794,-0.03450958784520626
1686445603858288600,2.24128857421875,0.009940379256010054,0.013059972581267357,-0.04547697206139564
1686445603868305700,2.2513056640625,0.011196516796946525,-0.00024610198186710475,-0.039377486142516134
1686445603878321700,2.26132177734375,0.011437339815497398,0.007604026996623724,-0.02497369773685932
1686445603888338700,2.271338623046875,0.0011906710892915725,0.003107007838319987,-0.02025368347764015
1686445603898355700,2.281355712890625,0.0030476971328258513,-0.010562310546636582,-0.017937223228812218
1686445603908372700,2.291372802734375,-0.011050970846414565,-0.025805180124938487,-0.006893851166963577
1686445603918389800,2.3013896484375,-0.021835984233021737,-0.04039398797499016,0.008441080608963966
1686445603928406800,2.31140673828125,-0.047615737655758855,-0.03936725700944662,0.02030336783826351
1686445603938423600,2.321423583984375,-0.057179100292921066,-0.03421177394241094,0.01827566140294075
1686445603948440800,2.33144091796875,-0.039057752668857575,-0.022401801422238347,0.018580781829357147
1686445603958457600,2.34145751953125,-0.016867548170685767,-0.014641707081068307,0.01820142712295055
1686445603968474600,2.351474609375,-0.009799509480595587,-0.019008085597027092,0.01462181507050991
1686445603978491000,2.361490966796875,-0.005410919132828712,-0.025413842719793318,-0.00516658898293972
1686445603988507600,2.371507568359375,0.013441080853343008,-0.01807517039477825,-0.02263970183134079
1686445603998524700,2.381524658203125,0.028558570486307142,-0.016048651269543916,-0.01731178480684757
1686445604008541700,2.391541748046875,0.04254091860949993,-0.009340075275301932,-0.016666472640633583
1686445604018558700,2.401558837890625,0.03310439722239971,-0.009924304904043673,-0.015765724408626555
1686445604028575700,2.41157568359375,0.02238952646255493,-0.014206804528832434,-0.02180383552908897
1686445604038592800,2.4215927734375,0.018792963275313376,-0.008529909669887275,-0.031576457002758976
1686445604048609800,2.43160986328125,-0.0018605331748723982,-0.006296469795703887,-0.03620937750041485
1686445604058626600,2.44162646484375,0.0046510406762361525,-0.006775759478937834,-0.035443069303035736
1686445604068643800,2.451643798828125,-0.0009106851041316985,-0.013827157561480998,-0.04611760805249214
1686445604078660600,2.46166064453125,-0.00860474673807621,-0.015290508112311363,-0.04674012386500835
1686445604088676600,2.471676513671875,-0.003288520151376724,-0.012550287759769707,-0.05141571446061134
1686445604098694000,2.48169384765625,-0.0026595745980739593,-0.023521763629186898,-0.0527332267999649
1686445604108710700,2.491710693359375,0.004288052582740783,-0.026224282319843768,-0.03845686416625976
1686445604118727700,2.501727783203125,0.004324292939901352,-0.020260113218426704,-0.0327823256611824
1686445604128745000,2.511744873046875,0.004545826736092567,-0.015546839227247982,-0.03162731040716171
1686445604138761700,2.52176171875,0.0042144028246402735,-0.01787380260378122,-0.02654489257633686
1686445604148778800,2.53177880859375,-0.002232289096713066,-0.015038268650602548,-0.017860650861263275
1686445604158795800,2.541795654296875,-0.020407412734627723,-0.01813510215478018,-0.01270341422855854
1686445604168812800,2.551812744140625,-0.017892799565196037,-0.02396537921084091,-0.012603460985422133
1686445604178829600,2.56182958984375,-0.020067805516719817,-0.020583353823423384,-0.006560089167952537
1686445604188845600,2.571845458984375,-0.03078033818900585,-0.02200140392780304,0.005314473021030426
1686445604198862800,2.58186279296875,-0.03231704623699188,-0.02117050606161356,0.00978723452091217
1686445604208879600,2.591879638671875,-0.031896774998307224,-0.016018530125916003,0.03720306471288204
1686445604218896600,2.601896728515625,-0.02415069091618061,0.0018459201276302337,0.04171615822315216
1686445604228913700,2.61191357421875,-0.017894553130865097,-0.01119067157804966,0.02553016257584095
1686445604238930700,2.6219306640625,0.004667407289147376,-0.023266912085283545,-0.0013297872990369797
1686445604248947700,2.63194775390625,0.0058937342137098305,-0.032710721729695795,-0.027101941937208173
1686445604258964700,2.64196484375,0.009553425765037536,-0.03746142338812351,-0.04137129030823707
1686445604268981800,2.651981689453125,0.0015904840618371963,-0.030546237172186373,-0.056551323783397674
1686445604278997800,2.661997802734375,0.0007429273217916488,-0.029371348173916338,-0.04618775067925453
1686445604289014800,2.672014892578125,0.005586860221624374,-0.019649872365593908,-0.02045592805147171
1686445604299031800,2.68203173828125,-0.016506313642859458,-0.016836568510532376,-0.013426467806100845
1686445604309048600,2.692048583984375,-0.00974105729162693,0.0003115501672029495,-0.003171615773439407
1686445604319065900,2.70206591796875,-0.006592237871885299,0.004242167614400386,0.0074181673020124435
1686445604329082600,2.71208251953125,-0.02052431711256504,0.0035518472626805304,0.00466682276725769
1686445604339099600,2.722099609375,-0.026264906591176983,-0.00296323371976614,0.00003682487905025482
1686445604349117000,2.732116943359375,-0.009580313771963118,-0.005361819294095039,-0.02605038705766201
1686445604359133700,2.7421337890625,0.005128595060110092,-0.005739128173887729,-0.04662848018407821
1686445604369150700,2.752150634765625,0.011620295166969299,-0.000334054259955883,-0.0478928010314703
1686445604379166700,2.762166748046875,0.026565935364365575,-0.0007099018350243568,-0.049750411596894265
1686445604389183700,2.772183837890625,0.02563596103787422,-0.015813070681691167,-0.032761282873153684
1686445604399200800,2.78220068359375,0.022537995022535322,-0.014969605594873427,-0.030533085429668424
1686445604409217800,2.7922177734375,0.006132803666591644,-0.01818973668515682,-0.022465514308214186
1686445604419234800,2.80223486328125,-0.0003121346890926361,-0.033116087660193444,-0.026756489500403404
1686445604429251600,2.81225146484375,-0.003240589356422424,-0.04080079694390297,-0.02755143927037716
1686445604439268900,2.822268798828125,0.003968903630971909,-0.036652737353742124,-0.019842180067300794
1686445604449285600,2.83228564453125,-0.004234861090779305,-0.021276012262701986,-0.007988076144456863
1686445604459302700,2.842302734375,-0.004577390918135643,-0.01897944402443245,-0.01623568000793457
1686445604469320000,2.85231982421875,-0.009035539370775222,-0.023582809634041038,-0.01390811384320259
1686445604479335700,2.862335693359375,-0.02134732393324375,-0.02231647949265316,-0.0026624972075223923
1686445604489352700,2.872352783203125,-0.030452421408891674,-0.016201503743696957,-0.011817863565683364
1686445604499369700,2.88236962890625,-0.04044423859119415,-0.009017419192194938,-0.012943652725219726
1686445604509386800,2.89238671875,-0.023004443490505216,-0.008921575868595391,-0.008755553385615348
1686445604519403800,2.90240380859375,-0.02393500233888626,-0.016427110926806925,-0.0013970073163509368
1686445604529420800,2.9124208984375,-0.011730185282230377,-0.02348579726666212,-0.00947743791937828
1686445604539437800,2.922437744140625,-0.012411737805604934,-0.01780249093323946,-0.019365210205316542
1686445604549454600,2.93245458984375,-0.01158405480980873,-0.01118278053253889,-0.007055763730406761
1686445604559471900,2.942471923828125,-0.0044815293282270425,-0.016883056267071515,-0.006168459501862526
1686445604569488600,2.952488525390625,0.023475568133592604,-0.023733068292308597,-0.010077157378196715
1686445604579504600,2.962504638671875,0.021140987706184385,-0.021459259875118732,-0.0129360539406538
1686445604589521700,2.972521728515625,0.00885083045363426,-0.018259587050974368,-0.020383447337150574
1686445604599538700,2.98253857421875,0.015174188256263732,-0.030621055974066256,-0.02409925298988819
1686445604609555700,2.9925556640625,-0.003171615773439407,-0.024307635043561458,-0.02850070281922817
1686445604619572700,3.00257275390625,-0.017626257583498953,-0.013794716596603392,-0.027511107259988784
1686445604629589800,3.01258984375,-0.00992225907742977,-0.013266016547381878,-0.0376928940564394
1686445604639606800,3.022606689453125,0.0035690906584262844,-0.011151508611440658,-0.01427753167748451
1686445604649623600,3.03262353515625,0.007211831074953079,0.005040606249403209,-0.011053893455862999
1686445604659640800,3.042640869140625,0.014065934753417967,-0.004263210402429104,-0.0010948094993829727
1686445604669657600,3.05265771484375,0.0033773674786090847,-0.011534078188240527,0.0010123919129371643
1686445604679673600,3.062673583984375,0.005189385336637497,-0.014528583829104899,-0.027156302472949027
1686445604689691000,3.07269091796875,0.004276946666836738,-0.027700492352247235,-0.04447042536735534
1686445604699707600,3.082707763671875,-0.008754968863725662,-0.021431202824413777,-0.04498363558650016
1686445604709724700,3.092724609375,-0.0008089782953262329,-0.03424686352210119,-0.03779693895280361
1686445604719741700,3.10274169921875,-0.010234978288412093,-0.041759120582044125,-0.036108839735388754
1686445604729758700,3.1127587890625,-0.02393675590455532,-0.05201691349046304,-0.03682487905025482
1686445604739775700,3.122775634765625,-0.02570318105518818,-0.044385103437770156,-0.006091302612423896
1686445604749792800,3.132792724609375,-0.022688217148184774,-0.03596418883400038,0.004932780227065086
1686445604759809800,3.142809814453125,-0.0007826748102903366,-0.003511825779546052,0.0062122986435890195
1686445604769826600,3.15282666015625,-0.007907412123680114,0.00929535935074091,0.017325228810310362
1686445604779843800,3.16284375,0.0033937340915203094,0.020606442438066006,-0.0000713116705417633
1686445604789860400,3.1728603515625,0.011700959187746046,0.01981790414256975,-0.009675006318092346
1686445604799877400,3.18287744140625,0.014680851781368255,0.0055830608293414115,-0.00024199206233024596
1686445604809894400,3.192894287109375,0.0011228665500879287,-0.0014589666366577147,0.005336100330948829
1686445604819911200,3.2029111328125,-0.028008535388112068,-0.008009703454375267,0.001527355697751045
1686445604829928400,3.212928466796875,-0.03180558958351612,-0.01731967585235834,-0.025698504880070683
1686445604839945200,3.2229453125,-0.022673019579052923,-0.022223229984939096,-0.033327684584259984
1686445604849962200,3.232962158203125,-0.02385609188377857,-0.027979017032682893,-0.012071546065807341
1686445604859979300,3.242979248046875,-0.00981295348405838,-0.025631869384646414,0.005716624081134796
1686445604869996300,3.252996337890625,-0.014304419684410095,-0.02896072154641151,-0.005017535901069641
1686445604880013300,3.263013427734375,-0.0006862286984920501,-0.04012830450981855,-0.011510989573597908
1686445604890029300,3.273029296875,0.0016565350353717804,-0.04057604827731848,-0.013147650864720344
1686445604900046300,3.28304638671875,-0.010507365489006042,-0.03573797886269167,-0.016777531799674034
1686445604910063400,3.2930634765625,0.003044190001487732,-0.03256166864782572,-0.021864625805616378
1686445604920080400,3.303080322265625,0.013434651112556456,-0.01669980865465477,-0.021629063484072685
1686445604930097400,3.313097412109375,0.007156301495432853,-0.022602292430400846,-0.022180267626047134
1686445604940114200,3.3231142578125,0.014228431838750838,-0.020960078181326388,-0.026103578549623488
1686445604950131500,3.33313134765625,0.01754851617217064,-0.002791676545143127,-0.031383564779162404
1686445604960148200,3.343148193359375,0.00844224965274334,0.006168441235553473,-0.03257365134656429
1686445604970165200,3.353165283203125,0.007847790890932082,0.0007312368839979171,-0.020703765332698822
1686445604980182500,3.3631826171875,-0.012454407903552055,0.001175747514795512,-0.027907413101196286
1686445604990198300,3.3731982421875,-0.012809797212481497,-0.009360825802385807,-0.03239069599509239
1686445605000215300,3.38321533203125,-0.02849778020977974,-0.012575111673772335,-0.022661329141259193
1686445605010232300,3.393232421875,-0.01963993549346924,-0.012370821273326874,-0.022305939832329747
1686445605020249300,3.403249267578125,0.0046247371912002564,-0.011436773559916763,-0.026941198417544363
1686445605030266400,3.413266357421875,0.008254618126153945,-0.01586567765176296,-0.032661914151906966
1686445605040283400,3.423283447265625,0.01300970369875431,-0.026579068840574472,-0.03882160582542419
1686445605050300400,3.433300537109375,0.029282208585739135,-0.026511574828624724,-0.03739946406781673
1686445605060317200,3.443317138671875,0.030719547912478447,-0.03130847198264673,-0.023916297638416288
1686445605070334500,3.45333447265625,0.019094576570391653,-0.03120442708628252,-0.03185819655358791
1686445605080351200,3.463351318359375,0.01068038396835327,-0.025112521685659885,-0.018654431587457655
1686445605090367200,3.4733671875,-0.010611410385370255,-0.015174480517208575,-0.00761047500371933
1686445605100384300,3.48338427734375,-0.017261515924334524,-0.013046839105058461,-0.0007762450695037841
1686445605110401300,3.4934013671875,-0.031662966242432596,-0.01620382356494665,0.011863456273078919
1686445605120418300,3.503418212890625,-0.022937807995080946,-0.02108721169233322,0.008196165937185288
1686445605130435300,3.513435302734375,-0.027555530923604965,-0.008610299696028232,0.002118307328224182
1686445605140452400,3.523452392578125,-0.02860357867181301,-0.006386796693969517,0.003957797715067863
1686445605150469400,3.533469482421875,-0.020700842723250387,-0.014160627299547195,0.010271218645572662
1686445605160486100,3.543486083984375,-0.02266658983826637,-0.01222410627901554,0.00756079064309597
1686445605170503400,3.55350341796875,-0.015865093129873276,-0.010128595304489136,-0.002181435692310333
1686445605180520200,3.563520263671875,-0.02281213578879833,-0.021298534621763975,-0.00208615862429142
1686445605190536200,3.5735361328125,-0.017124153280258177,-0.022814473876357075,-0.00838555102944374
1686445605200553500,3.583553466796875,-0.023074586117267606,-0.0187701669216156,-0.026133389165997504
1686445605210570200,3.5935703125,-0.009411386945843696,-0.026881284923851487,-0.021832477101683616
1686445605220587300,3.603587158203125,0.009286883783340454,-0.032767712613940236,-0.02015782188773155
1686445605230604300,3.613604248046875,0.020166005194187164,-0.02647299638390541,-0.030223288828134534
1686445605240621300,3.623621337890625,0.03398994788527489,-0.02177811656594276,-0.013928572109341621
1686445605250638300,3.633638427734375,0.025113398468494415,-0.015844342602789403,-0.009219663766026497
1686445605260655400,3.6436552734375,0.005802548798918724,-0.010674246488511561,-0.02094692643880844
1686445605270672400,3.65367236328125,-0.0029307927548885343,-0.010271218645572662,-0.03690028237402439
1686445605280689200,3.663689208984375,0.003266308319568634,-0.0052723874449729915,-0.03566577214300632
1686445605290705200,3.673705078125,-0.005518471160531044,-0.015007581251394004,-0.043723990914225574
1686445605300722400,3.683722412109375,-0.004131985238194465,-0.010222721595037728,-0.03677402564585209
1686445605310739200,3.6937392578125,0.0018061726391315459,-0.018421791875362394,-0.03377718191742897
1686445605320756500,3.703756591796875,0.007212415596842765,-0.020809271533787248,-0.030529578298330307
1686445605330773200,3.713773193359375,0.01708791292309761,-0.014908815318346022,-0.019067104041576386
1686445605340790300,3.723790283203125,0.003944353711605072,-0.013276245680451392,-0.022151041531562804
1686445605350807600,3.7338076171875,0.005696750336885452,-0.02839227400869131,-0.01769581568837166
1686445605360824300,3.74382421875,0.0037689971446990965,-0.0305211209972389,-0.022322306445240973
1686445605370841300,3.75384130859375,-0.002971709287166595,-0.02656827345192432,-0.014740473014116287
1686445605380858400,3.7638583984375,-0.006764671829342842,-0.02872137809889391,-0.008440496087074279
1686445605390874400,3.773874267578125,-0.01656768844127655,-0.01987111390084028,-0.013677227696776388
1686445605400891400,3.783891357421875,-0.027529227438569066,-0.021358448115456848,0.00175415019094944
1686445605410908200,3.793908203125,-0.03350187210738659,-0.02395343304472044,-0.011416881549358368
1686445605420925400,3.803925537109375,-0.0264385095924139,-0.017832027554977686,-0.01195522620975971
1686445605430942200,3.813942138671875,-0.015641221246123313,-0.022081793953943996,-0.0035223289072513577
1686445605440959200,3.823959228515625,0.0014636428117752074,-0.016608038717973977,-0.004246551528573036
1686445605450976300,3.833976318359375,0.0033148236364126202,-0.02392069981889799,-0.01269815353155136
1686445605460993300,3.8439931640625,0.000741173756122589,-0.03322307343231514,-0.021707389417290685
1686445605471010300,3.85401025390625,0.0003495440900325775,-0.025482524041831493,-0.02491875267922878
1686445605481027300,3.86402734375,0.010052022936940193,-0.013822791913617401,-0.024295652344822883
1686445605491044400,3.87404443359375,0.00829670370221138,-0.005148761065304279,-0.013602993416786193
1686445605501060400,3.884060302734375,0.0002215337961912155,-0.008703256942797452,-0.009568038812279701
1686445605511077400,3.894077392578125,0.007153963407874107,-0.01612522363709286,-0.013584288716316222
1686445605521094400,3.904094482421875,0.011435586249828338,-0.02486528719263151,-0.013277414724230765
1686445605531111200,3.914111083984375,0.008643909704685211,-0.02096886427598074,-0.004615384840965271
1686445605541128400,3.92412841796875,-0.008253449082374572,-0.014015081349015236,-0.012442717465758323
1686445605551145200,3.934145263671875,-0.008666706058382987,-0.00829204579340294,-0.015969722548127174
1686445605561162200,3.944162353515625,-0.010090601381659507,-0.011434435472358017,-0.01932137106359005
1686445605571179300,3.95417919921875,0.0021259061127901074,-0.022874387370049952,-0.024107436296343803
1686445605581196300,3.9641962890625,0.01780336771607399,-0.024402327589690683,-0.028881226569414137
1686445605591213300,3.97421337890625,0.014178162956237791,-0.018014087857306002,-0.026617957812547683
1686445605601229300,3.984229248046875,0.00144610715508461,-0.010155191050469874,-0.025035657057166098
1686445605611246300,3.994246337890625,0.004841010290384292,-0.012989537693560123,-0.0231751238822937
1686445605621263400,4.004263427734375,0.003585457271337509,-0.029036417131125924,-0.01728138966858387
1686445605631280400,4.0142802734375,-0.003468552893400192,-0.0279547593742609,-0.014401450318098067
1686445605641297400,4.02429736328125,0.0035696751803159714,-0.00802228894131258,-0.007063362514972686
1686445605651314200,4.034314208984375,-0.006644260320067406,-0.015341672043967991,-0.003142389678955078
1686445605661331500,4.04433154296875,-0.003250526228547096,-0.021640772188175467,-0.012892214798927307
1686445605671348200,4.05434814453125,-0.0034942718565464017,-0.03649842357486486,-0.01643967814743519
1686445605681365200,4.064365234375,-0.01217617548406124,-0.03812456347197294,-0.03987783688008785
1686445605691382500,4.074382568359375,-0.017854805642366408,-0.029226112750638276,-0.060974400922656054
1686445605701399300,4.0843994140625,-0.008648001357913018,-0.021409009258914737,-0.05165244582593441
1686445605711415300,4.094415283203125,-0.007526888373494148,-0.02698447130369022,-0.025075989067554472
1686445605721432300,4.104432373046875,-0.0034498481929302214,-0.020622224529087543,-0.02231938383579254
1686445605731449300,4.114449462890625,0.00350830038189888,-0.021790117530990392,0.0004699555993080139
1686445605741466400,4.12446630859375,0.010700842234492301,-0.015167192259896546,0.012847791135311126
1686445605751483400,4.1344833984375,0.00950140331685543,-0.004940068484377115,0.014900632011890411
1686445605761500400,4.14450048828125,0.0067477206945419305,0.000372048182785511,0.0011111761122941971
1686445605771517200,4.15451708984375,-0.0004366378515958786,-0.000289356601703912,-0.011339140138030052
1686445605781534500,4.164534423828125,-0.01352642104923725,-0.011062971811462194,0.008535773155093192
1686445605791551700,4.1745517578125,-0.025253099200129508,-0.013595979154109953,0.011706804406642913
1686445605801567700,4.184567626953125,-0.026886253359913823,-0.0031561259433627127,0.007431026783585548
1686445605811584800,4.194584716796875,-0.03154372377693653,-0.011722020242083816,-0.005492752197384834
1686445605821601800,4.204601806640625,-0.019686697244644166,-0.012330799790192394,-0.015740005445480345
1686445605831618800,4.214618896484375,-0.023985271221399304,-0.011209979066718369,-0.010275310298800468
1686445605841635600,4.224635498046875,-0.031227497434616086,-0.006885083338618278,-0.006081950262188911
1686445605851652900,4.23465283203125,-0.02171732628941536,-0.020474340490996838,-0.007731471034884452
1686445605861670000,4.244669921875,-0.006482932278513908,-0.024191041192878036,-0.01574409709870815
1686445605871687000,4.25468701171875,0.0009036708414554595,-0.02729046851294115,-0.007244564300775528
1686445605881704000,4.264703857421875,0.007628595182299613,-0.030335535297263412,-0.004969020584225654
1686445605891720700,4.274720703125,0.03541676581799984,-0.03915830870019272,-0.0019207389295101164
1686445605901738000,4.284738037109375,0.02997778963446617,-0.044308805064857,-0.020419687694311142
1686445605911754000,4.29475390625,0.029988311028480527,-0.038323885436356064,-0.03623217385411262
1686445605921770800,4.304770751953125,0.036135727742314334,-0.032740824607014656,-0.04595452644526958
1686445605931787800,4.314787841796875,0.042245735055208206,-0.02062543939948082,-0.05928688622713089
1686445605941804800,4.3248046875,0.03585632627904415,-0.009484762709308415,-0.058307812061905856
1686445605951821800,4.33482177734375,0.03187748577594757,-0.007600830392539501,-0.0532213025778532
1686445605961838800,4.3448388671875,0.014238953232765196,-0.0010983166307210921,-0.046424482044577595
1686445605971856000,4.35485595703125,-0.006416881304979324,-0.015849913827050477,-0.03460661847889423
1686445605981873000,4.364872802734375,-0.02301964105963707,-0.017470190238952635,-0.019684359157085416
1686445605991889700,4.3748896484375,-0.03366846084594726,-0.01038110876083374,-0.009430676168203353
1686445606001907000,4.384906982421875,-0.043453941801190374,-0.0014110541080124676,-0.014162380865216255
1686445606011923700,4.394923828125,-0.033325931018590924,0.008202011156082153,-0.01579378145933151
1686445606021939700,4.404939697265625,-0.019715338817238807,-0.008959843786060809,-0.019590835654735565
1686445606031957000,4.41495703125,-0.013314239603281021,-0.0139729957729578,-0.00833762023448944
1686445606041973800,4.424973876953125,-0.00905307502746582,-0.016733984918892383,0.0018909283131361007
1686445606051990800,4.43499072265625,-0.006986790147423744,-0.018821038592327383,0.0024766192466020584
1686445606062007800,4.4450078125,0.008172785061597824,-0.030635961282253262,-0.0006786299139261245
1686445606072024800,4.45502490234375,-0.007866495591402053,-0.026705946623254567,0.004486205503344535
1686445606082041900,4.465041748046875,-0.0023006781578063964,-0.022962357914447784,0.004155366113781929
1686445606092059000,4.475058837890625,-0.0184171157002449,-0.015930851842463015,0.004626490756869316
1686445606102076000,4.485075927734375,-0.019734628039598464,-0.0084635847017169,0.007430442261695862
1686445606112092700,4.4950927734375,-0.0017038813084363936,-0.0001321202133782208,0.011101824250817299
1686445606122109000,4.50510888671875,0.0029372224956750867,0.00008563245683908462,0.005748772785067558
1686445606132126000,4.5151259765625,0.0038859015226364135,-0.007147533667087555,0.00042377837002277374
1686445606142142700,4.525142822265625,0.030998364853858946,-0.025984938872326165,-0.006606266397237777
1686445606152160000,4.535159912109375,0.03024082448482513,-0.032424616531003266,-0.016394085440039632
1686445606162176800,4.5451767578125,0.029424247404932973,-0.040388727277982976,-0.020827683973312378
1686445606172193800,4.55519384765625,0.02513327221274376,-0.04010640320526436,-0.02597498373389244
1686445606182210800,4.5652109375,0.009233107769489287,-0.04609833709644153,-0.01910509796440601
1686445606192227800,4.575227783203125,-0.0030471126109361648,-0.05441169967250898,-0.02278641682565212
1686445606202244900,4.585244873046875,-0.006386486166715622,-0.04596767818778753,-0.03672141867578029
1686445606212262000,4.595261962890625,-0.02181961762011051,-0.039169414616096764,-0.039269934114813804
1686445606222279000,4.60527880859375,-0.013304887253046035,-0.01876841335594654,-0.041918402796983716
1686445606232295000,4.615294921875,-0.003701777127385139,-0.011177538101840764,-0.03601590075492859
1686445606242311700,4.625311767578125,0.011283610558509826,0.00035860417932271954,-0.051664720785617825
1686445606252329000,4.635328857421875,0.008724573725461959,0.007748714430630206,-0.04474456613361835
1686445606262345700,4.645345703125,-0.005585691177845001,0.002861526910960674,-0.041619712111353874
1686445606272362800,4.65536279296875,-0.0012993921607732772,-0.0008978256225585938,-0.03901157543957233
1686445606282379800,4.6653798828125,-0.007508183673024177,0.0070995846058242015,-0.023145897787809372
1686445606292396800,4.675396728515625,-0.020278233397006986,-0.0026934768676757813,-0.00038110827207565303
1686445606302413800,4.685413818359375,-0.00543020835518837,-0.015324410381913183,0.012571312281489371
1686445606312430800,4.695430908203125,-0.008717559462785721,-0.01889410382853821,0.01961421653032303
1686445606322448000,4.70544775390625,-0.010507950010895729,-0.024551398937869815,0.029247137272357938
1686445606332463600,4.715463623046875,-0.00897241100668907,-0.024730828891694544,0.015456512328982352
1686445606342481000,4.72548095703125,-0.020263035827875135,-0.024273458779323846,-0.006792728880047798
1686445606352498000,4.735497802734375,0.0002928454667329788,-0.031134576720464973,-0.024712416452169417
1686445606362514700,4.7455146484375,0.010802549043297766,-0.0228112590059638,-0.032872342032194135
1686445606372532000,4.755531982421875,0.011285948646068572,-0.021999084106553345,-0.025664602610468865
1686445606382548700,4.765548828125,0.02114332579374313,-0.0088534425358288,-0.013158172258734703
1686445606392565800,4.775565673828125,0.036057986330986024,-0.0047314124360680575,-0.004165887507796288
1686445606402582800,4.785582763671875,0.025996611043810843,-0.02522827528612688,-0.00019464578926563263
1686445606412599800,4.795599853515625,0.0024818799436092374,-0.02904313913285732,0.013516484177112579
1686445606422616800,4.805616943359375,-0.017504092508554458,-0.024047522802650927,0.0032429274439811705
1686445606432632800,4.8156328125,-0.024608371555805204,-0.024143110397923738,0.003093289840221405
1686445606442649900,4.82564990234375,-0.04254793287217617,-0.0223343074102886,-0.013008534654974936
1686445606452667000,4.8356669921875,-0.03541676581799984,-0.018097089965641498,-0.03385258524119854
1686445606462684000,4.845683837890625,-0.030505612900853154,-0.010252221684157847,-0.03268880215883255
1686445606472701000,4.855700927734375,-0.007139934882521629,-0.011209960800409317,-0.01597030707001686
1686445606482717700,4.8657177734375,0.012153379130363464,-0.016232465137541292,-0.015886135917901993
1686445606492735000,4.87573486328125,0.021242109993100167,-0.02289455337524414,-0.02818798360824585
1686445606502751700,4.885751708984375,0.018171616506576536,-0.027303017467260358,-0.03726970020830631
1686445606512768800,4.895768798828125,0.016135726764798162,-0.04189999035745859,-0.040268882024288175
1686445606522785800,4.905785888671875,0.00819382784962654,-0.03561082708537578,-0.0385252532273531
1686445606532802800,4.915802734375,0.002218260571360588,-0.03091273239701986,-0.020555881294608114
1686445606542818800,4.92581884765625,-0.0025508535265922547,-0.031108547230064867,-0.016990882289409637
1686445606552835800,4.9358359375,-0.009730535897612571,-0.023217227724660186,-0.014542320093512534
1686445606562852900,4.945852783203125,-0.005558803170919418,-0.025280571728944778,-0.017099603360891343
1686445606572870000,4.955869873046875,0.006604512831568717,-0.022265626088250428,-0.01672492482960224
1686445606582887000,4.965886962890625,-0.015922960796952247,-0.023644805486965924,-0.0110451256275177
1686445606592904000,4.975904052734375,-0.0021960487395524977,-0.021877485287189483,-0.008629296657443046
1686445606602920700,4.985920654296875,-0.0022188450932502744,-0.01704699639081955,-0.01148819321990013
1686445606612938000,4.99593798828125,0.0017804536759853363,-0.02522825701981783,-0.004985387197136879
1686445606622954800,5.005954833984375,-0.0032861820638179777,-0.023948738603293895,-0.010161913052201271
1686445606632971800,5.0159716796875,-0.0021007716715335844,-0.024645780956745147,-0.015661679512262345
1686445606642988800,5.02598876953125,-0.005630699363350868,-0.01928189756972715,-0.015868600261211393
1686445606653004800,5.0360048828125,-0.016852935123443602,-0.018053269090224058,0.0034299744486808773
1686445606663021800,5.046021728515625,-0.017572481569647788,-0.015730671361554413,0.011725509107112883
1686445606673038800,5.056038818359375,-0.023719898283481596,-0.00294102188795805,0.00543020835518837
1686445606683055900,5.066055908203125,-0.011444354078173636,-0.006390303825307637,0.0000935235023498535
1686445606693073000,5.076072998046875,-0.00412087932229042,0.00343465062379837,-0.018765490746498106
1686445606703089700,5.086089599609375,0.00011222820281982422,-0.009827858792245387,-0.014747487276792525
1686445606713107000,5.09610693359375,0.010346037447452544,-0.025376433318853378,-0.013559738796949385
1686445606723123700,5.106123779296875,0.013285598030686378,-0.03552256428003311,-0.030299861195683477
1686445606733140700,5.116140625,0.015079495710134505,-0.04785334580391645,-0.016234510964155197
1686445606743157800,5.12615771484375,0.021657705056667326,-0.044026480992138385,-0.0024649288088083266
1686445606753173800,5.136173828125,0.02477145316302776,-0.0527443144495599,-0.0032177930027246474
1686445606763190800,5.146190673828125,0.02172726316154003,-0.05335605313973501,-0.008974749094247817
1686445606773207800,5.156207763671875,0.0029623569369316097,-0.03801058170348406,-0.0063064066678285595
1686445606783224800,5.166224853515625,-0.013002104914188383,-0.014623860897123813,-0.01753916382193565
1686445606793240800,5.17624072265625,-0.019511340677738187,-0.002122417247761041,-0.04865560209751129
1686445606803257600,5.186257568359375,-0.005275894576311111,0.0031645832444541153,-0.03620879297852516
1686445606813275000,5.19627490234375,0.0015980828464031219,-0.005961538752913474,-0.030112814190983772
1686445606823292000,5.2062919921875,-0.021361936980485916,0.0024707740277051925,0.0024187515795230864
1686445606833309000,5.216308837890625,-0.02582593065202236,-0.0008890760605223476,0.001034019222855568
1686445606843326000,5.226325927734375,-0.03297171075344085,-0.012496493479609488,-0.02158990051746368
1686445606853342700,5.2363427734375,-0.025448914033174515,-0.02521948919147253,-0.016522095733880995
1686445606863358700,5.246358642578125,-0.0025648820519447325,-0.026737784799933433,-0.0049503158837556835
1686445606873376000,5.2563759765625,-0.009584989947080612,-0.024687574271857738,-0.005481646281480789
1686445606883392800,5.266392822265625,-0.013419453543424605,-0.03776566703170538,-0.016409867531061172
1686445606893409800,5.276409912109375,-0.012291910818219185,-0.0341635508865118,-0.034709494331479074
1686445606903426800,5.2864267578125,-0.022273791128396985,-0.04280073858946561,-0.03069850512444973
1686445606913443800,5.29644384765625,-0.013424129718542099,-0.03520458437204361,-0.0313444018125534
1686445606923460600,5.306460693359375,-0.0027951836764812466,-0.04082213199287653,-0.027108956199884415
1686445606933478000,5.316477783203125,0.017667758637666703,-0.04657587321400642,-0.019420155262947082
1686445606943495000,5.326494873046875,0.04678454752862453,-0.044130818149447436,-0.016733108136057852
1686445606953511700,5.33651171875,0.04306348117887974,-0.03678222721861675,-0.014434183543920516
1686445606963529000,5.346529052734375,0.029275194323062893,-0.02020343286143616,-0.020338439151644707
1686445606973545000,5.356544921875,0.024348259314894673,-0.013017320749629288,-0.04157821105718613
1686445606983561700,5.366561767578125,0.013256956458091735,-0.008930928218830377,-0.0469295089572668
1686445606993579000,5.3765791015625,0.004109773406386375,0.006521200195979327,-0.044100423011183734
1686445607003595800,5.386595703125,-0.0040665187865495675,0.012541775659751146,-0.01633329516351223
1686445607013612800,5.39661279296875,-0.005634791016578674,0.008164309494197369,-0.006004208850860595
1686445607023629800,5.4066298828125,-0.005969137537479401,-0.004516911168862134,0.005742927566170692
1686445607033646800,5.416646728515625,-0.014214987835288047,-0.000737392630148679,0.010514964273571967
1686445607043663600,5.42666357421875,-0.0022860651105642317,0.000808101512491703,-0.0005927051961421966
1686445607053681000,5.436680908203125,0.007409983995556831,-0.008091262524295598,-0.008401333120465279
1686445607063698000,5.446697998046875,0.009320786052942275,-0.025700276712048796,-0.022443302476406097
1686445607073713700,5.456713623046875,0.019836919370293617,-0.03698209717227146,-0.025106384205818174
1686445607083731000,5.46673095703125,0.020243162083625792,-0.03661386664807796,-0.03730710960924625
1686445607093748000,5.476748046875,-0.0007949497699737549,-0.04038198700994253,-0.03685702775418758
1686445607103764700,5.4867646484375,-0.003779518538713455,-0.030370880605280398,-0.029409634357690808
1686445607113782000,5.496781982421875,-0.01290858141183853,-0.01980155579596758,-0.018182722422480584
1686445607123798800,5.506798828125,-0.023620529562234878,-0.024887188497185707,0.0012146364867687224
1686445607133815800,5.51681591796875,-0.02596446233987808,-0.02361176173388958,0.0032440964877605435
1686445607143832800,5.526832763671875,-0.018013795596361157,-0.02721709274947643,0.005457680884003639
1686445607153849900,5.536849853515625,-0.032035891208052635,-0.02960778727829456,0.008625789526104927
1686445607163867000,5.546866943359375,-0.02219429615139961,-0.035680092929303645,0.0009176993668079376
1686445607173884000,5.5568837890625,-0.022401216900348662,-0.04067923465715721,0.0005249006569385528
1686445607183900000,5.56689990234375,-0.017628011149168014,-0.037293373344838614,-0.01430500420629978
1686445607193916700,5.576916748046875,-0.014983049598336219,-0.03478316235588863,-0.028268647629022595
1686445607203933700,5.58693359375,-0.015212766700983047,-0.034711832419037816,-0.03381985201537609
1686445607213951000,5.596950927734375,-0.008503039929270744,-0.024531232932675628,-0.041626141852140426
1686445607223967700,5.6069677734375,0.023196166670322416,-0.029198621955513954,-0.03780804486870765
1686445607233984800,5.61698486328125,0.026884499794244766,-0.021994974187016486,-0.01839198125898838
1686445607244001800,5.627001708984375,0.021630817049741742,-0.011432371379435062,-0.0104699560880661
1686445607254018800,5.637018798828125,0.01609539475440979,-0.02531388947665691,-0.011970423778891563
1686445607264035800,5.647035888671875,0.0029179332733154295,-0.01759235531389713,-0.028043022179603576
1686445607274052900,5.657052978515625,0.007079144605994224,-0.017508184161782264,-0.03410334513187408
1686445607284070000,5.66706982421875,0.017766542837023735,-0.020981723757553843,-0.031164953592419622
1686445607294085600,5.677085693359375,0.02120528511404991,-0.013287059335410594,-0.020588614520430565
1686445607304103000,5.68710302734375,0.021282442003488538,-0.0192494748711586,-0.006916647520661354
1686445607314120000,5.697119873046875,0.008366261807084083,-0.01706805744515732,-0.026593992415070534
1686445607324136700,5.70713671875,-0.0047726212292909615,-0.004961732326913625,-0.014295651856064795
1686445607334154000,5.717154052734375,-0.00014554595053195953,-0.003963661200273782,-0.002926116579771042
1686445607344170800,5.727170654296875,-0.00009293898046016692,-0.007166256633866578,-0.009663900402188301
1686445607354187800,5.737187744140625,0.018431728747487067,-0.0068658123825676735,0.0023918635725975034
1686445607364204800,5.747204833984375,-0.0032078561305999755,-0.024423662638664245,0.0007902735948562622
1686445607374221800,5.757221923828125,-0.009512509232759475,-0.02595627903342247,0.002177344039082527
1686445607384238600,5.767238525390625,-0.028477906465530393,-0.023021120630670338,-0.0018394903868436813
1686445607394254800,5.7772548828125,-0.02310673482120037,-0.03405134095000103,-0.0022550854504108427
1686445607404271900,5.78727197265625,-0.022001988449692724,-0.035990492319036275,0.0025075989067554474
1686445607414288600,5.79728857421875,-0.005000000244379043,-0.03555851237624883,0.00027004911303520204
1686445607424306000,5.807305908203125,0.006875146466493606,-0.03219108176976442,0.010775076514482498
1686445607434323000,5.817322998046875,-0.0002291325807571411,-0.03063128510713577,-0.00039630584120750427
1686445607444339700,5.827339599609375,-0.007280220136046409,-0.024902970588207243,0.007428104174137115
1686445607454357000,5.83735693359375,-0.010101707297563552,-0.02020049198567867,-0.008771919998526573
1686445607464373800,5.847373779296875,-0.019471008667349816,-0.02200580610828474,-0.021499884146451948
1686445607474390800,5.857390869140625,-0.025195816054940222,-0.029017127908766267,-0.027661329385638235
1686445607484407800,5.86740771484375,-0.017408230918645858,-0.018100030841398985,-0.029853286471962927
1686445607494424800,5.8774248046875,-0.009940379256010054,-0.019560751043725757,-0.029819384202361104
1686445607504440800,5.88744091796875,0.011778700599074363,-0.025401586026418954,-0.038839726004004475
1686445607514457900,5.897457763671875,0.004838672202825546,-0.02731909181922674,-0.02322247015535831
1686445607524475000,5.907474853515625,-0.0011795651733875275,-0.02134118645340204,-0.022597616255283354
1686445607534492000,5.917491943359375,0.008123100700974464,-0.023356343934405593,-0.026268413722515104
1686445607544509000,5.927509033203125,0.020581600257754323,-0.020181221029628067,-0.03507189790308475
1686445607554526000,5.93752587890625,0.023244097465276718,-0.02416386092500761,-0.022763620471954345
1686445607564542700,5.947542724609375,0.02063712983727455,-0.012713643361628054,-0.020554712250828742
1686445607574560000,5.95756005859375,0.013055296406149863,-0.008626392314303667,-0.022661329141259193
1686445607584576800,5.96757666015625,0.01017068088054657,-0.021644553314149377,-0.021830723536014555
1686445607594593800,5.97759375,0.006602759265899658,-0.04358341339975595,-0.02619184135496616
1686445607604610800,5.98761083984375,-0.0081476506203413,-0.03924832507120445,-0.016717326045036316
1686445607614626800,5.997626708984375,-0.018217793735861777,-0.0327259375651367,-0.013052958318591117
1686445607624643800,6.007643798828125,-0.011519757401943206,-0.03909808467924595,-0.013628127858042717
1686445607634660600,6.01766064453125,-0.0024012159228324888,-0.051077879074681545,0.0010854571491479873
1686445607644678000,6.027677978515625,0.009252981513738632,-0.037671559007465834,0.013009119176864623
1686445607654695000,6.03769482421875,0.00988309611082077,-0.01479044963568449,0.011796820777654647
1686445607664711700,6.047711669921875,0.010572831940650939,-0.0008902451043017208,-0.0037847792357206343
1686445607674729000,6.05772900390625,-0.0039770869374275205,0.0033738603472709652,-0.0051852936834096905
1686445607684745700,6.067745849609375,-0.008183890977501869,-0.005690338862407952,-0.008114332872629165
1686445607694762800,6.0777626953125,-0.02928279310762882,-0.0064657071490772065,0.014300328031182289
1686445607704779800,6.08777978515625,-0.030691490861773488,-0.0036462658141739666,0.028876550394296645
1686445607714795800,6.097795654296875,-0.031928923702239986,-0.023768705861270428,0.015033903002738951
1686445607724812800,6.107812744140625,-0.0277151053994894,-0.02409925298988819,-0.0007113631397485733
1686445607734829800,6.117829833984375,-0.01921849521100521,-0.021291520359087733,0.0013666121780872343
1686445607744846800,6.127846923828125,-0.028020225825905798,-0.012258611336816102,-0.004250643181800842
1686445607754863600,6.137863525390625,-0.03459083638787269,-0.017846330074965954,-0.014727613532543182
1686445607764881000,6.147880859375,-0.021340309670567513,-0.024644611912965773,-0.015282909327745437
1686445607774898000,6.15789794921875,-0.004231938481330871,-0.027554946401715276,-0.01740413926541805
1686445607784914700,6.167914794921875,0.008980009791254996,-0.02616407656520605,-0.02037701759636402
1686445607794932500,6.177932373046875,0.02656009014546871,-0.029617724150419234,-0.020489245799183844
1686445607804949800,6.18794970703125,0.02275076099038124,-0.03668459379673004,-0.017992752808332443
1686445607814966800,6.197966796875,0.015839374166727066,-0.04006868327707052,-0.02908931636214256
1686445607824982500,6.207982421875,0.01528407837152481,-0.041403146751224994,-0.039941549766063685
1686445607834999800,6.217999755859375,0.01731763002574444,-0.031344127817917615,-0.05001227740347385
1686445607845016800,6.228016845703125,0.031245033091306683,-0.023012334536015987,-0.03963233768641949
1686445607855033600,6.23803369140625,0.01915653589069843,-0.017011066560912877,-0.0373702379733324
1686445607865051000,6.24805078125,0.0020820669710636137,-0.009698679454624652,-0.04466448663473129
1686445607875067600,6.258067626953125,-0.000377016618847847,-0.015594167234003543,-0.049694297495484346
1686445607885084700,6.268084716796875,-0.012017770051956176,-0.01762771888822317,-0.04144260197877884
1686445607895101700,6.278101806640625,-0.0225999543428421,-0.018003274202346802,-0.026256138762831685
1686445607905118700,6.28811865234375,-0.025845219874382017,-0.026076106020808218,-0.011815525478124618
1686445607915135700,6.2981357421875,-0.0169271694034338,-0.02401566635966301,-0.017248071920871733
1686445607925152800,6.30815283203125,-0.00608896452486515,-0.02849690342694521,-0.026591654327511784
1686445607935168800,6.318168701171875,0.004058920001983642,-0.026275720246136187,-0.02302081010341644
1686445607945185500,6.328185546875,0.01857376756668091,-0.022940748870838433,-0.01733575020432472
1686445607955202600,6.33820263671875,0.02001812115609646,-0.01703647499680519,-0.022857143974304196
1686445607965219800,6.3482197265625,0.014434183543920516,-0.023346407062280923,-0.020641221490502355
1686445607975236600,6.358236572265625,0.02350070257484913,-0.023690379928052424,-0.018484920239448546
1686445607985254000,6.36825390625,0.009079963034391403,-0.026534955704212188,-0.010337269619107246
1686445607995270700,6.378270751953125,-0.007076221996545791,-0.0334229616522789,0.010275894820690154
1686445608005287700,6.38828759765625,-0.007844283759593963,-0.027442718198895454,0.0076256725728511806
1686445608015304700,6.3983046875,-0.014340660041570663,-0.025986089649796484,0.0237502934217453
1686445608025321700,6.40832177734375,-0.019323124629259107,-0.027113066119421273,0.02047989344894886
1686445608035338800,6.4183388671875,-0.03065583502650261,-0.026534389448631554,0.012875848186016082
1686445608045354500,6.4283544921875,-0.021322189491987227,-0.02831484312461689,0.0036801498174667355
1686445608055371800,6.438371826171875,-0.013371522748470305,-0.022197218760848045,0.003738602006435394
1686445608065388800,6.448388916015625,0.005409165567159652,-0.021279227133095262,-0.011473580172657967
1686445608075405600,6.458405517578125,0.009373393023014069,-0.01825344957113266,-0.003440495842695236
1686445608085422800,6.4684228515625,0.012578326544165611,-0.026756781761348245,-0.011822539740800856
1686445608095439600,6.478439697265625,-0.0021387655943632127,-0.024932488943636415,-0.017937223228812218
1686445608105456600,6.48845654296875,-0.0015823007553815841,-0.03220394125133753,-0.022395371681451795
1686445608115473700,6.4984736328125,-0.009425999993085861,-0.0198354580655694,-0.020879121899604797
1686445608125490700,6.50849072265625,-0.008341711887717247,-0.008678414762485771,-0.03356850760281086
1686445608135507500,6.518507568359375,-0.012155132696032524,-0.005173018723726272,-0.02293839251697063
1686445608145523700,6.528523681640625,-0.0034498481929302214,-0.006892408128548413,-0.02651566648185253
1686445608155540700,6.538540771484375,0.009438859474658966,-0.025788539517391473,-0.02670037539899349
1686445608165557500,6.5485576171875,0.015520809736847876,-0.019125848491489888,-0.029222587352991103
1686445608175574800,6.55857470703125,0.022108371433615683,-0.01824966844515875,-0.031059739652276038
1686445608185591800,6.568591796875,0.019888357296586036,-0.045537762337923046,-0.019150106149911878
1686445608195608600,6.578608642578125,0.0061550154983997345,-0.030455636279284954,-0.05462298606932163
1686445608205625900,6.5886259765625,-0.017666589593887328,0.014410802668333052,-0.029150106638669966
1686445608215642600,6.598642578125,-0.0034627076745033262,-0.008565291510522365,-0.01737549769282341
1686445608225659600,6.60865966796875,0.0201426243185997,-0.0427338108330965,-0.03439326798915863
1686445608235676700,6.6186767578125,0.02632218973636627,-0.03241875304579735,0.0006248539000749588
1686445608245693700,6.628693603515625,-0.0004909983873367309,-0.020445114396512507,0.027954174852371214
1686445608255709700,6.638709716796875,-0.01855447834432125,-0.040873588185477996,-0.0019388591080904006
1686445608265726700,6.648726806640625,-0.026903789016604424,-0.03999417500244453,-0.014937456890940665
1686445608275743700,6.65874365234375,-0.030029227560758587,-0.02328766261236742,-0.006506313154101371
1686445608285760800,6.6687607421875,-0.014022095611691474,-0.016118191108107565,-0.008503039929270744
1686445608295777800,6.67877783203125,-0.0016863456517457961,-0.019630601409543303,-0.007550853770971298
1686445608305794800,6.688794921875,0.010268296036124228,-0.017146675639320163,-0.002160977426171303
1686445608315811600,6.6988115234375,-0.00024900632500648496,-0.016140987461805343,0.00480886158645153
1686445608325828900,6.708828857421875,-0.023102643167972562,-0.018056757955253123,0.015772738671302796
1686445608335845600,6.718845703125,-0.03426408865153789,-0.02832887164996937,-0.005228548303246498
1686445608345862700,6.728862548828125,-0.02189969711899757,-0.03122488535242155,-0.007003741282224655
1686445608355879700,6.738879638671875,-0.020692659416794774,-0.03076311305956915,-0.012727379626035689
1686445608365895700,6.748895751953125,-0.0019599018961191177,-0.015634809771645813,-0.02247545118033886
1686445608375912700,6.75891259765625,-0.013531097224354744,-0.013450743730831891,-0.025645897909998893
1686445608385929500,6.768929443359375,-0.007113046875596046,-0.012646715605258941,-0.030342531293630598
1686445608395946800,6.77894677734375,-0.013778349983692168,-0.009249474382400513,-0.016529694518446922
1686445608405963800,6.7889638671875,0.0014876082092523575,-0.01333617744045332,-0.015233224967122077
1686445608415980800,6.798980712890625,0.02759410936832428,-0.017731179262697697,-0.008398410511016845
1686445608425997800,6.808997802734375,0.03656652037501335,-0.024305589216947553,-0.0049479777961969375
1686445608436014600,6.8190146484375,0.026924831804633138,-0.03286271568732336,-0.009264671951532364
1686445608446032000,6.829031982421875,0.007551438292860984,-0.03343262452976778,-0.016582301488518712
1686445608456048600,6.839048583984375,0.003419453054666519,-0.031904373782873155,-0.017783493971824646
1686445608466064600,6.849064697265625,-0.005818330889940261,-0.03177081053107977,-0.018943769922852516
1686445608476081700,6.85908154296875,-0.008757306951284408,-0.027151626297831535,-0.0227916775226593
1686445608486098700,6.8690986328125,0.009919336467981339,-0.02890723779350519,-0.027243980756402015
1686445608496115700,6.87911572265625,0.011054477977752684,-0.030558804392814633,-0.015406827968358993
1686445608506132500,6.889132568359375,0.015777414846420288,-0.029144553680717944,-0.00900514423251152
1686445608516149800,6.899149658203125,0.007893383598327636,-0.023574352332949636,-0.011903203761577606
1686445608526166800,6.909166748046875,0.0017716858476400374,-0.02371756019592285,0.01674538309574127
1686445608536183600,6.91918359375,-0.0028635727375745774,-0.009397066159546375,0.0346036958694458
1686445608546200800,6.929200927734375,0.0009597849428653717,-0.0058054896746762095,-0.007293079617619514
1686445608556217600,6.939217529296875,0.024962591820955275,-0.030813948197662828,-0.050444239079952234
1686445608566234600,6.949234619140625,0.033034254595637316,-0.049502866576611994,-0.05403028087317943
1686445608576251600,6.959251708984375,0.010354805275797843,-0.05040419933050871,-0.037009003445506096
1686445608586267600,6.969267578125,0.0031990883022546767,-0.022121815437078474,-0.024991817915439606
1686445608596284700,6.97928466796875,-0.013311901515722273,-0.014641688814759253,-0.033570261168479915
1686445608606301700,6.9893017578125,-0.02329144373834133,-0.008527608114946633,-0.03270692233741283
1686445608616318700,6.999318603515625,-0.033251112216711044,-0.0038081783776171504,-0.002596446233987808
1686445608626335700,7.009335693359375,-0.0383767846673727,0.004109170618187636,0.02483984222412109
1686445608636352800,7.019352783203125,-0.04935527479946613,0.0028539098600856958,0.032242227435112
1686445608646369800,7.029369873046875,-0.05267477461099624,-0.009476853397488593,0.02603811209797859
1686445608656386600,7.039386474609375,-0.048234746336936946,-0.023631635478138922,0.024051906716823578
1686445608666403800,7.04940380859375,-0.014637012639641761,-0.03850684078782796,0.0022515783190727233
1686445608676420600,7.059420654296875,-0.010413841986656189,-0.03837298527508974,-0.012789338946342467
1686445608686437600,7.069437744140625,-0.012291326296329497,-0.046585225564241405,-0.020977321577072144
1686445608696454000,7.079453857421875,-0.015644143855571745,-0.04607495622085407,-0.04141746753752231
1686445608706470700,7.089470703125,-0.009713000240921973,-0.05135258609652519,-0.03926291985213756
1686445608716487700,7.09948779296875,-0.014903554621338843,-0.048080450824368744,-0.023978256958723066
1686445608726504700,7.109504638671875,-0.005650573107600212,-0.051019116358458995,-0.029492636466026304
1686445608736521700,7.119521728515625,0.010974398478865622,-0.04938654672056436,-0.03812953190803527
1686445608746538800,7.129538818359375,0.019335984110832212,-0.04201163403838873,-0.03396481344401836
1686445608756555800,7.1395556640625,0.045998365586996076,-0.03526858951896429,-0.046374797683954236
1686445608766572800,7.14957275390625,0.052982233124971384,-0.027893969097733496,-0.03622808220088482
1686445608776589600,7.159589599609375,0.04495090236067772,-0.011743921546638012,-0.0372790525585413
1686445608786606800,7.16960693359375,0.022118308305740356,-0.00829582691937685,-0.05124035789370537
1686445608796623000,7.179623046875,0.005722469300031662,-0.0025531916141510007,-0.04086158722043037
1686445608806638800,7.189638916015625,-0.019139000234007834,-0.001655073730647564,-0.034385669204592705
1686445608816656100,7.19965625,-0.026566519886255264,0.002691138780117035,-0.03853752818703651
1686445608826673200,7.209673095703125,-0.015937573844194412,0.0055061962008476255,-0.02172901672720909
1686445608836690200,7.219690185546875,0.004911737439036369,0.0016299392893910406,-0.008190320718288421
1686445608846707200,7.229707275390625,0.006174889242649078,-0.00749240158200264,-0.012637363255023955
1686445608856724000,7.239723876953125,0.010983750829100608,-0.0241641349196434,-0.014814122772216796
1686445608866741200,7.2497412109375,0.014766191977262496,-0.038350773443281645,-0.027599954587221143
1686445608876758000,7.259758056640625,0.00826747760772705,-0.044807109975814816,-0.029825813943147657
1686445608886775000,7.269775146484375,0.004437105664610862,-0.03742985920608043,-0.029274609801173208
1686445608896792000,7.2797919921875,0.004780804535746574,-0.03474310434013605,-0.02518938631415367
1686445608906809000,7.28980908203125,-0.007021276938915252,-0.04262450523972511,-0.01768178716301918
1686445608916825000,7.2998251953125,-0.02317161675095558,-0.035787352696061134,0.00034136078357696533
1686445608926841900,7.309841796875,-0.030921207964420317,-0.032495033152401445,0.019024433943629265
1686445608936859100,7.319859130859375,-0.03305354381799697,-0.024189269360899924,0.014318448209762573
1686445608946876200,7.329876220703125,-0.02256780563890934,-0.02466012000935152,0.017023615515232085
1686445608956893000,7.339892822265625,-0.008017302238941192,-0.02278700134754181,0.014513093999028205
1686445608966910200,7.34991015625,0.0025175357788801193,-0.027225568316876888,0.016110007801651952
1686445608976927000,7.359927001953125,0.0003378536522388458,-0.02465337974131107,0.004793664017319679
1686445608986944000,7.369944091796875,-0.01826864714026451,-0.024439736990630626,-0.012740823629498481
1686445608996961000,7.3799609375,-0.018155834415555,-0.025893461196590212,-0.028327099817991256
1686445609006978000,7.38997802734375,-0.03037351095378399,-0.03281770750181749,-0.033433483046293254
1686445609016995000,7.3999951171875,-0.033959552747011186,-0.033766368262469766,-0.027553192836046216
1686445609027011000,7.410010986328125,-0.021387071421742437,-0.027366730353236196,-0.02236731463074684
1686445609037028000,7.420028076171875,-0.009692541974782943,-0.029057459919154642,-0.02923661587834358
1686445609047045000,7.430045166015625,-0.002935468930006027,-0.026782208463549614,-0.016051555612683295
1686445609057062100,7.440062255859375,0.010962123519182205,-0.016212883654236794,-0.014514847564697266
1686445609067079200,7.4500791015625,0.020319734451174735,-0.023523206667602062,-0.01983633484840393
1686445609077096000,7.460095947265625,0.0300070157289505,-0.0314773805424571,-0.02013911718726158
1686445609087113200,7.47011328125,0.025467618733644483,-0.022165362317860125,-0.031527357164025306
1686445609097130000,7.4801298828125,0.010911854636669159,-0.014608371067047118,-0.044209728604555125
1686445609107147000,7.49014697265625,0.0014952069938182829,-0.009092256260383874,-0.03815817348062992
1686445609117164000,7.5001640625,-0.003980009546875953,-0.015991660385299474,-0.03286766585707664
1686445609127181000,7.51018115234375,-0.004501403072476387,-0.024541754326689987,-0.02856616927087307
1686445609137198000,7.520197998046875,0.0026449615508317946,-0.026610377294290808,-0.01965688662827015
1686445609147214000,7.530214111328125,-0.0036760581642389296,-0.019029420646000654,-0.01089957967698574
1686445609157231000,7.540231201171875,-0.0010486322700977325,-0.015610241585969924,0.0012795184165239333
1686445609167248100,7.550248046875,0.003939093014597893,-0.022605525567103175,-0.004220832565426826
1686445609177265200,7.56026513671875,0.011052139890193938,-0.03242459826469421,0.00012859481573104857
1686445609187282200,7.5702822265625,-0.0009855039060115813,-0.026385318100452422,-0.012177344527840613
1686445609197299000,7.580298828125,-0.003304302242398262,-0.032342198944557456,-0.0077250412940979
1686445609207316200,7.590316162109375,-0.009366378760337829,-0.028736557401716708,-0.018784195446968077
1686445609217333000,7.6003330078125,-0.010205752193927765,-0.01930354314595461,-0.0011298808127641678
1686445609227350000,7.61035009765625,-0.020754034215211867,-0.006981821711361408,0.009296820655465126
1686445609237367000,7.620366943359375,-0.02693301511108875,-0.004839256724715232,0.002319382858276367
1686445609247384000,7.630384033203125,-0.01772796439230442,-0.0032502339676022526,0.02079962692260742
1686445609257400000,7.640400146484375,-0.009042553633451461,-0.01330342594832182,0.017784663015604017
1686445609267416800,7.650416748046875,-0.0020756372302770613,-0.024938626423478126,-0.008566168293356895
1686445609277434000,7.66043408203125,0.024658640438318252,-0.032738778780400754,-0.015794950503110885
1686445609287451100,7.670451171875,0.025181787529587746,-0.04160802167356014,-0.02412321838736534
1686445609297468200,7.68046826171875,0.015233224967122077,-0.04133504995107651,-0.029456980630755424
1686445609307485200,7.690485107421875,0.009632920742034912,-0.030843174292147158,-0.03572714694142341
1686445609317502000,7.700501953125,0.012540332621335982,-0.021450492046773434,-0.023357494711875915
1686445609327519200,7.710519287109375,0.012754852154850959,-0.011407547465432434,-0.012477204257249831
1686445609337536000,7.720535888671875,0.008411854514479636,-0.01407411805987358,-0.005286415970325469
1686445609347553000,7.730552978515625,-0.0022989245921373365,-0.012573084113467484,-0.0073322425842285155
1686445609357570000,7.740570068359375,-0.009251227948069572,-0.021801223446894436,-0.020392215165495872
1686445609367587000,7.750587158203125,-0.02174655238389969,-0.0308326528981328,-0.040489831298589705
1686445609377603000,7.76060302734375,-0.027872341787815093,-0.0367842547789216,-0.05713759923875331
1686445609387620000,7.7706201171875,-0.024770868641138075,-0.04867489131987095,-0.06638239744603633
1686445609397637000,7.78063720703125,-0.035761049211025235,-0.04865355627089739,-0.054197454133629794
1686445609407654100,7.790654052734375,-0.03434884432554245,-0.03618307401537895,-0.041726679617166515
1686445609417671000,7.8006708984375,-0.03597381517887115,-0.030071313136816023,-0.0332879370957613
1686445609427688200,7.810688232421875,-0.027902736926078794,-0.03237783651351928,-0.0066571198016405105
1686445609437705000,7.820705078125,-0.008731003466248511,-0.0308893515214324,0.020541852769255638
1686445609447722000,7.830721923828125,-0.01488017374575138,-0.026735757239628583,0.02069382846057415
1686445609457739000,7.840739013671875,-0.014423077628016472,-0.02374242064254358,0.007550853770971298
1686445609467756000,7.850756103515625,-0.023052958807349203,-0.01922843208312988,-0.027363807743787764
1686445609477773300,7.860773193359375,-0.0224345346480608,-0.010026303973793983,-0.04743570491373539
1686445609487789000,7.8707890625,-0.01872574325799942,-0.001477086815237999,-0.016017653343081473
1686445609497806000,7.88080615234375,-0.018768997877836226,0.005349544334411621,0.010689151796698569
1686445609507823000,7.890822998046875,-0.011496961048245428,0.017883136687707156,0.01149170035123825
1686445609517840100,7.900840087890625,0.00502455016374588,0.012848960179090499,0.018151158240437507
1686445609527857200,7.910857177734375,0.02258826390504837,-0.010192308190464973,0.021870471024513245
1686445609537874000,7.9208740234375,0.024810616129636764,-0.021595161214470863,0.025640052691102026
1686445609547891200,7.93089111328125,0.008608838391304016,-0.04284545451402664,0.02116086145043373
1686445609557908000,7.940907958984375,0.010142039307951926,-0.056959320062398906,-0.006310498321056366
1686445609567925000,7.950925048828125,0.015472878941893576,-0.060076264772843564,-0.03195990336239338
1686445609577942000,7.96094189453125,0.029966099196672438,-0.05562339528352022,-0.035388124245405196
1686445609587959000,7.970958984375,0.04355447956621647,-0.04184621434360742,-0.034978374400734896
1686445609597976000,7.98097607421875,0.0557569585353136,-0.029196886656153945,-0.03658639411926269
1686445609607992000,7.990991943359375,0.05022036719620228,-0.02827684920178726,-0.017638532543182373
1686445609618009000,8.001009033203125,0.05605097304582596,-0.019867899030447004,-0.015001169776916503
1686445609628026000,8.011026123046875,0.04559679904878139,-0.011351433364022523,-0.0059556935340166085
1686445609638043100,8.021043212890625,0.019042554122209548,-0.0002954758152365684,-0.02135959889292717
1686445609648060200,8.03106005859375,-0.0029360534518957137,-0.005033628519345075,-0.03779869251847267
1686445609658077000,8.041076904296874,-0.026643676775693893,-0.0029027357041835782,-0.03828852186203003
1686445609668094200,8.05109423828125,-0.05198737686872482,-0.011950550034642219,-0.04072188648879528
1686445609678111000,8.061111083984375,-0.06565875934660434,-0.006347323200106621,-0.04096446307301521
1686445609688128000,8.0711279296875,-0.06373275972008705,-0.023943770167231558,-0.042488896161317825
1686445609698145000,8.08114501953125,-0.049693712973594664,-0.029202421347796916,-0.0349959100574255
1686445609708162000,8.091162109375,-0.03366962988972664,-0.03268967894166708,-0.034215573334693904
1686445609718179000,8.101178955078124,-0.021082535517215728,-0.03420709776729345,-0.016162614771723746
1686445609728195000,8.111195068359375,-0.009350012147426605,-0.02722675562696531,-0.02037526403069496
1686445609738212000,8.121212158203125,0.007267945176362991,-0.04419979173243046,-0.028404256707429885
1686445609748229000,8.13122900390625,0.010103460863232612,-0.04117489095330238,-0.020374679508805275
1686445609758246100,8.14124609375,-0.007314122405648231,-0.046264615307748315,-0.027291327029466628
1686445609768263200,8.15126318359375,-0.021750059515237806,-0.04361030140668153,-0.018352818292379378
1686445609778280000,8.161280029296876,-0.03412731052935123,-0.0427601143181324,-0.012995090651512145
1686445609788297200,8.171297119140625,-0.028387305572628974,-0.03939326823353767,-0.015917700099945066
1686445609798314000,8.18131396484375,-0.03301847250461578,-0.026679624871909616,-0.0027671266257762906
1686445609808331000,8.1913310546875,-0.03005436200201511,-0.016160002689529208,-0.0058580783784389495
1686445609818348300,8.201348388671875,-0.0063625207692384715,-0.004601666842866689,-0.00590250204205513
1686445609828365000,8.211364990234374,0.010855740535259246,-0.013988485603034496,0.01208908172249794
1686445609838381000,8.221381103515625,0.025958617120981214,-0.011087503464519977,0.0061824880272150036
1686445609848398300,8.2313984375,0.03868599674701691,-0.018008827160298824,0.008574936121702193
1686445609858415000,8.2414150390625,0.03188683812618255,-0.017483634242415426,0.0077250412940979
1686445609868432100,8.25143212890625,0.020484569624066352,-0.02667524095773697,-0.0021779285609722135
1686445609878449200,8.26144921875,0.021927754169702527,-0.02544569916278124,-0.004525368469953537
1686445609888466200,8.271466064453126,0.01758241844177246,-0.020419979955255983,-0.016166706424951553
1686445609898483000,8.28148291015625,0.01824468174278736,-0.016527356430888176,-0.019431845700740812
1686445609908500200,8.291500244140625,0.022224106767773626,-0.008153806366492062,-0.013253449326753616
1686445609918517000,8.30151708984375,0.016537293303012846,-0.005455635057389736,-0.011368950754404068
1686445609928534000,8.311533935546874,0.01941547908782959,-0.001728449494112283,-0.013997545692324637
1686445609938551300,8.32155126953125,0.0101040453851223,-0.007457348534930497,-0.01766834315955639
1686445609948568000,8.331568115234376,0.007362637722492218,-0.011963683510851114,-0.01860533174872398
1686445609958584000,8.341583984375,0.01961246296465397,-0.017355039426684378,-0.015233809489011764
1686445609968601300,8.351601318359375,0.0075134443700313564,-0.018635434626042842,-0.016072598400712013
1686445609978618000,8.3616181640625,0.0019102175354957578,-0.02457505380809307,-0.024350012880563734
1686445609988635100,8.37163525390625,-0.004271101447939872,-0.03240708087431267,-0.02538227853775024
1686445609998652200,8.381652099609376,-0.00966565396785736,-0.03939706762582063,-0.036410453030467034
1686445610008669200,8.391669189453125,-0.01261456690132618,-0.043350773687660694,-0.04436111977398395
1686445610018686000,8.40168603515625,-0.023523498928546903,-0.03648030339628458,-0.04066168073415756
1686445610028703200,8.411703125,-0.03188450003862381,-0.034310576408077026,-0.025589783808588982
1686445610038720300,8.42172021484375,-0.04531213688850402,-0.03159633074700832,-0.02013210292458534
1686445610048737000,8.431737060546874,-0.047263270956277845,-0.04238777387440204,-0.016960487151145932
1686445610058754300,8.44175439453125,-0.039159459477663035,-0.03085837186127901,-0.02329144373834133
1686445610068771000,8.45177099609375,-0.033464462706446645,-0.030432858191896228,-0.023453356301784516
1686445610078787000,8.461787109375,-0.02990413987636566,-0.031627894929051395,-0.017546178084611893
1686445610088804000,8.47180419921875,-0.009875497326254845,-0.0256608032181859,-0.022217677026987074
1686445610098821000,8.481821044921874,-0.0005541267514228821,-0.02415156769901514,-0.016820201897621154
1686445610108838100,8.491838134765626,0.013363339442014694,-0.019328969848155974,-0.008100304347276687
1686445610118855000,8.50185498046875,0.008234744381904602,-0.020480496237147598,-0.018563830694556235
1686445610128872200,8.5118720703125,0.01192658463716507,-0.02273322533369064,-0.015309212812781333
1686445610138889000,8.521888916015625,0.007267360654473304,-0.026602175721526143,-0.02675707402229309
1686445610148906200,8.53190625,-0.0013484919995069504,-0.02667964313821867,-0.020991934624314305
1686445610158923300,8.54192333984375,-0.009762100079655646,-0.027230829013884066,-0.018233575826883314
1686445610168940000,8.55193994140625,0.01025426751077175,-0.020799334661662578,-0.018172201028466225
1686445610178957300,8.561957275390625,0.018962474623322487,-0.013473814079165458,-0.013273323071002959
1686445610188974000,8.57197412109375,0.034061844077706335,-0.0038762751777656375,-0.0036690439015626907
1686445610198990000,8.581989990234375,0.04980886378586292,0.00032850130200386043,0.004632335975766182
1686445610209007000,8.592007080078124,0.03089665804505348,-0.010319733962416647,-0.0047393034815788266
1686445610219024100,8.602024169921876,0.021029928547143934,-0.011034019711613654,-0.014763269367814063
1686445610229041200,8.612041259765626,0.013106734332442282,-0.015469371810555457,-0.01196750116944313
1686445610239058000,8.622057861328125,0.00006195932030677795,-0.03111119584487751,-0.021122867527604103
1686445610249075200,8.6320751953125,0.002904489269852638,-0.03461511231260374,-0.022176760494709014
1686445610259092000,8.642092041015625,0.0072702832639217375,-0.037515491662919516,-0.01348550451695919
1686445610269109000,8.65210888671875,0.003260463100671768,-0.03593143734186888,-0.008678981018066407
1686445610279126300,8.662126220703126,-0.0035369419544935225,-0.053099155769217754,-0.00008475567400455475
1686445610289143000,8.67214306640625,-0.009071195206046104,-0.04444207605570554,-0.001813186901807785
1686445610299160000,8.68216015625,-0.021198855373263357,-0.026995266692340373,0.0072714523077011105
1686445610309176300,8.69217626953125,-0.033601825350522994,-0.004243628919124603,-0.002885200047492981
1686445610319193000,8.702193115234374,-0.027155133429169653,-0.0012023797933943569,-0.007063947036862373
1686445610329210000,8.712210205078126,-0.021952304089069365,-0.00839519564062357,-0.017452070060372353
1686445610339227100,8.72222705078125,-0.026994389909505843,-0.014869067829847335,-0.014920505756139754
1686445610349244200,8.732244140625,-0.04351297851204872,-0.011950550034642219,-0.0016880992174148558
1686445610359261000,8.742260986328125,-0.03311258052885532,-0.008361603898275644,-0.015455927807092667
1686445610369278200,8.7522783203125,-0.035923546296358105,-0.02100917802006006,-0.01713350563049316
1686445610379295200,8.762295166015624,-0.03810439746677875,-0.02689620849834755,-0.008359832066297531
1686445610389312000,8.77231201171875,-0.029923429098725318,-0.03274959243535995,-0.0008604162216186523
1686445610399329300,8.782329345703126,-0.030621932756900786,-0.03751315357536077,0.003960720324516296
1686445610409346000,8.792345947265625,-0.020057868644595144,-0.040054362490773196,-0.012491817304491996
1686445610419363000,8.802363037109375,0.0055932899624109265,-0.04459432574165985,-0.03504851702749729
1686445610429379300,8.81237939453125,0.001757072800397873,-0.049701037763524795,-0.04205108926594257
1686445610439396000,8.82239599609375,0.006889174991846084,-0.046188353467453265,-0.03789046245515346
1686445610449413000,8.8324130859375,0.011153262177109718,-0.03819180175559595,-0.03231295458376408
1686445610459430100,8.84243017578125,0.021931261301040648,-0.03499620231837034,-0.03685527418851852
1686445610469447200,8.852447265625,0.02621756031811237,-0.03425999699831009,-0.03285305280983448
1686445610479464000,8.8624638671875,0.0323468568533659,-0.019359967774618417,-0.027020693394541738
1686445610489481200,8.872481201171874,0.010352467188239097,-0.004986866768170148,-0.011301146215200423
1686445610499498200,8.882498291015626,0.012645546561479568,0.0015130349114537238,-0.009222586375474929
1686445610509515000,8.892514892578125,-0.0031669395983219143,0.0009308511093258857,-0.007349778240919112
1686445610519532300,8.9025322265625,-0.007762450695037841,0.0012806874603033065,-0.01491115340590477
1686445610529549000,8.912549072265625,-0.014215572357177733,-0.001360182437300682,-0.007306523621082306
1686445610539566000,8.922566162109375,-0.014633505508303642,-0.0033221484263427554,-0.015187632259726523
1686445610549582000,8.93258203125,0.007402385210990905,-0.005815116019546985,-0.013334113347530364
1686445610559599000,8.94259912109375,0.012092004331946373,-0.020445717184711245,-0.012567805150151252
1686445610569616100,8.9526162109375,0.029124387675523757,-0.042513153819739816,-0.019023849421739576
1686445610579633000,8.9626328125,0.02454290510416031,-0.04364624950289726,-0.015894319224357602
1686445610589650200,8.972650146484375,0.006436170527338981,-0.027860669616330415,-0.019133155015110967
1686445610599667200,8.982667236328124,0.01585924791097641,-0.021930969040095803,-0.014746318233013152
1686445610609684200,8.992684326171876,0.0031318682849407193,-0.0033712299987673756,-0.03325988004505634
1686445610619701200,9.002701171875,-0.01714285798072815,-0.004089022879302502,-0.0025426702201366423
1686445610629718000,9.012718017578125,-0.019274024790525434,-0.008103519217669964,-0.0005342530071735382
1686445610639735300,9.0227353515625,-0.005940495964884758,-0.011504267571866511,0.011935936987400054
1686445610649752000,9.032751953125,-0.013422960674762724,-0.023017869227658957,0.009830489140748976
1686445610659769000,9.04276904296875,-0.007954758396744728,-0.025729502806533126,0.0006003039807081222
1686445610669785000,9.05278515625,-0.00019639935493469238,-0.02965544407861307,0.0021317513316869733
1686445610679802000,9.062802001953125,-0.013525252005457877,-0.035280590484011914,-0.0052110126465559
1686445610689819100,9.072819091796875,-0.008804653224349021,-0.03667933309972286,-0.009345335972309111
1686445610699836000,9.0828359375,-0.008085106778144837,-0.038593642288446424,-0.016897358787059783
1686445610709853200,9.092853271484374,-0.010897826111316681,-0.03249181828200817,-0.023413608813285827
1686445610719870200,9.1028701171875,-0.017006079858541488,-0.023394611851871014,-0.03931143516898155
1686445610729887000,9.112886962890625,-0.03023264117836952,-0.02187867259727791,-0.040807811206579205
1686445610739904300,9.122904296875,-0.03571604102551937,-0.02443361777709797,-0.03564531387686729
1686445610749921000,9.132921142578125,-0.03676818042695522,-0.025453590208292007,-0.03447042487859726
1686445610759938000,9.14293798828125,-0.031068507480621337,-0.019179916766285894,-0.02559972068071365
1686445610769955000,9.152955078125,-0.01066343283355236,-0.02793780823945999,-0.022988076877593994
1686445610779972000,9.16297216796875,0.007670680758357047,-0.025056699845194815,-0.026836568999290464
1686445610789988000,9.172988037109375,0.028678981995582577,-0.015714286482334135,-0.02047463275194168
1686445610800005400,9.18300537109375,0.031547815430164335,-0.025806056907773017,-0.017571897047758103
1686445610810022400,9.1930224609375,0.020513795718550682,-0.034582671347726135,-0.026273674419522285
1686445610820039200,9.2030390625,0.020316227319836615,-0.029437983669340608,-0.039323710128664965
1686445610830056400,9.213056396484374,0.012173837396502494,-0.027030338005721567,-0.03761632168889045
1686445610840073500,9.223073486328126,0.008259294301271439,-0.024181104320753363,-0.03174772191643715
1686445610850090200,9.23309033203125,0.011384148323535919,-0.014793372245132922,-0.03609773381948471
1686445610860107500,9.243107421875,0.007592354825139046,-0.013602408894896506,-0.024510171878337858
1686445610870124300,9.253124267578125,0.00857552064359188,-0.0035404673521406945,-0.011344400835037231
1686445610880141300,9.263141357421874,0.01146948851943016,-0.013728391628433019,-0.0030330840855836865
1686445610890158300,9.273158447265626,0.015305705681443214,-0.01326428124802187,0.020070143604278563
1686445610900175400,9.28317529296875,0.016030512824654577,-0.024193068753182886,0.018108488142490387
1686445610910191400,9.29319140625,0.013209610185027122,-0.02465336147500202,0.017382511955499648
1686445610920208100,9.3032080078125,0.004788987842202186,-0.024883115110266953,0.0152104286134243
1686445610930225400,9.313225341796874,-0.013064648756384849,-0.024695775844622403,-0.00012801029384136198
1686445610940242200,9.3232421875,-0.028138883769512176,-0.023082184901833534,-0.0001993219643831253
1686445610950259200,9.33325927734375,-0.038943770900368685,-0.018161113378871233,-0.0013198504269123076
1686445610960276500,9.3432763671875,-0.026478257080912587,-0.02396863061385229,-0.006029927814006805
1686445610970293200,9.353293212890625,-0.03529167813360691,-0.023737159945536403,-0.0020347206979990005
1686445610980310500,9.363310546875,-0.02097965966463089,-0.020518764154613015,-0.0007715688943862914
1686445610990327300,9.373327392578124,-0.008670213189721106,-0.021074954998958853,0.004141337588429451
1686445611000344300,9.38334423828125,-0.017531565037369728,-0.02128216800885275,-0.011441431468725205
1686445611010361300,9.393361328125,-0.02294073060452938,-0.024283395651448516,-0.027464345508813857
1686445611020377300,9.40337744140625,-0.007408230429887771,-0.03441812843577936,-0.02528524790406227
1686445611030394400,9.413394287109375,-0.00442541522681713,-0.03364276014911011,-0.029074703314900398
1686445611040411100,9.4234111328125,-0.008135960182547568,-0.027892233798373488,-0.024161796832084654
1686445611050428400,9.433428466796874,-0.019388591080904006,-0.02936608747690916,-0.02906710453033447
1686445611060445200,9.443445068359376,-0.012331073784828185,-0.027483634731173514,-0.02266191366314888
1686445611070462200,9.453462158203125,-0.00689852734208107,-0.02701280234903097,-0.025821838998794554
1686445611080479500,9.4634794921875,-0.002021276694536209,-0.02380964065985754,-0.032198388293385505
1686445611090496300,9.473496337890625,-0.001696282523870468,-0.020737959863245486,-0.03781798174083233
1686445611100513300,9.48351318359375,0.014440028762817383,-0.030117782627046105,-0.026410452541708946
1686445611110530300,9.4935302734375,0.024223171630501746,-0.0298851611812599,-0.029564532658457755
1686445611120547300,9.50354736328125,0.006232172387838363,-0.03593202186375856,-0.04838672202825546
1686445611130564000,9.513564208984375,0.010718962413072585,-0.04352642251551151,-0.025385201147198676
1686445611140581400,9.523581298828125,0.015371756654977798,-0.041245033580064774,-0.02147942588031292
1686445611150597400,9.533597412109375,0.005754618003964424,-0.04637158281356096,-0.004188683861494064
1686445611160614100,9.5436142578125,0.0025958617120981214,-0.03697774979071691,0.005640051713585853
1686445611170631400,9.55363134765625,-0.006006546938419342,-0.032420817138720304,-0.0025280571728944776
1686445611180648400,9.5636484375,-0.014745149189233779,-0.02520546066612005,-0.0008680150061845779
1686445611190665200,9.573665283203125,-0.021892682856321333,0.005438391661643982,0.005136193844676017
1686445611200682500,9.5836826171875,-0.005336684852838516,0.012068038934469222,0.002800444373488426
1686445611210699300,9.59369921875,0.008573182556033133,-0.00023086788011714816,0.010371756410598754
1686445611220716300,9.60371630859375,0.013597732719779014,-0.019984511147439477,0.01151741931438446
1686445611230733300,9.6137333984375,0.0015483984857797622,-0.030897845355141906,0.00018646248281002043
1686445611240750300,9.623750244140625,0.010440145471692084,-0.03202566207498312,-0.017134674674272536
1686445611250767000,9.63376708984375,0.0056026423126459115,-0.04695610470324754,-0.020358897417783735
1686445611260783400,9.643783447265625,0.015464111113548278,-0.04684212293475866,-0.01567570803761482
1686445611270800400,9.65380029296875,0.015767477974295615,-0.036897067503631115,-0.004687865555286407
1686445611280817200,9.663817138671876,0.00905307502746582,-0.011999065351486206,-0.008745616513490677
1686445611290834400,9.67383447265625,-0.007109539744257927,0.01257016150401905,-0.0038379707276821134
1686445611300851500,9.6838515625,-0.0033510639935731886,0.02519959718091413,-0.008148819664120673
1686445611310868200,9.6938681640625,-0.013467968860268593,0.014241291320323942,0.006178980895876884
1686445611320885500,9.703885498046875,-0.02093815861046314,0.00045415524197742343,0.011641337954998016
1686445611330902300,9.71390234375,-0.02470540218949318,-0.004105974014103412,-0.00014028525352478027
1686445611340919300,9.723919189453126,-0.033168694630265234,-0.005827390979230403,-0.02467909870445728
1686445611350936300,9.733936279296875,-0.014670914909243583,-0.020557634860277174,-0.044316111588478084
1686445611360953300,9.743953369140625,-0.02671615749001503,-0.03287438785880804,-0.05253799648880958
1686445611370970400,9.753970458984375,-0.029266426494717595,-0.0393094076086767,-0.054334816777706144
1686445611380986000,9.763986083984374,-0.020965046617388725,-0.050348103495407845,-0.04041735058426857
1686445611391003400,9.77400341796875,-0.00978898808658123,-0.055960390419233584,-0.0371001888602972
1686445611401020400,9.7840205078125,0.012062778237462043,-0.05834344963086768,-0.035544191589951514
1686445611411037200,9.794037109375,0.0068646250724792475,-0.055904258051514624,-0.025041502276062964
1686445611421054500,9.804054443359375,-0.008373860591650009,-0.055251054839789863,-0.019934534525871277
1686445611431071200,9.8140712890625,-0.004591419443488121,-0.055558239359129215,-0.018906945043802262
1686445611441088500,9.824088623046874,-0.005840542721748352,-0.04885435780631378,-0.012449147206544876
1686445611451105300,9.834105224609376,0.0000713116705417633,-0.029014497560262677,0.016979776373505593
1686445611461122300,9.844122314453125,0.0048620530784130095,-0.0012891630277037619,0.027654899644851683
1686445611471139300,9.854139404296875,0.020972645401954648,0.009758008426427841,-0.012030045011639595
1686445611481156400,9.86415625,0.021522680500149726,0.005618990659248083,-0.04841302551329136
1686445611491173400,9.87417333984375,0.014500819039344786,-0.017962649931013583,-0.05148059639036655
1686445611501190400,9.8841904296875,0.011691606837511062,-0.011268997511267661,-0.05243453611433506
1686445611511206400,9.894206298828125,0.003951952496170997,0.0004275777623057365,-0.0373702379733324
1686445611521223400,9.904223388671875,-0.01447276198863983,0.0018897592693567274,-0.018352818292379378
1686445611531240200,9.914240234375,-0.006165536892414092,-0.006875164732802659,-0.0036123452782630917
1686445611541257500,9.924257568359375,-0.012018939095735549,-0.01782294919937849,-0.001305237379670143
1686445611551274200,9.934274169921874,-0.027103110980987548,-0.017891630521416662,-0.00391045144200325
1686445611561291300,9.944291259765626,-0.04470832577645779,-0.01031271969974041,-0.005908347260951996
1686445611571308300,9.954308349609375,-0.03321662542521953,-0.001263151803612709,-0.007265022566914558
1686445611581325300,9.9643251953125,-0.006219312906265258,-0.007993026314210146,-0.004023848688602448
1686445611591342300,9.97434228515625,0.019946809485554693,-0.013909593414235859,-0.00158814597427845
1686445611601359400,9.984359375,0.03399930023550987,-0.030744974614679812,-0.012012509354948997
1686445611611376400,9.99437646484375,0.030360066950321195,-0.03057168214069679,-0.0009685527712106704
1686445611621393200,10.00439306640625,0.012218261060118675,-0.03660568334162235,-0.0023801731348037716
1686445611631409400,10.014409423828125,-0.00395312153995037,-0.04114303451031446,-0.0025339023917913435
1686445611641426400,10.024426513671875,-0.018688918378949163,-0.04023994819074869,-0.013051204752922057
1686445611651443200,10.034443115234374,-0.013490765213966369,-0.041840953646600246,-0.025499767437577245
1686445611661460500,10.04446044921875,-0.0154980133831501,-0.04327478584200144,-0.04155483018159866
1686445611671477200,10.054477294921876,0.004009820163249969,-0.040564650100469585,-0.051940615117549896
1686445611681494300,10.064494384765625,0.005911854392290115,-0.038194998359680175,-0.042592941057682035
1686445611691511300,10.07451123046875,0.018516484421491623,-0.03606733868122101,-0.035682138755917546
1686445611701528300,10.0845283203125,0.010981997263431548,-0.028005631044972685,-0.03002688947319984
1686445611711545300,10.09454541015625,-0.005353635987639427,-0.013498674525786191,-0.028251111972332
1686445611721562400,10.104562255859374,0.004262333619594574,-0.017908599922526625,-0.008662614405155181
1686445611731579400,10.114579345703126,0.004249474138021469,-0.0165936996653676,0.004005143988132477
1686445611741596200,10.12459619140625,0.01172960076034069,-0.013404548235237597,0.00017068039178848266
1686445611751612400,10.1346123046875,0.0018038345515727996,-0.012736731976270675,-0.0052379006534814835
1686445611761629400,10.14462939453125,0.0032990415453910825,-0.019706881516147405,-0.02273380985558033
1686445611771646200,10.154646240234374,-0.008659107273817062,-0.008956044393777847,-0.04271393708884716
1686445611781663500,10.16466357421875,-0.015080664753913878,-0.01205695128487423,-0.03107785983085632
1686445611791680300,10.17468017578125,-0.02342471472918987,-0.01201367839872837,-0.024368717581033705
1686445611801697500,10.184697509765625,-0.024221418064832686,-0.013177169220149516,-0.02309972055852413
1686445611811714300,10.19471435546875,-0.007680033108592033,-0.025457097339630124,-0.01156535010933876
1686445611821731300,10.2047314453125,-0.009445289215445518,-0.01943595562027767,-0.0065963295251131055
1686445611831748600,10.21474853515625,-0.0031160861939191816,-0.027805998553335664,-0.006499883413314819
1686445611841765400,10.224765380859376,-0.0011187748968601225,-0.03391777769820765,-0.003950198930501938
1686445611851782700,10.23478271484375,-0.00445814845263958,-0.031217286567855624,0.004320201286673545
1686445611861799400,10.24479931640625,-0.018378537255525587,-0.028013814351428298,-0.01800853489935398
1686445611871815400,10.2548154296875,-0.01017243444621563,-0.029097225673962383,-0.010724223110079764
1686445611881832400,10.26483251953125,-0.011425649377703666,-0.017484821552503853,-0.0015787936240434645
1686445611891849500,10.274849365234376,-0.015091770669817924,-0.019919939744938164,-0.0040308629512786865
1686445611901866500,10.284866455078125,-0.013819266515970229,-0.018868951120972633,-0.014212649747729301
1686445611911883300,10.29488330078125,-0.009814122527837752,-0.022232582335174084,-0.0038660277783870694
1686445611921900500,10.304900634765625,0.00583235941529274,-0.01334494526879862,-0.006007715982198715
1686445611931917300,10.314917236328125,0.02057049434185028,-0.024571254415810106,-0.0029641105026006697
1686445611941934300,10.324934326171874,0.024764438900351522,-0.027026556879747657,-0.0072451488226652145
1686445611951951600,10.33495166015625,0.023314240092039105,-0.027877894745767115,-0.023010288709402082
1686445611961968400,10.344968505859375,0.017254501661658286,-0.026707407927978783,-0.029278701454401014
1686445611971985400,10.3549853515625,0.007972878575325013,-0.022937241739500312,-0.030057869133353232
1686445611982002400,10.36500244140625,0.0007633855879306793,-0.021470073530077932,-0.033249358651041984
1686445611992018400,10.375018310546874,0.021968086180090902,-0.023631927739083767,-0.029875498303771016
1686445612002035500,10.385035400390626,-0.0037643209695816036,-0.023892313974630087,-0.022831425011157987
1686445612012052500,10.395052490234375,-0.010430208599567413,-0.017396540480852127,-0.025429624810814858
1686445612022069500,10.405069580078125,0.00850011731982231,-0.012044073536992073,-0.03445698087513446
1686445612032086300,10.415086181640625,-0.0012555530190467834,-0.01660392879843712,-0.020507950499653815
1686445612042103600,10.425103515625,-0.0010182371318340302,-0.02004968533813953,-0.018797639450430868
1686445612052120300,10.435120361328124,0.006769932526350021,-0.011625866391230373,-0.013643909949064253
1686445612062137300,10.445137451171876,-0.0003875380128622055,-0.01123219089852646,-0.01201543196439743
1686445612072154600,10.455154541015625,-0.008500701841711998,-0.018195307909417896,-0.00428688353896141
1686445612082171400,10.46517138671875,-0.010476385828852653,-0.02960137580381706,-0.011269582033157349
1686445612092188400,10.4751884765625,-0.031063246783614155,-0.02655893936799839,0.002554360657930374
1686445612102205400,10.485205322265625,-0.03058919953107834,-0.019627076011896134,-0.005896072301268577
1686445612112221400,10.495221435546876,-0.042752515533566474,-0.013273030810058116,-0.01564531289935112
1686445612122238500,10.505238525390626,-0.035728315985202784,-0.014634966813027858,-0.020990765580534934
1686445612132255500,10.51525537109375,-0.017961773148179053,-0.02045417448580265,-0.024810031607747078
1686445612142272500,10.5252724609375,-0.006719663643836975,-0.02738981896787882,-0.020810148316621778
1686445612152289300,10.535289306640625,-0.0018184475988149641,-0.03766980544179678,-0.017193711385130882
1686445612162306600,10.545306640625,0.0058376201122999185,-0.04487696034163236,-0.0197200149923563
1686445612172323600,10.555323486328126,-0.0023427637338638303,-0.04030979855656624,-0.02003507229089737
1686445612182340400,10.56534033203125,0.0018920973569154739,-0.04077829285115003,-0.012364976054430007
1686445612192357600,10.575357666015625,0.014141922599077223,-0.041378012309968466,-0.0043862522602081296
1686445612202374400,10.58537451171875,0.005658171892166137,-0.025398645150661467,0.002299509114027023
1686445612212391400,10.595391357421875,0.0015197569131851195,-0.004024725471436977,-0.015695581781864164
1686445612222408400,10.605408447265624,-0.0021428572475910186,0.01170300501435995,-0.024250644159317016
1686445612232424400,10.615424560546876,-0.002845452558994293,0.0185588622584939,-0.03501519927978516
1686445612242441500,10.62544140625,0.0017559037566184997,0.019568623822927473,-0.02813654568195343
1686445612252458200,10.635458251953125,-0.0032891046732664107,0.015878518867027014,-0.016526771908998487
1686445612262475500,10.6454755859375,-0.003053542351722717,0.00417609837455675,0.005635960060358047
1686445612272492300,10.6554921875,-0.0013268646895885467,-0.009821136790513992,0.002212415352463722
1686445612282509600,10.665509521484376,0.0031990883022546767,-0.03301613441705704,-0.004631166931986809
1686445612292526600,10.675526611328126,0.0003577273964881897,-0.041294425679743285,-0.011350246053934096
1686445612302543400,10.68554345703125,-0.019171148937940596,-0.05411094489395618,-0.008147066098451615
1686445612312560600,10.695560546875,-0.01637421169579029,-0.061872518806159495,-0.017803952237963674
1686445612322577400,10.705577392578125,-0.011936521509289741,-0.05492313805967569,-0.021235095730423925
1686445612332594400,10.715594482421874,-0.007995674929022789,-0.04505551351262256,-0.02420388240814209
1686445612342611500,10.725611572265626,0.013753800064325332,-0.04606120169013738,-0.03121522247493267
1686445612352628500,10.73562841796875,0.02008767926096916,-0.03369154946058989,-0.017374328649044035
1686445612362644500,10.74564453125,0.023280922344326972,-0.03817074070125818,-0.009760346513986587
1686445612372661200,10.7556611328125,0.009088146340847016,-0.0361003641679883,-0.008445172262191773
1686445612382678500,10.765678466796874,0.007445055308938026,-0.02304888542043045,-0.028735680618882178
1686445612392695600,10.775695556640626,-0.004074117571115494,-0.006056231299042702,-0.03172024938762188
1686445612402712300,10.78571240234375,-0.023432313513755798,0.0019873744249343872,-0.046720250120759005
1686445612412729600,10.7957294921875,-0.030631869629025456,0.005682721811532974,-0.029680852514505383
1686445612422746400,10.805746337890625,-0.033384383207559584,0.012436579985916614,-0.02504734749495983
1686445612432763400,10.815763427734375,-0.039132571470737454,0.0060690907806158064,-0.018420622831583022
1686445612442780400,10.825780517578124,-0.025881460231542586,0.0033180567731149494,-0.009060089290142058
1686445612452797400,10.83579736328125,-0.012398293802142142,-0.0134764626939781,-0.010167758271098136
1686445612462814200,10.845814208984375,-0.004335983377695083,-0.026596038241684435,-0.02390752981007099
1686445612472831500,10.85583154296875,0.008679565539956092,-0.030839374899864196,-0.021423311778903005
1686445612482847500,10.865847412109375,0.03091244013607502,-0.02772096888469532,-0.028948446586728096
1686445612492864300,10.8758642578125,0.027175591695308685,-0.018787410317361353,-0.026297639816999435
1686445612502881500,10.885881591796876,0.031492870372533795,-0.02359860999137163,-0.024055998370051384
1686445612512898600,10.895898681640626,0.020977321577072144,-0.021674966718722134,-0.02242225968837738
1686445612522915300,10.905915283203125,0.0011287117689847946,-0.03156127769993618,-0.013352233526110648
1686445612532932600,10.9159326171875,-0.01846738458275795,-0.027142858469486233,-0.00022445640563964844
1686445612542949400,10.925949462890625,-0.03737257606089115,-0.018304595236480235,0.00841126999258995
1686445612552966400,10.93596630859375,-0.026222236493229866,-0.015761340494453907,0.011684592574834823
1686445612562983400,10.9459833984375,0.0015787936240434645,-0.015502707824576646,0.0057137014716863626
1686445612573000400,10.95600048828125,0.00837561415731907,-0.021534955459833145,0.011783376774191856
1686445612583017500,10.966017578125,0.009384498938918113,-0.027115111946035175,-0.0006745382606983184
1686445612593034500,10.976034423828125,0.004525952991843224,-0.03351767246471718,-0.009760931035876273
1686445612603051500,10.986051513671875,0.004838087680935859,-0.030149931330978867,-0.030262451794743538
1686445612613067300,10.9960673828125,-0.008731587988138199,-0.03501666058450937,-0.026455460727214813
1686445612623084500,11.00608447265625,-0.028650340422987936,-0.02950989812808111,-0.03152677264213562
1686445612633101600,11.0161015625,-0.017912088787555694,-0.02408845760123804,-0.03277238878905773
1686445612643118300,11.026118408203125,-0.008503039929270744,-0.027372575572133063,-0.0307084419965744
1686445612653135600,11.036135498046875,0.006835983499884605,-0.012235504455864429,-0.021249124255776405
1686445612663152400,11.04615234375,0.008158756536245346,-0.015815408769249917,0.006551321339607239
1686445612673169400,11.05616943359375,0.01179272912442684,-0.014181688353884964,-0.007441548177599906
1686445612683186400,11.0661865234375,0.0027320553123950956,-0.016003917078673838,-0.019920506000518798
1686445612693203500,11.076203369140625,0.01557166314125061,-0.00736468354910612,-0.030166005682945248
1686445612703220500,11.086220458984375,0.003606500059366226,-0.01134177048653364,-0.029018004691600797
1686445612713237500,11.096237548828125,0.005889642560482025,-0.005795845063496381,-0.036927170380949975
1686445612723254500,11.106254638671874,-0.007167407411336898,-0.003237100491393357,-0.038454526078701014
1686445612733270500,11.1162705078125,-0.0012286650121212004,-0.014401450318098067,-0.036199440628290176
1686445612743287600,11.12628759765625,-0.01695639549791813,-0.012646149349678308,-0.027896307185292242
1686445612753304600,11.1363046875,-0.011062661284208297,-0.023670816711056974,-0.03011807488799095
1686445612763321300,11.1463212890625,-0.003986439287662506,-0.034337172154057766,-0.02077390795946121
1686445612773338600,11.156338623046874,0.012290741774439812,-0.04091216663019731,-0.011370119798183441
1686445612783355400,11.16635546875,-0.006783961051702499,-0.04930471365600824,-0.006030512335896492
1686445612793372400,11.176372314453126,-0.00443242948949337,-0.030102292796969413,-0.0021662381231784818
1686445612803389400,11.186389404296875,-0.011775193467736244,-0.028344927735626697,0.0071592241048812864
1686445612813406500,11.196406494140625,-0.014198621222376823,-0.032493571847677226,-0.0019891279906034467
1686445612823423700,11.206423828125,-0.027055764707922935,-0.02587358745234087,0.0019558102428913113
1686445612833440500,11.2164404296875,-0.033982933622598646,-0.023833295530080793,-0.008763152170181273
1686445612843457500,11.22645751953125,-0.03190846543610096,-0.011613865426182746,-0.013087445110082625
1686445612853473500,11.2364736328125,-0.010704933887720107,-0.012324059522151947,-0.02112695918083191
1686445612863490600,11.246490478515625,-0.004153612548112869,-0.011379179887473582,-0.015241992795467375
1686445612873507600,11.256507568359375,-0.005343114593625069,-0.016162925298977643,-0.02054828251004219
1686445612883524600,11.266524658203124,0.009019757279753685,-0.01652090842379257,-0.016776947277784348
1686445612893541600,11.276541748046874,0.010563479590415955,-0.02365092470049858,-0.015415011274814604
1686445612903558400,11.286558349609376,0.00816986245214939,-0.021177246329654006,-0.010792612171173095
1686445612913575700,11.29657568359375,0.014932196193933486,-0.006135726276040077,-0.007888122901320457
1686445612923592400,11.306592529296875,0.03795651342868805,-0.007158055061101913,-0.01104863275885582
1686445612933609500,11.316609375,0.028774843585491178,-0.02500584644079208,-0.013624620726704596
1686445612943626800,11.326626708984374,0.009600772038102149,-0.027414094892609864,-0.032037060251832006
1686445612953643500,11.3366435546875,-0.0029629414588212967,-0.0163260069062002,-0.02789513814151287
1686445612963660500,11.34666064453125,-0.019725860211253166,-0.012249258986581116,-0.020975568011403083
1686445612973677600,11.356677490234375,-0.013194997137784957,-0.01624709645109251,-0.0240203425347805
1686445612983693600,11.366693603515625,-0.0028308395117521284,-0.012503818269539623,-0.022810382223129273
1686445612993710600,11.376710693359374,0.015067805272340773,-0.012027140668500214,-0.01143500172793865
1686445613003727600,11.3867275390625,0.009987141007184982,-0.015246084448695182,-0.006048632514476775
1686445613013744600,11.39674462890625,-0.006710311293601989,-0.019495266325771806,-0.01054535941183567
1686445613023761400,11.406761474609375,-0.007851298022270203,-0.022369360457360744,-0.026969839990139004
1686445613033778700,11.41677880859375,-0.012204232534766197,-0.0367953789611347,-0.03636135319173336
1686445613043795700,11.426795654296875,-0.002853635865449905,-0.04399170193970203,-0.040563481056690213
1686445613053812500,11.4368125,-0.017487725895643232,-0.04639057977497577,-0.02908230209946632
1686445613063829800,11.446829833984374,-0.009375146588683127,-0.04986790049672127,-0.019292729490995406
1686445613073846500,11.456846435546876,-0.00862169787287712,-0.05559535649912432,-0.011920154896378517
1686445613083863600,11.466863525390625,-0.019180501288175583,-0.0526832501783967,-0.007894552642107009
1686445613093880600,11.476880615234375,-0.01560731897652149,-0.02453503232495859,0.0015630115330219267
1686445613103896600,11.486896484375,-0.007701660418510436,-0.004083195926714688,-0.014416063365340232
1686445613113913600,11.49691357421875,0.003350479471683502,0.008019950853753835,-0.025348960790038108
1686445613123930400,11.506930419921876,-0.0003057049483060837,0.013330295688938348,-0.024586159723997116
1686445613133947600,11.51694775390625,0.011689853271842002,0.006612677871715277,-0.014328385081887244
1686445613143964400,11.52696435546875,-0.011540215668082237,0.003447199578117579,0.00934065979719162
1686445613153981700,11.536981689453125,-0.030147885504364966,0.0018836035232059657,0.009094576081633568
1686445613163998700,11.546998779296874,-0.020357728374004364,-0.009521861582994461,0.00040448914766311644
1686445613174015500,11.557015380859376,-0.0003021978169679642,-0.016888883219659326,0.0024988310784101486
1686445613184032800,11.56703271484375,-0.0001391162097454071,-0.03467179266959428,0.0013128361642360687
1686445613194049500,11.577049560546875,-0.004427168792486191,-0.0351066769555211,-0.007233458384871483
1686445613204066600,11.587066650390625,-0.008249941951036453,-0.036442601734399796,-0.018365677773952482
1686445613214083600,11.59708349609375,0.008528758892416954,-0.03914691052334383,-0.0402069227039814
1686445613224099600,11.607099609375,0.0015250176101922989,-0.03603635902106762,-0.0398451036542654
1686445613234116600,11.61711669921875,0.003099135059118271,-0.025696751314401627,-0.03077741557955742
1686445613244133400,11.62713330078125,0.00036941783428192136,-0.022702537934482098,-0.008871288719773293
1686445613254150700,11.637150634765625,0.00689502021074295,-0.02708645210713148,-0.006231587865948677
1686445613264167400,11.64716748046875,0.0038239422023296356,-0.03158434804826975,-0.013380290576815605
1686445613274184400,11.657184326171874,0.010223872372508049,-0.03643385217236355,-0.01510755276083946
1686445613284201700,11.66720166015625,0.011996142742037773,-0.022541794414818284,-0.01682370902895927
1686445613294218500,11.677218505859376,0.002911503532528877,-0.006525894637405872,-0.024433599510788915
1686445613304235500,11.687235595703125,-0.013523498439788818,-0.007857727763056755,-0.028759646016359327
1686445613314252500,11.69725244140625,-0.016076105532050133,-0.012370821273326874,-0.037651977524161336
1686445613324269600,11.70726953125,-0.019385668471455574,-0.023614099821448326,-0.04455342747569084
1686445613334286600,11.71728662109375,-0.023987609308958054,-0.018917174176871776,-0.03306874138712883
1686445613344303600,11.7273037109375,-0.02053133137524128,-0.009951503438223153,-0.029579730227589605
1686445613354319600,11.737319580078125,0.0031751229047775266,-0.008043021202087402,-0.029592005187273025
1686445613364336400,11.74733642578125,-0.002547346395254135,-0.012561083148419857,-0.029575054052472113
1686445613374353700,11.757353759765625,0.012998013260960579,-0.014838088169693946,-0.01941314100027084
1686445613384370700,11.76737060546875,0.018612346011400223,-0.01836889264434576,-0.0082914430052042
1686445613394387500,11.777387451171874,0.01177577798962593,-0.01827946079522371,-0.007611644047498703
1686445613404404700,11.78740478515625,0.01083469774723053,-0.01116495261490345,-0.012423428243398666
1686445613414421500,11.79742138671875,0.0025415011763572693,-0.02464081252068281,-0.02364215687215328
1686445613424438500,11.8074384765625,-0.0066916065931320184,-0.0286345583319664,-0.02491173841655254
1686445613434455600,11.81745556640625,-0.015587445232272148,-0.021293566185701638,-0.004315525111556053
1686445613444472600,11.82747265625,-0.014983634120225905,-0.02406507672565058,-0.002920271360874176
1686445613454489300,11.8374892578125,-0.00874327842593193,-0.03320844211876392,0.011713818669319151
1686445613464506600,11.847506591796876,-0.0034971944659948346,-0.02770138740139082,0.010716039803624152
1686445613474522600,11.857522705078125,-0.011909633502364158,-0.019139603022206575,-0.001180149695277214
1686445613484539400,11.867539306640625,-0.010558218893408775,-0.027109266727138308,-0.006968085446953773
1686445613494556700,11.877556640625,-0.014937456890940665,-0.025155794571805744,-0.007545593073964118
1686445613504573700,11.88757373046875,-0.00890402194559574,-0.023931805734802036,-0.006225158125162124
1686445613514590500,11.897590576171876,-0.009721183547377586,-0.031111451573204246,-0.009321955096721648
1686445613524607700,11.907607666015625,-0.017020692905783653,-0.028950784674286842,-0.02367664366364479
1686445613534624500,11.91762451171875,-0.01810439648926258,-0.027096114984620362,-0.02446516369283199
1686445613544641500,11.9276416015625,-0.009610708910226822,-0.016822832246124745,-0.021162030494213103
1686445613554658600,11.937658447265624,-0.009522446104884147,-0.012660744130611419,-0.01892448070049286
1686445613564675600,11.947675537109374,0.009044891721010207,-0.024511340922117233,-0.018031331253051758
1686445613574692600,11.957692626953126,0.02990764700770378,-0.016879530869424342,-0.011214052453637123
