time,seconds_elapsed,z,y,x
1686445309361802000,0.151802001953125,-0.0019121095538139343,-0.005618209019303322,0.0003684614785015583
1686445309371818200,0.161818359375,-0.0013027782551944256,-0.007429691031575203,-0.004035874269902706
1686445309381835300,0.171835205078125,0.0035564398858696222,-0.003885863581672311,-0.0005356530891731381
1686445309391852000,0.18185205078125,0.003956446424126625,-0.001295140478760004,0.0026532160118222237
1686445309401868000,0.191867919921875,0.003303606528788805,0.0007541307713836432,0.0034627157729119062
1686445309411885300,0.20188525390625,0.0058487895876169205,0.0006199073977768421,0.005216407589614391
1686445309421902000,0.211902099609375,0.0036653787828981876,0.0030704454984515905,0.005070840008556843
1686445309431918000,0.22191796875,0.0037183756940066814,-0.0025767874903976917,-0.0012064966140314937
1686445309441935400,0.231935302734375,-0.0004745740443468094,-0.005585298873484135,-0.004143495578318834
1686445309451951400,0.241951416015625,0.001086837612092495,-0.007313424721360207,-0.00036420358810573816
1686445309461968100,0.251968017578125,-0.000187781173735857,-0.00647968053817749,0.00010394433047622442
1686445309471985200,0.261985107421875,-0.002594213467091322,-0.007279960438609123,0.005806570872664452
1686445309482001400,0.27200146484375,-0.005441521294414997,-0.0052972473204135895,0.0018631061539053917
1686445309492018200,0.28201806640625,-0.003694753162562847,-0.0004162057302892208,0.0014164941385388374
1686445309502034200,0.2920341796875,-0.005204926244914532,0.0012758439406752586,-0.004342476837337017
1686445309512051500,0.302051513671875,-0.004417163319885731,0.009425383061170578,-0.008012845180928707
1686445309522068700,0.31206884765625,-0.002254410646855831,0.011102642863988876,-0.01112501509487629
1686445309532084700,0.322084716796875,-0.003294641152024269,0.011594794690608978,-0.010136716067790985
1686445309542101500,0.3321015625,-0.0023303860798478127,0.009772608056664467,-0.0011329142143949866
1686445309552117500,0.342117431640625,-0.002476327121257782,0.009099094197154045,-0.004113790579140186
1686445309562134800,0.352134765625,0.0004429612308740616,0.009150821715593338,-0.007012173533439636
1686445309572151600,0.362151611328125,-0.0031437845900654793,0.005142764188349247,-0.003773503005504608
1686445309582167600,0.37216748046875,-0.002304478082805872,0.00698406295850873,-0.004612787626683712
1686445309592184800,0.382184814453125,-0.0014115199446678162,0.0052705854177474976,-0.0038061158265918493
1686445309602201600,0.39220166015625,0.0022387464996427298,0.0035335489083081484,-0.0018735966878011823
1686445309612217600,0.402217529296875,0.0035855071619153023,0.002593985525891185,-0.005801492836326361
1686445309622234600,0.412234619140625,0.004239411558955908,0.002277898835018277,-0.005266629625111818
1686445309632251000,0.4222509765625,0.004632760304957628,-0.0038364524953067303,-0.006316181737929583
1686445309642267600,0.432267578125,0.008370589464902878,-0.006776417139917612,-0.009412544779479504
1686445309652284700,0.44228466796875,0.006259768269956112,-0.005074657499790192,-0.008968861773610115
1686445309662300700,0.45230078125,0.00902744010090828,-0.005439880304038525,-0.007370325271040201
1686445309672317700,0.462317626953125,0.007699055131524801,-0.0007111715385690331,-0.00535990484058857
1686445309682333700,0.472333740234375,0.005712284240871668,-0.0006878073327243328,-0.0014714811695739627
1686445309692350700,0.482350830078125,0.006618025247007608,0.0061533208936452866,-0.0022501894272863865
1686445309702367700,0.49236767578125,0.003185316687449813,0.004005092661827803,0.0009340016404166818
1686445309712383700,0.5023837890625,0.004227677825838327,0.0043478417210280895,-0.0019824260380119085
1686445309722400800,0.51240087890625,0.0032092477194964886,0.0011792737059295177,-0.0014027063734829426
1686445309732417500,0.52241748046875,0.0020294671412557364,-0.0007246201857924461,-0.0004578168736770749
1686445309742433800,0.532433837890625,0.0016753431409597397,0.00038730050437152386,-0.0024798763915896416
1686445309752450800,0.542450927734375,-0.00041843391954898834,0.006882750429213047,0.0009303013794124126
1686445309762466600,0.552466552734375,0.002571763237938285,0.011407993733882904,0.002032583812251687
1686445309772483600,0.562483642578125,0.0019584372639656067,0.02262842282652855,0.0035002517979592085
1686445309782500900,0.5725009765625,0.0012888037599623203,0.025821655988693237,0.006313507445156574
1686445309792516600,0.5825166015625,-0.001541870180517435,0.0233656894415617,0.002965114777907729
1686445309802533600,0.59253369140625,-0.002154381014406681,0.01486261561512947,0.00813804566860199
1686445309812549600,0.602549560546875,-0.00013490626588463783,0.009826578199863434,0.003869531909003854
1686445309822566700,0.612566650390625,0.002630342962220311,0.004981501027941704,0.006161291617900133
1686445309832583700,0.622583740234375,-0.0015329765155911446,0.0036459260154515505,0.008476377464830875
1686445309842599700,0.632599609375,0.005120521876960993,-0.002108982065692544,0.007634651847183704
1686445309852616700,0.64261669921875,0.006355429533869028,-0.0036453597713261843,0.0072982944548130035
1686445309862633700,0.6526337890625,0.0051625692285597324,0.0033800594974309206,0.004837519489228725
1686445309872649700,0.662649658203125,0.004653372801840305,0.002689767861738801,0.0030020689591765404
1686445309882666500,0.67266650390625,0.0016259828116744757,0.0012667581904679537,0.0028141355141997337
1686445309892682800,0.682682861328125,0.002272065496072173,-0.0010003907373175025,0.0034530279226601124
1686445309902699800,0.69269970703125,-0.0008704806677997112,-0.005305522121489048,-0.0006000430439598858
1686445309912716500,0.702716552734375,-0.0005501024425029755,-0.007662419695407152,-0.004551908001303673
1686445309922732500,0.712732666015625,-0.0030610361136496067,-0.010174192488193512,-0.0059435260482132435
1686445309932749800,0.722749755859375,-0.005898101720958948,-0.008805859833955765,-0.003865461330860853
1686445309942765800,0.732765869140625,-0.002837209030985832,-0.008350182324647903,-0.005225415341556072
1686445309952782600,0.742782470703125,-0.0078450171276927,-0.006367991678416729,-0.0032381645869463682
1686445309962799900,0.7527998046875,-0.005593998357653618,-0.005980071611702442,0.004330647177994251
1686445309972816000,0.76281591796875,-0.001481544692069292,0.0029801337514072657,0.005668086465448141
1686445309982832600,0.77283251953125,-0.0029117772355675697,0.0076189301908016205,0.010510937310755253
1686445309992849700,0.782849609375,0.0013221160043030977,0.005372287705540657,0.010619860142469406
1686445310002865700,0.79286572265625,-0.0019431095570325851,0.007476769387722015,0.009130965918302536
1686445310012882700,0.802882568359375,0.0015405712183564901,0.0032226352486759424,0.01322211418300867
1686445310022898700,0.812898681640625,0.0038842749781906605,-0.001241877325810492,0.006792567670345306
1686445310032915700,0.822915771484375,0.005367123056203127,-0.0017143221339210868,0.003664152231067419
1686445310042932700,0.8329326171875,0.004663045052438974,-0.004248760640621185,-0.00031775643583387136
1686445310052948700,0.84294873046875,0.00572165148332715,-0.006736419629305601,-0.0047324784100055695
1686445310062965500,0.852965576171875,0.008090714924037457,-0.007635041140019894,-0.008006639778614044
1686445310072981500,0.8629814453125,0.00398811511695385,-0.007898960262537003,-0.0071783969178795815
1686445310082998800,0.872998779296875,0.004275706596672535,-0.01214786060154438,-0.006229016929864883
1686445310093015600,0.883015625,0.004423778038471937,-0.01331858616322279,-0.009197376668453217
1686445310103031600,0.893031494140625,-0.000653659924864769,-0.01283656433224678,-0.010161562822759151
1686445310113048800,0.903048828125,-0.002680857665836811,-0.008041276596486568,-0.015548072755336761
1686445310123064800,0.91306494140625,-0.00485179852694273,-0.0063294582068920135,-0.009637654758989811
1686445310133081600,0.92308154296875,-0.003274940885603428,-0.006623471155762672,-0.002536867978051305
1686445310143098600,0.9330986328125,-0.007060449570417404,-0.0008677653968334198,0.004335865844041109
1686445310153115000,0.943114990234375,-0.005170403979718685,0.0021155078429728746,0.005355323664844036
1686445310163131600,0.953131591796875,-0.004758047871291637,0.005344355013221502,0.002159897470846772
1686445310173148700,0.963148681640625,-0.0054163821041584015,0.009547356516122818,-0.0016526839463040233
1686445310183164700,0.97316455078125,-0.006669040769338608,0.009059116244316101,0.00010002858471125364
1686445310193181700,0.983181640625,-0.004705757834017277,0.011156355030834675,-0.0005971869686618447
1686445310203197700,0.99319775390625,-0.007367245852947235,0.013004640117287636,0.008662969805300236
1686445310213214700,1.003214599609375,-0.0010797888971865177,0.016324270516633987,0.011183119378983974
1686445310223231700,1.013231689453125,-0.0016116518527269363,0.018189990893006325,0.009586517699062824
1686445310233247700,1.023247802734375,0.0035791154950857162,0.016982778906822205,0.009303157217800617
1686445310243264800,1.0332646484375,0.0033777873031795025,0.012730888091027737,0.0037882982287555933
1686445310253280500,1.043280517578125,0.0043913861736655235,0.0071030957624316216,0.0013893225695937872
1686445310263297500,1.053297607421875,0.005307164508849382,0.0001459568738937378,-0.004924060311168432
1686445310273314800,1.063314697265625,-0.0006316849030554295,-0.006857890635728836,-0.003188478294759989
1686445310283330600,1.07333056640625,-0.00032943906262516975,-0.014743756502866745,0.0011926662409678102
1686445310293347600,1.08334765625,0.0024929791688919067,-0.01729479804635048,0.008123276755213737
1686445310303364900,1.09336474609375,0.0016705647576600313,-0.01842939667403698,0.01021755114197731
1686445310313380600,1.103380615234375,0.005538806319236755,-0.013782446272671223,0.010795723646879196
1686445310323397600,1.113397705078125,0.0008084992878139019,-0.008900338783860207,0.005881126504391432
1686445310333413600,1.12341357421875,0.0030868337489664555,-0.008481957018375397,0.004378837533295155
1686445310343430700,1.1334306640625,-0.001516182441264391,-0.01535053737461567,0.004839836619794369
1686445310353447700,1.14344775390625,0.002248195931315422,-0.015691954642534256,0.003492010524496436
1686445310363463700,1.153463623046875,0.0019411335233598948,-0.013514287769794464,0.002567094983533025
1686445310373480400,1.16348046875,0.001459367573261261,-0.00360466493293643,-0.0024268648121505976
1686445310383496700,1.17349658203125,0.0011569838970899582,0.0063364868983626366,-0.006067778915166855
1686445310393513700,1.183513671875,-0.0017099087126553059,0.006420642137527466,-0.00528507586568594
1686445310403530500,1.193530517578125,-0.0027428176254034042,0.0070923203602433205,-0.002744839061051607
1686445310413546500,1.20354638671875,-0.004074132069945335,0.009362398646771908,0.004153813235461712
1686445310423563800,1.213563720703125,-0.004687191918492317,0.005434502847492695,0.005927212070673704
1686445310433579800,1.223579833984375,-0.0026530693285167217,0.005622521974146366,0.007256928365677595
1686445310443596500,1.233596435546875,-0.006105561275035143,0.006902262568473816,0.006238305475562811
1686445310453613800,1.24361376953125,-0.00428209500387311,0.004903294146060944,0.006992779206484556
1686445310463629800,1.2536298828125,0.000028467737138271332,0.007605511695146561,0.004477653652429581
1686445310473646600,1.263646484375,-0.0007132226601243019,0.00798820797353983,0.0061096386052668095
1686445310483663600,1.27366357421875,-0.0005433750338852406,0.011064333841204643,0.0027244449593126774
1686445310493679900,1.283679931640625,0.0024430938065052032,0.0075582824647426605,0.005058705806732178
1686445310503696600,1.293696533203125,0.002483353018760681,0.007374749053269625,0.00659193005412817
1686445310513712600,1.303712646484375,0.005236262455582619,0.006889787036925554,0.008163195103406906
1686445310523730000,1.31372998046875,0.0017743827775120735,0.012935491278767586,0.010967986658215523
1686445310533746700,1.32374658203125,-0.00028903456404805183,0.015756577253341675,0.01191740296781063
1686445310543762700,1.3337626953125,-0.0022882395423948765,0.014952395111322403,0.015476221218705177
1686445310553779700,1.34377978515625,-0.002739911898970604,0.009921949356794357,0.015590736642479897
1686445310563795700,1.353795654296875,-0.0008510691113770008,0.003041530027985573,0.010711430571973324
1686445310573812700,1.363812744140625,-0.0011906218715012074,0.0007884956430643797,0.004441283643245697
1686445310583829800,1.373829833984375,0.0025160799268633127,-0.0007152276812121272,-0.003245290368795395
1686445310593845500,1.383845458984375,0.0022510953713208437,0.0009937228169292212,-0.004433859139680862
1686445310603862800,1.39386279296875,0.0032767020165920258,0.003481360850855708,-0.0034870838280767202
1686445310613879800,1.4038798828125,0.005066346377134323,0.006585008464753628,0.0035231548827141523
1686445310623895600,1.4138955078125,0.0031354855746030807,0.007422101683914661,0.0026612915098667145
1686445310633912800,1.423912841796875,0.00019082846119999886,0.005524866282939911,0.001642099698074162
1686445310643928800,1.4339287109375,-0.0017444752156734467,0.0056925127282738686,-0.0037121782079339027
1686445310653945600,1.443945556640625,-0.0010171658359467983,-0.0002961378777399659,-0.0068749478086829185
1686445310663962600,1.453962646484375,-0.0009054047986865044,-0.0019837014842778444,-0.002542870817705989
1686445310673979000,1.463978759765625,0.0014520254917442799,-0.0035019698552787304,-0.0010837248992174864
1686445310683995600,1.47399560546875,0.000526980496942997,-0.004721819423139095,-0.00021806685253977776
1686445310694011600,1.48401171875,-0.002679198980331421,-0.002672250848263502,0.0010195040376856923
1686445310704028700,1.494028564453125,-0.0009550843387842178,0.003675259416922927,0.0022453488782048225
1686445310714045700,1.504045654296875,-0.0042198533192276955,0.006613524630665779,0.0022514741867780685
1686445310724061700,1.514061767578125,0.0012678264174610376,0.007771642878651619,0.006070678122341633
1686445310734078700,1.52407861328125,-0.0004597660154104233,0.0040237754583358765,0.010206300765275955
1686445310744094700,1.5340947265625,-0.0004724436439573765,0.0035397561732679605,0.015495453029870987
1686445310754111700,1.54411181640625,0.001007741317152977,0.002044923836365342,0.01361765805631876
1686445310764128800,1.554128662109375,-0.00004710676148533821,0.000757378526031971,0.007644224911928177
1686445310774144800,1.564144775390625,0.0023721088655292988,-0.0006924464832991362,0.010031748563051224
1686445310784161800,1.574161865234375,-0.0001971186138689518,-0.0024187592789530754,0.008539766073226929
1686445310794177800,1.584177734375,0.0017344721127301455,-0.0007505553076043725,0.010760841891169548
1686445310804194800,1.59419482421875,0.004770255647599697,0.0013019016478210688,0.005837765987962484
1686445310814211600,1.604211669921875,0.0012950964737683535,0.0016097631305456161,0.0055807712487876415
1686445310824227800,1.614227783203125,0.003312592627480626,0.0025169390719383955,0.00015580467879772186
1686445310834244600,1.62424462890625,0.0017703559715300798,0.0024956336710602045,-0.0008575281826779246
1686445310844261600,1.63426171875,-0.0025144563987851143,0.0011493333149701357,0.001560830045491457
1686445310854277600,1.644277587890625,-0.0011642337776720524,0.0009738309308886528,0.005096442997455597
1686445310864294700,1.654294677734375,-0.0034747542813420296,0.007783380802720785,0.004798197653144598
1686445310874310700,1.664310546875,-0.0032068397849798203,0.0055074431002140045,0.006104211788624525
1686445310884327700,1.67432763671875,-0.0064988648518919945,0.006889704614877701,0.009614171460270882
1686445310894344700,1.6843447265625,-0.0031520696356892586,0.008704116567969322,0.0059099807403981686
1686445310904360700,1.694360595703125,-0.006681032013148069,0.006049365736544132,0.00858324859291315
1686445310914377700,1.704377685546875,-0.008060816675424576,0.007391066290438175,0.004568798933178186
1686445310924393700,1.714393798828125,-0.004201135132461786,0.0041022151708602905,0.0037354668602347374
1686445310934410800,1.72441064453125,-0.005630719941109419,0.006471363827586174,0.006287573836743832
1686445310944427800,1.734427734375,-0.005619199480861425,0.00773896649479866,0.004005042836070061
1686445310954443800,1.74444384765625,-0.0019634785130620003,0.0020597761031240225,0.006019990891218185
1686445310964460500,1.75446044921875,-0.0030019432306289673,0.00320144253782928,0.004434244241565466
1686445310974477800,1.764477783203125,-0.0016333446837961674,0.002872009063139558,0.008829792030155659
1686445310984493800,1.774493896484375,-0.0010051284916698933,0.0013830563984811306,0.008056920021772385
1686445310994510600,1.784510498046875,-0.0005902079865336418,-0.00047210161574184895,0.00908676441758871
1686445311004526600,1.794526611328125,0.001638476736843586,0.0016593285836279392,0.009498914703726768
1686445311014544000,1.8045439453125,0.002057924633845687,-0.0009124859934672713,0.009870425797998905
1686445311024560600,1.814560546875,0.0018196478486061096,-0.0019052604911848903,0.008358628489077091
1686445311034576600,1.82457666015625,0.0028273880016058683,-0.004882941022515297,0.003588640596717596
1686445311044594000,1.834593994140625,0.000910026952624321,-0.005223129875957966,0.0027346722781658173
1686445311054609700,1.844609619140625,0.0038797175511717796,-0.0071821510791778564,0.000529042212292552
1686445311064626700,1.854626708984375,0.0012963905464857817,-0.0076308101415634155,-0.0023128874599933624
1686445311074643700,1.864643798828125,0.004388054367154837,-0.006754363887012005,-0.0015365759609267116
1686445311084659700,1.87465966796875,0.0005283495411276817,-0.005679554305970669,-0.0022414871491491795
1686445311094676700,1.8846767578125,0.0014175791293382645,-0.002198270056396723,-0.00041269452776759863
1686445311104692700,1.894692626953125,-0.0005301190540194511,-0.004128385800868273,0.0005027635488659143
1686445311114709500,1.90470947265625,-0.0004217284731566906,-0.0010300643043592572,-0.0036941119469702244
1686445311124726800,1.914726806640625,-0.0006026034243404865,-0.0009317529620602727,-0.004958091303706169
1686445311134742800,1.92474267578125,-0.0038500619120895863,0.004673668183386326,-0.004195628687739372
1686445311144759600,1.934759521484375,-0.003470919094979763,0.0006457194685935974,-0.007938788272440434
1686445311154775600,1.944775634765625,-0.006124759092926979,-0.0003841248108074069,-0.0027397647500038147
1686445311164792800,1.954792724609375,-0.00900438241660595,-0.0026003350503742695,-0.0066835819743573666
1686445311174809600,1.9648095703125,-0.002699082251638174,-0.004400631878525019,-0.0031216037459671497
1686445311184825600,1.97482568359375,-0.0033134575933218002,-0.0008837957866489887,0.003048680257052183
1686445311194843000,1.9848427734375,-0.006065035238862038,0.003753566648811102,0.002595942933112383
1686445311204859600,1.994859619140625,0.0011637266725301743,0.0070675937458872795,0.009540545754134655
1686445311214875600,2.004875732421875,-0.001699704211205244,0.00936110783368349,0.007714415900409222
1686445311224892700,2.014892578125,0.0008842167444527149,0.008909179829061031,0.005590667482465506
1686445311234909000,2.024908935546875,-0.00011366978287696838,0.006138427183032036,-0.0023463512770831585
1686445311244925700,2.03492578125,-0.0011275350116193295,0.004595125559717417,-0.0021817677188664675
1686445311254942700,2.044942626953125,0.0014277680311352015,0.0007180955726653337,-0.004718428943306208
1686445311264958700,2.054958740234375,0.002077327575534582,-0.0018826134037226439,0.0006363975116983056
1686445311274975700,2.064975830078125,0.004623842425644398,-0.0035393659491091967,0.005031944718211889
1686445311284991700,2.07499169921875,0.0021669240668416023,-0.0007427906384691596,0.005114898085594177
1686445311295008800,2.0850087890625,0.0003786114975810051,-0.0016828866209834814,0.005513839889317751
1686445311305025800,2.09502587890625,0.0030522041488438845,-0.003759927349165082,0.003352461149916053
1686445311315041800,2.105041748046875,0.001352841267362237,-0.0011620137374848127,0.0005990187637507915
1686445311325058800,2.115058837890625,0.0014335515443235636,-0.0037579303607344627,-0.0017709210515022278
1686445311335074600,2.125074462890625,-0.0010293400846421719,-0.005519877653568983,-0.004050054121762514
1686445311345091800,2.135091796875,-0.0006081573665142059,-0.008715258911252022,-0.004672570154070854
1686445311355108900,2.14510888671875,0.00012074969708919525,-0.006978612393140793,-0.001727380440570414
1686445311365124600,2.15512451171875,-0.0009748446755111217,-0.0067803822457790375,-0.00395880825817585
1686445311375141600,2.1651416015625,0.004033762030303478,-0.001956332242116332,-0.0015100317541509867
1686445311385158700,2.17515869140625,0.0007035327143967152,0.0014235570561140776,-0.0020719016902148724
1686445311395174700,2.185174560546875,0.0034324736334383488,0.007807685993611813,0.003169731702655554
1686445311405191700,2.195191650390625,-0.0020209727808833122,0.008645865134894848,0.0025994630996137857
1686445311415207700,2.205207763671875,0.00109093077480793,0.009715656749904156,-0.0011571920476853848
1686445311425224700,2.215224609375,0.002033347962424159,0.011854923330247402,-0.0027327975258231163
1686445311435241700,2.22524169921875,-0.0011440692469477654,0.009802690707147121,-0.003142391564324498
1686445311445257700,2.2352578125,-0.0002723713405430317,0.0036614008713513613,-0.004742109216749668
1686445311455274800,2.245274658203125,-0.0027080983854830265,0.005405771546065807,-0.0046510291285812855
1686445311465290800,2.255290771484375,0.00021618744358420372,0.004402795806527138,-0.0027648252435028553
1686445311475307800,2.265307861328125,-0.0026477756910026073,0.0070065688341856,0.0021521691232919693
1686445311485324500,2.275324462890625,-0.00004352303221821785,0.009370584040880203,0.0017691475804895163
1686445311495340800,2.2853408203125,0.0004108124412596226,0.00947471335530281,-0.0024021617136895657
1686445311505357800,2.29535791015625,-0.004269578028470278,0.00593500304967165,-0.002803392708301544
1686445311515373300,2.305373291015625,-0.0009424914605915546,0.0002795141190290451,-0.004933388903737068
1686445311525390000,2.31539013671875,-0.000004046130925416946,-0.002052155090495944,-0.00942087359726429
1686445311535407000,2.325406982421875,-0.00013933470472693443,-0.002444438636302948,-0.005652500316500664
1686445311545423400,2.33542333984375,0.0011025206185877323,-0.0006990233669057488,-0.004499862436205149
1686445311555440000,2.345440185546875,-0.0000482313334941864,0.0009710448794066906,0.0037926887162029743
1686445311565456100,2.3554560546875,0.001452428987249732,0.001768836285918951,0.0038232803344726562
1686445311575473200,2.36547314453125,0.0022092994768172503,-0.0008210876258090138,0.0008234955603256822
1686445311585490200,2.375490234375,0.00005037384107708931,-0.00033769349101930857,0.003886230755597353
1686445311595506200,2.385506103515625,0.0017862222157418728,0.00399154145270586,0.0011522298445925117
1686445311605523200,2.395523193359375,-0.0018213111907243729,0.0019551545847207308,-0.004252131097018719
1686445311615540200,2.405540283203125,0.001581676071509719,-0.00017137941904366016,-0.007419694680720568
1686445311625556200,2.41555615234375,0.0014614914543926716,0.0007841114420443773,-0.003169102594256401
1686445311635573200,2.4255732421875,-0.0006727660074830055,0.0020315360743552446,-0.00511747132986784
1686445311645589000,2.435589111328125,0.0010893396101891994,0.0024456079117953777,-0.0008985834429040551
1686445311655606300,2.445606201171875,0.0019351597875356674,0.0007630230393260717,0.00116350210737437
1686445311665623300,2.455623291015625,0.0032612024806439877,0.0020876575727015734,0.007337810471653938
1686445311675639000,2.46563916015625,0.000781266950070858,0.002719359239563346,0.0055961026810109615
1686445311685656000,2.475656005859375,-0.0003590616397559643,0.003919051960110664,0.0012906203046441078
1686445311695672300,2.48567236328125,-0.00029061827808618546,0.006787809543311596,-0.001821549842134118
1686445311705689000,2.495689208984375,-0.002230836544185877,0.004682702943682671,-0.0031716213561594486
1686445311715706000,2.5057060546875,-0.0010001896880567074,0.004209192469716072,-0.003610776737332344
1686445311725722000,2.51572216796875,-0.002456307876855135,-0.000170078594237566,-0.004415483213961124
1686445311735739100,2.5257392578125,0.001006067730486393,-0.0013557178899645805,-0.002195206005126238
1686445311745755100,2.535755126953125,-0.0013148128055036068,-0.0007791025564074516,-0.007105585653334856
1686445311755772200,2.545772216796875,-0.0012879148125648499,-0.005955754779279232,-0.0011403710814192891
1686445311765789200,2.5557890625,0.0013603938277810812,-0.0033369148150086403,-0.0027649132534861565
1686445311775805200,2.56580517578125,-0.003027697093784809,-0.001209315494634211,-0.0014884602278470993
1686445311785822200,2.575822265625,0.0012856228277087212,0.003050390398129821,-0.0006423522136174142
1686445311795838200,2.585838134765625,-0.0012369235046207905,0.00518970750272274,-0.0011672612745314837
1686445311805855200,2.595855224609375,0.0024821441620588303,0.007245668210089207,0.00043622800149023533
1686445311815872300,2.605872314453125,0.0005966261960566044,0.0005347684491425753,-0.0018575526773929596
1686445311825888300,2.61588818359375,-0.0009983135387301445,0.003358036046847701,-0.0016345672775059938
1686445311835905000,2.625905029296875,0.00019931001588702202,0.0013113969471305609,-0.00482423510402441
1686445311845922300,2.63592236328125,-0.0004376489669084549,0.0012327325530350208,-0.002970033325254917
1686445311855938300,2.645938232421875,-0.0016115703620016575,-0.0015976750291883945,-0.002094385912641883
1686445311865955000,2.655955078125,-0.0023225625045597553,-0.0013360105222091079,-0.0029850995633751154
1686445311875971000,2.66597119140625,-0.0035641277208924294,-0.0018681101500988007,0.004241654183715582
1686445311885988400,2.67598828125,0.00030263280496001244,0.00015962077304720879,0.0005118971457704902
1686445311896005000,2.686005126953125,-0.000937335193157196,0.002338086487725377,-0.0015344758285209537
1686445311906021000,2.696021240234375,-0.0028214394114911556,0.0021020283456891775,-0.002848903415724635
1686445311916038400,2.706038330078125,0.00035491306334733963,0.0011185230687260628,-0.002815613988786936
1686445311926054100,2.71605419921875,-0.0010784533806145191,0.00007722782902419567,-0.00254531716927886
1686445311936071200,2.7260712890625,0.0023418443743139505,-0.0016160099767148495,-0.004431634210050106
1686445311946088200,2.736088134765625,0.0003848015330731869,-0.0029891878366470337,-0.002431147266179323
1686445311956104200,2.746104248046875,-0.0007675481028854847,-0.0026898484211415052,-0.0009301897371187806
1686445311966121200,2.756121337890625,-0.0013404465280473232,0.0016284775920212269,-0.0008677492733113468
1686445311976137200,2.76613720703125,-0.0012696064077317715,0.0012492435052990913,-0.0019098441116511822
1686445311986154000,2.776154052734375,-0.000040265265852212906,0.0014393208548426628,-0.000008138944394886494
1686445311996171300,2.786171142578125,-0.000768373254686594,-0.000603856286033988,-0.004867875017225742
1686445312006187300,2.796187255859375,-0.0008957218378782272,-0.003707227762788534,-0.002528964774683118
1686445312016204000,2.8062041015625,0.0017903423868119717,-0.0005124997114762664,-0.0025963427033275366
1686445312026221300,2.81622119140625,-0.00001275632530450821,0.0007259331177920103,-0.005997248459607363
1686445312036237300,2.8262373046875,0.0011726166121661663,0.00034217163920402527,-0.003783096559345722
1686445312046254000,2.836254150390625,0.0023360748309642076,-0.0007213017670437694,-0.0009623495279811323
1686445312056270000,2.84627001953125,0.001849515363574028,-0.003016413887962699,-0.0006012248923070729
1686445312066287400,2.856287353515625,0.0026786092203110456,-0.001619913731701672,-0.0025426046922802925
1686445312076304100,2.86630419921875,-0.0017603477463126183,-0.004422624595463276,-0.0044164047576487064
1686445312086320000,2.876320068359375,-0.0018672929145395756,-0.005868822801858187,-0.005822444800287485
1686445312096337200,2.886337158203125,-0.0031165815889835358,-0.004728457424789667,-0.0062461537308990955
1686445312106353400,2.896353515625,-0.004461317788809538,-0.0030764066614210606,-0.003957398235797882
1686445312116370200,2.9063701171875,-0.001863937359303236,-0.0032106302678585052,0.0009436171967536211
1686445312126387200,2.91638720703125,-0.006625182926654816,-0.00581436138600111,-0.0023904372937977314
1686445312136403200,2.9264033203125,-0.001680491492152214,-0.0009860506979748607,-0.0009808260947465897
1686445312146420200,2.936420166015625,-0.001997963059693575,0.0003745788708329201,-0.0007997527718544006
1686445312156436200,2.946436279296875,-0.0035186284221708775,-0.0053152646869421005,-0.00057791150175035
1686445312166453200,2.956453369140625,0.000347841065376997,-0.005183786619454622,0.0004024846712127328
1686445312176470300,2.96647021484375,0.0015246921684592962,-0.0016452445415779948,0.0017617620760574937
1686445312186486300,2.976486328125,0.001927581848576665,0.001877093454822898,0.002846956718713045
1686445312196503000,2.9865029296875,0.0004135747440159321,0.002676840638741851,-0.0027784383855760098
1686445312206519000,2.99651904296875,0.002895421115681529,0.0035636320244520903,-0.002134442562237382
1686445312216536300,3.006536376953125,-0.0017440719529986382,0.006955699995160103,0.0017380599165335298
1686445312226553000,3.016552978515625,0.0022682761773467064,-0.001097872736863792,0.001573512447066605
1686445312236569000,3.026569091796875,0.0020637453999370337,-0.004569036886096001,0.005732038524001837
1686445312246586000,3.036586181640625,-0.0006096805445849895,-0.004979685880243778,0.002728648018091917
1686445312256603100,3.04660302734375,0.0014827651903033257,-0.004793531261384487,0.000508370460011065
1686445312266619100,3.056619140625,-0.001947872806340456,-0.006952596828341484,-0.0018857682589441538
1686445312276636200,3.06663623046875,0.0003536310978233814,-0.004885717295110226,0.001258359756320715
1686445312286652200,3.076652099609375,0.0012128278613090515,0.0017080965917557478,-0.000018041464500129223
1686445312296669200,3.086669189453125,-0.00040690647438168526,0.0059630293399095535,-0.004162186291068792
1686445312306686200,3.096686279296875,0.0012515885755419731,0.007242667488753796,0.000044953194446861744
1686445312316702200,3.1067021484375,-0.000359357800334692,0.004094545263797045,-0.0031654874328523874
1686445312326719200,3.11671923828125,-0.0017379242926836014,0.003991581499576569,-0.004623943939805031
1686445312336735200,3.1267353515625,-0.0009490959346294403,-0.0003070265520364046,-0.007473259698599577
1686445312346752300,3.136752197265625,0.0012830214109271765,-0.00007212534546852112,-0.0060198502615094185
1686445312356769000,3.14676904296875,0.0007543838582932949,0.001793951727449894,-0.001931898295879364
1686445312366785300,3.156785400390625,-0.0030858186073601246,0.003125583054497838,-0.005112965125590563
1686445312376802300,3.16680224609375,-0.0013345242477953434,0.0052750203758478165,-0.003496160265058279
1686445312386818000,3.176818115234375,-0.0015614251606166363,0.004204962402582169,0.0014144425513222814
1686445312396835000,3.1868349609375,0.00011317012831568718,0.0030627327505499125,0.0005931236082687974
1686445312406852400,3.196852294921875,-0.0016355528496205807,0.0009147089440375566,-0.00030737731140106916
1686445312416868000,3.2068681640625,-0.001534618902951479,-0.001095711486414075,-0.002932189032435417
1686445312426885000,3.216885009765625,-0.001358743291348219,-0.007008409593254328,0.0021303086541593075
1686445312436902400,3.22690234375,-0.000790158286690712,-0.010236160829663277,-0.0037076068110764027
1686445312446918100,3.236918212890625,0.0008407304994761944,-0.010966399684548378,-0.0005576348630711436
1686445312456935200,3.24693505859375,0.0037707402370870113,-0.004683736711740494,-0.0017243657493963838
1686445312466951200,3.256951171875,0.0034705945290625095,-0.000689374515786767,0.0009185404051095247
1686445312476968200,3.26696826171875,0.0021169099491089582,0.0018592707347124815,0.0008484991267323494
1686445312486985200,3.276985107421875,0.0010707974433898926,0.001868346007540822,0.003858115989714861
1686445312497001200,3.287001220703125,0.0011861124075949192,0.004484103061258793,0.002803238108754158
1686445312507018000,3.29701806640625,0.0015969164669513702,0.0008171859662979841,0.003632690291851759
1686445312517034800,3.30703466796875,-0.0006377417594194412,0.0022369169164448977,-0.000014242599718272686
1686445312527051800,3.3170517578125,0.0008892901241779327,0.002044303808361292,-0.002628972288221121
1686445312537068500,3.327068603515625,0.0009809029288589954,0.0006221756339073181,-0.0022286991588771343
1686445312547084500,3.33708447265625,-0.0014725900255143642,0.0008119314443320036,-0.0010333765530958772
1686445312557101800,3.347101806640625,-0.003294990863651037,0.003339804243296385,-0.00106533442158252
1686445312567117600,3.35711767578125,-0.002704134676605463,0.004040450789034367,0.0015660341596230865
1686445312577134600,3.367134521484375,0.00033719558268785477,0.004345649387687445,0.0025460775941610336
1686445312587152000,3.37715185546875,0.0012168600223958492,0.005250037647783756,0.00665269372984767
1686445312597167600,3.387167724609375,0.0008650566451251507,0.0035722467582672834,0.0039493185468018055
1686445312607184600,3.3971845703125,0.0003559752367436886,0.00447655376046896,0.0018354093190282583
1686445312617201700,3.40720166015625,-0.0015665609389543533,0.0015915513504296541,0.0014170266222208738
1686445312627217700,3.4172177734375,0.0019751382060348988,0.0030457908287644386,0.0009421564172953367
1686445312637234700,3.427234619140625,0.0009945621713995934,-0.0020325907971709967,-0.005415874533355236
1686445312647250700,3.437250732421875,-0.0009036855772137642,-0.0036768452264368534,-0.004106360487639904
1686445312657267500,3.447267333984375,-0.0006062104366719723,-0.002046191832050681,-0.0007209499599412084
1686445312667284700,3.45728466796875,-0.000966428779065609,-0.0018007730832323432,-0.003820755984634161
1686445312677300700,3.46730078125,0.0006804699078202248,0.0012354967184364796,-0.002823934890329838
1686445312687317500,3.4773173828125,-0.0013863188214600086,0.0009544519707560539,-0.0014797503827139735
1686445312697333500,3.48733349609375,-0.0009751268662512302,0.0007760203443467617,-0.00037027744110673666
1686445312707350800,3.497350830078125,-0.00005985936149954796,0.003101665759459138,-0.000330647686496377
1686445312717367600,3.507367431640625,-0.0022063669748604298,0.0032918157521635294,-0.0010172106558457017
1686445312727383600,3.517383544921875,-0.00040807900950312614,0.0017956618685275316,-0.0017345438245683908
1686445312737400800,3.52740087890625,-0.003409994300454855,0.0043440405279397964,-0.0025233719497919083
1686445312747416800,3.537416748046875,-0.0014924495480954647,0.004029193893074989,-0.00010728777851909399
1686445312757433600,3.54743359375,-0.0016399887390434742,0.0022011997643858194,0.005162308923900127
1686445312767450600,3.55745068359375,0.00031265150755643845,0.001814642921090126,0.0061346376314759254
1686445312777467000,3.567466796875,0.0009451522491872311,-0.0002975101815536618,0.0040142289362847805
1686445312787483600,3.577483642578125,0.0012445689644664526,0.0024059766437858343,0.003914639353752136
1686445312797499600,3.587499755859375,0.0024994504638016224,0.005641717463731766,0.0029383248183876276
1686445312807516700,3.5975166015625,0.00108297448605299,0.00611088564619422,0.006213020533323288
1686445312817533700,3.60753369140625,0.0018267955165356398,0.004868787247687578,0.0036055194213986397
1686445312827549700,3.6175498046875,0.003062640316784382,0.003116569248959422,0.003845332656055689
1686445312837566700,3.627566650390625,0.0010753893293440342,-0.0004515338223427534,0.0042565250769257545
1686445312847583700,3.637583740234375,0.0005685212090611458,-0.00033802143298089504,0.0030178239103406668
1686445312857599700,3.647599853515625,-0.002206492703408003,-0.003914114087820053,0.0009623963851481676
1686445312867616800,3.65761669921875,0.0012674261815845966,-0.003846818348392844,0.0012381195556372404
1686445312877632500,3.667632568359375,0.00030842190608382225,-0.0000432915985584259,-0.0005011908942833543
1686445312887649800,3.67764990234375,-0.001513469498604536,-0.0014049455057829618,0.0011531432392075658
1686445312897666800,3.687666748046875,-0.00045646075159311295,-0.0026446469128131866,-0.0048035490326583385
1686445312907682600,3.6976826171875,0.00013209041208028793,0.001875690184533596,-0.004388642497360706
1686445312917699600,3.707699462890625,0.0010311733931303024,0.0004160115495324135,-0.0030243052169680595
1686445312927715800,3.7177158203125,0.0011652982793748379,0.0038930040318518877,-0.00351762305945158
1686445312937732600,3.727732666015625,0.00048805633559823036,-0.00009481306187808514,-0.0006238322821445763
1686445312947749600,3.73774951171875,0.001421428518369794,-0.001490422640927136,0.001337822643108666
1686445312957765600,3.747765625,-0.0008768793195486069,-0.00006509874947369099,-0.0024939333088696003
1686445312967782700,3.75778271484375,0.0003377692773938179,-0.004725988954305649,0.0024619069881737232
1686445312977798700,3.767798583984375,-0.003046042751520872,-0.004471124615520239,-0.0001437297323718667
1686445312987815700,3.777815673828125,-0.0028690346516668797,-0.003045452758669853,0.0039819530211389065
1686445312997832700,3.787832763671875,-0.0029507935978472233,-0.0005340917268767953,0.0020900433883070946
1686445313007848700,3.7978486328125,-0.005685282405465841,0.0018432710785418749,-0.001603984273970127
1686445313017865700,3.80786572265625,-0.0013232906349003315,0.002439286792650819,-0.0009230140130966902
1686445313027881700,3.8178818359375,-0.0024535893462598324,0.0019704988226294518,-0.00032785465009510517
1686445313037898800,3.827898681640625,-0.002607253845781088,-0.0026892342139035463,0.0036530382931232452
1686445313047915800,3.837915771484375,0.0017933379858732224,-0.002203873358666897,0.006368123926222324
1686445313057931800,3.847931884765625,0.0009171580895781517,-0.0016246356535702944,0.003841050434857607
1686445313067948500,3.857948486328125,0.0031129575800150633,-0.002630798378959298,0.005763873923569918
1686445313077965800,3.8679658203125,0.002389643108472228,-0.0020102818962186575,0.004658129531890154
1686445313087981800,3.87798193359375,-0.001832691952586174,-0.0024057086557149887,0.004257419146597385
1686445313097998600,3.88799853515625,0.0019468660466372967,-0.004791101906448603,0.004926671739667654
1686445313108014600,3.8980146484375,-0.00016576610505580902,-0.002976619638502598,0.0004025499802082777
1686445313118031600,3.908031494140625,0.002425223356112838,0.0021076209377497435,0.0007349125808104873
1686445313128048600,3.918048583984375,0.0006203306838870049,0.001513530733063817,0.005821750964969397
1686445313138064600,3.928064697265625,0.00033723702654242516,0.0019433649722486734,0.001944188610650599
1686445313148081700,3.93808154296875,0.0024694690946489573,0.0029366016387939453,0.0016095445025712252
1686445313158097700,3.94809765625,-0.0011449730955064297,-0.0028770791832357645,0.0011253817938268185
1686445313168114700,3.95811474609375,-0.0005640690214931965,-0.005226847715675831,-0.0007989538717083633
1686445313178131500,3.96813134765625,-0.0009936369024217129,-0.0022166769485920668,-0.0009760540560819209
1686445313188147700,3.978147705078125,0.001271967077627778,-0.001954283332452178,-0.003106791293248534
1686445313198164700,3.988164794921875,0.0013364155311137438,0.0016835946589708328,-0.0014798662159591913
1686445313208180700,3.9981806640625,-0.00023084646090865135,0.006687162443995476,-0.00029423320665955544
1686445313218197500,4.008197509765625,0.0011108540929853916,0.0070291124284267426,0.0010184388374909759
1686445313228214800,4.01821484375,-0.0017713485285639763,0.008518854156136513,-0.0017630826914682984
1686445313238230800,4.028230712890625,-0.0004546819254755974,0.010589728131890297,-0.002342053921893239
1686445313248247600,4.03824755859375,0.0006492510437965393,0.009412150830030441,-0.004245356656610966
1686445313258264800,4.048264892578125,-0.0006929817609488964,0.00600410345941782,-0.002889541443437338
1686445313268280800,4.05828076171875,-0.00009203515946865082,0.0059917280450463295,-0.004133375361561775
1686445313278297600,4.068297607421875,-0.0025043264031410217,-0.0000035797711461782455,-0.002595133613795042
1686445313288313600,4.078313720703125,-0.0015344410203397274,-0.0016062073409557343,-0.0027171552646905184
1686445313298331000,4.088330810546875,-0.0020662741735577583,0.0002481515984982252,0.0005944856675341725
1686445313308347600,4.09834765625,-0.0016030208207666874,-0.0003538674209266901,0.000456935609690845
1686445313318363600,4.10836376953125,0.0001666499301791191,-0.0007978164358064532,0.003801333252340555
1686445313328380700,4.118380615234375,0.0002790037542581558,0.00020104390569031239,0.001149055897258222
1686445313338396700,4.128396728515625,0.0008052443154156208,-0.0011204166803508997,-0.0008610980003140867
1686445313348413700,4.13841357421875,-0.0005540936253964901,-0.0011804307578131557,0.0026720664463937283
1686445313358430700,4.1484306640625,0.0007876069284975529,-0.000931425136514008,0.0005833491450175643
1686445313368446500,4.158446533203125,0.00271866493858397,-0.0015303700929507613,0.0029213381931185722
1686445313378463700,4.168463623046875,0.0018811009358614683,-0.0037498483434319496,0.0031509026885032654
1686445313388480800,4.178480712890625,0.0006489022634923458,0.0020890911109745502,0.005030338652431965
1686445313398496500,4.18849658203125,0.0006212051957845688,0.00527742737904191,0.004011945798993111
1686445313408513800,4.198513671875,0.00017968332394957542,0.0087359007447958,0.00415659137070179
1686445313418529800,4.20852978515625,0.0018457567784935236,0.006625079084187746,0.005018657073378563
1686445313428546600,4.218546630859375,-0.0015142778865993023,0.005237092263996601,0.004179041832685471
1686445313438563600,4.2285634765625,0.0021342525724321604,0.0038296112325042486,0.0027097761631011963
1686445313448579800,4.238579833984375,0.0012616496533155441,0.003651874838396907,0.002394032198935747
1686445313458596600,4.2485966796875,0.0003878665156662464,-0.0003447307972237468,0.0007029251428321004
1686445313468612600,4.258612548828125,0.0031849085353314877,-0.00010536378249526024,0.0025619985535740852
1686445313478629600,4.268629638671875,-0.001467101275920868,0.00023685232736170292,0.0003973812563344836
1686445313488646700,4.278646728515625,0.0030019194819033146,-0.0015944289043545723,0.0010375698329880834
1686445313498662700,4.28866259765625,-0.0018602139316499233,0.00114915962330997,-0.0008623293251730502
1686445313508679700,4.2986796875,0.0005858996883034706,0.003984360955655575,-0.0011038780212402344
1686445313518696200,4.3086962890625,-0.0015981588512659073,0.0008937625680118799,-0.0024658185429871082
1686445313528713000,4.318712890625,-0.000829753465950489,0.0013360108714550734,-0.002611666452139616
1686445313538730000,4.32872998046875,0.0016613672487437725,-0.0009686886332929134,-0.0032263242173939943
1686445313548746000,4.33874609375,0.00004655634984374046,-0.003694402053952217,-0.0011824977118521929
1686445313558763000,4.348762939453125,0.002797868102788925,-0.0032749539241194725,-0.0008661141619086266
1686445313568779000,4.358779052734375,0.0007895859889686108,-0.003025038167834282,0.0011696191504597664
1686445313578796000,4.368796142578125,0.0014987858012318611,0.0007928693667054176,0.0016636354848742485
1686445313588813000,4.37881298828125,0.001877089962363243,0.0019068403635174036,0.0038648901972919703
1686445313598829000,4.3888291015625,0.0014046451542526484,0.0021481227595359087,0.004791670478880405
1686445313608845800,4.398845703125,0.00017664022743701935,0.0015845259185880423,0.001288505387492478
1686445313618862800,4.40886279296875,0.0007082070223987103,0.0034319607075303793,0.0013375073904171586
1686445313628879000,4.418879150390625,-0.0014718486927449703,0.0034978522453457117,0.0023023835383355618
1686445313638895900,4.428895751953125,-0.0024686697870492935,-0.0015102222096174955,-0.002018062397837639
1686445313648912000,4.438911865234375,-0.002308538183569908,0.0051378775388002396,0.002415913622826338
1686445313658929000,4.448928955078125,0.001395918894559145,0.0006733546033501625,0.003405011259019375
1686445313668946000,4.45894580078125,0.0008856412023305893,0.00193263147957623,0.007237826474010944
1686445313678962000,4.4689619140625,0.0029064477421343327,0.0047851428389549255,0.007072976790368557
1686445313688979000,4.47897900390625,0.0015140546020120382,0.001638701418414712,0.004895757883787155
1686445313698995000,4.488994873046875,0.0012618533801287413,0.0026488380972296,-0.0007836997392587364
1686445313709012000,4.499011962890625,0.001215074211359024,-0.0010567669523879886,-0.0019612645264714956
1686445313719029000,4.509029052734375,-0.0028196144849061966,-0.0005611525848507881,-0.0034515694715082645
1686445313729045000,4.519044921875,-0.001383135560899973,0.00016766134649515152,-0.004578123334795237
1686445313739062000,4.52906201171875,-0.0017344066873192787,-0.0002581779845058918,-0.009890597313642502
1686445313749079000,4.5390791015625,-0.0018595452420413494,-0.000040504615753889084,-0.011731869541108608
1686445313759095000,4.549094970703125,-0.002272868063300848,0.0016687121242284775,-0.013533231802284718
1686445313769111800,4.55911181640625,-0.0035921353846788406,0.0006805043667554855,-0.00981620792299509
1686445313779128000,4.569128173828125,-0.004625442437827587,0.002828876255080104,-0.006921618711203337
1686445313789145000,4.57914501953125,-0.0009961784817278385,-0.0015423542354255915,-0.008035172708332539
1686445313799161900,4.589161865234375,-0.0007663476280868053,0.0009450381621718407,-0.0040324414148926735
1686445313809177900,4.599177734375,0.0012724925763905048,0.003346359124407172,0.0016045920783653855
1686445313819195100,4.609195068359375,-0.000047103967517614365,0.005272091366350651,0.0022751763463020325
1686445313829211000,4.6192109375,0.00548152020201087,0.0059871189296245575,0.0037003993056714535
1686445313839228000,4.629227783203125,0.0025584346149116755,0.0018861175049096346,0.004626912996172905
1686445313849245200,4.6392451171875,0.001327330945059657,-0.0020832731388509274,0.009635599330067635
1686445313859261000,4.649260986328125,-0.0006159776821732521,-0.0018923244206234813,0.002544932998716831
1686445313869278000,4.65927783203125,-0.003096514381468296,-0.002509317360818386,0.0016338007990270853
1686445313879295000,4.669294921875,0.0016697444953024387,-0.0004451011773198843,-0.0012107215588912368
1686445313889311000,4.67931103515625,-0.001966443844139576,-0.0009756848448887467,0.003101821057498455
1686445313899328000,4.689327880859375,-0.0007736142724752426,0.0027910901699215174,-0.0032530135940760374
1686445313909344000,4.699343994140625,-0.0024443594738841057,0.0026009506545960903,-0.0023775100708007812
1686445313919360800,4.70936083984375,-0.0039016413502395153,0.007415412925183773,-0.006761073600500822
1686445313929378000,4.7193779296875,-0.0011777137406170368,0.0029830734711140394,-0.0080952737480402
1686445313939394000,4.72939404296875,-0.0026616272516548634,0.0010962237138301134,-0.005442765075713396
1686445313949410800,4.739410888671875,-0.002615327015519142,0.00016906531527638435,-0.005744263529777527
1686445313959426800,4.7494267578125,-0.002154067624360323,-0.00429332721978426,-0.00822712853550911
1686445313969444000,4.759444091796875,-0.0025187074206769466,-0.008700398728251457,0.0003561815246939659
1686445313979460900,4.7694609375,0.0032672761008143425,-0.007240986451506615,-0.0019008475355803967
1686445313989476900,4.779476806640625,0.0020620368886739016,-0.007428810931742191,-0.0019464452052488923
1686445313999494100,4.789494140625,-0.0017044716514647007,-0.004814651794731617,-0.001516610966064036
1686445314009510100,4.79951025390625,0.0009661219082772732,0.0035871907602995634,0.0028990686405450106
1686445314019527000,4.80952685546875,0.00024813367053866386,0.006745167076587677,0.0017523113638162613
1686445314029544000,4.8195439453125,0.0009980415925383568,0.007678861264139414,0.0026153195649385452
1686445314039560200,4.829560302734375,-0.0016115899197757244,0.005681224633008242,0.004894186742603779
1686445314049577000,4.839576904296875,-0.0013674767687916756,-0.00003315112553536892,0.0058573512360453606
1686445314059594000,4.849593994140625,-0.0012401780113577843,-0.003091791644692421,0.0011680569732561707
1686445314069610000,4.85960986328125,0.001096838153898716,-0.005740121006965637,0.0029018609784543514
1686445314079627000,4.869626953125,-0.0016278419643640518,-0.00503198616206646,0.0008182040182873607
1686445314089643000,4.87964306640625,-0.0020248666405677795,-0.0007530138827860355,-0.0014707254013046622
1686445314099660000,4.889659912109375,0.0006713178008794785,0.00558238010853529,0.0010840450413525105
1686445314109677000,4.899677001953125,0.0023234279360622168,0.0024239742197096348,0.0000314563512802124
1686445314119693000,4.909693115234375,-0.0005975272506475449,0.002594949211925268,-0.004689263179898262
1686445314129710000,4.9197099609375,-0.0016465536318719387,0.003525610314682126,-0.007995858788490295
1686445314139725800,4.929725830078125,-0.0029501705430448055,0.0005540554411709309,-0.006072790361940861
1686445314149743000,4.9397431640625,-0.003230168018490076,0.001114620128646493,-0.0035894932225346565
1686445314159760000,4.949759765625,-0.0019622365944087505,-0.003152296645566821,-0.0016166234854608774
1686445314169775900,4.95977587890625,-0.00012027285993099213,-0.008047176524996758,0.0036392472684383392
1686445314179793000,4.96979296875,0.0007314058020710945,-0.008871691301465034,0.007380722090601921
1686445314189810000,4.979809814453125,-0.0003327932208776474,-0.005438343621790409,0.00611119344830513
1686445314199826000,4.989825927734375,0.00088453758507967,0.00022113975137472153,0.005374562926590443
1686445314209843000,4.999843017578125,0.003013643203303218,0.0020180565770715475,0.0014612278901040554
1686445314219859000,5.00985888671875,0.0003382316790521145,0.0023128686007112265,0.0011696116998791695
1686445314229876000,5.0198759765625,0.0010072793811559677,0.0025555749889463186,0.0005672554252669215
1686445314239893000,5.02989306640625,-0.0009357631206512451,0.0011928353924304247,-0.0039627812802791595
1686445314249909000,5.039908935546875,0.0000202045775949955,0.004307884257286787,-0.00329655222594738
1686445314259926000,5.049926025390625,0.0021392819471657276,0.007719393819570541,-0.0029498087242245674
1686445314269942000,5.05994189453125,0.0011381171643733978,0.006207617931067944,0.00036466773599386215
1686445314279959000,5.069958984375,0.0023365395609289408,0.002900238847360015,0.0017463156254962087
1686445314289975800,5.079975830078125,-0.0008744667284190655,0.0006221726071089506,0.0029156976379454136
1686445314299992000,5.089991943359375,0.0015780383255332708,0.002173197688534856,-0.00037836667615920305
1686445314310009000,5.100009033203125,0.0014149248600006104,0.0020220717415213585,-0.0005289738182909787
1686445314320025000,5.110025146484375,0.00352681172080338,0.0021051624789834023,0.0008233792614191771
1686445314330041900,5.120041748046875,0.0030278267804533243,0.0027040254790335894,0.0043154023587703705
1686445314340059100,5.13005908203125,-0.0011000726372003555,0.003599912626668811,-0.0009952072286978364
1686445314350075000,5.140074951171875,-0.0003021969459950924,0.0034346843603998423,-0.0010833716951310635
1686445314360092000,5.150091796875,-0.00041564740240573883,0.0030495913233608007,-0.0021773981861770153
1686445314370109200,5.160109130859375,-0.000055649783462285995,0.0068192025646567345,-0.009125103242695332
1686445314380125000,5.170125,-0.0016178600490093231,0.0012300270609557629,-0.008649196475744247
1686445314390142000,5.180141845703125,-0.0047773029655218124,0.0020683903712779284,-0.009463591501116753
1686445314400158000,5.190157958984375,-0.0012789741158485413,0.0019581352826207876,-0.00541532039642334
1686445314410175000,5.200175048828125,-0.0021208622492849827,0.0007903084624558687,-0.004245228134095669
1686445314420192000,5.21019189453125,-0.0016140625812113285,0.006309975869953632,-0.00008670217357575893
1686445314430208000,5.2202080078125,0.0006573395803570747,0.0022938780020922422,-0.004230393562465906
1686445314440224800,5.230224853515625,-0.002688922919332981,0.007299821823835373,-0.002338217804208398
1686445314450240800,5.24024072265625,-0.001853961031883955,0.003921888768672943,-0.0021502203308045864
1686445314460258000,5.250258056640625,-0.0022632889449596405,0.003596983151510358,-0.00006443238817155361
1686445314470274800,5.26027490234375,-0.0016906955279409885,0.00009023654274642467,0.0016172615578398108
1686445314480290800,5.270290771484375,-0.002623068168759346,-0.0030011609196662903,0.0027451100759208202
1686445314490308000,5.28030810546875,0.0024747815914452076,-0.004310310818254948,0.001392691396176815
1686445314500324900,5.290324951171875,0.00009657861664891243,0.0010319906286895275,0.0027530340012162924
1686445314510340900,5.3003408203125,0.000927019864320755,0.00003106193616986275,0.002179360017180443
1686445314520357600,5.310357666015625,0.002727050334215164,-0.000295175239443779,-0.0008260171161964536
1686445314530373600,5.32037353515625,-0.00032936781644821167,0.001106856158003211,-0.0017252370016649365
1686445314540390700,5.330390625,-0.000487559475004673,0.007723213639110327,-0.006277645006775856
1686445314550407700,5.34040771484375,-0.001379882451146841,0.009689845144748688,-0.002776681911200285
1686445314560423700,5.350423583984375,-0.001924765296280384,0.0042077284306287766,0.003930755890905857
1686445314570440700,5.360440673828125,0.0011633164249360561,0.003977518528699875,0.005647148005664349
1686445314580456700,5.370456787109375,-0.00026919785887002945,0.0003886423073709011,0.007536395452916622
1686445314590473700,5.3804736328125,0.00010549090802669525,-0.0030939322896301746,-0.000663787592202425
1686445314600490500,5.390490478515625,-0.0010833442211151123,-0.0033916737884283066,-0.00660370197147131
1686445314610506800,5.4005068359375,-0.007047767750918865,-0.002950234105810523,-0.006224215961992741
1686445314620523800,5.410523681640625,-0.004235203377902508,-0.006517538335174322,-0.0062351347878575325
1686445314630540500,5.42054052734375,-0.00681292125955224,-0.003205324290320277,-0.0013826321810483932
1686445314640556500,5.430556640625,-0.005857645999640226,0.0029468440916389227,-0.0016340345609933138
1686445314650573800,5.44057373046875,-0.005210148170590401,0.0095441909506917,-0.0037309136241674423
1686445314660589600,5.450589599609375,-0.005657026544213295,0.010332486592233181,-0.00224247295409441
1686445314670606600,5.460606689453125,-0.0034365826286375523,0.004869247321039438,0.00004135281778872013
1686445314680623900,5.470623779296875,0.002747810212895274,-0.0012602843344211578,0.0017481727991253138
1686445314690639600,5.4806396484375,0.0008105579763650894,-0.0019728841725736856,-0.0026477049104869366
1686445314700656600,5.49065673828125,0.0006840578280389309,0.00544295459985733,-0.00936126708984375
1686445314710672600,5.500672607421875,0.003938555717468262,0.002915777498856187,-0.0011176117695868015
1686445314720689700,5.510689697265625,0.003426429582759738,-0.002332247793674469,0.006489174906164408
1686445314730706700,5.520706787109375,0.0019650314934551716,-0.007231675088405609,-0.00057791150175035
1686445314740722700,5.53072265625,-0.0001740194857120514,-0.006408758461475372,-0.0050773220136761665
1686445314750739500,5.540739501953125,-0.0002239355817437172,-0.0019127068808302283,-0.004732550121843815
1686445314760755700,5.550755615234375,-0.0018945364281535149,-0.0008085602894425392,0.00020148861221969128
1686445314770772700,5.560772705078125,-0.0030004256404936314,0.0017912278417497873,0.0022317387629300356
1686445314780789500,5.57078955078125,-0.0027903025038540363,0.0007046579848974943,0.009384989738464355
1686445314790805500,5.580805419921875,0.0005168113857507706,0.0018170604016631842,0.01645488291978836
1686445314800822800,5.59082275390625,0.00019084056839346886,-0.0019446546211838722,0.01266014389693737
1686445314810839600,5.600839599609375,0.0034044308122247458,-0.004521487280726433,0.004024269990622997
1686445314820855600,5.61085546875,0.005534959491342306,-0.0018596580484881997,-0.0016764927422627807
1686445314830872800,5.620872802734375,0.004448231775313616,-0.0012731803581118584,-0.0043323710560798645
1686445314840888800,5.630888916015625,0.005624017212539911,0.0018389897886663675,-0.006919898092746735
1686445314850905600,5.640905517578125,0.006147411186248064,0.002177109709009528,-0.013709799386560917
1686445314860922600,5.650922607421875,-0.00028279097750782967,0.0010058514308184385,-0.01593780145049095
1686445314870939000,5.66093896484375,-0.0003651590086519718,-0.0020214158575981855,-0.017779989168047905
1686445314880955600,5.67095556640625,-0.00023386487737298012,-0.007580764591693878,-0.00809247326105833
1686445314890972700,5.68097265625,0.0018514201510697603,-0.014300624839961529,-0.006331820972263813
1686445314900988700,5.69098876953125,-0.001982733141630888,-0.011188721284270287,-0.00043451692909002304
1686445314911005700,5.701005615234375,-0.0007519647479057312,-0.009546872228384018,0.00021861260756850243
1686445314921021700,5.711021728515625,-0.001069946214556694,-0.006188892759382725,-0.004707170184701681
1686445314931038700,5.721038818359375,-0.0007912875153124332,-0.0041133081540465355,-0.005062084179371595
1686445314941055700,5.7310556640625,0.0015885133761912584,0.0024101051967591047,-0.0032804294023662806
1686445314951071700,5.74107177734375,-0.002033224795013666,0.0059381164610385895,-0.0023196761030703783
1686445314961088800,5.7510888671875,-0.003347228281199932,0.009456951171159744,-0.0024363226257264614
1686445314971104500,5.7611044921875,-0.0012181233614683151,0.011238155886530876,-0.003992227837443352
1686445314981121800,5.771121826171875,-0.002836792729794979,0.007192014716565609,0.0006147745298221707
1686445314991138800,5.781138916015625,-0.00032626837491989136,0.003237816272303462,0.003714378923177719
1686445315001154600,5.791154541015625,0.004259694833308458,-0.0004669070476666093,0.0036880136467516422
1686445315011171600,5.801171630859375,0.0009693675674498081,-0.0015975739806890488,0.00613014493137598
1686445315021187800,5.811187744140625,0.002466330537572503,-0.0026340761687606573,0.005763427820056677
1686445315031204600,5.82120458984375,0.0004058261401951313,0.000801002373918891,0.0031828174833208323
1686445315041221600,5.8312216796875,0.002118771430104971,0.002812754362821579,0.0026227550115436316
1686445315051237600,5.841237548828125,-0.0002250908873975277,0.005345461890101433,0.0021894308738410473
1686445315061254700,5.851254638671875,-0.00032016588374972343,0.00992876198142767,-0.0032844305969774723
1686445315071271700,5.861271728515625,-0.000248477328568697,0.00977819412946701,-0.009838387370109558
1686445315081287700,5.87128759765625,0.0002876170910894871,0.004747482482343912,-0.009268738329410553
1686445315091304700,5.8813046875,0.001269269036129117,-0.002627059817314148,-0.005652442574501038
1686445315101320700,5.89132080078125,-0.0016543492674827576,-0.010201356373727322,-0.0034228439908474684
1686445315111337700,5.901337646484375,0.00136925233528018,-0.01377968117594719,-0.004472553730010986
1686445315121354500,5.9113544921875,-0.0009612799622118473,-0.012049691751599312,-0.007196701131761074
1686445315131370800,5.921370849609375,0.0009474675171077251,-0.009946942329406738,-0.008279470726847649
1686445315141387800,5.9313876953125,0.0012942112516611814,-0.005037936847656965,-0.009763117879629135
1686445315151403800,5.94140380859375,-0.003005080856382847,0.00023501901887357235,-0.007157106883823872
1686445315161420500,5.951420654296875,-0.000365622341632843,0.00036950851790606976,-0.006944320164620876
1686445315171437800,5.961437744140625,-0.0008308999240398407,-0.001558599527925253,-0.00611450057476759
1686445315181453800,5.971453857421875,-0.0014120014384388924,-0.004047856200486422,-0.005834869109094143
1686445315191470600,5.981470703125,0.002590387361124158,-0.00491849472746253,-0.00271878344938159
1686445315201488000,5.99148779296875,-0.0022432501427829266,-0.006968596018850803,0.00008525874000042677
1686445315211503900,6.00150390625,0.0015319488011300564,-0.0017648101784288883,0.003990417346358299
1686445315221520600,6.011520751953125,-0.0016470667906105518,0.0003737080842256546,-0.0030818728264421225
1686445315231536600,6.02153662109375,-0.004263744223862886,-0.003956601954996586,-0.0030407162848860025
1686445315241553700,6.0315537109375,-0.0017928630113601685,-0.004645029082894325,-0.002884921384975314
1686445315251570700,6.04157080078125,-0.0029953885823488235,-0.003981153015047312,-0.0038208486512303352
1686445315261586700,6.051586669921875,-0.003737611696124077,-0.0012045411858707666,-0.0008245263015851378
1686445315271603700,6.061603759765625,-0.005663342773914337,0.005179588682949543,0.003982212860137224
1686445315281619700,6.07161962890625,-0.004685962572693825,0.0036245689261704683,0.007554310839623213
1686445315291636700,6.08163671875,-0.0006886869668960571,0.0062258196994662285,0.007011687848716974
1686445315301653500,6.091653564453125,-0.0011827033013105392,0.006211439147591591,0.00877469964325428
1686445315311669500,6.10166943359375,-0.00016487622633576393,0.005693192593753338,0.004425748251378536
1686445315321686800,6.111686767578125,-0.001699922140687704,0.005275076255202293,0.0011692348634824157
1686445315331702800,6.121702880859375,-0.002096936572343111,0.0018657862674444914,-0.005692086648195982
1686445315341719600,6.131719482421875,0.002208063378930092,-0.002813387895002961,-0.005236153490841389
1686445315351736800,6.14173681640625,0.0014440256636589766,-0.002175581641495228,-0.004901106469333172
1686445315361752800,6.1517529296875,0.0008512060157954693,-0.0051908125169575214,-0.00823085755109787
1686445315371769600,6.16176953125,0.001174400094896555,-0.002744156401604414,-0.005153436679393053
1686445315381786600,6.17178662109375,0.0012841224670410156,-0.0034083486534655094,0.0017241764580830932
1686445315391803000,6.181802978515625,0.0045322272926568985,-0.0038059689104557037,0.005319306626915932
1686445315401819600,6.191819580078125,0.002391312038525939,0.0020391372963786125,0.0075507694855332375
1686445315411835600,6.201835693359375,0.0015244530513882637,-0.006086433306336403,0.006679649464786053
1686445315421852700,6.211852783203125,-0.00018875859677791595,-0.00784704927355051,0.0018971444806084037
1686445315431869700,6.22186962890625,-0.0005984744057059288,-0.010884128510951996,-0.004577655345201492
1686445315441885700,6.2318857421875,-0.0020517613738775253,-0.01124418806284666,-0.004874597303569317
1686445315451902700,6.24190283203125,-0.001328454352915287,-0.004867628216743469,-0.003359273774549365
1686445315461918700,6.251918701171875,0.002176265697926283,-0.002282764296978712,-0.0028663226403295994
1686445315471935700,6.261935791015625,0.0014777944888919592,0.00445907935500145,-0.0011881855316460133
1686445315481952800,6.271952880859375,0.0025262811686843634,0.009145976044237614,-0.0005567501066252589
1686445315491968500,6.281968505859375,0.0017944744322448969,0.010634243488311768,0.002303255256265402
1686445315501985800,6.29198583984375,-0.002554467413574457,0.010168989188969135,0.0002670023823156953
1686445315512001800,6.302001708984375,0.00036713480949401855,0.00994171854108572,-0.00476679764688015
1686445315522018600,6.3120185546875,-0.004776494111865759,0.0084034763276577,-0.0051439013332128525
1686445315532035300,6.322035400390625,0.0002803914248943329,0.0037592416629195213,-0.004418376833200455
1686445315542051300,6.33205126953125,-0.0015476024709641933,0.0014111325144767761,0.0026637676637619734
1686445315552068400,6.342068359375,-0.000031418632715940475,-0.0032694144174456596,0.003269679844379425
1686445315562085400,6.35208544921875,-0.0001193028874695301,-0.0024832491762936115,0.0019317077239975333
1686445315572101400,6.362101318359375,-0.0016945921815931797,0.0020357768516987562,0.0015923850005492568
1686445315582118400,6.372118408203125,0.0012388797476887703,0.004260847344994545,0.0016898567555472255
1686445315592134100,6.382134033203125,-0.00022796029224991798,0.004825796000659466,-0.0010084222303703427
1686445315602151400,6.3921513671875,0.001929466612637043,0.0006968316156417131,0.0007567208958789706
1686445315612168200,6.402168212890625,0.0035429312847554684,0.0013991172891110182,0.000243652262724936
1686445315622184200,6.41218408203125,-0.00015406915917992592,0.002803668612614274,-0.0006029666401445866
1686445315632201500,6.422201416015625,0.004261833615601063,-0.0023752169217914343,-0.0008891484467312694
1686445315642217500,6.432217529296875,0.0012055900879204273,-0.00366471940651536,-0.0005932712811045349
1686445315652234200,6.442234130859375,0.004279440268874168,-0.004374359734356403,0.0036893938668072224
1686445315662251300,6.452251220703125,-0.000443942379206419,-0.0003386054886505008,0.0036332011222839355
1686445315672267500,6.462267578125,-0.00013977941125631332,0.005024295300245285,0.0024771597236394882
1686445315682284300,6.4722841796875,0.002395816147327423,0.007025926373898983,0.0042689344845712185
1686445315692301300,6.48230126953125,-0.001350262202322483,0.00770764471963048,-0.0014470878522843122
1686445315702317300,6.4923173828125,-0.00032893987372517586,0.005249014124274254,-0.0005935447406955063
1686445315712334300,6.502334228515625,0.0011106664314866066,0.008595777675509453,-0.00521209929138422
1686445315722350300,6.512350341796875,-0.003329888451844454,0.006760858930647373,-0.004778004251420498
1686445315732367400,6.522367431640625,0.0010124878026545048,0.006884614005684853,-0.0004332370590418577
1686445315742384400,6.53238427734375,-0.0013103215023875237,0.0041482169181108475,-0.0028934653382748365
1686445315752400400,6.542400390625,0.00018653320148587227,0.0035441620275378227,0.0019233020721003413
1686445315762417400,6.55241748046875,0.002897365018725395,-0.001595472451299429,0.003025850746780634
1686445315772433400,6.562433349609375,0.0006915689446032047,-0.003552425652742386,0.004705585539340973
1686445315782450400,6.572450439453125,0.00032618315890431404,0.0022330256178975105,0.004410240799188614
1686445315792467500,6.582467529296875,-0.0006216280162334442,0.0023077058140188456,-0.00028117059264332056
1686445315802483200,6.592483154296875,0.001452708151191473,0.0045317113399505615,0.001609673723578453
1686445315812500200,6.602500244140625,0.0004680580459535122,0.006490244530141354,-0.000752337567973882
1686445315822517500,6.612517578125,0.0032958025112748146,0.004459051415324211,-0.001689770258963108
1686445315832533200,6.622533203125,0.000006200745701789856,-0.0017575991805642843,-0.004655024036765099
1686445315842550300,6.63255029296875,0.00029408838599920273,-0.0060807084664702415,-0.001861900556832552
1686445315852566300,6.642566162109375,0.0031496742740273476,-0.008944149129092693,-0.0027922652661800385
1686445315862583300,6.652583251953125,0.0008055600337684155,-0.008300730027258396,0.0003641133662313223
1686445315872600300,6.662600341796875,0.0016420057509094477,-0.007185203023254871,0.005546567961573601
1686445315882616300,6.6726162109375,-0.0013681654818356037,-0.003811776638031006,0.00409727543592453
1686445315892633300,6.68263330078125,0.0021556513383984566,0.002211270621046424,0.0044658007100224495
1686445315902649300,6.6926494140625,0.0006179423071444035,0.004717305302619934,0.0036098610144108534
1686445315912666400,6.702666259765625,-0.0006174091249704361,0.01042435597628355,-0.0015554999699816108
1686445315922683100,6.71268310546875,0.0006228247657418251,0.009895185939967632,-0.0030186406802386045
1686445315932699400,6.722699462890625,-0.002544256392866373,0.009780064225196838,-0.004967067390680313
1686445315942716400,6.73271630859375,-0.0018315943889319897,0.00671902671456337,-0.002964103827252984
1686445315952733200,6.742733154296875,0.0019855727441608906,0.005682443268597126,-0.002840180415660143
1686445315962749200,6.752749267578125,-0.0008773254230618477,0.0046499352902174,0.0034320964477956295
1686445315972766500,6.762766357421875,0.003216708078980446,0.006290575955063105,0.005259816534817219
1686445315982782500,6.772782470703125,0.0019876593723893166,0.007850123569369316,0.0032254282850772142
1686445315992799200,6.78279931640625,0.0008279229514300823,0.0088151004165411,0.004635587800294161
1686445316002816500,6.79281640625,0.0015906521584838629,0.007169799879193306,0.005718162748962641
1686445316012832500,6.80283251953125,-0.0010156100615859032,0.006004850380122662,0.003431391902267933
1686445316022849300,6.812849365234375,-0.00021426519379019737,0.00005454942584037781,-0.0017170313512906432
1686445316032865300,6.822865234375,-0.002534352708607912,-0.00017723836936056614,-0.002808431163430214
1686445316042882600,6.832882568359375,-0.0021529877558350563,-0.0017138824332505465,-0.004959466401487589
1686445316052899300,6.8428994140625,-0.0005367258563637733,0.0013726099859923124,-0.0026457395870238543
1686445316062915300,6.852915283203125,0.0021296311169862747,-0.0004748248029500246,-0.002338410820811987
1686445316072932400,6.862932373046875,0.0021624506916850805,0.00024800701066851616,0.0011855765478685498
1686445316082948400,6.8729482421875,0.002184554934501648,-0.001505151973105967,0.004499347414821386
1686445316092965400,6.88296533203125,0.001034177839756012,-0.0026691376697272062,0.00596053758636117
1686445316102982400,6.892982421875,0.002609704155474901,-0.006062803789973259,0.0015087976353242993
1686445316112998100,6.902998046875,0.0001931535080075264,-0.004465685226023197,-0.0035722688771784306
1686445316123015400,6.913015380859375,0.002414496149867773,-0.003184172324836254,0.0006171498680487275
1686445316133032400,6.923032470703125,-0.0006636800244450569,0.00041339127346873283,0.0038348769303411245
1686445316143048200,6.933048095703125,-0.00006739841774106026,-0.0037174378521740437,0.002631128067150712
1686445316153065500,6.9430654296875,-0.0001911385916173458,-0.0009057354182004929,0.005375592969357967
1686445316163081500,6.95308154296875,-0.002169334329664707,-0.001968070399016142,-0.00009720318485051394
1686445316173098200,6.96309814453125,-0.00025750789791345596,-0.0026409286074340343,0.003348530735820532
1686445316183115300,6.973115234375,-0.0036684847436845303,0.0009149238467216492,-0.004693683236837387
1686445316193131500,6.983131591796875,-0.00023265834897756577,0.0038075384218245745,-0.006647138856351376
1686445316203148300,6.993148193359375,-0.002823913935571909,0.005087719298899174,-0.005111027508974075
1686445316213164300,7.003164306640625,0.0021971685346215963,0.005278513766825199,0.0007109362632036209
1686445316223181300,7.013181396484375,-0.0005898294039070606,0.004838825203478336,0.004341091029345989
1686445316233198300,7.0231982421875,0.00006082514300942421,0.003007574239745736,0.0019451099215075374
1686445316243214300,7.03321435546875,-0.0013168281875550747,-0.001966677838936448,-0.0002189746592193842
1686445316253231400,7.0432314453125,-0.0031570852734148502,-0.004397149197757244,0.0007109298603609204
1686445316263248400,7.053248291015625,-0.004828218836337328,-0.005348430015146732,0.0055307187139987946
1686445316273264400,7.063264404296875,-0.0020586573518812656,-0.00469750352203846,0.0022106487303972244
1686445316283281400,7.073281494140625,-0.0026299054734408855,-0.00384129723533988,0.00153633626177907
1686445316293297400,7.08329736328125,-0.0014970810152590275,-0.0029870779253542423,0.0009183317888528109
1686445316303314400,7.093314453125,-0.0030755368061363697,-0.004581778775900602,0.00012737291399389505
1686445316313331500,7.10333154296875,0.0012165317311882973,-0.0033398326486349106,0.000881596002727747
1686445316323347500,7.113347412109375,0.00039441371336579323,-0.005775293335318565,0.0013889281544834375
1686445316333364200,7.1233642578125,0.002349711721763015,-0.0013249472249299288,0.0006635470781475306
1686445316343380500,7.13338037109375,0.00535242585465312,-0.00010095839388668537,0.003006596118211746
1686445316353397200,7.143397216796875,0.003127711359411478,-0.0015441046562045813,0.0011761841597035527
1686445316363414300,7.153414306640625,0.0033317096531391144,-0.000674582552164793,0.0010313083184882998
1686445316373430300,7.16343017578125,0.0007269107736647129,-0.00045818137004971504,-0.005472412798553705
1686445316383447300,7.173447265625,0.0005697840824723244,0.0002853730693459511,-0.00252322806045413
1686445316393464300,7.18346435546875,0.0008854931220412254,-0.001619707210920751,0.0006777417147532105
1686445316403480300,7.193480224609375,-0.001692713238298893,-0.002488696714863181,0.0035219979472458363
1686445316413497300,7.203497314453125,-0.000012462027370929718,-0.0011670425301417708,0.0027176644653081894
1686445316423513300,7.213513427734375,0.0013404237106442451,-0.00468640960752964,0.0027685309760272503
1686445316433530400,7.2235302734375,0.0005379598587751389,-0.0018063741736114025,0.00741684902459383
1686445316443547100,7.233547119140625,-0.000014912337064743042,0.0012647833209484816,0.0027613777201622725
1686445316453563400,7.2435634765625,0.0021361536346375942,0.0023795824963599443,0.0005086096934974194
1686445316463580400,7.253580322265625,0.00018671993166208267,0.0032246035989373922,0.0018692186567932367
1686445316473596400,7.263596435546875,-0.0008996548131108284,0.003727263305336237,-0.003043897682800889
1686445316483613200,7.27361328125,0.0007059653289616108,0.001697668107226491,-0.0030913017690181732
1686445316493630500,7.28363037109375,0.0011698533780872822,0.0005522426217794418,-0.002660668920725584
1686445316503646500,7.293646484375,-0.0008986238390207291,0.005599997937679291,0.0015394025249406695
1686445316513663200,7.303663330078125,0.001883598743006587,0.005614697001874447,-0.000906897708773613
1686445316523680300,7.31368017578125,-0.0017396318726241589,0.005413095932453871,0.0008787518600001931
1686445316533696500,7.323696533203125,0.0011430545710027218,0.007396780885756016,0.0014306660741567612
1686445316543713300,7.33371337890625,-0.0005744178779423237,0.002833455102518201,0.0032788999378681183
1686445316553729300,7.343729248046875,-0.0012886617332696915,0.0010477043688297272,-0.0008478395757265389
1686445316563746300,7.353746337890625,0.0002098991535604,0.0009137473534792662,-0.0029922169633209705
1686445316573763300,7.363763427734375,-0.004859373439103365,0.0008955548983067274,-0.000619255006313324
1686445316583779300,7.373779296875,-0.0004563690163195133,0.0013070132117718458,-0.003319700248539448
1686445316593796400,7.38379638671875,0.0001720893196761608,0.002418770221993327,0.0018619976472109556
1686445316603812000,7.39381201171875,-0.0008007637225091457,-0.00044492713641375303,0.0007799551822245121
1686445316613829400,7.403829345703125,0.003042612923309207,-0.00014657084830105305,0.004336786922067404
1686445316623846400,7.413846435546875,0.002357647754251957,0.0019583916291594505,0.0057770246639847755
1686445316633862100,7.423862060546875,0.0020948650781065226,-0.0012016629334539175,0.004435951355844736
1686445316643879400,7.43387939453125,0.0025523961521685123,0.0022508592810481787,0.005747824441641569
1686445316653896400,7.443896484375,0.001745790708810091,0.0007578178774565458,-0.0001082736998796463
1686445316663912200,7.453912109375,0.0009979750029742718,0.0002992216031998396,0.0022747227922081947
1686445316673929200,7.46392919921875,-0.0009518465958535671,-0.0013471238780766726,0.0002419104566797614
1686445316683945500,7.473945556640625,0.001636745873838663,0.0017796936444938183,0.00004270602948963642
1686445316693962200,7.483962158203125,0.0013409398961812258,0.0048614926636219025,0.0012058523716405034
1686445316703979300,7.493979248046875,0.000320682767778635,0.005842867307364941,0.0036082901060581207
1686445316713995300,7.503995361328125,-0.002599668689072132,0.005055575631558895,0.004252040293067694
1686445316724012300,7.51401220703125,-0.0008046980947256088,0.006275836378335953,0.004519954323768616
1686445316734028300,7.5240283203125,0.0016833427362143993,0.005538642406463623,0.00304872402921319
1686445316744045300,7.53404541015625,0.0019752250518649817,0.0031963924411684275,0.003562713973224163
1686445316754062300,7.544062255859375,0.0022640072274953127,0.003501089056953788,0.001389142475090921
1686445316764078300,7.554078369140625,0.0013076660688966513,-0.0011975261149927974,0.003121262416243553
1686445316774095400,7.564095458984375,0.0006799083203077316,0.0010201805271208286,0.0000794361112639308
1686445316784112000,7.574112060546875,0.003362776944413781,-0.0015801299596205354,0.000624851556494832
1686445316794128400,7.58412841796875,0.0013722237199544907,0.0013876555021852255,-0.0006694017793051898
1686445316804145400,7.5941455078125,0.0017218966968357563,0.005110754631459713,-0.002880358137190342
1686445316814161400,7.604161376953125,-0.0008470700122416019,0.004221535287797451,0.00046256405767053366
1686445316824178200,7.61417822265625,-0.0004851464182138443,0.005760309286415577,-0.0029705166816711426
1686445316834195500,7.624195556640625,0.0034315811935812235,0.0009697235655039549,-0.0019790579099208117
1686445316844211500,7.63421142578125,-0.0008720871992409229,-0.0026966503355652094,0.0011741247726604342
1686445316854228200,7.644228271484375,0.0026260267477482557,-0.00357251288369298,-0.0008668428636156023
1686445316864244200,7.654244140625,-0.00353865884244442,-0.0007977652130648494,0.0010421110782772303
1686445316874261500,7.664261474609375,0.00017471006140112877,0.003837773809209466,-0.0015092403627932072
1686445316884278300,7.6742783203125,0.0010410365648567677,0.0016646345611661673,0.0025629992596805096
1686445316894294300,7.684294189453125,-0.0007384126074612141,0.0037576959002763033,0.00394456135109067
1686445316904311300,7.694311279296875,0.00028610555455088615,0.0030647411476820707,0.004192501772195101
1686445316914328300,7.704328369140625,0.00033256132155656815,0.002932801144197583,0.002579676453024149
1686445316924344300,7.71434423828125,0.0029608351178467274,0.004686226136982441,0.004628978669643402
1686445316934361300,7.724361328125,0.00110170291736722,0.0033322367817163467,0.0015253626042976975
1686445316944377000,7.734377197265625,-0.0014589265920221806,0.003833443857729435,0.001678494387306273
1686445316954394400,7.744394287109375,0.0035393680445849895,0.004662575200200081,0.0005296540912240744
1686445316964411100,7.7544111328125,0.0019124432001262903,0.006873531267046928,0.0013925184030085802
1686445316974427100,7.76442724609375,0.0013258643448352814,0.006263535004109144,0.0040223971009254456
1686445316984444400,7.7744443359375,0.000012127216905355453,0.0066920374520123005,0.003209866816177964
1686445316994460400,7.78446044921875,0.0007777456194162369,0.005586457438766956,0.0014517414383590221
1686445317004477200,7.794477294921875,0.0012501904275268316,0.0027443317230790854,0.0005300214979797602
1686445317014494500,7.804494384765625,-0.0010409941896796227,0.00011846539564430714,0.0009352107299491763
1686445317024510500,7.814510498046875,-0.0017392751760780811,-0.003734063357114792,-0.0032478163484483957
1686445317034527200,7.82452734375,0.0017597561236470938,-0.0004925845423713326,0.0013632987393066287
1686445317044544300,7.834544189453125,-0.0009966157376766205,-0.0005522393621504307,0.0006740725366398692
1686445317054560300,7.844560302734375,-0.0015321336686611176,0.0012296922504901886,0.0007109467405825853
1686445317064577300,7.854577392578125,-0.00017818249762058258,0.0033032293431460857,0.004138967953622341
1686445317074593300,7.86459326171875,0.0014393513556569815,0.00147887016646564,-0.0013343991013243794
1686445317084610300,7.8746103515625,-0.002325559500604868,-0.0004987932043150067,-0.00610199011862278
1686445317094627300,7.88462744140625,-0.0011864397674798965,0.0004187976010143757,-0.003361857496201992
1686445317104643300,7.894643310546875,-0.0013459627516567707,-0.004009240306913853,-0.00038124772254377604
1686445317114660400,7.904660400390625,-0.0013380376622080803,-0.0028597477357834578,-0.0006823932635597885
1686445317124676400,7.91467626953125,0.0010500187054276466,-0.00446137273684144,0.0022002123296260834
1686445317134693400,7.924693359375,-0.0009992383420467377,0.0003239377401769161,0.0016954060411080718
1686445317144710400,7.93471044921875,-0.0021886061877012253,0.001046719728037715,0.0022823666222393513
1686445317154726100,7.94472607421875,0.0011134026572108269,0.0026811733841896057,0.004731201101094484
1686445317164743200,7.9547431640625,-0.0011098040267825127,0.0025376291014254093,-0.00039724819362163544
1686445317174760400,7.964760498046875,0.0010863421484827995,-0.00011381390504539013,-0.0021429501939564943
1686445317184776200,7.974776123046875,-0.0022876164875924587,0.00020842859521508217,-0.007648769300431013
1686445317194793200,7.984793212890625,0.000047869980335235596,-0.0018461798317730427,-0.007241860032081604
1686445317204809200,7.994809326171875,0.0010486859828233719,-0.001147898961789906,-0.0021440370474010706
1686445317214826200,8.004826171875,0.0002363547682762146,-0.0003257188946008682,0.0031646438874304295
1686445317224843300,8.01484326171875,0.00029893917962908745,0.0038115016650408506,0.00023543310817331076
1686445317234859300,8.024859375,-0.00039167795330286026,0.005704885348677635,0.00006671750452369452
1686445317244876300,8.034876220703126,0.001329256920143962,0.0018731292802840471,0.0034675742499530315
1686445317254892300,8.044892333984375,-0.0009176735766232014,-0.002643868327140808,-0.00070838478859514
1686445317264909300,8.054909423828125,0.0002650362439453602,-0.005003429017961025,-0.001327303471043706
1686445317274926000,8.064926025390625,-0.0009293332695960999,-0.005903874523937702,-0.005921890027821064
1686445317284942300,8.0749423828125,-0.0018073776736855507,-0.00039699021726846695,-0.004414807073771954
1686445317294959400,8.08495947265625,-0.001986466348171234,0.004386907443404198,-0.0035645239986479282
1686445317304976100,8.09497607421875,-0.0003701937384903431,0.0035346958320587873,-0.001258759293705225
1686445317314992000,8.1049921875,-0.0019250717014074326,-0.00011561624705791473,0.0018248289125040174
1686445317325009400,8.115009521484374,-0.00024488335475325584,-0.0014661052264273167,-0.0015211665304377675
1686445317335025400,8.125025390625,-0.003985143732279539,0.00027894042432308197,-0.0015276954509317875
1686445317345042200,8.135042236328125,-0.003858644049614668,-0.00008138525299727917,-0.0037170802243053913
1686445317355059500,8.1450595703125,-0.0007161819376051426,-0.0010518903145566583,-0.0035003903321921825
1686445317365075500,8.155075439453125,-0.0007526669651269913,-0.003911060281097889,-0.005297491326928139
1686445317375092200,8.16509228515625,0.0006314865313470364,-0.0012571089901030064,-0.0046641649678349495
1686445317385108200,8.175108154296876,-0.003851679153740406,-0.0002847888972610235,-0.004962971433997154
1686445317395125500,8.18512548828125,-0.0011204807087779045,0.0017679550219327211,-0.0007767271599732339
1686445317405142300,8.195142333984375,0.002468927763402462,0.0030627839732915163,-0.0015221459325402975
1686445317415158300,8.205158203125,-0.0011762171052396297,-0.00017472798936069012,0.0006286595016717911
1686445317425175300,8.21517529296875,-0.0017770258709788322,-0.006691482849419117,-0.003200167091563344
1686445317435192300,8.2251923828125,-0.0035664704628288746,-0.006498915608972311,-0.003873435314744711
1686445317445208300,8.235208251953125,-0.001854057889431715,-0.005649367347359657,-0.004123772494494915
1686445317455225300,8.245225341796875,-0.0030817873775959015,-0.005126907490193844,-0.0031664459966123104
1686445317465241000,8.255240966796874,-0.005867986939847469,-0.0032142249401658773,-0.004715074319392443
1686445317475258400,8.26525830078125,-0.0010236920788884163,-0.0030043781735002995,-0.0017654795665293932
1686445317485275400,8.275275390625,-0.000856445636600256,-0.004133292473852634,0.0038916070479899645
1686445317495291100,8.285291015625,-0.0016804574988782406,-0.004486036486923695,0.006206299178302288
1686445317505308400,8.295308349609375,0.0007608621381223202,-0.0032130456529557705,0.005143697839230299
1686445317515324400,8.305324462890624,0.0013609419111162424,-0.0009817281970754266,0.0019403304904699326
1686445317525341400,8.315341552734376,0.004298941232264042,0.0009402751456946135,-0.0004186974838376045
1686445317535358700,8.325358642578125,0.0011059530079364777,0.0010122011881321669,-0.0019681460689753294
1686445317545374700,8.335374755859375,0.0012311218306422234,0.00006757793016731739,0.0004920822102576494
1686445317555391500,8.3453916015625,0.005205628462135792,0.0007719739805907011,-0.00032589701004326344
1686445317565408500,8.355408447265624,0.0018481812439858913,0.00154775264672935,0.0006578746251761913
1686445317575424500,8.365424560546876,0.005160180851817131,0.00488412007689476,0.0038688909262418747
1686445317585441500,8.375441650390625,0.0003814049996435642,0.002056375378742814,0.003298441879451275
1686445317595457500,8.38545751953125,0.0003108144737780094,0.0006389487534761429,0.003061118070036173
1686445317605474600,8.395474609375,-0.0016399510204792023,0.000335614662617445,0.00016066967509686947
1686445317615491600,8.40549169921875,-0.0033990242518484592,-0.002106667961925268,0.0017427456332370639
1686445317625507600,8.415507568359375,-0.000061817467212677,0.0006475732661783695,-0.0034943604841828346
1686445317635524600,8.425524658203125,-0.0036589419469237328,0.0032474652398377657,-0.0016437146114185452
1686445317645540400,8.435540283203125,0.0007792161777615547,0.003733758581802249,-0.0022551764268428087
1686445317655557600,8.4455576171875,-0.0008662594482302666,0.005009862128645182,-0.0013911614660173655
1686445317665574700,8.45557470703125,-0.00018369127064943314,0.006798707414418459,-0.0017839777283370495
1686445317675590400,8.46559033203125,-0.0028505646623671055,0.005987375043332577,-0.00008194439578801394
1686445317685607400,8.475607421875,-0.0024721291847527027,0.005796159617602825,-0.0017871663440018892
1686445317695624700,8.485624755859375,0.00006052060052752495,0.00522318109869957,-0.004215177148580551
1686445317705640400,8.495640380859374,-0.002876946236938238,0.002823406830430031,-0.0035123692359775305
1686445317715657500,8.505657470703126,0.001102326437830925,0.003293209010735154,-0.007293812930583954
1686445317725673500,8.515673583984375,-0.0008276663720607758,0.003445275826379657,-0.006318030878901482
1686445317735690500,8.5256904296875,-0.0037916274741292,0.0015745479613542557,-0.0056893955916166306
1686445317745707500,8.53570751953125,-0.0002096756361424923,0.0015441880095750093,-0.0018120994791388512
1686445317755723500,8.5457236328125,-0.002564139198511839,0.0014354712329804897,0.0006833343068137765
1686445317765740500,8.555740478515625,-0.002024583052843809,0.002433091402053833,0.0008140954887494445
1686445317775757600,8.565757568359375,0.0016052688006311655,0.0019599071238189936,0.0036548373755067587
1686445317785773600,8.575773681640625,-0.0005524242296814919,-0.00018819840624928474,0.0035009069833904505
1686445317795790300,8.585790283203124,0.0015726634301245213,-0.0008834470063447952,0.001650701044127345
1686445317805806600,8.595806640625,0.0013162011746317148,-0.0010155398631468415,0.0014206040650606155
1686445317815823600,8.60582373046875,-0.000050898175686597824,-0.002626250497996807,-0.002920981962233782
1686445317825840400,8.61584033203125,0.001307580154389143,-0.001302393269725144,-0.005996932741254568
1686445317835856400,8.6258564453125,-0.0020473413169384003,-0.0016149240545928478,-0.0026875510811805725
1686445317845873700,8.635873779296874,0.0018368789460510015,0.00016593188047409058,-0.0005407771095633507
1686445317855889700,8.6458896484375,-0.002410215325653553,0.0044862739741802216,0.004644238390028477
1686445317865906400,8.655906494140625,0.001986130839213729,0.002440700074657798,0.002513709245249629
1686445317875923700,8.665923828125,0.0005747471004724503,0.0053543830290436745,0.0064323702827095985
1686445317885939700,8.675939697265624,-0.0005528354085981846,0.0018003943841904402,-0.0018194339936599135
1686445317895956500,8.68595654296875,0.002280843909829855,0.0009469024371355772,-0.005304367281496525
1686445317905973500,8.695973388671876,-0.0037320414558053017,-0.0018070725491270423,-0.0048151444643735886
1686445317915989800,8.70598974609375,0.00025215325877070427,-0.0013685710728168488,-0.003403552807867527
1686445317926006500,8.716006591796875,-0.0036182189360260963,0.0022235005162656307,-0.004762031137943268
1686445317936022500,8.7260224609375,0.0001247720792889595,0.002752771368250251,0.0007961574010550976
1686445317946039600,8.73603955078125,-0.00007150275632739067,0.002636657329276204,0.00518824253231287
1686445317956056600,8.746056640625,0.00016883574426174164,0.001415342092514038,0.00043755187653005123
1686445317966072600,8.756072509765625,-0.0016439780592918396,-0.001893102889880538,0.0011249136878177524
1686445317976089600,8.766089599609375,0.0009893556125462055,0.0006052085664123297,0.002962761092931032
1686445317986105300,8.776105224609376,0.0030756760388612747,0.003483553184196353,-0.0003571354318410158
1686445317996122600,8.78612255859375,0.003756409976631403,0.001781619619578123,-0.004969427362084389
1686445318006139400,8.796139404296875,0.0054810731671750546,0.0040860529989004135,-0.007275458425283432
1686445318016155400,8.8061552734375,0.0033734862226992846,0.0059106964617967606,-0.009661623276770115
1686445318026172700,8.816172607421874,-0.0005554752424359322,0.006345590576529503,-0.014256374910473824
1686445318036189400,8.826189453125,0.0007792324759066105,0.0068697622045874596,-0.01264762319624424
1686445318046205400,8.836205322265625,-0.0004996177740395069,0.0045600030571222305,-0.015759261325001717
1686445318056222500,8.846222412109375,-0.0011413022875785828,0.006833154242485762,-0.017007354646921158
1686445318066238700,8.85623876953125,-0.002875552512705326,-0.002956093056127429,-0.016307475045323372
1686445318076255500,8.86625537109375,-0.0038230624049901962,-0.007155312225222588,-0.014113763347268105
1686445318086272500,8.8762724609375,0.00021588802337646484,-0.008766790851950645,-0.01081144344061613
1686445318096288500,8.88628857421875,-0.0010366402566432953,-0.0062166014686226845,-0.004125111736357212
1686445318106305500,8.896305419921875,0.00032290350645780563,-0.0030327921267598867,-0.00037431588862091303
1686445318116321500,8.906321533203124,0.0018156657461076975,-0.000009120907634496689,-0.0009641343494877219
1686445318126338600,8.916338623046874,0.0028071606066077948,0.002517952583730221,0.000016441568732261658
1686445318136355600,8.92635546875,0.0003662900999188423,0.003285844111815095,-0.00026355020236223936
1686445318146371600,8.93637158203125,0.00388911971822381,0.003030447056517005,-0.0010433237766847014
1686445318156388600,8.946388671875,0.007502829190343618,0.0005268419627100229,-0.005675803869962692
1686445318166405400,8.9564052734375,0.005887089297175407,0.004650480579584837,-0.009770680218935013
1686445318176421600,8.966421630859376,0.006193352863192558,0.0034488625824451447,-0.0146615756675601
1686445318186438700,8.976438720703126,0.009674370288848877,0.006540259812027216,-0.015845883637666702
1686445318196454400,8.986454345703125,0.007643605582416058,0.004581359680742025,-0.016678238287568092
1686445318206471400,8.996471435546875,0.007214570418000221,0.002707559149712324,-0.013779121451079845
1686445318216488700,9.00648876953125,0.004529883619397879,0.0011285298969596624,-0.014886154793202877
1686445318226504400,9.01650439453125,0.0037948512472212315,-0.000046723056584596634,-0.014990816824138165
1686445318236521500,9.026521484375,0.004475745372474194,0.0009681563824415207,-0.012311755679547787
1686445318246538800,9.036538818359375,0.00743425078690052,-0.000029463786631822586,-0.008307693526148796
1686445318256554500,9.046554443359375,0.005309137515723705,-0.00030748441349714994,-0.012698868289589882
1686445318266571500,9.056571533203124,0.005317126866430044,-0.0005932416534051299,-0.01985131949186325
1686445318276587500,9.06658740234375,0.011792323552072048,0.0005990935023874044,-0.022889751940965652
1686445318286604500,9.0766044921875,0.0040318723767995834,0.0034625243861228228,-0.031088560819625854
1686445318296621600,9.08662158203125,0.006735171191394329,0.004489388316869736,-0.03607647493481636
1686445318306637600,9.096637451171874,0.004653378389775753,0.010385625995695591,-0.035333454608917236
1686445318316654300,9.106654296875,0.00999554805457592,0.013982996344566345,-0.029267150908708572
1686445318326670600,9.116670654296875,0.006564331240952015,0.011087873950600624,-0.019586026668548584
1686445318336687600,9.1266875,0.00769166462123394,0.007555321324616671,-0.014504976570606232
1686445318346704400,9.136704345703125,0.007612301968038082,0.0025421874597668648,-0.014251177199184895
1686445318356720400,9.146720458984374,0.0017955866642296314,-0.00023989437613636255,-0.016312314197421074
1686445318366737700,9.156737548828126,-0.0012321611866354942,-0.005050095729529858,-0.02044607140123844
1686445318376754400,9.16675439453125,-0.001539088785648346,-0.008833145722746849,-0.024480342864990234
1686445318386770400,9.1767705078125,-0.002666937652975321,-0.005041869357228279,-0.02817920595407486
1686445318396787700,9.18678759765625,-0.0018329410813748837,-0.0018456883262842894,-0.02756200172007084
1686445318406803700,9.1968037109375,0.0002571078948676586,0.0009889802895486355,-0.0251702181994915
1686445318416820500,9.206820556640626,0.0006761113181710243,0.006708932109177113,-0.0169430673122406
1686445318426837500,9.21683740234375,0.0008430914022028446,0.004683065693825483,-0.013154454529285431
1686445318436853800,9.226853759765625,0.0014888267032802105,0.0036589130759239197,-0.009784054942429066
1686445318446870500,9.23687060546875,0.0023117433302104473,-0.0021656863391399384,-0.009773668833076954
1686445318456886500,9.246886474609376,0.0026839550118893385,-0.00357639417052269,-0.012549582868814468
1686445318466903600,9.256903564453125,0.003480240236967802,-0.0035984981805086136,-0.01225556991994381
1686445318476920600,9.266920654296875,0.00169211789034307,-0.00435435539111495,-0.013144079595804214
1686445318486936600,9.2769365234375,0.0022673606872558594,-0.0002733273431658745,-0.015267417766153812
1686445318496953600,9.28695361328125,0.00032371003180742264,0.0019407735671848059,-0.015224620699882507
1686445318506970600,9.296970703125,0.00002730032429099083,0.00038309069350361824,-0.015693869441747665
1686445318516986600,9.306986572265625,-0.00043122703209519386,-0.0028069051913917065,-0.01772473007440567
1686445318527003600,9.317003662109375,-0.003033934161067009,-0.002933405339717865,-0.019552724435925484
1686445318537019400,9.327019287109374,-0.00417066365480423,-0.004275290295481682,-0.01800817809998989
1686445318547036700,9.33703662109375,-0.008058345876634121,0.0005871092434972525,-0.0184305552393198
1686445318557053400,9.347053466796876,-0.007066661026328802,-0.0034526907838881016,-0.019478321075439453
1686445318567069400,9.3570693359375,-0.0029243803583085537,-0.0037067565135657787,-0.015717938542366028
1686445318577086500,9.36708642578125,-0.0038782255724072456,-0.004121113568544388,-0.009917739778757095
1686445318587102700,9.377102783203124,0.0030787503346800804,-0.010122546926140785,-0.005199683830142021
1686445318597119500,9.387119384765626,-0.003843772690743208,-0.006631910800933838,-0.00005089340265840292
1686445318607136500,9.397136474609376,0.00046309176832437515,-0.005765052512288094,0.0008876045467332006
1686445318617152500,9.407152587890625,-0.002261742949485779,-0.001701074419543147,-0.002373301889747381
1686445318627169500,9.41716943359375,-0.0026518958620727062,0.005136857740581036,-0.008045302703976631
1686445318637186600,9.4271865234375,-0.0009540515020489693,0.00992198009043932,-0.012545725330710411
1686445318647202600,9.43720263671875,-0.0039005731232464314,0.014067989774048328,-0.014510339125990868
1686445318657219600,9.447219482421875,-0.0023530200123786926,0.015063194558024406,-0.0075232600793242455
1686445318667235600,9.457235595703125,0.0001338399015367031,0.013871697708964348,-0.005996735766530037
1686445318677252600,9.467252685546875,-0.0009508952498435974,0.008924249559640884,-0.0011008185101673007
1686445318687269400,9.477269287109374,-0.00031386688351631165,0.0015491568483412266,0.0014150697970762849
1686445318697285600,9.48728564453125,0.0006623724475502968,0.00008676317520439625,0.004428889602422714
1686445318707302700,9.497302734375,0.001953472848981619,-0.006844379939138889,0.0033582986798137426
1686445318717319400,9.5073193359375,0.0014866134151816368,-0.004745389334857464,-0.0001325877383351326
1686445318727335400,9.51733544921875,0.002402740763500333,0.002634496195241809,-0.003038096474483609
1686445318737352700,9.527352783203124,0.0014229710213840008,0.0063457246869802475,-0.002074283780530095
1686445318747368400,9.537368408203125,0.0018341632094234228,0.004913476295769215,0.0016107321716845036
1686445318757385500,9.547385498046875,0.00551498681306839,0.0031669132877141237,-0.0004190646577626467
1686445318767402800,9.55740283203125,0.0014430135488510132,-0.004668106324970722,-0.0007610145257785916
1686445318777418500,9.56741845703125,0.00352791091427207,-0.004382799379527569,0.0004953789757564664
1686445318787435500,9.577435546875,0.004759090021252632,-0.0016354823019355536,0.0008650257950648665
1686445318797451500,9.587451416015625,0.008506400510668755,-0.0015206793323159218,-0.0010583305265754461
1686445318807468500,9.597468505859375,0.00658493023365736,-0.0006570161785930395,-0.002033846452832222
1686445318817485600,9.607485595703125,0.005360881797969341,-0.002772816689684987,-0.003303447738289833
1686445318827501600,9.61750146484375,0.009575334377586842,-0.0010010156547650695,-0.0042597888968884945
1686445318837518300,9.627518310546876,0.0049712383188307285,0.00044057401828467846,-0.008139237761497498
1686445318847535600,9.63753564453125,0.000557315070182085,0.004674733616411686,-0.0089102229103446
1686445318857551600,9.647551513671875,-0.0027195755392313004,0.0059838006272912025,-0.004986184183508158
1686445318867568400,9.657568359375,0.0013393478002399206,0.007375569082796574,0.0009308271110057831
1686445318877584400,9.66758447265625,-0.0016380888409912586,0.008704773150384426,-0.0008545773453079164
1686445318887601700,9.6776015625,-0.001544345635920763,0.007842708379030228,-0.000829543627332896
1686445318897618400,9.687618408203125,-0.004251541569828987,0.010972271673381329,-0.00006902986206114292
1686445318907634400,9.697634521484375,-0.009111277759075165,0.007537592202425003,-0.0028584247920662165
1686445318917651700,9.707651611328124,-0.0056638517417013645,0.008006635122001171,-0.0000251400051638484
1686445318927668500,9.71766845703125,-0.006630579475313425,0.006724855862557888,-0.0036659473553299904
1686445318937684500,9.7276845703125,-0.003363695926964283,0.0073961056768894196,-0.0019527424592524767
1686445318947701500,9.737701416015625,-0.0019277194514870644,0.011474470607936382,0.0023890091106295586
1686445318957717800,9.7477177734375,-0.0014941710978746414,0.012776531279087067,0.001981250010430813
1686445318967734500,9.757734619140624,0.0013697922695428133,0.016601363196969032,0.0038510554004460573
1686445318977751600,9.76775146484375,0.0020933181513100863,0.015755563974380493,0.005564231891185045
1686445318987767600,9.777767578125,0.002051240298897028,0.012226610444486141,0.00822792574763298
1686445318997784600,9.78778466796875,0.00519993482157588,0.010419233702123165,0.00624709390103817
1686445319007800600,9.797800537109374,0.004675026051700115,0.00587401632219553,0.0013625900028273463
1686445319017817600,9.807817626953126,0.005697245709598064,0.001863326644524932,0.00148120173253119
1686445319027834600,9.817834716796876,0.006344127468764782,-0.0036803092807531357,0.0017291419208049774
1686445319037850600,9.8278505859375,0.006295171566307545,-0.006443379446864128,-0.00254225917160511
1686445319047867600,9.83786767578125,0.006719679571688175,-0.006786661222577095,0.0005392845487222075
1686445319057884400,9.847884521484374,0.0024251872673630714,-0.00781729444861412,0.0015106619102880359
1686445319067900700,9.857900634765626,0.006239899434149265,-0.011527078226208687,0.005841494537889957
1686445319077917700,9.867917724609375,0.0013296161778271198,-0.013477504253387451,0.0066772522404789925
1686445319087933400,9.877933349609375,0.0028422914911061525,-0.01623733714222908,0.005298533942550421
1686445319097950500,9.887950439453125,0.0007171118631958961,-0.014568356797099113,0.00048089679330587387
1686445319107967500,9.897967529296874,0.00022256281226873398,-0.010773617774248123,-0.005998041480779648
1686445319117983500,9.9079833984375,-0.004811390303075314,-0.007475784048438072,-0.009444747120141983
1686445319128000500,9.91800048828125,-0.004464913159608841,-0.0010929858544841409,-0.006487839389592409
1686445319138016500,9.9280166015625,-0.0009463904425501823,0.003855208633467555,-0.009100442752242088
1686445319148033500,9.938033447265624,-0.0027914284728467464,0.00939937774091959,-0.006174162030220032
1686445319158050600,9.948050537109374,0.00006602192297577858,0.01503355149179697,-0.001327597419731319
1686445319168066600,9.958066650390625,-0.0014796769246459007,0.01945652812719345,0.0013483468210324645
1686445319178083600,9.96808349609375,-0.0017029251903295517,0.01758001372218132,-0.00046614452730864286
1686445319188100600,9.9781005859375,-0.00006801076233386993,0.016391444951295853,-0.0013697551330551505
1686445319198116600,9.98811669921875,0.001239340752363205,0.011678030714392662,-0.000007798196747899055
1686445319208133400,9.99813330078125,-0.00017506396397948265,0.006269949022680521,0.00023694639094173908
1686445319218149600,10.008149658203125,0.001291647320613265,0.005530172027647495,0.002815776038914919
1686445319228166700,10.018166748046875,-0.0001224912703037262,0.002224922413006425,0.0061692288145422935
1686445319238183400,10.028183349609375,0.005559057928621769,-0.001137163140811026,0.005911407060921192
1686445319248199400,10.038199462890624,0.003196833888068795,-0.004352930001914501,0.006411548238247633
1686445319258216700,10.048216796875,0.003472562413662672,-0.005941588897258043,0.00749474111944437
1686445319268233500,10.0582333984375,0.002083191415295005,-0.010332342237234116,0.008113926276564598
1686445319278249500,10.06824951171875,0.002442041179165244,-0.009641241282224655,0.003323288867250085
1686445319288266800,10.078266845703125,0.001950687961652875,-0.0072561148554086685,0.0017975636292248964
1686445319298282500,10.088282470703126,0.0003295917995274067,-0.005920365918427706,-0.004034528974443674
1686445319308299500,10.098299560546875,0.0025309608317911625,-0.000661421800032258,-0.0060774399898946285
1686445319318316500,10.108316650390625,-0.0006467849016189575,0.003069576108828187,-0.0070154545828700066
1686445319328332500,10.11833251953125,0.0011167600750923157,0.003631237195804715,-0.005868697538971901
1686445319338349600,10.128349609375,-0.0008762800134718418,0.0044088177382946014,-0.0018014535307884216
1686445319348365600,10.138365478515626,-0.0009593707509338856,0.005048509221524,-0.0009596283198334277
1686445319358382300,10.14838232421875,-0.0020869243890047073,0.0029044917318969965,-0.0028935784939676523
1686445319368399600,10.158399658203125,-0.003787619061768055,-0.0014782727230340242,-0.004728230182081461
1686445319378415600,10.16841552734375,-0.0033467276953160763,-0.0013361844466999173,-0.0058008236810564995
1686445319388432400,10.178432373046874,-0.005132111255079508,-0.001489316113293171,-0.0068841977044939995
1686445319398449700,10.18844970703125,-0.005889658350497484,-0.00020646117627620697,-0.0024126276839524508
1686445319408465700,10.198465576171875,-0.005830802489072084,0.00306922709569335,-0.0039924150332808495
1686445319418482400,10.208482421875,-0.006664493586868048,0.0020521553233265877,0.0008083432912826538
1686445319428498400,10.21849853515625,-0.0022945129312574863,-0.0031876140274107456,0.0023223503958433867
1686445319438515700,10.228515625,-0.0006024087779223919,-0.00384295592084527,0.0024173608981072903
1686445319448532500,10.238532470703126,-0.002421081531792879,-0.008089100010693073,0.004123115446418524
1686445319458548500,10.248548583984375,0.0035194801166653633,-0.008435414172708988,0.005847353488206863
1686445319468565500,10.2585654296875,0.0058912914246320724,-0.013836304657161236,0.0036768773570656776
1686445319478581800,10.268581787109374,0.005811959505081177,-0.016933733597397804,0.004011407028883696
1686445319488598500,10.2785986328125,0.009448505938053131,-0.016086848452687263,0.001821755664423108
1686445319498615600,10.288615478515625,0.008882781490683556,-0.012073669582605362,0.001419554464519024
1686445319508631600,10.298631591796875,0.007203391753137112,-0.012816425412893295,0.002249928191304207
1686445319518648600,10.308648681640625,0.007636819034814835,-0.012414258904755116,-0.002690654480829835
1686445319528666000,10.318666015625,0.00899263471364975,-0.013298162259161472,-0.0037660389207303524
1686445319538681900,10.328681884765626,0.0056143817491829395,-0.008685298264026642,0.0009653209708631039
1686445319548699000,10.338698974609375,0.007516411133110523,-0.003382145892828703,0.007361968047916889
1686445319558715000,10.34871484375,0.004852162208408117,0.004856630228459835,0.006025571841746569
1686445319568732000,10.35873193359375,0.006339271552860737,0.01189989224076271,0.004151239059865475
1686445319578749000,10.3687490234375,0.0038484265096485615,0.016896530985832214,0.010946817696094513
1686445319588765000,10.378764892578126,0.007562471088021994,0.016430214047431946,0.014244076795876026
1686445319598782000,10.388781982421875,0.004908591974526644,0.014320079237222672,0.01680760830640793
1686445319608799000,10.398799072265625,0.0030057632829993963,0.01515870913863182,0.012853879481554031
1686445319618815000,10.40881494140625,0.002430217806249857,0.016421373933553696,0.013094844296574593
1686445319628831700,10.418831787109376,-0.006132377777248621,0.02800692245364189,0.015924453735351562
1686445319638847700,10.42884765625,-0.004905794747173786,0.032763924449682236,0.01898648962378502
1686445319648865000,10.438864990234375,-0.005686633288860321,0.03362332656979561,0.025776751339435577
1686445319658881800,10.4488818359375,-0.009233638644218445,0.040372226387262344,0.03273220360279083
1686445319668897800,10.458897705078124,-0.009482644498348236,0.04289210960268974,0.04232943803071976
1686445319678915000,10.4689150390625,-0.003953372593969107,0.03657469153404236,0.04213423281908035
1686445319688931000,10.47893115234375,-0.003684926312416792,0.030725058168172836,0.041369907557964325
1686445319698947800,10.48894775390625,-0.002315901219844818,0.021983355283737183,0.027312828227877617
1686445319708964900,10.49896484375,-0.002909786533564329,0.007549820933490992,0.006123653147369623
1686445319718981000,10.508981201171874,-0.0034347036853432655,-0.011527219787240028,-0.0160271804779768
1686445319728998000,10.518997802734376,-0.007786042056977749,-0.026713363826274872,-0.03030119277536869
1686445319739015000,10.529014892578125,-0.011693987995386124,-0.03783656656742096,-0.036034733057022095
1686445319749031000,10.539031005859375,-0.009102200157940388,-0.03753163665533066,-0.03325066715478897
1686445319759048000,10.5490478515625,-0.006659052334725857,-0.032002586871385574,-0.0192177202552557
1686445319769064000,10.55906396484375,-0.0056526437401771545,-0.01789102889597416,-0.0076516130939126015
1686445319779081000,10.5690810546875,-0.001499101985245943,-0.00910867191851139,-0.0014005618868395686
1686445319789098000,10.579097900390625,-0.0011353143490850925,-0.0038129757158458233,-0.003857061732560396
1686445319799114000,10.589114013671875,0.0017616264522075653,-0.0007588216103613377,0.00009449361823499203
1686445319809131000,10.599131103515624,0.002400252502411604,-0.0008464396232739091,0.0057566408067941666
1686445319819147800,10.609147705078126,-0.0009827022440731525,-0.004516354762017727,0.019358810037374496
1686445319829164000,10.6191640625,0.004993963986635208,-0.008433065377175808,0.029450327157974243
1686445319839181000,10.62918115234375,0.00011445442214608192,-0.011540476232767105,0.04099930077791214
1686445319849196800,10.63919677734375,0.0019973095040768385,-0.01220546755939722,0.043981242924928665
1686445319859213800,10.6492138671875,0.00963995698839426,-0.012535883113741875,0.05204600840806961
1686445319869231000,10.659231201171876,0.006690772250294685,-0.006233246065676212,0.04974450170993805
1686445319879246800,10.669246826171875,0.004430843982845545,-0.005555910989642143,0.04305441677570343
1686445319889263900,10.679263916015625,0.002998063340783119,-0.0021904746536165476,0.034235090017318726
1686445319899281200,10.68928125,0.0031247998122125864,-0.006065467372536659,0.02357947826385498
1686445319909297000,10.699296875,-0.0032436177134513855,-0.007710767909884453,0.015442721545696259
1686445319919314000,10.70931396484375,-0.004163339268416166,-0.008349155075848103,0.012335234321653843
1686445319929330000,10.719329833984375,-0.006697869393974543,-0.0009231967851519585,0.0068328771740198135
1686445319939347000,10.729346923828125,-0.007295350544154644,0.005502771586179733,0.0042715612798929214
1686445319949364000,10.739364013671874,-0.005580807104706764,0.016107214614748955,-0.0004379730671644211
1686445319959380000,10.7493798828125,-0.006872562225908041,0.022691868245601654,-0.004032563883811235
1686445319969396700,10.759396728515625,-0.010812176391482353,0.031182823702692986,-0.0019952459260821342
1686445319979413000,10.7694130859375,-0.011140826158225536,0.02974085696041584,-0.003665586467832327
1686445319989430000,10.779429931640625,-0.011974128894507885,0.026695532724261284,-0.005200100131332874
1686445319999446800,10.78944677734375,-0.01428382657468319,0.018267784267663956,-0.009392132982611656
1686445320009462800,10.799462890625,-0.011417467147111893,0.01122159231454134,-0.018235690891742706
1686445320019480000,10.80947998046875,-0.010481624864041805,0.008660011924803257,-0.020942246541380882
1686445320029496800,10.819496826171875,-0.006288478150963783,0.004174982197582722,-0.021551843732595444
1686445320039512800,10.829512939453124,-0.0025573205202817917,-0.006569337099790573,-0.01650002971291542
1686445320049530000,10.839530029296874,0.003465950721874833,-0.012605924159288406,-0.006053247954696417
1686445320059546000,10.849546142578125,0.005271810572594404,-0.01780131086707115,0.005217213649302721
1686445320069563000,10.85956298828125,0.007330967113375664,-0.025413956493139267,0.013451973907649517
1686445320079580000,10.869579833984375,0.012959541752934456,-0.02690253034234047,0.02076394110918045
1686445320089596200,10.87959619140625,0.008929112926125526,-0.028032243251800537,0.026315301656723022
1686445320099613000,10.889613037109376,0.008268777281045914,-0.02611837163567543,0.023424845188856125
1686445320109630000,10.8996298828125,0.00869967695325613,-0.02376999519765377,0.028525065630674362
1686445320119646000,10.90964599609375,0.005114493425935507,-0.021121155470609665,0.027574529871344566
1686445320129663000,10.9196630859375,0.007472456432878971,-0.02163195237517357,0.030620386824011803
1686445320139679000,10.929678955078124,0.00415658438578248,-0.01466529443860054,0.03261273354291916
1686445320149696000,10.939696044921876,0.0012199166230857372,-0.013853829354047775,0.029149826616048813
1686445320159713000,10.949713134765625,-0.0009703128598630428,-0.012431660667061806,0.025088995695114136
1686445320169729000,10.95972900390625,-0.001760739367455244,-0.0026032645255327225,0.01932564750313759
1686445320179745800,10.969745849609374,-0.0026241661980748177,0.009162487462162971,0.013489027507603168
1686445320189761800,10.97976171875,-0.005433001555502415,0.01571599580347538,0.009618123061954975
1686445320199779000,10.989779052734375,-0.006968446541577578,0.02112138643860817,0.005114340223371983
1686445320209795800,10.9997958984375,-0.007847024127840996,0.026743318885564804,0.0001704477472230792
1686445320219811800,11.009811767578125,-0.010370617732405663,0.028332823887467384,-0.006522071547806263
1686445320229828900,11.019828857421874,-0.010819092392921448,0.02421531081199646,-0.007340727373957634
1686445320239846000,11.029845947265626,-0.009892428293824196,0.02339809015393257,-0.010906806215643883
1686445320249862000,11.03986181640625,-0.010601894930005074,0.0194076094776392,-0.01187859382480383
1686445320259879000,11.04987890625,-0.008406884968280792,0.014292473904788494,-0.01218271441757679
1686445320269895000,11.05989501953125,-0.005894192494452,0.007911273278295994,-0.013704178854823112
1686445320279912000,11.069911865234374,-0.005975718144327402,0.0010624246206134558,-0.009278282523155212
1686445320289929000,11.079928955078126,-0.0023564822040498257,-0.004420757759362459,-0.0015002547297626734
1686445320299945000,11.089945068359375,-0.0021919352002441883,-0.0074801379814744,0.0023330459371209145
1686445320309962000,11.0999619140625,0.0003497861325740814,-0.014524998143315315,0.009966198354959488
1686445320319979000,11.10997900390625,0.004806661978363991,-0.013812018558382988,0.010418483056128025
1686445320329995000,11.1199951171875,0.0036516489926725626,-0.014971824362874031,0.007696731947362423
1686445320340011800,11.13001171875,0.00640938151627779,-0.017037011682987213,0.009110908024013042
1686445320350028000,11.140028076171875,0.0030759030487388372,-0.018204543739557266,0.006424843333661556
1686445320360045000,11.150045166015625,0.009505277499556541,-0.01972583495080471,0.008988365530967712
1686445320370061800,11.160061767578124,0.00016743550077080727,-0.014611499384045601,0.01002886239439249
1686445320380077800,11.170077880859376,0.001336783403530717,-0.01617925986647606,0.017676353454589844
1686445320390095000,11.18009521484375,-0.0003111804835498333,-0.014773910865187645,0.01788594387471676
1686445320400111900,11.19011181640625,-0.0027977656573057175,-0.015013574622571468,0.014653924852609634
1686445320410128000,11.2001279296875,-0.0016432851552963257,-0.015638086944818497,0.014558050781488419
1686445320420145200,11.210145263671874,-0.00424863351508975,-0.016284454613924026,0.014421983622014523
1686445320430161000,11.220160888671876,-0.0047927177511155605,-0.01290676835924387,0.012989469803869724
1686445320440178000,11.230177978515625,-0.006937871687114239,-0.0012729428708553314,0.004609079100191593
1686445320450195000,11.24019482421875,-0.006639331579208374,0.00987052172422409,0.001838059863075614
1686445320460211000,11.2502109375,-0.0061027114279568195,0.01950199529528618,-0.0022539033088833094
1686445320470228000,11.26022802734375,-0.007688889745622873,0.022304972633719444,-0.000514859042596072
1686445320480244000,11.270243896484375,-0.0055028232745826244,0.01744549348950386,-0.00009553367272019386
1686445320490260700,11.2802607421875,-0.0049129328690469265,0.013938643038272858,0.001126590883359313
1686445320500278000,11.290278076171875,-0.002103951759636402,0.0020561397541314363,-0.002656817901879549
1686445320510294000,11.3002939453125,-0.0057775164023041725,-0.0037599378265440464,-0.001271175337024033
1686445320520310500,11.310310546875,-0.001330662053078413,-0.009290441870689392,-0.0054215313866734505
1686445320530327300,11.320327392578125,-0.0022614365443587303,-0.007256585173308849,-0.007569636683911085
1686445320540343600,11.330343505859375,-0.0026482492685317993,-0.001327333739027381,-0.007268289569765329
1686445320550360300,11.3403603515625,-0.002516156528145075,0.0017725855577737093,-0.0017741881310939789
1686445320560376300,11.350376220703126,0.0017183450981974602,0.00257691228762269,-0.0006736900541000068
1686445320570393300,11.360393310546876,0.0026384673546999693,-0.0022812262177467346,-0.0013879499165341258
1686445320580410400,11.370410400390625,-0.0006509767845273018,-0.003487721085548401,0.0004244165029376745
1686445320590426400,11.38042626953125,0.0048417928628623486,-0.006221722345799208,-0.0033383637201040983
1686445320600443400,11.390443359375,0.0044898600317537785,-0.006554208695888519,-0.003041292307898402
1686445320610460400,11.40046044921875,0.00590053666383028,-0.00734223797917366,-0.0006311315228231251
1686445320620476400,11.410476318359375,0.004754979629069567,-0.007474891841411591,-0.0011114120716229081
1686445320630493400,11.420493408203125,0.0022521407809108496,-0.002982405247166753,-0.004861675202846527
1686445320640509400,11.430509521484375,0.0001871720887720585,-0.0016186418943107128,-0.0027497466653585434
1686445320650526500,11.4405263671875,-0.0024666679091751575,0.0030610645189881325,0.002150469459593296
1686445320660543500,11.45054345703125,-0.0019929208792746067,0.0035491283051669598,0.002941657556220889
1686445320670559500,11.4605595703125,-0.005032652523368597,-0.0020118181128054857,0.007065029814839363
1686445320680576300,11.470576171875,-0.0055014388635754585,-0.002556904684752226,0.00923863798379898
1686445320690593500,11.480593505859375,-0.0025360086001455784,-0.006339925341308117,0.009684184566140175
1686445320700609500,11.490609619140624,-0.003202118445187807,-0.01065857894718647,0.009231921285390854
1686445320710626300,11.500626220703126,0.0009156614542007446,-0.015878908336162567,0.011279892176389694
1686445320720642300,11.510642333984375,0.0020443093962967396,-0.018552986904978752,0.007157585583627224
1686445320730659600,11.52065966796875,0.00033961981534957886,-0.017001429572701454,0.00042884284630417824
1686445320740676400,11.53067626953125,0.0037901164032518864,-0.012757005169987679,-0.001459753606468439
1686445320750692400,11.5406923828125,-0.0010576355271041393,-0.0071976566687226295,-0.005698973312973976
1686445320760709600,11.550709716796876,0.004446580074727535,-0.004562306217849255,-0.00850329827517271
1686445320770726400,11.560726318359375,0.0040351212956011295,-0.001453332370147109,0.002061994280666113
1686445320780742400,11.570742431640625,0.007226422429084778,-0.011793113313615322,0.003676990047097206
1686445320790759400,11.580759521484374,0.008680242113769054,-0.020131468772888184,0.0025952141731977463
1686445320800775400,11.590775390625,0.005906159058213234,-0.033563628792762756,-0.0004822246264666319
1686445320810792400,11.60079248046875,0.004794822074472904,-0.04469937086105347,-0.002742182929068804
1686445320820809500,11.6108095703125,0.0025595545303076506,-0.05081355944275856,-0.00716891884803772
1686445320830825200,11.6208251953125,0.005971596576273441,-0.047661442309617996,-0.006977703422307968
1686445320840842500,11.630842529296874,0.007667487487196922,-0.04103706032037735,-0.007256842218339443
1686445320850858500,11.6408583984375,0.0020487504079937935,-0.030218767002224922,-0.00714525580406189
1686445320860875300,11.650875244140625,0.0033149034716188908,-0.015487156808376312,-0.004044202622026205
1686445320870892500,11.660892578125,0.0026504448615014553,-0.003827837761491537,-0.0095612071454525
1686445320880908500,11.670908447265624,-0.002545011229813099,0.0003457469865679741,-0.00671630073338747
1686445320890925300,11.68092529296875,0.001334948232397437,-0.00488496758043766,-0.0031649754382669926
1686445320900942300,11.6909423828125,-0.0017749755643308163,-0.009799135848879814,-0.004877548664808273
1686445320910958600,11.70095849609375,0.000823737122118473,-0.015212809666991234,-0.004412294365465641
1686445320920975400,11.710975341796875,-0.000012906733900308609,-0.02118254080414772,-0.007075598929077387
1686445320930991400,11.720991455078124,-1.234002411365509e-7,-0.02016467973589897,-0.00900932028889656
1686445320941008400,11.73100830078125,0.0008379272185266018,-0.015225807204842567,-0.010505793616175652
1686445320951025400,11.741025390625,-0.001619637943804264,-0.007587329484522343,-0.008845845237374306
1686445320961041400,11.75104150390625,-0.0033080121502280235,0.0019411328248679638,-0.0060507929883897305
1686445320971058400,11.761058349609375,-0.0010118349455296993,0.010408121161162853,-0.002225695177912712
1686445320981075500,11.771075439453124,-0.0041552637703716755,0.014940790832042694,-0.0013445562217384577
1686445320991091500,11.781091552734376,-0.0004641222767531872,0.014964759349822998,-0.000053721945732831955
1686445321001108500,11.7911083984375,-0.0011753933504223824,0.0097840316593647,0.0012081589084118605
