time,seconds_elapsed,z,y,x
1686445353709537800,0.139537841796875,0.03434884432554245,-0.0015254560016095637,0.010337269619107246
1686445353719553800,0.1495537109375,0.046108255702257156,0.0014499065473675726,0.0034749826341867445
1686445353729570600,0.159570556640625,0.03188099290728569,-0.0023835341356694697,0.001222235271334648
1686445353739587800,0.169587890625,-0.01465571734011173,-0.003225830178707838,-0.011516834792494773
1686445353749603800,0.179603759765625,-0.042295419415831564,-0.006638634296879172,-0.008408931905031204
1686445353759620600,0.18962060546875,-0.0688584321707487,-0.0046259062349796294,-0.003972410762310028
1686445353769638000,0.199637939453125,-0.06188450150489807,-0.0073047700554132455,-0.012401800933480263
1686445353779654000,0.20965380859375,-0.03222293821275234,-0.01016359355263412,-0.016909633746743202
1686445353789670700,0.219670654296875,-0.001938274586200714,-0.016762480361014603,-0.015247253492474555
1686445353799687700,0.229687744140625,0.015450667110085487,-0.01568966349773109,-0.013453355813026428
1686445353809703700,0.23970361328125,0.012575988456606865,-0.021205431244522333,-0.022450316739082335
1686445353819720700,0.249720703125,-0.008780687826871872,-0.020096300958842038,-0.017987492111325262
1686445353829736700,0.25973681640625,-0.040813071903586386,-0.014215645422413945,-0.018204349732398987
1686445353839753700,0.269753662109375,-0.060248424735665315,-0.014744199341163038,-0.017911504265666008
1686445353849770800,0.279770751953125,-0.09604629882574081,-0.0024533845014870167,-0.024005729487538336
1686445353859786800,0.289786865234375,-0.09767419228851795,0.017942118599638342,-0.03148234897851944
1686445353869803800,0.2998037109375,-0.0915934110701084,0.02705167305469513,-0.03554126898050308
1686445353879820500,0.309820556640625,-0.06603051526844501,0.02701988967694342,-0.03518120349645614
1686445353889836800,0.3198369140625,-0.022701661151647567,0.017435557316988707,-0.034869068807363506
1686445353899853800,0.329853759765625,0.013491349735856055,-0.004351619338244199,-0.01972293760180473
1686445353909870600,0.33987060546875,0.04714636657834053,-0.025532500663399696,-0.02319032145142555
1686445353919886600,0.349886474609375,0.08344517592787742,-0.03589088613577187,-0.03702829266786575
1686445353929903900,0.35990380859375,0.06942658744752407,-0.057463104866072534,-0.03990355584323406
1686445353939920600,0.369920654296875,0.04856617024838924,-0.05252849800810218,-0.05686755012571811
1686445353949936600,0.3799365234375,0.01239537119269371,-0.04457242443710565,-0.07388941207528114
1686445353959953700,0.38995361328125,-0.016178396862745283,-0.04372705965414643,-0.07616378674805165
1686445353969969700,0.3999697265625,-0.018170447462797164,-0.04752528289332986,-0.07054711591005325
1686445353979986700,0.409986572265625,-0.004015080860257148,-0.0612393354691565,-0.05470072748064995
1686445353990003700,0.420003662109375,0.01135492222905159,-0.05792071244046092,-0.05982756897509098
1686445354000019700,0.430019775390625,-0.0029378070175647736,-0.04347951463386416,-0.05198153164982795
1686445354010036700,0.44003662109375,-0.032231121519207956,-0.02684321793578565,-0.03423310899138451
1686445354020053500,0.450053466796875,-0.06143208156228065,-0.003273176451772451,-0.0207002582013607
1686445354030069500,0.460069580078125,-0.08506430156230926,0.016339432643353937,-0.0019335984110832214
1686445354040086800,0.470086669921875,-0.10429974790811539,0.04107186897024512,0.007495908713340759
1686445354050103600,0.480103515625,-0.11342413460612297,0.04483984320163727,0.0013210194706916808
1686445354060119600,0.49011962890625,-0.10339023184776305,0.039915830802917475,-0.00012859481573104857
1686445354070136800,0.50013671875,-0.06678396398425102,0.0328423852853477,0.005392798954248428
1686445354080153600,0.510153564453125,-0.04821253450512886,0.03527034308463335,0.012999182304739952
1686445354090169600,0.520169677734375,-0.035250177079439164,0.036537002019584174,0.02855506335496902
1686445354100186600,0.5301865234375,-0.019412556478381155,0.04350771781504154,0.038191491228342055
1686445354110203600,0.54020361328125,-0.00229658650457859,0.05041391700692475,0.06908347309827804
1686445354120219600,0.5502197265625,0.013158172258734703,0.03330444983914494,0.062468438872694966
1686445354130236700,0.560236572265625,0.015174188256263732,0.02907835657671094,0.06007949790954589
1686445354140252700,0.570252685546875,0.04181786503195763,0.017842165356501936,0.07140811665356159
1686445354150269700,0.580269775390625,0.06585282061398029,-0.019027502683550118,0.05200725061297416
1686445354160286700,0.59028662109375,0.07581015100479126,-0.048073710556328295,0.03669277710318565
1686445354170302700,0.600302734375,0.10799217268526554,-0.05815868591479957,0.03780629130303859
1686445354180319700,0.61031982421875,0.10176701456010341,-0.0625706571381539,0.034973698225617404
1686445354190336800,0.620336669921875,0.07925532302260399,-0.03333718306496739,0.030279987451434134
1686445354200352800,0.630352783203125,0.043617607930302615,-0.02142199660465121,0.016841244685649872
1686445354210369500,0.64036962890625,0.024323124873638153,-0.00754310885593295,0.004991232416033745
1686445354220386800,0.65038671875,-0.004220832565426826,-0.012816738409921527,-0.019798925447463988
1686445354230402800,0.66040283203125,-0.03474924181997776,-0.033494638649001714,-0.05254442622959613
1686445354240419600,0.670419677734375,-0.045191140857338906,-0.0611387246388942,-0.08142565279901028
1686445354250436900,0.680436767578125,-0.05564005415737629,-0.07316928110718726,-0.0882435161203146
1686445354260452900,0.690452880859375,-0.06681903529763221,-0.05358326775804162,-0.0803483789563179
1686445354270469600,0.7004697265625,-0.06960135949254036,-0.037357963013648986,-0.07810556846559047
1686445354280485600,0.710485595703125,-0.07419394797980786,0.001343669693917036,-0.06965864263772964
1686445354290503000,0.7205029296875,-0.09107669371962547,0.051994683392345906,-0.0669762716859579
1686445354300519700,0.730519775390625,-0.11638999867439269,0.09462824872136115,-0.0701835432946682
1686445354310535700,0.74053564453125,-0.12733984723389147,0.10715360296927391,-0.047746086037158963
1686445354320552700,0.750552734375,-0.1071311719417572,0.0687679774083197,-0.032386019819974896
1686445354330569700,0.76056982421875,-0.05777472809851169,0.0017887100476771593,-0.041434418672323226
1686445354340585700,0.770585693359375,-0.03261456787884235,-0.053957800158858295,-0.05483867464661598
1686445354350602800,0.780602783203125,-0.022309446963667868,-0.06995711412765085,-0.0686281305462122
1686445354360619800,0.790619873046875,0.003134206372499466,-0.07445157600268722,-0.05533142659962177
1686445354370635800,0.8006357421875,0.03209142078757286,-0.059040802511572836,-0.0398497798293829
1686445354380652500,0.810652587890625,0.05004325706362724,-0.03912921046987176,-0.011956979775428771
1686445354390669800,0.820669921875,0.059473933231830596,-0.02493716511875391,-0.010782675299048423
1686445354400685800,0.830685791015625,0.05891922195851802,-0.01032521385513246,-0.01357435184419155
1686445354410702600,0.84070263671875,0.04742167638838291,-0.0012047726798802613,0.009161796098947525
1686445354420718600,0.850718505859375,0.03599602701067924,-0.0025026304706931113,0.031171383333206175
1686445354430735600,0.860735595703125,0.02068038445711136,-0.015098638802021742,0.03274842339158058
1686445354440752600,0.870752685546875,-0.006546645164489746,-0.02798055140264332,0.02078092222213745
1686445354450768600,0.8807685546875,-0.03396539796590805,-0.022397125247120855,0.01052490114569664
1686445354460785700,0.89078564453125,-0.06173311033546924,-0.01629164797887206,-0.015891981136798856
1686445354470802700,0.900802734375,-0.07232347793281078,0.00005319149196147918,-0.03363981927335262
1686445354480818700,0.910818603515625,-0.08382219254672527,-0.0012791530903428791,-0.02408347089886665
1686445354490835700,0.920835693359375,-0.07961129685342311,-0.013448533507436513,0.000016366612911224363
1686445354500852500,0.9308525390625,-0.059707741987705225,-0.025830022305250167,0.012285481077432632
1686445354510868700,0.94086865234375,-0.037383681976795195,-0.030354075600951907,0.028792379242181778
1686445354520885800,0.9508857421875,-0.03731587743759155,-0.019121172316372392,0.034551088899374006
1686445354530902500,0.960902587890625,-0.02390402267873287,-0.008064356251060962,0.02255377711355686
1686445354540918500,0.97091845703125,-0.024562778848409652,-0.010611264254897832,0.013798223727941513
1686445354550935800,0.980935791015625,-0.01014496191740036,0.008805530007183551,-0.003707622346282005
1686445354560950800,0.99095068359375,0.009367547804117202,0.017009294728934764,-0.027819150295853613
1686445354570967800,1.0009677734375,0.0189139593064785,0.023378975891321895,-0.04398702576458454
1686445354580984800,1.01098486328125,0.020254852521419522,0.015043547613918781,-0.031254969963431356
1686445354591000800,1.021000732421875,0.026695114701986312,0.015857055953890083,-0.0019996493846178055
1686445354601017600,1.031017578125,0.04512041370868682,0.025881387166306374,0.008956044393777847
1686445354611035000,1.041034912109375,0.06737608465850353,0.011756707962974905,0.0005091185659170151
1686445354621051000,1.05105078125,0.06042378130257129,0.009829612357914448,-0.015555296528339386
1686445354631067600,1.061067626953125,0.0357581266015768,0.0027920418713241815,-0.028670798689126968
1686445354641085000,1.0710849609375,0.017588848182559014,-0.014354542436450719,-0.05122516032457351
1686445354651101000,1.081100830078125,0.0011503390789031982,-0.03875029415488243,-0.0547375523597002
1686445354661117700,1.09111767578125,-0.009947393518686294,-0.0575837355710566,-0.04220774113237857
1686445354671134700,1.101134765625,-0.033203181421756746,-0.049620355476439,-0.038872459229826926
1686445354681151000,1.11115087890625,-0.051500470134615894,-0.032180706506222484,-0.040292847421765324
1686445354691167700,1.121167724609375,-0.0651852966159582,-0.029418986707925796,-0.043073418051004404
1686445354701183700,1.131183837890625,-0.06343056190311909,-0.02280117600336671,-0.04865910922884941
1686445354711200800,1.14120068359375,-0.06253741245567798,-0.02256181428954005,-0.050827685439586635
1686445354721217800,1.1512177734375,-0.061081952950358384,-0.025087825635820626,-0.06278115808367729
1686445354731233800,1.16123388671875,-0.06355097341239452,-0.021001433105021713,-0.03828209212124348
1686445354741250800,1.171250732421875,-0.06941665057539939,0.004686769576743245,-0.014819967991113661
1686445354751267800,1.181267822265625,-0.0807797561109066,0.02675999663174152,0.014423662149906157
1686445354761283800,1.191283935546875,-0.1120019928485155,0.018537381079047916,0.02941840218603611
1686445354771300900,1.20130078125,-0.10776946984529495,0.001401464295759797,0.010040917021036147
1686445354781317600,1.211317626953125,-0.10155074146091937,-0.003699877431243658,-0.037812721043825145
1686445354791334000,1.221333984375,-0.07784662526845931,0.00533880374468863,-0.07883972795903682
1686445354801351000,1.231350830078125,-0.05651216081678867,0.0004433598533272743,-0.14860358453691005
1686445354811367700,1.24136767578125,-0.04029518550932407,-0.004885287823528051,-0.19976269388794898
1686445354821383700,1.2513837890625,-0.05669628521203995,-0.011776800902932882,-0.13350070795118807
1686445354831401000,1.26140087890625,-0.05559855310320854,0.009401157812774182,-0.02505553080141544
1686445354841417000,1.2714169921875,-0.05412497341930866,0.012742211868986487,0.06071779581308365
1686445354851433700,1.281433837890625,-0.059525371158123015,-0.012489771477878093,0.12833411896824837
1686445354861451000,1.291450927734375,-0.0362812736928463,-0.04830430444180965,0.15250000745356082
1686445354871466800,1.301466796875,-0.008432312780618668,-0.04740516364499926,0.13993278682529925
1686445354881483800,1.31148388671875,-0.005670446851849555,-0.03195895351432264,0.06872106952667235
1686445354891500800,1.321500732421875,-0.011180734705924986,-0.037201968734338876,-0.016671148815751075
1686445354901516800,1.331516845703125,0.018083938223123548,-0.017860943122208116,-0.10269815793037414
1686445354911533800,1.341533935546875,0.04543430196344852,-0.0036050387546420096,-0.13737082738280296
1686445354921550800,1.35155078125,0.05418167204260826,0.004596826270967721,-0.13512158715128897
1686445354931566600,1.361566650390625,0.07503975115418433,0.021739976512640712,-0.09455167635381222
1686445354941584000,1.371583984375,0.10805705461502074,0.040475729708001014,-0.06375614059567451
1686445354951601000,1.381600830078125,0.124254156178236,0.04919833067208528,-0.07441548177599906
1686445354961616600,1.39161669921875,0.12319149538278579,0.0417252183124423,-0.04854395841658115
1686445354971634000,1.401634033203125,0.07549392466247082,0.029459903240203856,-0.025028058272600174
1686445354981650000,1.41164990234375,0.0021060323685407637,0.008535261698439716,-0.009185176974534987
1686445354991666700,1.421666748046875,-0.09815233119428157,-0.0033060558080673214,-0.00896422770023346
1686445355001683700,1.43168359375,-0.19231705405712127,-0.0012988076388835907,-0.038083354678750035
1686445355011700000,1.441699951171875,-0.2646697580844164,-0.00926182240732014,-0.08129179728627205
1686445355021716700,1.451716796875,-0.255944015315175,-0.000517374937608838,-0.17709785761535166
1686445355031733800,1.461733642578125,-0.1773147152364254,0.01674158370345831,-0.2905576480567455
1686445355041749800,1.471749755859375,-0.09477087206244468,0.013263386198878287,-0.38642625222802157
1686445355051766800,1.481766845703125,-0.0944914705991745,-0.002300385896861553,-0.40348669262230397
1686445355061783800,1.49178369140625,-0.18752163647413253,-0.01401288939192891,-0.3313175284683704
1686445355071799800,1.5017998046875,-0.2658873171806335,-0.011233926197886466,-0.23787819727063178
1686445355081816800,1.51181689453125,-0.31458500485420227,-0.008859598281979561,-0.1634317358344793
1686445355091833900,1.521833740234375,-0.32843232842087744,-0.0420182099096477,-0.11546879217624664
1686445355101849900,1.531849853515625,-0.37914720113575456,-0.07989756644889712,-0.08218027055859566
1686445355111866600,1.54186669921875,-0.49025136836171146,-0.10723507070764898,-0.0680962156265974
1686445355121883000,1.5518828125,-0.6458394049584866,-0.10477686390057206,-0.10614508351385593
1686445355131900000,1.56189990234375,-0.7855091569334268,-0.09814546306207776,-0.1741460220724344
1686445355141916700,1.571916748046875,-0.7820745063096285,-0.10361483438387513,-0.27267887701690197
1686445355151932700,1.5819326171875,-0.6408072560101747,-0.11601385883837938,-0.4003647612094879
1686445355161950000,1.591949951171875,-0.4727256485432386,-0.13802578416019678,-0.5129962841331959
1686445355171966700,1.601966796875,-0.3131441583961248,-0.14825776677392422,-0.5922451774150133
1686445355181982700,1.611982666015625,-0.19404840789437292,-0.12836911721639335,-0.6276496682733297
1686445355192000000,1.622,-0.11026245570480823,-0.12547587999291718,-0.6066758538275957
1686445355202016800,1.632016845703125,-0.11389233663976192,-0.14679755802825092,-0.538923337072134
1686445355212032800,1.64203271484375,-0.1566974591434002,-0.20536635911390183,-0.4153104014068842
1686445355222049800,1.6520498046875,-0.23268881193399427,-0.2650451672680676,-0.336881592336297
1686445355232065800,1.662065673828125,-0.31693478285074234,-0.296519186809659,-0.3257897049576044
1686445355242082800,1.672082763671875,-0.3155816146761179,-0.28708361527062953,-0.31443302916288374
1686445355252099800,1.682099853515625,-0.19260580787062645,-0.247227040374279,-0.35921032852232454
1686445355262115800,1.69211572265625,-0.07366729375720024,-0.18137115102037787,-0.4086906910061836
1686445355272132900,1.7021328125,0.12115677468478679,-0.07229162148982286,-0.4012707701385021
1686445355282150000,1.71214990234375,0.32254502394795415,0.04712006309330463,-0.43066169979572294
1686445355292165600,1.72216552734375,0.41069209395647044,0.14732158190235495,-0.3845160346925258
1686445355302183000,1.732182861328125,0.4173147269666195,0.179218649161607,-0.24700199944674966
1686445355312200000,1.742199951171875,0.3305471286177635,0.11242825543656945,-0.0917588307648897
1686445355322215700,1.752215576171875,0.18395722199082373,-0.0276786458466202,0.004178162467479705
1686445355332232700,1.762232666015625,0.0619137275993824,-0.1491103650152683,0.008991700229048728
1686445355342250000,1.77225,0.004080547311902046,-0.19813406977280973,-0.01933013889193535
1686445355352265700,1.782265625,0.012740239107608794,-0.17992445934340356,-0.08362988484501838
1686445355362282800,1.79228271484375,-0.0004576806396245956,-0.11034494635649025,-0.09423954166471958
1686445355372298800,1.802298828125,-0.008684826236963272,-0.03852496096640825,-0.034304420661926266
1686445355382315800,1.812315673828125,-0.03609890286326408,0.018856822291761634,0.015649404552578926
1686445355392332800,1.822332763671875,0.017078560572862625,0.054629708071053024,-0.006284194836020469
1686445355402348800,1.832348876953125,0.06089490594565868,0.1388482064589858,-0.4112000434786081
1686445355412365800,1.84236572265625,0.22041969746947288,0.18622633596658705,-0.6215659644454717
1686445355422382800,1.8523828125,0.27096213622689247,0.07891198947764932,-0.2873673275828361
1686445355432398800,1.86239892578125,0.1106599305897951,-0.023821824287995695,-0.14387538697123528
1686445355442415600,1.87241552734375,-0.050714872714877124,-0.07289017190486193,-0.43725744479894635
1686445355452433000,1.882432861328125,-0.12140987266302108,-0.17089520358294247,-0.1356441497206688
1686445355462449000,1.892448974609375,-0.12377777083814144,-0.22342757404856384,0.0467032989859581
1686445355472465700,1.902465576171875,-0.08677811974287032,-0.20902181288152932,0.17557342452704905
1686445355482481700,1.912481689453125,-0.028695348608493803,-0.1534700215294957,0.21113807438313958
1686445355492499000,1.9224990234375,0.08813713313639164,-0.07529628319852054,0.24423545734286306
1686445355502515700,1.932515625,0.14200725501179695,0.00022036475241184232,0.2984142067760229
1686445355512531700,1.94253173828125,0.09550620059967041,0.0012555530190467834,0.36527123599648476
1686445355522549000,1.952549072265625,0.020566402688622473,-0.04236906917393207,0.5471779551982879
1686445355532565800,1.962565673828125,-0.09867898541688919,-0.11702562969680874,0.72960899053514
1686445355542581800,1.972581787109375,-0.20254735617041586,-0.12713117291927337,0.6785282071173191
1686445355552598800,1.982598876953125,-0.11630933465361594,-0.11482611035853624,0.7221177579969167
1686445355562616000,1.992615966796875,-0.03445639635324478,-0.06614478929787874,0.7224374914705753
1686445355572632000,2.002632080078125,0.08258885135948657,0.017166238856315612,0.5140449164032935
1686445355582649000,2.012649169921875,0.3657879533469677,0.08787059115469455,0.37529286379516125
1686445355592665900,2.022665771484375,0.5929401739418506,0.14085023046378045,0.2806716293364763
1686445355602682000,2.03268212890625,0.7397352477520703,0.17616265912447124,0.18291034328639505
1686445355612699100,2.04269921875,0.8271119179099797,0.15813834213409572,0.18325638024508953
1686445355622716000,2.0527158203125,0.849842220634222,0.07874766576141118,0.23092881652414798
1686445355632732000,2.06273193359375,0.7942267163962126,0.009009856940247118,0.18457856875956058
1686445355642749200,2.072749267578125,0.6763339119434356,-0.007339804836176336,0.22597557803094387
1686445355652765000,2.082764892578125,0.41845279108583927,-0.0018488062044605613,0.33424364504814147
1686445355662782000,2.092781982421875,0.15443769751787184,0.14194529569149017,0.08384908055365085
1686445355672799200,2.10279931640625,0.16414485253989697,0.34221480659041553,-0.1488186885923147
1686445355682815000,2.11281494140625,0.2656406489431858,0.4220777401173487,-0.2119482217222452
1686445355692832000,2.12283203125,0.23747312360107897,0.41026623322721567,-0.2567091544687748
1686445355702849000,2.13284912109375,0.24839608415365216,0.3147878339499235,-0.2059258926928043
1686445355712865000,2.142864990234375,0.31669863600730896,0.19138214782718568,-0.19267302788794038
1686445355722882000,2.152882080078125,0.4697890105694532,0.08467037034127861,-0.12597908027470112
1686445355732899000,2.162899169921875,0.5346007976979017,-0.02649634072687477,-0.013469137904047966
1686445355742914800,2.172914794921875,0.4024544269651174,-0.08833028108831495,0.05840308912992477
1686445355752932000,2.18293212890625,0.20586393337249756,-0.09638561378270387,0.11941665301918983
1686445355762948000,2.192947998046875,-0.023117840737104413,-0.04127747454494238,0.1641249787956476
1686445355772964900,2.20296484375,-0.20624153451323507,0.029332769729197024,0.20215455746054647
1686445355782982100,2.212982177734375,-0.3770283092856407,0.08950842148959637,0.17895605270266532
1686445355792998100,2.222998046875,-0.4963876791596412,0.16747896539866924,-0.034361119285225866
1686445355803015000,2.233014892578125,-0.43703649552464485,0.21772914321124553,-0.15677753864228725
1686445355813032000,2.243031982421875,-0.39135318723618984,0.19880351173328234,-0.17247955016493796
1686445355823048200,2.253048095703125,-0.31629823851287364,0.14930354949980973,-0.046325697845220566
1686445355833065000,2.26306494140625,-0.20307459491491317,0.0969967314183712,0.00907177972793579
1686445355843082000,2.27308203125,-0.03240472452044487,0.021526772153377532,0.1407540400803089
1686445355853098000,2.283097900390625,0.06505611727833747,-0.04201806377917528,0.2751730319201946
1686445355863115000,2.293114990234375,0.058600657528638835,-0.07099632098227739,0.3183271139919758
1686445355873132000,2.303132080078125,-0.03839665841162204,-0.12596066783517598,0.3815115921795368
1686445355883148000,2.31314794921875,-0.13580781584978102,-0.14203355849683283,0.3667325407207012
1686445355893165000,2.3231650390625,-0.2268272264242172,-0.13770517390370368,0.32188802134394645
1686445355903181000,2.33318115234375,-0.2521411159008741,-0.13478870193511247,0.20338322247266769
1686445355913198000,2.343197998046875,-0.16272797147929668,-0.05359976223511621,0.06388824254274368
1686445355923214800,2.35321484375,-0.05184826065897941,-0.0021101240217685697,-0.0009451718956232071
1686445355933230800,2.36323095703125,-0.004985971719026565,0.02333908227235079,-0.014731120663881301
1686445355943248100,2.373248046875,0.0008569090902805328,0.0546712182583753,0.01988426564335823
1686445355953265000,2.383264892578125,-0.019236615389585494,0.06498918952196836,0.07382628371119498
1686445355963281000,2.393281005859375,-0.02927110266983509,0.0678220748603344,0.12781857066154478
1686445355973298200,2.403298095703125,-0.031902620217204095,0.07947510325312614,0.20924188537299632
1686445355983315000,2.41331494140625,-0.12498890019357203,0.16652999411076305,0.00878945565521717
1686445355993331000,2.4233310546875,-0.22733166881501674,0.23135580976456402,-0.1586409944266081
1686445356003348200,2.43334814453125,-0.28279402831792827,0.23373598289936778,0.04395020088553429
1686445356013364000,2.443364013671875,-0.43199382518231866,0.2330129293218255,0.16423662247657775
1686445356023381000,2.453381103515625,-0.4454033418536186,0.25597937888950106,0.16906360424160957
1686445356033398000,2.46339794921875,-0.3772913441359997,0.2649675719872117,0.14905541995763777
1686445356043413800,2.473413818359375,-0.2928279310762882,0.25793811174184084,0.05205342784225941
1686445356053431000,2.48343115234375,-0.20404607029557226,0.25786738459318875,-0.08883096061944962
1686445356063448000,2.493447998046875,-0.11220657550990581,0.2556432788029313,-0.13869710755050182
1686445356073463800,2.5034638671875,0.019763854134082794,0.22932956463396548,-0.1856149260699749
1686445356083481000,2.513481201171875,0.20446224988102912,0.16847674426436424,-0.23083763110935687
1686445356093498000,2.523498046875,0.44597968043684955,0.08534633337408304,-0.23810440724194049
1686445356103513900,2.533513916015625,0.7044944230228662,-0.023829203876852986,-0.173937932279706
1686445356113531100,2.54353125,0.838719353595376,-0.12841449072808025,-0.10666238538622856
1686445356123548000,2.5535478515625,0.7795563860088587,-0.2318774955511093,-0.07338672325015068
1686445356133564000,2.56356396484375,0.5785673651963472,-0.31152707858830686,-0.010199322453141212
1686445356143581000,2.573580810546875,0.34795185240507126,-0.33798750775158404,0.1989595608115196
1686445356153597000,2.583596923828125,0.08999357465803623,-0.32920945027321574,0.3149854023486376
1686445356163614000,2.593614013671875,-0.1052443352818489,-0.33113252729028464,0.16669921319782732
1686445356173631000,2.603630859375,-0.051908466413617134,-0.278441678327322,-0.2254641213774681
1686445356183647000,2.61364697265625,0.22936054429411887,-0.18936258816570042,-0.3120212918460369
1686445356193664000,2.6236640625,0.2720926015615463,-0.16150719751268625,-0.35509646346271034
1686445356203681000,2.633680908203125,0.2462900517851114,-0.20371493864506482,-0.33762978035509583
1686445356213697000,2.643697021484375,0.23371055619716644,-0.23841888001859188,-0.2590916656911373
1686445356223714000,2.653714111328125,0.2198030268758535,-0.2478662150606513,-0.1567968278646469
1686445356233731000,2.66373095703125,0.1839683279067278,-0.22177958764582872,-0.08568272572159767
1686445356243747000,2.6737470703125,0.09673369656801223,-0.19576777903288603,-0.04336626351773738
1686445356253763800,2.683763916015625,0.011273089164495468,-0.1550941155999899,0.00018996961414813993
1686445356263781000,2.693781005859375,-0.03680734339356422,-0.09066928196251392,0.03977262293994426
1686445356273797000,2.703797119140625,-0.08936813623607158,-0.025097022722428662,0.05091711728870869
1686445356283814000,2.71381396484375,-0.13030512678027154,0.041377720049023625,0.039787820509076116
1686445356293830000,2.723829833984375,-0.1576812094837427,0.11327392161362804,0.0030868600994348526
1686445356303847200,2.73384716796875,-0.17230302455425262,0.1584244290664792,-0.03310615078806877
1686445356313864000,2.743864013671875,-0.18882921194136143,0.1823530016645789,-0.045944005051255225
1686445356323880000,2.7538798828125,-0.18936404947042465,0.20403730246722698,-0.04104512709379196
1686445356333897200,2.763897216796875,-0.1599777959883213,0.22979192144870755,-0.023656185397505757
1686445356343914000,2.7739140625,-0.13345043906867504,0.215193797781039,-0.00045709611773490905
1686445356353930000,2.783929931640625,-0.11041852304935455,0.15051789372563362,0.002388356441259384
1686445356363947000,2.793947021484375,-0.11111235053241253,0.09149902905123308,-0.012394202148914336
1686445356373964000,2.803964111328125,-0.0542670122385025,0.028221904144156724,-0.04953706110715866
1686445356383980000,2.81397998046875,0.010226210460066795,-0.028870412914454937,-0.1252735623538494
1686445356393997000,2.8239970703125,0.027063948014378544,-0.07486585589200258,-0.18772621913552284
1686445356404014000,2.83401416015625,0.004731704697012901,-0.06590104366987944,-0.22072598693966863
1686445356414030000,2.844030029296875,-0.036651276049017904,-0.03595070829791948,-0.1968389153957367
1686445356424047000,2.854047119140625,-0.06231237152814865,-0.0031806758627295493,-0.14007657921016214
1686445356434062800,2.864062744140625,-0.039192777225375175,0.002542377959191799,-0.06909224092662335
1686445356444080000,2.874080078125,0.036003625795245166,0.03140197721868753,-0.0019067104041576384
1686445356454097200,2.88409716796875,0.11130758084356784,0.05876319114658981,0.07205576690733433
1686445356464113000,2.89411279296875,0.10418342805206775,0.08715776671022177,0.15829320390224455
1686445356474130000,2.9041298828125,0.09450257651507854,0.10052285971790552,0.21897768196761608
1686445356484147000,2.91414697265625,0.09593933131992817,0.09985358215421437,0.23907763618826866
1686445356494163000,2.924162841796875,0.13210837680995463,0.09423928593639284,0.21212533185482024
1686445356504180000,2.934179931640625,0.20933131722211837,0.06234251093808561,0.139612468829751
1686445356514197000,2.944197021484375,0.2866892821907997,0.003391396003961563,0.06788052704930306
1686445356524213000,2.954212890625,0.27532968378663064,-0.05053483997285366,0.0027367314875125885
1686445356534230000,2.96422998046875,0.12970423827767372,-0.10807663609832524,-0.045132688668370245
1686445356544246000,2.97424609375,-0.14228899456262586,-0.13647154045552015,-0.08385083411931991
1686445356554262800,2.9842626953125,-0.44692485233247276,-0.14970858663674444,-0.1261854165017605
1686445356564280000,2.994280029296875,-0.716324561548233,-0.16320494134128094,-0.17030922038853166
1686445356574296000,3.004296142578125,-0.9060779025971889,-0.20498656601607798,-0.2397773088902235
1686445356584312800,3.014312744140625,-0.9326467605710029,-0.20613748961687087,-0.31982232098579405
1686445356594330000,3.024330078125,-0.8034861276507377,-0.16894582308083772,-0.3622235388636589
1686445356604346000,3.03434619140625,-0.5791980643153191,-0.1116030566588044,-0.3229875070184469
1686445356614363000,3.04436279296875,-0.34300270556509493,-0.04320723703112453,-0.2294938152849674
1686445356624380000,3.0543798828125,-0.15150105954408644,0.0005638078952208161,-0.1093447563380003
1686445356634396000,3.06439599609375,-0.009511340188980102,0.0568093901976943,-0.03285597541928291
1686445356644413000,3.074412841796875,0.12040624857842921,0.07589318964574486,0.029912323182821273
1686445356654430000,3.084429931640625,0.19673136336803435,0.09473550848811864,0.0649549949914217
1686445356664446000,3.094446044921875,0.2294067215234041,0.10129209052473306,0.06836100404262542
1686445356674463000,3.104462890625,0.22965280523896217,0.0930602687522769,0.047882279637455935
1686445356684479000,3.11447900390625,0.23188567885756492,0.07421937468200922,-0.006883914294838905
1686445356694496000,3.12449609375,0.25818741032779213,0.044253202420100564,-0.07780220160484314
1686445356704513000,3.134512939453125,0.2583510764569044,-0.002752440513297915,-0.1188432370454073
1686445356714529000,3.144529052734375,0.2078659208446741,-0.04550937649365514,-0.14517887078523636
1686445356724546000,3.154546142578125,0.11272972260117531,-0.06285334653705359,-0.1342974112868309
1686445356734562800,3.164562744140625,0.02838789009451866,-0.05667553468495607,-0.11069324833750724
1686445356744578800,3.174578857421875,-0.008202011156082153,-0.04207680822908878,-0.1095621984809637
1686445356754596000,3.18459619140625,0.013143559211492538,-0.032839024284482,-0.08271335452198982
1686445356764612900,3.19461279296875,0.025997780087590214,-0.009155950880050659,-0.01648059467971325
1686445356774628900,3.20462890625,0.047858314239978786,0.004116495408117771,0.05666589007377624
1686445356784646100,3.214646240234375,0.08907529076933861,0.010675707793235779,0.1109089369148016
1686445356794663000,3.224662841796875,0.11300795502066611,0.017357085253298283,0.12189677939713
1686445356804679000,3.234678955078125,0.10119593667387962,0.02845627915561199,0.10391863963603973
1686445356814696000,3.244696044921875,0.0832107826501131,0.048995209315419196,0.09050093965828418
1686445356824712000,3.2547119140625,0.07054360877871513,0.044748950047791,0.08170973043739795
1686445356834729000,3.26472900390625,0.03891162219643592,0.04843410483393818,0.08198679381310939
1686445356844746000,3.27474609375,-0.018003274202346802,0.05130114817023277,0.1184329026788473
1686445356854761700,3.28476171875,-0.09357377123236656,0.06389763142559678,0.1568757383197546
1686445356864779000,3.294779052734375,-0.14478665659725665,0.05397358224987983,0.1447977625131607
1686445356874796000,3.304796142578125,-0.13679331975579262,0.030811902371048926,0.09294716376662254
1686445356884811800,3.314811767578125,-0.10275894820690154,-0.00390957465916872,0.04567804759144783
1686445356894829000,3.3248291015625,-0.07010872449278831,-0.026399054364860057,0.004122048366069793
1686445356904846000,3.33484619140625,-0.06664601681828498,-0.03403115667849779,-0.014985972207784653
1686445356914861800,3.34486181640625,-0.04833294601440429,-0.03046849576085806,-0.024997078612446783
1686445356924878800,3.35487890625,-0.04408405639827251,-0.034028234069049354,-0.016287117934226988
1686445356934895000,3.36489501953125,-0.07096914071440696,-0.031389409998059274,0.014932780715823173
1686445356944912000,3.374911865234375,-0.09350362860560417,-0.018725122203491627,0.044108021795749665
1686445356954929000,3.384928955078125,-0.10305296271741389,-0.01295914255529642,0.03001052286028862
1686445356964945000,3.39494482421875,-0.0896335091739893,0.0033978257447481153,0.04754501050710678
1686445356974962000,3.4049619140625,-0.07672083610892295,0.022898645028471946,0.046260231393575664
1686445356984979000,3.41497900390625,-0.09248071529865265,0.029635552068054676,0.0070113400667905805
1686445356994995000,3.424994873046875,-0.0773766696691513,0.025604141127504407,-0.04933773914277553
1686445357005012000,3.435011962890625,-0.02293371634185314,-0.00467438501920551,-0.13793372196257114
1686445357015029000,3.445029052734375,0.053470308902859684,-0.04218081659283489,-0.21216975551843642
1686445357025045000,3.455044921875,0.0772808080792427,-0.05449059186130762,-0.24092998605668545
1686445357035061800,3.465061767578125,0.06478022294640541,-0.07062482078876346,-0.25517595355212686
1686445357045079000,3.4750791015625,0.03613046704530716,-0.08556289873421191,-0.207804546046257
1686445357055095000,3.485094970703125,0.03555529750585556,-0.08260492571145296,-0.12461422166228293
1686445357065111800,3.49511181640625,0.0548725769162178,-0.05467500851750374,-0.08035071704387664
1686445357075127800,3.5051279296875,0.06222820037603378,-0.03629994186069816,-0.05970248129069805
1686445357085145000,3.51514501953125,0.05964636718928813,-0.03552428131308406,-0.06296177534759044
1686445357095161900,3.525161865234375,0.07162789688408375,-0.04231788697596639,-0.10659984154403208
1686445357105177900,3.535177734375,0.07278174309432506,-0.05450549716949463,-0.14761808063089846
1686445357115195100,3.545195068359375,0.06692892541289329,-0.05599836607575416,-0.13626491196751594
1686445357125212000,3.5552119140625,0.029138416200876233,-0.0413856110945344,-0.08575462191402912
1686445357135228000,3.565227783203125,-0.03251578367948532,-0.04054386304076761,-0.010149053570628166
1686445357145245000,3.575244873046875,-0.05164017086625099,-0.024709493842720982,0.07872457714676856
1686445357155262000,3.585261962890625,-0.03746317695379257,-0.003144727766513824,0.11099486163258553
1686445357165278000,3.59527783203125,-0.008283844220638275,0.008233867599070072,0.11517653123140334
1686445357175295000,3.605294921875,0.03389291725158691,0.011732523369789123,0.06675356884598732
1686445357185312000,3.61531201171875,0.047997430449724196,0.0012646131083369255,0.009440613040328026
1686445357195328000,3.625327880859375,0.03266775937080383,-0.01250818391740322,-0.014174655824899672
1686445357205345000,3.635344970703125,0.0009258826732635498,-0.0509010429367423,-0.029127894806861877
1686445357215360800,3.64536083984375,-0.0005646481454372405,-0.07516279301196337,-0.049803018566966055
1686445357225378000,3.6553779296875,-0.006100070440769195,-0.11112521001398563,-0.08951952740550041
1686445357235395000,3.66539501953125,-0.027954174852371214,-0.13080430847406385,-0.12166647777259348
1686445357245410800,3.675410888671875,-0.053015550872683524,-0.07442220377773046,-0.10878653793334961
1686445357255427800,3.685427734375,-0.10764788929224013,-0.014371931962668895,-0.08295008588731288
1686445357265445000,3.695445068359375,-0.12050269469022751,0.024446495524980127,-0.09097557143270969
1686445357275460900,3.7054609375,-0.139191028547287,0.031094810965657232,-0.05708440774679183
1686445357285478000,3.715477783203125,-0.16644027000069617,0.027751930278539658,0.007445639830827713
1686445357295495000,3.725494873046875,-0.1832259851068258,0.03904460092633962,0.1016845969736576
1686445357305511000,3.735510986328125,-0.18574702801704407,0.04997311443686485,0.14933657498657701
1686445357315528000,3.74552783203125,-0.1569797832161188,0.04511719883829355,0.17745733857750892
1686445357325545000,3.755544921875,-0.0790367118358612,0.04936228906214237,0.16806173372268676
1686445357335561000,3.76556103515625,0.0218026664853096,0.04723028200212866,0.14769348395466803
1686445357345578000,3.775577880859375,0.10977964062392712,0.04200407178644091,0.1257435179531574
1686445357355594000,3.785593994140625,0.1887508860081434,0.051392918106913564,0.08454583064615726
1686445357365610800,3.79561083984375,0.24254034386277198,0.06263882700353861,0.06295768369436264
1686445357375628000,3.8056279296875,0.2506920861363411,0.07107464691549539,0.02198912896811962
1686445357385644000,3.81564404296875,0.22973580734729765,0.04592062417566776,-0.014925766453146933
1686445357395660800,3.825660888671875,0.18955168099701403,0.013383797708153724,-0.06300561448931694
1686445357405678000,3.835677978515625,0.1267033028960228,-0.003906359788775444,-0.078805825689435
1686445357415694000,3.845694091796875,0.06325637437999249,-0.013702654398977755,-0.06837853969931602
1686445357425710800,3.8557109375,0.029997078856825826,0.0007420505389571189,-0.0668985302746296
1686445357435728100,3.86572802734375,0.04144318650066852,0.025440438465774057,-0.08262626076042652
1686445357445744000,3.875744140625,0.05404957009553909,0.060517889326810834,-0.1052361519753933
1686445357455761000,3.885760986328125,0.04276595953702926,0.11004209095239639,-0.10741758766770362
1686445357465778000,3.89577783203125,0.010554711762070654,0.12136632578223942,-0.10751929447650908
1686445357475794000,3.9057939453125,-0.021526187631487847,0.10963266990128905,-0.08289630987346172
1686445357485811000,3.91581103515625,-0.030254268488287925,0.07059011480156333,-0.06986790147423744
1686445357495827000,3.925826904296875,-0.04288052582740783,0.03275894478559494,-0.05827624787986278
1686445357505844000,3.935843994140625,-0.05156944371759891,0.0024471374237909913,-0.0803875419229269
1686445357515861000,3.945861083984375,-0.030972645890712736,-0.00429302101880312,-0.09422492861747742
1686445357525877000,3.955876953125,-0.010148469048738479,-0.007897767512500285,-0.10354805275797843
1686445357535894000,3.96589404296875,-0.0014753332495689392,-0.021533201894164085,-0.09944938526749611
1686445357545910800,3.975910888671875,0.0003857844471931457,-0.03699176004976034,-0.059227264994382856
1686445357555927000,3.985927001953125,0.0017278467059135437,-0.05958002395480871,-0.02335281853675842
1686445357565944600,3.995944580078125,0.01316343295574188,-0.09061024525165558,-0.0010895488023757935
1686445357575960600,4.005960693359375,0.016739537876844405,-0.13104045531749725,-0.0009311433702707291
1686445357585977600,4.0159775390625,-0.0355056131452322,-0.15889489612244068,-0.027145196557044983
1686445357595994400,4.025994384765625,-0.050942836251854896,-0.17433416505567728,-0.07869184392094612
1686445357606010600,4.0360107421875,-0.06104980424642562,-0.19796470455527304,-0.12496961097121238
1686445357616027600,4.046027587890625,-0.06787234374284744,-0.19846563981473445,-0.12799977244734764
1686445357626044400,4.05604443359375,-0.08032149094939231,-0.15732231304347513,-0.08116086438298224
1686445357636060400,4.066060302734375,-0.07697218052148819,-0.12089140174686908,-0.03418050202131271
1686445357646077700,4.07607763671875,-0.056880994129180906,-0.08671966755390166,0.03124970926642418
1686445357656094500,4.086094482421875,-0.030416765573620795,-0.06412906556129455,0.07852350161671638
1686445357666110500,4.0961103515625,-0.004811784195899963,-0.020522271285951136,0.09286766878962516
1686445357676127700,4.106127685546875,-0.030738837134838104,0.012719780841469764,0.10413491273522377
1686445357686144500,4.11614453125,-0.09005845658779144,0.024119418995082378,0.09924538712799548
1686445357696160500,4.126160400390625,-0.12636486472189426,0.05143821855336427,0.07323474755883216
1686445357706177500,4.136177490234375,-0.11958674888908863,0.05746200888752937,0.020098785176873205
1686445357716194600,4.146194580078125,-0.09420096322000027,0.047087074139155444,-0.04615326388776302
1686445357726210600,4.15621044921875,-0.058578445696830746,0.032975510145723815,-0.11893383793830871
1686445357736227600,4.1662275390625,-0.04206102613806724,0.03611852087918669,-0.16567863797843455
1686445357746243600,4.17624365234375,-0.042405894052982326,0.037324937526881694,-0.17084522696137427
1686445357756260600,4.186260498046875,-0.0231751238822937,0.03612374504357576,-0.1728267561674118
1686445357766277600,4.196277587890625,0.0029641105026006697,0.03724573481082916,-0.14767477925419806
1686445357776293600,4.206293701171875,0.05224164389073849,0.03787150202635675,-0.09498422255218028
1686445357786310700,4.216310546875,0.06970657343268394,0.024523031359910963,-0.03293137874305248
1686445357796327700,4.22632763671875,0.05958966856598854,0.03268094764593989,0.03264379397332668
1686445357806343700,4.23634375,0.04019464774429798,0.017560498870909214,0.0686240388929844
1686445357816360400,4.2463603515625,0.000048515316843986505,0.007875007691420615,0.10933774207532405
1686445357826377700,4.256377685546875,-0.08312251984477043,-0.011831307569146155,0.14291794011592865
1686445357836393500,4.2663935546875,-0.16980010182261465,-0.013883856184780597,0.12749708362221718
1686445357846410500,4.276410400390625,-0.1978279264330864,-0.014589081844687461,0.060729486250877374
1686445357856427800,4.286427734375,-0.15583236674666404,-0.0017357377514243125,-0.025357728618383406
1686445357866443500,4.296443603515625,-0.05207622419595718,0.019206512512266634,-0.07216507250070571
1686445357876460500,4.30646044921875,0.03982289182245731,0.025411541164852676,-0.059931029349565505
1686445357886476500,4.3164765625,0.06946165876090526,0.034765900693833826,0.008927402821183204
1686445357896493600,4.32649365234375,0.0766226364314556,0.030045886434614658,0.09176233789622783
1686445357906510600,4.336510498046875,0.0596697480648756,0.01044686747342348,0.13689561108648776
1686445357916526600,4.346526611328125,0.06061375091671943,-0.01729044975787401,0.11396364831030369
1686445357926543400,4.35654345703125,0.029395021310448646,-0.053930327630043025,0.07536883697807788
1686445357936560600,4.366560546875,-0.024206220495700835,-0.055099079148471355,0.04829261400401592
1686445357946576600,4.37657666015625,-0.11104629955887795,-0.03932926308661699,0.018949030619859693
1686445357956593400,4.386593505859375,-0.16446692410111427,-0.020810732838511467,-0.01749649372398853
1686445357966610700,4.396610595703125,-0.1621393579363823,0.009713877023756503,-0.0609767390102148
1686445357976626700,4.406626708984375,-0.13916238697469233,0.010713409455120563,-0.10240998863875865
1686445357986643500,4.4166435546875,-0.1005471173763275,-0.0032250995263457295,-0.12146189511120319
1686445357996660500,4.426660400390625,-0.030917700833082196,0.0010574000984430313,-0.10960194596946239
1686445358006676700,4.4366767578125,0.009926350730657577,-0.007222936990857124,-0.08812076652348041
1686445358016693500,4.446693603515625,0.03462006248235702,-0.013187398353219032,-0.06839490631222725
1686445358026710500,4.45671044921875,0.04326455670893192,-0.014759469975531101,-0.05704816738963127
1686445358036726500,4.4667265625,0.025939912420511243,-0.016450784063339233,-0.06499591152369975
1686445358046743600,4.47674365234375,0.00922609350681305,-0.004741641569137573,-0.09909282691478728
1686445358056760600,4.486760498046875,0.011653028392791748,-0.010603519339859485,-0.11824293306469917
1686445358066776600,4.496776611328125,0.020619594180583952,-0.01121693853046745,-0.13489245457053184
1686445358076793600,4.506793701171875,-0.0016974515676498412,-0.006452829401195049,-0.1265150868475437
1686445358086810600,4.516810546875,-0.049044309154152865,0.012673311351239681,-0.08662380596399306
1686445358096826600,4.52682666015625,-0.06358662924766541,0.022442425693571567,-0.0718564449429512
1686445358106843400,4.536843505859375,-0.0069184010863304135,0.0054892815986648195,-0.058687751290202136
1686445358116859600,4.546859619140625,0.07058686339855194,-0.009858253930509089,-0.046855274677276605
1686445358126876700,4.556876708984375,0.11925824758708477,-0.029094869320094585,-0.031688100683689116
1686445358136893400,4.5668935546875,0.10646773959696293,-0.027085283063352106,-0.003471475502848625
1686445358146909400,4.576909423828125,0.06639642597138881,-0.013870996703207492,0.021266659912467
1686445358156926700,4.5869267578125,0.007754267388582229,-0.009905892464518546,0.029160628032684325
1686445358166943500,4.596943603515625,-0.06407353598177433,-0.014328933071158826,0.03432137179672718
1686445358176959500,4.60695947265625,-0.10764847381412983,-0.022070925500057636,0.009736381116509436
1686445358186976800,4.616976806640625,-0.10465805982649326,-0.0067167410343885415,-0.02305003619790077
1686445358196993500,4.62699365234375,-0.06325871246755123,0.006881612739898264,-0.03685936584174633
1686445358207009500,4.637009521484375,-0.03353928150832653,0.010285283703543245,-0.01974573395550251
1686445358217026600,4.647026611328125,-0.031112931144237518,0.023439327776432036,0.00826747760772705
1686445358227043600,4.657043701171875,-0.042862990170717236,0.031661504937708376,0.041864626783132554
1686445358237059600,4.6670595703125,-0.041105332848429675,0.02152067120615393,0.053584875193238256
1686445358247076600,4.67707666015625,-0.02912380315363407,-0.006730148505233228,0.0433048887193203
1686445358257093600,4.68709375,-0.03496668396294117,-0.02209781350698322,0.029333646512031554
1686445358267109600,4.697109619140625,-0.054235448056459426,-0.03759294081330299,0.014911737927794455
1686445358277126700,4.707126708984375,-0.06515431695580481,-0.053609425112605094,0.003134206372499466
1686445358287142400,4.717142333984375,-0.09460720593333244,-0.045156946326792236,-0.006505728632211685
1686445358297159700,4.72715966796875,-0.12447568997442722,-0.0347015667533502,-0.006967500925064087
1686445358307176700,4.7371767578125,-0.14392273324429988,-0.015843173559010028,-0.015209259569644928
1686445358317192400,4.7471923828125,-0.14518237791657446,-0.006539338640868663,-0.03225859404802322
1686445358327209500,4.75720947265625,-0.12352116572856903,-0.00807487764507532,-0.036707974672317505
1686445358337226800,4.767226806640625,-0.07231938627958297,-0.021146796392463148,-0.049402621072530746
1686445358347242500,4.777242431640625,0.003558569264411926,-0.04422459738012403,-0.0740782126456499
1686445358357259500,4.787259521484375,0.0808756177008152,-0.05534019442796707,-0.09768646724820136
1686445358367276500,4.797276611328125,0.11325929943323135,-0.053912207451462746,-0.11541209355294704
1686445358377292500,4.80729248046875,0.08176759810447692,-0.04276917440742254,-0.10627426285147666
1686445358387309600,4.8173095703125,0.05450491264760494,-0.046560383383929725,-0.09105857354104518
1686445358397326600,4.82732666015625,0.03717968383729458,-0.029080804262124,-0.07708265515863895
1686445358407342600,4.837342529296875,-0.006323357802629471,-0.022364099760353563,-0.0589595539689064
1686445358417359600,4.847359619140625,-0.05732523076534271,-0.017747253614664078,-0.03919920696616173
1686445358427376400,4.85737646484375,-0.10034078114926814,-0.020257482869923113,-0.017825579547882078
1686445358437392400,4.867392333984375,-0.10309913994669914,-0.0036386487632989882,-0.017318214547634124
1686445358447409700,4.87740966796875,-0.07753215249180793,-0.0007633855879306793,-0.027329320952296256
1686445358457426400,4.887426513671875,-0.05281447534263134,0.010048808066546917,-0.026944121026992795
1686445358467442400,4.8974423828125,-0.03208148391544818,0.03558481586128473,-0.017113047364354133
1686445358477459700,4.907459716796875,-0.030151392635703086,0.035872108370065686,-0.008155833926796913
1686445358487476500,4.9174765625,-0.031575872480869294,0.024453765515983102,-0.014357611176371573
1686445358497492500,4.927492431640625,-0.02424129180908203,0.0035103462085127827,-0.028231238228082656
1686445358507509500,4.937509521484375,-0.018998714980483052,-0.0026332345804199577,-0.04025602254271507
1686445358517525800,4.94752587890625,-0.0017728548914194106,-0.016624094803631306,-0.032766543570160865
1686445358527542500,4.95754248046875,-0.004831657940149307,-0.007861782883666455,-0.02805237452983856
1686445358537559600,4.9675595703125,-0.009683774146437644,-0.0004854454293847084,-0.009587912556529044
1686445358547575600,4.977575439453125,-0.0009767360776662827,0.0015627192720770835,0.005416179829835891
1686445358557592600,4.987592529296875,0.023629881912469862,0.001991466078162193,-0.01435118143558502
1686445358567609900,4.99760986328125,0.05461889441609382,0.002617196761071682,-0.037135844695568083
1686445358577625900,5.0076259765625,0.09963526322841644,0.0038072833284735676,-0.011311667609214782
1686445358587642600,5.017642578125,0.11534721162319182,0.0019046645775437354,0.012969956210255621
1686445358597659600,5.02765966796875,0.09976210447847843,0.03665770578980446,0.004687281033396721
1686445358607676000,5.037676025390625,0.07823474780321121,0.04552987129241228,-0.005527823510766029
1686445358617692700,5.047692626953125,0.0523322447836399,-0.00248918646723032,-0.027416414713859555
1686445358627709700,5.057709716796875,0.06723112322986126,-0.04485500423815101,-0.09352993209064006
1686445358637725700,5.0677255859375,0.061764674517512316,-0.031169702832773327,-0.1331254448980093
1686445358647742700,5.07774267578125,-0.002644377028942108,0.0012058686584234238,-0.09955635277330875
1686445358657759700,5.087759765625,-0.12006605683863163,-0.0045764776026830075,-0.05651040725111961
1686445358667775700,5.097775634765625,-0.19960721106529233,-0.00815028096884489,-0.007308277186751365
1686445358677792800,5.107792724609375,-0.20979425855875014,-0.016818448331952094,0.03936930283606052
1686445358687808800,5.117808837890625,-0.20358079087138176,-0.01070697971433401,0.07675006220340728
1686445358697825800,5.12782568359375,-0.17602233733832834,-0.005504442635178566,0.08608429225981235
1686445358707842600,5.137842529296875,-0.12749240744709966,-0.004262041358649731,0.059444707137346266
1686445358717858800,5.14785888671875,-0.08021335439980029,0.001593114410340786,0.02891863597035408
1686445358727875600,5.15787548828125,-0.03651858958005905,-0.006139817929267883,0.0016086042404174804
1686445358737892600,5.167892578125,-0.01495031637251377,-0.02618391377683729,-0.042127077111601824
1686445358747908600,5.17790869140625,0.015522563302516936,-0.03747779000103473,-0.06708908441066741
1686445358757925600,5.187925537109375,0.040056116056442256,-0.055502106991410255,-0.06612813042402267
1686445358767942700,5.197942626953125,0.06449906791746617,-0.06205923701729625,-0.07596154217422008
1686445358777958700,5.207958740234375,0.04838964463770389,-0.058198798729479306,-0.08062485781013966
1686445358787975700,5.2179755859375,0.025711948883533477,-0.03924743002206087,-0.06540098519325256
1686445358797992700,5.22799267578125,0.00409691392481327,-0.015925591145455838,-0.04244739510715007
1686445358808008700,5.2380087890625,0.0010603227078914642,-0.008481120358407496,-0.025333178699016568
1686445358818025500,5.248025390625,0.00935936449766159,-0.01506981456633657,-0.008651508489251137
1686445358828042800,5.258042724609375,0.009532967498898506,-0.012714191350899635,0.010033318236470221
1686445358838058800,5.268058837890625,-0.01990998460650444,-0.009150982443988322,0.03261865953207016
1686445358848075500,5.278075439453125,-0.011140987217426299,-0.0017444690471515058,0.024572131198644636
1686445358858092800,5.2880927734375,-0.00724924047589302,0.013205810792744159,0.013179799568653106
1686445358868108800,5.29810888671875,0.02399170096218586,0.02872928741071373,-0.019610709398984908
1686445358878125600,5.30812548828125,0.05269581739902496,0.04047200338095426,-0.04459902018308639
1686445358888141600,5.3181416015625,0.09304302535653114,0.044266427227854725,-0.05909983922243118
1686445358898158800,5.328158935546875,0.12878478534519672,0.04373805597219616,-0.06373217519819736
1686445358908175600,5.338175537109375,0.137303607365489,0.047296880964934826,-0.04147767329216003
1686445358918191600,5.348191650390625,0.11926935350298881,0.06102759241461753,-0.011126958692073821
1686445358928208600,5.358208740234375,0.09916530762910843,0.05915478428006172,0.011166121658682823
1686445358938225700,5.3682255859375,0.08302958086431025,0.06351623089257627,0.008388473638892174
1686445358948241700,5.37824169921875,0.07893792763650417,0.0478536745974794,-0.002241056925058365
1686445358958258700,5.3882587890625,0.0371568874835968,0.03321720994710922,0.0045031566381454466
1686445358968275700,5.398275634765625,-0.026292379119992253,0.009056289897859096,0.008436404433846472
1686445358978291700,5.408291748046875,-0.06891279270648956,-0.003500409336388111,0.018474983367323873
1686445358988308700,5.418308837890625,-0.08360416588187217,-0.004119418017566204,0.008213701593875885
1686445358998325500,5.428325439453125,-0.10003566072285175,-0.02285743623524904,0.009938625690340996
1686445359008341800,5.438341796875,-0.09546586858928204,-0.0635609102845192,0.011050386324524878
1686445359018358800,5.44835888671875,-0.09373802188336848,-0.0858119050592184,-0.011622633254528045
1686445359028375600,5.45837548828125,-0.11709727016091347,-0.08688187237828969,-0.02951251021027565
1686445359038391600,5.4683916015625,-0.14141454981565474,-0.09190817610770463,-0.029855040037631987
1686445359048408800,5.478408935546875,-0.19074995087087154,-0.07436488409992308,-0.03302431772351265
1686445359058425600,5.488425537109375,-0.22461305750608443,-0.07254939564317464,-0.05010872351527214
1686445359068441600,5.498441650390625,-0.2032218944311142,-0.07217760318871587,-0.03902034326791763
1686445359078459000,5.508458984375,-0.17864274896979332,-0.05675966930445283,-0.021793314135074616
1686445359088474600,5.518474609375,-0.14520400522649288,-0.0510603251516819,-0.013651508733630179
1686445359098491600,5.52849169921875,-0.11341595129966735,-0.0480319172412157,-0.016761165186762808
1686445359108508700,5.5385087890625,-0.07828150955438613,-0.05315905099660158,-0.0316799173772335
1686445359118524700,5.548524658203125,-0.051499885612726205,-0.046211716076731676,-0.05948562366962432
1686445359128541700,5.558541748046875,-0.026342063480615616,-0.040080373714864254,-0.0997018987238407
1686445359138558700,5.568558837890625,-0.020071897169947624,-0.04913052613288164,-0.13158406067490577
1686445359148574500,5.578574462890625,-0.006913724911212921,-0.04984159701168537,-0.13815584028065203
1686445359158591700,5.588591796875,0.017165069812536238,-0.04703969133347272,-0.15121464381814
1686445359168608800,5.59860888671875,0.011759411376714705,-0.04133271186351776,-0.10414777221679687
1686445359178624500,5.60862451171875,0.013027823877334595,-0.021661796709895133,-0.06107201607823372
1686445359188641800,5.618641845703125,0.005254851788282394,-0.008009703454375267,-0.030358897906541824
1686445359198658800,5.628658935546875,-0.0075087681949138636,-0.005377601385116577,-0.01753974834382534
1686445359208674600,5.638674560546875,-0.023899931025505066,-0.005089724354445934,-0.01840074908733368
1686445359218691600,5.648691650390625,0.002621580675244331,-0.004583820658922195,-0.01438216109573841
1686445359228708900,5.658708984375,-0.012103110247850418,0.018922727134823798,-0.020615502527356146
1686445359238724600,5.668724609375,-0.010654665005207061,0.025674247221648693,-0.014567454534769058
1686445359248741600,5.67874169921875,-0.006565934386849403,0.03295183700919151,-0.0019371055424213409
1686445359258757600,5.688757568359375,0.002810381245613098,0.041850634790398175,-0.0011667056918144225
1686445359268774700,5.698774658203125,0.02580196525454521,0.018461539363861083,-0.012348609441518783
1686445359278791700,5.708791748046875,0.057278469014167784,0.008799319462105631,0.007806289836764335
1686445359288807700,5.7188076171875,0.06810206084549426,-0.0010922522161155939,0.033086277043819425
1686445359298824700,5.72882470703125,0.04703355385363102,0.009411386945843696,0.05348433742821216
1686445359308841700,5.738841796875,0.017131752064824105,0.01588672043979168,0.049344753405451774
1686445359318857700,5.748857666015625,-0.007573065602779388,0.013007657872140407,0.03593874386548996
1686445359328874500,5.75887451171875,-0.017705168038606642,-0.005398936434090137,0.005285246926546096
1686445359338891800,5.768891845703125,-0.013252280282974243,-0.02304360645711422,-0.02662497207522392
1686445359348907800,5.77890771484375,-0.016202362260222435,-0.01955700645036995,-0.03326572526395321
1686445359358924500,5.788924560546875,-0.016891513568162916,-0.026646599385142324,-0.022526304584741592
1686445359368941800,5.79894189453125,-0.027466683596372603,-0.01993570356965065,-0.009709493109583854
1686445359378957800,5.808957763671875,-0.026629648250341413,-0.01086947679966688,0.015410335099697112
1686445359388974600,5.818974609375,-0.031415128961205484,-0.0026505145087838172,0.03399053240716457
1686445359398992000,5.828991943359375,-0.037252164551615716,0.005512041419744491,0.04263444211184978
1686445359409007900,5.8390078125,-0.027459669333696365,0.02274557335861027,0.020768647262454032
1686445359419024600,5.849024658203125,-0.02913081741631031,0.025417276785895226,0.015078326666355132
1686445359429041700,5.859041748046875,-0.04441372674405575,0.0253212325328961,-0.0049731122374534606
1686445359439057700,5.8690576171875,-0.04649871632456779,0.016871384095586837,-0.029749241575598714
1686445359449074700,5.87907470703125,-0.049749242553114886,0.007193162907101214,-0.05472586192190647
1686445359459090700,5.889090576171875,-0.05596271024048328,-0.0024023484339937566,-0.06515490147769451
1686445359469107700,5.899107666015625,-0.042426352319121355,-0.01019607105012983,-0.05851473281085491
1686445359479124700,5.909124755859375,-0.028373277047276494,-0.03790770585089922,-0.06199556066393852
1686445359489140700,5.919140625,-0.027972879552841185,-0.06445756686329841,-0.06600538082718849
1686445359499157800,5.92915771484375,-0.023884148934483526,-0.06712152537554503,-0.07933890965282916
1686445359509174500,5.939174560546875,-0.025155484044551847,-0.056653907375037664,-0.09367080186605453
1686445359519190800,5.949190673828125,-0.02443126142323017,-0.04768788957651704,-0.10145254178345203
1686445359529207800,5.959207763671875,-0.028843817168474197,-0.0345098801061511,-0.08694587752521038
1686445359539224600,5.969224609375,-0.009112696260213852,-0.05435293695628643,-0.05340893410444259
1686445359549240600,5.979240478515625,0.007579495343565941,-0.04694879817962646,-0.03218728237748146
1686445359559257600,5.989257568359375,0.011731938847899435,-0.04185761252045631,-0.018892331996560097
1686445359569274600,5.999274658203125,-0.0017705168038606642,-0.028793840546905994,-0.01698679063618183
1686445359579290600,6.00929052734375,-0.006083119305968284,-0.017279051581025124,-0.02278700134754181
1686445359589307600,6.0193076171875,-0.004130231672525406,0.005934979539550841,-0.03190729639232159
1686445359599324400,6.029324462890625,0.005997779110074043,0.01532411812096834,-0.028792379242181778
1686445359609340700,6.039340576171875,-0.01640636039972305,0.01637304265201092,-0.03934066126346588
1686445359619357700,6.049357666015625,-0.008155833926796913,0.026016813581623135,-0.021938275563716886
1686445359629374500,6.05937451171875,0.00208440505862236,0.02816255690604448,-0.0012204817056655883
1686445359639390500,6.069390380859375,-0.01568506038784981,0.015751403622329234,0.010007599273324012
1686445359649407700,6.07940771484375,-0.04328092332184314,0.022430735255777833,0.0037958851516246795
1686445359659423500,6.089423583984375,-0.03952770826816559,0.008722527898848056,-0.0012426935374736784
1686445359669440500,6.0994404296875,-0.03191021900177002,0.010579261681437491,-0.0094242464274168
1686445359679457800,6.109457763671875,-0.024266426250338553,0.007091419565677643,-0.0008154080361127853
1686445359689473500,6.1194736328125,-0.0065425535112619395,0.009804806710220873,0.0070651160806417465
1686445359699490600,6.129490478515625,0.0013087445110082625,-0.0012637363255023955,0.010724807631969452
1686445359709507600,6.139507568359375,0.018096797704696653,-0.010313011960685252,0.0043920974791049954
1686445359719523600,6.149523681640625,0.006494038194417953,-0.010242869333922863,0.003774257841706276
1686445359729540600,6.15954052734375,-0.026588147196173667,-0.009366086499392986,0.002963525980710983
1686445359739557600,6.1695576171875,-0.04619534946382046,-0.007243066463433205,-0.012744915282726288
1686445359749573400,6.179573486328125,-0.03054243777990341,0.004341828596591949,-0.015871522870659828
1686445359759590700,6.189590576171875,-0.024607202512025833,-0.0029191023170948025,-0.03094458884000778
1686445359769607400,6.199607421875,-0.011737199544906615,-0.005654664760828018,-0.024880758756399154
1686445359779623400,6.20962353515625,-0.013302549165487289,-0.006198270118236542,-0.014290391159057616
1686445359789640700,6.219640625,-0.00043780689537525175,-0.017261515924334524,-0.027749592190980908
1686445359799657500,6.229657470703125,-0.01265197630226612,-0.03967266969680786,-0.03622632863521576
1686445359809673500,6.239673583984375,-0.034709494331479074,-0.04104425031095743,-0.035061961030960084
1686445359819690500,6.2496904296875,-0.04414192406535148,-0.04077361667603254,-0.027103110980987548
1686445359829707500,6.25970751953125,-0.0525374119669199,-0.04825315877646207,-0.044423663616180414
1686445359839723500,6.2697236328125,-0.0434744000673294,-0.0479427776530385,-0.05594575910568237
1686445359849740500,6.279740478515625,-0.0361807359278202,-0.03554795444961637,-0.0666886869162321
1686445359859756500,6.289756591796875,-0.02189151381254196,-0.016244447836279867,-0.06863923646211624
1686445359869773600,6.299773681640625,-0.010613163951039313,-0.0039759178936481475,-0.04681377362310886
1686445359879790600,6.30979052734375,0.014857377392053603,0.0024070611417293547,-0.03358195160627365
1686445359889806600,6.319806640625,0.013162263911962508,-0.004672960247099399,-0.027603461718559263
1686445359899823600,6.32982373046875,0.007548515683412552,-0.020002302532456814,-0.0325865108281374
1686445359909840600,6.339840576171875,0.0029623569369316097,-0.02635371738579124,-0.044992403414845464
1686445359919856600,6.349856689453125,-0.020285247659683227,-0.024926059202849862,-0.06378945834338665
1686445359929873400,6.359873291015625,-0.042165071034431456,-0.00443067592382431,-0.07431611305475234
1686445359939890700,6.369890625,-0.05124094241559505,0.0020905425384640693,-0.06525193211138249
1686445359949906700,6.37990673828125,-0.04997428348064422,0.006938274830579757,-0.046103579527139664
1686445359959923500,6.38992333984375,-0.04617722928524017,0.004171732726693153,0.004775543838739395
1686445359969940700,6.399940673828125,-0.022213585373759268,-0.004638765716552734,0.030637130326032637
1686445359979956700,6.409956787109375,-0.029403789138793945,-0.005654664760828018,0.04727729948163032
1686445359989973500,6.419973388671875,-0.018142974933981895,-0.005011398421227931,0.041783378240466115
1686445359999990500,6.429990478515625,-0.03326923239529132,0.007085610879398882,0.024102175599336622
1686445360010006800,6.4400068359375,-0.034120296266674996,0.007554397434927523,-0.0006996727019548416
1686445360020023600,6.4500234375,-0.031901451173424716,0.010843794369138777,-0.016106500670313835
1686445360030039600,6.46003955078125,-0.00911444982588291,0.005652034412324428,-0.03275134600102901
1686445360040056600,6.470056640625,0.003937339448928833,-0.003159340813755989,-0.03264087136387825
1686445360050073600,6.480073486328125,0.004704232168197631,0.009312602746486664,-0.009041969111561774
1686445360060089600,6.490089599609375,0.008514730367064476,-0.005820047922991216,0.004725859478116035
1686445360070106600,6.500106689453125,0.013239420801401138,0.0037345468858256932,0.02369534836411476
1686445360080123600,6.51012353515625,0.004705985733866692,0.010155483311414719,0.033705870246887204
1686445360090139600,6.5201396484375,-0.010925883162021637,-0.00793809952288866,0.021346739411354065
1686445360100156700,6.53015673828125,-0.026501053434610365,-0.006730185037851333,-0.0006605097353458404
1686445360110173400,6.54017333984375,-0.018533435556292534,-0.012091127549111843,-0.023214871370792388
1686445360120189700,6.550189697265625,0.005150222370028495,-0.00840538824107498,-0.04603752855360508
1686445360130206500,6.56020654296875,0.020690905851125718,-0.014967559768259524,-0.045617257314920424
1686445360140223500,6.570223388671875,0.01917056441605091,-0.014408135787211358,-0.03321545638144016
1686445360150239500,6.580239501953125,0.003728665134310722,-0.02039685480799526,-0.03699380587637424
1686445360160256500,6.590256591796875,-0.013429390415549277,-0.02183156378623098,-0.04367196846604347
1686445360170273500,6.6002734375,-0.00971358476281166,-0.014420447279512881,-0.0469558124423027
1686445360180289500,6.61028955078125,-0.008634557354450225,-0.011269874294102191,-0.05945113687813282
1686445360190306600,6.620306640625,-0.018234160348773003,-0.01601937037613243,-0.04776888239085674
1686445360200322600,6.630322509765625,-0.014962591332197189,-0.009000760318338871,-0.039108021551370616
1686445360210339600,6.640339599609375,-0.014857377392053603,-0.0063385553717613214,-0.03155249160528183
1686445360220356400,6.6503564453125,-0.02390051554739475,-0.02108863646443933,-0.01999707836806774
1686445360230372600,6.66037255859375,-0.0405161347836256,-0.02243595942016691,-0.033197920724749565
1686445360240389600,6.6703896484375,-0.0674029726654291,-0.019665033402107655,-0.021816695010662076
1686445360250406400,6.680406494140625,-0.07276537648141383,-0.01917549631949514,-0.036600422644615174
1686445360260422400,6.69042236328125,-0.0660877984136343,-0.011932101062498986,-0.05201835652887821
1686445360270439700,6.700439697265625,-0.04070844248533249,-0.002213292135298252,-0.05125497094094753
1686445360280456400,6.71045654296875,-0.008351648759841918,0.007482501242496073,-0.03499824814498424
1686445360290472400,6.720472412109375,-0.005933481702208519,0.0008350260520353913,-0.016128712502121924
1686445360300489700,6.73048974609375,0.0032370822250843046,-0.003511222991347313,0.008691840499639511
1686445360310506500,6.740506591796875,0.00015898995399475096,-0.013566168537735939,0.00807926155924797
1686445360320522500,6.7505224609375,-0.023511223968863487,-0.02859481084346771,0.0009428338080644607
1686445360330539500,6.76053955078125,-0.026736615756154058,-0.03216273245811462,-0.015035656568408011
1686445360340556500,6.770556640625,-0.021649521750211714,-0.020080372737348078,-0.015976152288913727
1686445360350572500,6.780572509765625,-0.03510638469457626,-0.01225157880783081,-0.019893617993593214
1686445360360589600,6.790589599609375,-0.036005379360914226,0.011831599830091,-0.01629880837202072
1686445360370606600,6.800606689453125,-0.020413842475414275,0.02402735679745674,-0.013845570001006125
1686445360380622600,6.81062255859375,0.0036152678877115246,0.022185564855672416,0.0052425768285989756
1686445360390639600,6.8206396484375,0.003907528832554817,0.020610570623911917,0.033029578420519824
1686445360400655600,6.830655517578125,-0.003947860842943191,0.010031856931746005,0.05072948576211929
1686445360410672600,6.840672607421875,-0.014210311660170553,0.007162146714329719,0.0220423204600811
1686445360420689700,6.850689697265625,-0.018440496575832365,0.0014539982005953788,-0.008386720073223114
1686445360430705700,6.86070556640625,-0.012625088295340538,-0.001152092644572258,-0.030565234133601186
1686445360440722400,6.870722412109375,-0.018735095608234404,-0.004831950201094151,-0.0491039303869009
1686445360450739700,6.88073974609375,-0.025489246043562886,-0.01701075603365898,-0.05122165319323539
1686445360460755700,6.890755615234375,-0.00696340927183628,-0.024565080403350294,-0.053614101287722586
1686445360470772500,6.9007724609375,0.000037409400939941404,-0.026787176899611947,-0.05015957691967487
1686445360480789800,6.910789794921875,-0.013583704194426536,-0.032202735674940045,-0.02524608493745327
1686445360490805500,6.920805419921875,-0.009037877458333968,-0.03137362790703773,-0.012694646400213241
1686445360500822500,6.930822509765625,0.006755904000997543,-0.026385902622342108,-0.009579729250073433
1686445360510839600,6.940839599609375,-0.00041851767301559446,-0.016759411621093748,-0.022983985224366187
1686445360520855600,6.95085546875,-0.011424480333924293,-0.009336823872290552,-0.029001053556799886
1686445360530872600,6.96087255859375,-0.006405775389075279,-0.015335808558762072,-0.041004795083403586
1686445360540888600,6.970888671875,-0.009887772285938262,-0.009819383224844932,-0.053738604450225824
1686445360550905300,6.9809052734375,-0.016519173124432563,-0.013232114277780056,-0.06379354999661445
1686445360560922000,6.990922119140625,-0.019948563051223753,-0.018303426192700863,-0.06954933704435826
1686445360570938000,7.000938232421875,-0.036303485524654386,-0.016389701525866985,-0.062035892674326895
1686445360580955400,7.010955322265625,-0.036384149545431135,-0.01599777959883213,-0.04720598781108856
1686445360590972200,7.02097216796875,-0.05486614717543125,0.000007598784565925598,-0.022336919492483138
1686445360600988200,7.03098828125,-0.059575640040636056,0.0024009236618876455,0.002364975565671921
1686445360611005200,7.041005126953125,-0.055146133160591124,0.005770107834041118,0.010906009417772292
1686445360621022200,7.051022216796875,-0.05030570739209651,-0.008994038316607474,-0.0039449382334947585
1686445360631038200,7.0610380859375,-0.01834931116104126,-0.010135609567165374,-0.024262919119000432
1686445360641055200,7.07105517578125,-0.010481646525859832,-0.003131283763051033,-0.036188919234275814
1686445360651072300,7.081072265625,0.012995090651512145,0.0003912643399089575,-0.03280687558054924
1686445360661088300,7.091088134765625,0.028390812703967094,-0.011852606085501611,-0.03186521081626415
1686445360671105000,7.10110498046875,0.04066284977793693,-0.016339432643353937,-0.025589783808588982
1686445360681122300,7.111122314453125,0.03085749507844448,-0.015632453417778015,-0.017352116817235946
1686445360691138300,7.12113818359375,0.004434767577052116,-0.018455365351401267,-0.016783961540460586
1686445360701155000,7.131155029296875,-0.038103812944889064,-0.013484883462451398,-0.010602058035135269
1686445360711172000,7.141172119140625,-0.0497574258595705,-0.006291172566078603,-0.013877134183049202
1686445360721188400,7.151188232421875,-0.03755436236858368,0.002769464713335037,-0.01929389853477478
1686445360731205000,7.161205078125,-0.026656536257266997,-0.0024181670576334,-0.013258125501871108
1686445360741222100,7.17122216796875,0.0010679214924573899,0.0010448328778147698,0.004063596177101135
1686445360751238100,7.181238037109375,0.013482581907510756,0.008884805788472293,0.007696399721503257
1686445360761255200,7.191255126953125,0.011503975310921668,-0.011401026393100618,0.0028431144714355467
1686445360771271200,7.201271240234375,-0.01096972230374813,-0.014919007918797432,0.00007832593321800231
1686445360781288200,7.2112880859375,-0.03210544931292534,-0.025989267987571656,-0.02614624864757061
1686445360791305200,7.22130517578125,-0.03900689926445484,-0.0240945768147707,-0.03810205937922
1686445360801321200,7.2313212890625,-0.03533610179722309,-0.027940146327018738,-0.04242576779723167
1686445360811338200,7.241338134765625,-0.006993219888210296,-0.007918481506966054,-0.03132920424342155
1686445360821355000,7.25135498046875,-0.0047884033203125,-0.00006458966881036758,-0.007944821524620055
1686445360831371300,7.261371337890625,0.00028407763838768005,0.014572422970831393,0.008707622590661048
1686445360841388300,7.27138818359375,0.0054740474969148635,-0.008922142124176025,-0.001073182189464569
1686445360851405000,7.281405029296875,0.007733224600553512,-0.008429682432115077,-0.009752163207530975
1686445360861421000,7.291421142578125,-0.01637947239279747,-0.011006254921853541,-0.031948212924599644
1686445360871438300,7.301438232421875,-0.026036358532309532,-0.01680120493620634,-0.04624854095578193
1686445360881455000,7.311455078125,-0.025201076751947403,-0.01551934843212366,-0.06273965702950954
1686445360891471000,7.32147119140625,-0.014506079736351965,-0.002924655275046825,-0.05604512782692909
1686445360901488400,7.33148828125,-0.012559037321805954,0.006987082408368587,-0.03429740639925003
1686445360911505200,7.341505126953125,-0.022968787655234336,0.0021799743875861167,-0.02068155350089073
1686445360921521200,7.351521240234375,-0.005225625693798065,-0.00547200167030096,-0.019040216034650802
1686445360931538200,7.3615380859375,0.004938040924072265,-0.009387129287421702,-0.012438625812530517
1686445360941554400,7.371554443359375,-0.01321662444770336,-0.012398257269524038,-0.007287234398722648
1686445360951571200,7.3815712890625,-0.040272973677515984,-0.015238156870566308,-0.013731003710627555
1686445360961588200,7.391588134765625,-0.05345744942128658,-0.012102781454287469,-0.024986557218432424
1686445360971604200,7.401604248046875,-0.04009586354494095,-0.021632534082792698,-0.03988485114276409
1686445360981621200,7.411621337890625,-0.02893383353948593,-0.014181670087575912,-0.03688333123922348
1686445360991638300,7.42163818359375,-0.0163344642072916,-0.010393968242406845,-0.018396072912216184
1686445361001654300,7.431654296875,-0.014745149189233779,-0.005817161846160888,0.0029880759000778198
1686445361011671300,7.44167138671875,-0.010453589475154876,-0.007731763295829296,-0.01064472813308239
1686445361021688300,7.451688232421875,-0.015375263786315917,-0.0026832112019881606,-0.011807342171669006
1686445361031704000,7.4617041015625,-0.01776245118379593,-0.0051680502876639365,-0.015830606338381768
1686445361041721000,7.47172119140625,-0.018938509225845335,-0.006418050348758697,-0.014313772034645079
1686445361051738400,7.48173828125,-0.022272622084617614,-0.012616028206050395,-0.028576690664887428
1686445361061754000,7.491754150390625,-0.01462532220184803,-0.017770049968361852,-0.02200140392780304
1686445361071771100,7.501771240234375,-0.0007253916651010513,-0.01114328877236694,-0.030703765821456907
1686445361081788400,7.511788330078125,-0.01357785897552967,-0.010107808244787155,-0.023909867897629736
1686445361091804200,7.52180419921875,-0.012203063490986822,-0.010977576816640794,-0.026961072161793706
1686445361101821200,7.5318212890625,-0.008742109382152558,0.0031856442987918854,-0.031043957561254498
1686445361111838200,7.541838134765625,-0.009846855753660202,0.005541304046846926,-0.02893909423649311
1686445361121854200,7.551854248046875,0.0004845686465501785,0.009117993489839136,-0.02678746916055679
1686445361131871200,7.561871337890625,0.004511924466490745,-0.012298011765442788,-0.018396657434105873
1686445361141887200,7.57188720703125,-0.01125379994213581,-0.012041114394925534,-0.019219664254784583
1686445361151904000,7.581904052734375,-0.027484803774952885,-0.005522197487577795,-0.011217559584975242
1686445361161921300,7.59192138671875,-0.03866261587142944,-0.00576134000569582,-0.007145195579528808
1686445361171937300,7.601937255859375,-0.03544774547815323,-0.00768149441331625,-0.02159925286769867
1686445361181954000,7.6119541015625,-0.025809564039111135,-0.01656998999621719,-0.007939560827612876
1686445361191971300,7.621971435546875,-0.024630583387613297,-0.005249006569385528,-0.009191022193431854
1686445361201987300,7.6319873046875,-0.028419454276561736,0.004070610439777374,-0.01701777029633522
1686445361212004000,7.642004150390625,-0.00912146408855915,0.0005196399599313736,-0.013104980766773223
1686445361222021000,7.652021240234375,-0.005167173504829406,-0.008608838391304016,-0.0055669864773750305
1686445361232037400,7.662037353515625,-0.0032388357907533645,-0.00529573178794235,-0.005143792629241943
1686445361242054100,7.67205419921875,-0.009205635240674019,-0.0015057283878326415,-0.012639701342582702
1686445361252071200,7.6820712890625,-0.01157704054713249,-0.009296236133575438,-0.014767945542931557
1686445361262087200,7.692087158203125,-0.014245382973551749,-0.013869791126810013,-0.024681436792016027
1686445361272104200,7.702104248046875,-0.020596797826886174,-0.012671521252952515,-0.032004327026009555
1686445361282121200,7.712121337890625,-0.020352467676997183,-0.020308884263597428,-0.03136895173192024
1686445361292137200,7.72213720703125,-0.020149054059386252,-0.015192308434844017,-0.021322189491987227
1686445361302154200,7.732154296875,-0.020045593684911725,-0.014922259321808814,-0.020042086553573608
1686445361312170200,7.742170166015625,-0.02733575069308281,-0.010528700537979602,-0.022832009533047676
1686445361322187300,7.752187255859375,-0.02158347077667713,-0.015187011205218731,-0.020674539238214492
1686445361332204000,7.7622041015625,-0.022469021439552306,-0.007750431463681161,-0.03906710501909256
1686445361342220300,7.77222021484375,-0.020561141991615295,-0.003902560396492481,-0.051953474599123
1686445361352237300,7.7822373046875,-0.025062545064091682,-0.011069675546884535,-0.05416705899536609
1686445361362254000,7.792254150390625,-0.01618950277864933,-0.008616729436814784,-0.04835048167109489
1686445361372270000,7.80227001953125,0.0004576806396245956,-0.01748944292869419,-0.03060556614398956
1686445361382287400,7.812287353515625,0.015185294172167777,-0.02453556204792112,-0.024997078612446783
1686445361392304000,7.82230419921875,0.005405658435821533,-0.032606092311441896,-0.014903554621338843
1686445361402320100,7.832320068359375,-0.009000468057394026,-0.025158077860437333,0.005499766460061073
1686445361412337400,7.84233740234375,-0.024131986215710638,-0.01703910534530878,0.011240940460562706
1686445361422354200,7.852354248046875,-0.035787937217950816,-0.010617803593538701,-0.012141688692569732
1686445361432370200,7.8623701171875,-0.030160160464048385,-0.007094049914181232,-0.03168576259613037
1686445361442387200,7.87238720703125,-0.03785539114177227,-0.014076456147432326,-0.04358312113881111
1686445361452404200,7.882404296875,-0.04382277511358261,0.002036803057231009,-0.02472936758697033
1686445361462420200,7.892420166015625,-0.037624504995346066,0.009821429051458835,0.0033148236364126202
1686445361472437200,7.902437255859375,-0.03233925806879997,0.005609948836266994,0.005617255359888077
1686445361482454300,7.912454345703125,-0.023902853634953498,0.006554280481673776,-0.001477086815237999
1686445361492470300,7.92247021484375,-0.029368717825412748,0.012098141811788081,-0.0007855974197387695
1686445361502487300,7.9324873046875,-0.030960370931029317,0.013799137043394147,0.00015840543210506437
1686445361512504000,7.942504150390625,-0.023223054677248,0.004001052334904671,-0.0023088614642620083
1686445361522520300,7.952520263671875,-0.054608957543969154,-0.009645159169100224,-0.012626257339119911
1686445361532537300,7.962537353515625,-0.05948620819151401,-0.02871200748234987,-0.023920389291644095
1686445361542553000,7.972552978515625,-0.0550339049577713,-0.028267770846188065,-0.03962473890185356
1686445361552570000,7.982570068359375,-0.037787586602568625,-0.023700024539232253,-0.042920273315906525
1686445361562587400,7.99258740234375,-0.030514380729198452,-0.021346154889464376,-0.027141104903817177
1686445361572603400,8.002603271484375,-0.015765724408626555,-0.016794482934474945,-0.018110241708159447
1686445361582620400,8.012620361328125,0.003803483936190605,-0.008720737800560891,-0.022529227194190024
1686445361592637400,8.022637451171875,0.025332009655237197,-0.012394750138185917,-0.025306875213980673
1686445361602653400,8.0326533203125,0.01176701016128063,-0.011725472574494779,-0.025908932760357856
1686445361612670500,8.04267041015625,-0.0021498715102672575,-0.006562427255511283,-0.044454643276333805
1686445361622686500,8.0526865234375,-0.0015139116942882538,-0.00931669439971447,-0.05619008925557136
1686445361632703500,8.062703369140625,0.004103343665599822,-0.023835597085021434,-0.05965104336440563
1686445361642720500,8.072720458984374,-0.02072071646749973,-0.04278755031432956,-0.060793199136853215
1686445361652736500,8.082736572265626,-0.033601825350522994,-0.0392766561165452,-0.06871405526399613
1686445361662753300,8.092753173828125,-0.0363420639693737,-0.025018413661420345,-0.06842997762560844
1686445361672770600,8.1027705078125,-0.03359422656595707,-0.009571911269798875,-0.04528583340346813
1686445361682786600,8.11278662109375,-0.05340776506066322,0.007354162155091762,-0.017923779225349424
1686445361692803300,8.12280322265625,-0.05327274050414562,0.020616379310190676,0.0009586158990859985
1686445361702820600,8.132820556640626,-0.0532516977161169,0.011840696451999247,0.012567805150151252
1686445361712836600,8.142836669921875,-0.03361819196343422,0.004765606966614723,0.007301847445964813
1686445361722853400,8.152853271484375,-0.009699556237459182,0.001899403880536556,-0.021794483178853987
1686445361732870400,8.162870361328125,0.018515899899601937,-0.005671871623955667,-0.041381227180361746
1686445361742886700,8.17288671875,0.03701601770818233,-0.008167780092917382,-0.04857435355484485
1686445361752903400,8.1829033203125,0.03312894714176655,-0.0009822525030001997,-0.05021627554297447
1686445361762920400,8.19292041015625,0.022393618115782738,-0.004151822449825704,-0.02673135505914688
1686445361772936400,8.2029365234375,0.022375497937202452,-0.007882862204313277,-0.005033317992091179
1686445361782953500,8.212953369140624,0.009181085321307183,0.0014376315876841544,0.011637830823659896
1686445361792969500,8.222969482421876,0.002333411383628845,0.00855243202894926,0.025965046861767767
1686445361802986500,8.232986572265625,-0.01704991900026798,0.019598726700246333,0.025360651227831838
1686445361813003500,8.24300341796875,-0.030125673672556877,0.012817395997047424,0.023780688560009002
1686445361823019500,8.25301953125,-0.006954641443490982,0.011721417453885078,0.01640285326838493
1686445361833036500,8.26303662109375,0.011101824250817299,0.006597242840565741,0.0031540801167488095
1686445361843053300,8.27305322265625,0.008553893333673476,0.005750526350736617,-0.021841244930028914
1686445361853069600,8.283069580078125,0.014162380865216255,-0.004971322139166295,-0.03447217844426632
1686445361863086300,8.29308642578125,0.020832944670319556,-0.0019400281518697738,-0.025859248399734497
1686445361873103400,8.303103271484375,0.009850947406888008,0.0007529007265344262,-0.01235094752907753
1686445361883119400,8.313119384765624,0.0013479074776172636,-0.0075315280159935355,-0.010454173997044562
1686445361893136400,8.323136474609376,-0.020728899773955343,-0.01257069122698158,-0.01780512128174305
1686445361903153400,8.3331533203125,-0.04570142846703529,-0.007620996397733688,-0.0061813189834356306
1686445361913169400,8.34316943359375,-0.047749593168497084,0.006245324130356312,0.0038771336942911147
1686445361923186400,8.3531865234375,-0.041138650596141815,0.004959668233990669,0.004518938729166984
1686445361933203500,8.363203369140624,-0.024660978525876998,0.007088533488847315,0.010996610310673713
1686445361943219500,8.373219482421876,-0.006211714121699333,0.003219546568393707,0.003562660917639732
1686445361953236200,8.383236328125,-0.02253507241308689,0.009667444066144525,-0.016039280652999876
1686445361963253500,8.39325341796875,-0.005756371569633483,0.005121580797433853,-0.0433873063057661
1686445361973269500,8.40326953125,0.014071195450425147,-0.006000701719522476,-0.050480479437112806
1686445361983286300,8.413286376953126,0.009002221623063087,-0.013583411933481693,-0.05269815548658371
1686445361993303600,8.423303466796876,-0.00374444722533226,-0.009010368396900593,-0.04343874423205852
1686445362003319600,8.433319580078125,0.009659224227070808,-0.022406148803792894,-0.049044309154152865
1686445362013336300,8.44333642578125,0.017410569006204604,-0.03631166883111,-0.05567161833941936
1686445362023352300,8.453352294921874,0.007702829462289809,-0.031699498860538,-0.044326632982492446
1686445362033369600,8.46336962890625,-0.021208207723498344,-0.020495456344261764,-0.02856090857386589
1686445362043386400,8.473386474609375,-0.04103577474355698,-0.01544394510835409,-0.016165537381172178
1686445362053403400,8.4834033203125,-0.05805354503989219,-0.015426409451663493,-0.009162965142726898
1686445362063419400,8.49341943359375,-0.07170914542675018,-0.008756722429394721,-0.027356793481111526
1686445362073436400,8.5034365234375,-0.05146715238690376,-0.010740005201101303,-0.033301965621113774
1686445362083453400,8.513453369140626,-0.03210544931292534,-0.005603226834535599,-0.035278818652033805
1686445362093469400,8.523469482421875,-0.01678162345290184,-0.003952244757115841,-0.024099837511777876
1686445362103486500,8.533486572265625,-0.001959317374229431,0.0014899462968111037,-0.016034019955992698
1686445362113503500,8.54350341796875,0.0030500352203845977,0.009632628481090068,0.004492050722241401
1686445362123519500,8.55351953125,-0.0014946224719285964,0.0007218845337629318,0.007815057665109634
1686445362133536300,8.563536376953126,-0.00757774177789688,-0.003806077752076089,0.006136310797929764
1686445362143552500,8.573552490234375,-0.028030747219920157,-0.0058890580385923385,0.007122983747720718
1686445362153569500,8.583569580078125,-0.0429518374979496,0.0014323708906769752,-0.007553191858530044
1686445362163586300,8.59358642578125,-0.02859831797480583,-0.004440905056893825,-0.0409124406248331
1686445362173602300,8.603602294921876,-0.009855039060115813,-0.007424889303743839,-0.0636912586659193
1686445362183619600,8.61361962890625,0.01872749682366848,-0.0034691374152898786,-0.056363692256808276
1686445362193636400,8.62363623046875,0.032657237976789474,-0.003715513391792774,-0.024696049839258192
1686445362203652400,8.63365234375,0.031332711374759674,-0.006386778427660465,-0.007152794364094734
1686445362213669600,8.643669677734374,0.03071545625925064,-0.013507424087822437,-0.007953589352965354
1686445362223686400,8.653686279296876,-0.004390343913435936,-0.01675206856485456,-0.007970540487766265
1686445362233702400,8.663702392578125,-0.02494973233938217,-0.007969919433258473,-0.00855330881178379
1686445362243719400,8.673719482421875,-0.042779403540492054,-0.00045296793188899753,-0.003423544707894325
1686445362253736400,8.683736328125,-0.04213175328671932,0.004959704766608774,-0.005215688821673393
1686445362263752400,8.69375244140625,-0.04289864600598812,0.0032082214567810295,-0.017102525970339774
1686445362273769500,8.70376953125,-0.022350948017835617,-0.005540098470449447,-0.021259645649790763
1686445362283786500,8.713786376953125,-0.013396072667837142,-0.010677717087231576,-0.014992401948571205
1686445362293802500,8.723802490234375,-0.011842413485050201,-0.00965220996439457,-0.015242577317357063
1686445362303819500,8.733819580078125,0.005385200169682502,-0.01170793691780418,-0.015705518653988837
1686445362313836300,8.743836181640624,0.0017319383591413496,-0.020317652091942726,-0.016895605221390723
1686445362323852500,8.7538525390625,-0.009489128357172012,-0.016581424705684186,-0.021165537625551224
1686445362333869600,8.76386962890625,-0.03767302031219005,-0.007098726089298724,-0.02881225298643112
1686445362343886300,8.77388623046875,-0.04506546865105629,-0.022703670445643365,-0.04109364241063595
1686445362353902300,8.78390234375,-0.03795242177546024,-0.028855799867212772,-0.052126493078470226
1686445362363919600,8.793919677734374,-0.028866029000282286,-0.026653613647818562,-0.05160159242153167
1686445362373936400,8.803936279296876,-0.024631167909502982,-0.017829671201109884,-0.0342202495098114
1686445362383952400,8.813952392578125,-0.027910920232534407,-0.004034077821671963,-0.020284078615903853
1686445362393969400,8.823969482421875,-0.030257775619626042,-0.0017287234887480734,0.008623451438546181
1686445362403986400,8.833986328125,-0.03569441371560097,-0.017227613654732705,0.012412906849384307
1686445362414002400,8.84400244140625,-0.03690671211481094,-0.012153963652253151,-0.009194529324769973
1686445362424019500,8.85401953125,-0.04192541705965996,0.00511339749097824,-0.044753918483853336
1686445362434036500,8.864036376953125,-0.023693010276556015,0.015439853455126284,-0.0685229166060686
1686445362444052500,8.874052490234375,-0.00037760114073753353,0.01634619117770344,-0.06696165863871574
1686445362454069200,8.8840693359375,0.019169979894161224,0.0061550154983997345,-0.04342413118481636
1686445362464085200,8.894085205078126,0.04107201510071754,-0.014398198915086686,-0.022693477845191955
1686445362474102500,8.9041025390625,0.036949966734647746,-0.021822832490503787,-0.006793313401937485
1686445362484119300,8.914119384765625,0.019608371311426162,-0.02872720505148172,0.004959083712100983
1686445362494135300,8.92413525390625,-0.002387187397480011,-0.025431378376483914,0.006805588361620903
1686445362504152600,8.934152587890624,-0.023918635725975034,-0.013779226766526698,-0.006042202773690223
1686445362514169300,8.94416943359375,-0.05277765046358108,0.0010118073910474776,-0.018261048355698584
1686445362524185300,8.954185302734375,-0.051669981482625006,0.02792027258276939,-0.023649755656719205
1686445362534202400,8.964202392578125,-0.038844986701011656,0.025096776127256453,-0.022947160345315933
1686445362544219400,8.974219482421875,-0.025819500911235808,0.00899232128355652,-0.010798457390069962
1686445362554235400,8.9842353515625,-0.0122737906396389,0.006265782396495342,0.009229016116261481
1686445362564252400,8.99425244140625,-0.004736380872130394,0.023754677335917948,0.009140753310918808
1686445362574269400,9.00426953125,-0.02420505145192146,0.021285401145555077,0.009694295540452003
1686445362584285400,9.014285400390625,-0.013382044142484664,0.012778233030438423,0.009560440027713776
1686445362594302500,9.024302490234374,-0.00606675269305706,-0.012340718396008013,-0.013704700225591658
1686445362604319500,9.034319580078124,-0.022137597528100014,-0.03412555696368217,-0.023877719193696974
1686445362614335500,9.04433544921875,-0.04037760309576988,-0.037710137452185155,-0.02378419569134712
1686445362624352500,9.0543525390625,-0.05138590384423732,-0.038525216694734986,-0.0286737212985754
1686445362634369300,9.064369384765625,-0.04120703965723514,-0.02263382007982582,-0.035353637453913685
1686445362644385300,9.07438525390625,-0.028006781822443007,-0.02548486212939024,-0.0318283859372139
1686445362654402600,9.084402587890626,-0.013421791630983351,-0.011849098954163492,-0.02349193474650383
1686445362664419300,9.09441943359375,0.002024199303984642,-0.005856580541096628,-0.005906593695282936
1686445362674435300,9.104435302734375,0.03734334996640682,-0.012594985418021678,-0.004693710774183273
1686445362684452600,9.11445263671875,0.048344636452198025,-0.002757774275541305,-0.02023497877717018
1686445362694469400,9.124469482421874,0.04286766634583473,0.006446728453971445,-0.03149228585064411
1686445362704485400,9.1344853515625,0.015572247663140295,0.018410430231131612,-0.04079202911555767
1686445362714502700,9.144502685546875,-0.01993862617909908,0.015038031188584863,-0.05456278031468391
1686445362724519400,9.15451953125,-0.04415595259070396,0.004436813403666019,-0.07403203541636466
1686445362734535400,9.164535400390625,-0.0611380670517683,-0.004436813403666019,-0.07391571556031704
1686445362744552400,9.174552490234374,-0.060245502126216884,-0.007392448338866233,-0.07350830380320549
1686445362754569500,9.184569580078126,-0.04654664711952209,-0.013455986161530016,-0.0618786562860012
1686445362764585500,9.19458544921875,-0.03655249184966087,-0.004800678279995918,-0.028041268613934515
1686445362774602500,9.2046025390625,0.006091302612423896,0.008737140946090221,-0.005748188263177871
1686445362784619500,9.21461962890625,0.031169629767537115,0.00013356325179338455,0.00784311471581459
1686445362794635500,9.224635498046876,0.02407528759241104,0.0023249358162283898,0.014280454286932944
1686445362804652500,9.234652587890626,0.015119243198633192,-0.0071466568842530245,0.010140870264172553
1686445362814668500,9.24466845703125,0.012803951993584632,-0.011970387246273457,-0.01716097815930843
1686445362824685300,9.254685302734375,-0.022605799561738967,-0.019901801300048826,-0.0224649297863245
1686445362834702600,9.26470263671875,-0.04191957184076309,-0.01970072576999664,-0.04627367539703846
1686445362844718300,9.27471826171875,-0.017525135296583175,-0.015569032792747019,-0.03797112647593021
1686445362854735400,9.2847353515625,-0.007068038690090179,-0.01431640238314867,-0.02977963671386242
1686445362864752600,9.294752685546875,-0.00033317747712135315,-0.011345862139761447,-0.007661328408122062
1686445362874768400,9.304768310546875,0.0019534721553325653,0.00886135184764862,0.01414426068663597
1686445362884785400,9.314785400390624,0.005173018723726272,0.00843611217290163,0.02438508419394493
1686445362894802700,9.324802734375,-0.007166238367557525,0.007578618560731411,0.01618891825675964
1686445362904818400,9.334818359375,-0.03044306905865669,-0.0019479191973805427,-0.002234627184271812
1686445362914835500,9.34483544921875,-0.03098550537228584,-0.01039711004756391,0.005078326177597046
1686445362924852500,9.3548525390625,-0.0414355877161026,-0.01719984886497259,-0.011558920368552206
1686445362934868200,9.3648681640625,-0.04625263260900974,-0.020288425997458396,-0.011179565662145613
1686445362944885500,9.374885498046876,-0.05599368990063667,-0.01012154450919479,-0.02403261749446392
1686445362954902500,9.384902587890625,-0.03658054890036583,-0.003316284941136837,-0.03415127592682838
1686445362964918300,9.394918212890625,-0.01927811644375324,0.0027808628901839255,-0.030915947267413136
1686445362974935600,9.404935546875,0.02264262444078922,0.0069105100408196445,-0.03090542587339878
1686445362984952600,9.41495263671875,0.03369593337476253,0.02048252379745245,-0.022752514556050298
1686445362994968300,9.42496826171875,0.03223521317243576,0.019285130706429482,-0.016847089904546735
1686445363004985600,9.434985595703125,0.020295184531807897,0.0075318933421745895,-0.03226093213558197
1686445363015002400,9.44500244140625,0.005316811108589172,-0.006324819107353687,-0.0490951625585556
1686445363025018400,9.455018310546874,-0.02618365804851055,-0.006419511653482914,-0.051772857335209845
1686445363035035400,9.465035400390626,-0.02688157718479633,-0.008483421913348138,-0.04695405887663364
1686445363045052400,9.475052490234376,-0.041646600118279455,-0.00544978983849287,-0.03236673059761524
1686445363055068400,9.485068359375,-0.02885316951870918,-0.010500351226329804,-0.019703648379445073
1686445363065085400,9.49508544921875,-0.007366144853830337,-0.01265372986793518,-0.014506079736351965
1686445363075102500,9.5051025390625,-0.003953706061840057,-0.011191256099939345,-0.02381225274205208
1686445363085118500,9.515118408203126,-0.014485621470212935,-0.013086568327248096,-0.03180734314918518
1686445363095135500,9.525135498046875,0.0017816227197647093,-0.010150807136297225,-0.04273907153010368
1686445363105151500,9.5351513671875,-0.006140402451157569,-0.019360497497580946,-0.04779577039778232
1686445363115168500,9.54516845703125,-0.009134323570132255,-0.017001403683423996,-0.04538578664660454
1686445363125185500,9.555185546875,-0.005545943689346313,-0.012784370510280132,-0.030883798563480374
1686445363135201500,9.565201416015626,-0.01835749446749687,-0.0024339491486549377,0.009697802671790122
1686445363145218300,9.57521826171875,-0.024107436296343803,-0.004397906165383756,0.013494272345304488
1686445363155235600,9.585235595703125,-0.04852174658477306,-0.003080978347919881,0.005802548798918724
1686445363165251600,9.59525146484375,-0.06727028619647026,-0.004165595246851444,0.0017149872243404387
1686445363175268400,9.605268310546874,-0.058248190829157824,0.010422938608564436,-0.0026829554736614225
1686445363185285600,9.61528564453125,-0.06043488721847534,0.006242401520907878,-0.008096212694048881
1686445363195301600,9.625301513671875,-0.02612228325009346,0.017209201215207574,-0.007072714865207672
1686445363205318400,9.635318359375,-0.0029682021558284756,0.00006955810487270355,-0.019462240839004514
1686445363215335400,9.64533544921875,0.015547113221883773,-0.007474281403422356,-0.016318682116270064
1686445363225351700,9.6553515625,0.01680909598171711,-0.009201251326501368,-0.01999064862728119
1686445363235368400,9.665368408203125,0.004812953239679336,-0.005931143614649772,-0.02960954084396362
1686445363245385500,9.675385498046875,-0.006844751328229904,0.004084346704185009,-0.02708382175862789
1686445363255401500,9.6854013671875,-0.005104629662632942,0.009252616187557577,-0.02504208679795265
1686445363265418500,9.69541845703125,0.0006435586005449295,-0.0022559622332453725,-0.015679799690842627
1686445363275435500,9.705435546875,0.008871873241662978,-0.00799129101485014,-0.021060908207297325
1686445363285451500,9.715451416015625,-0.004690203642845153,-0.005144925140403211,-0.014447627547383308
1686445363295468500,9.725468505859375,-0.002777063497900963,0.0005517886638641358,-0.009561609071493149
1686445363305485600,9.735485595703125,-0.012431027027964591,-0.00528203205615282,-0.014312602990865706
1686445363315501600,9.74550146484375,-0.022497078490257262,-0.006884206555783748,-0.026807927426695823
1686445363325518300,9.755518310546876,-0.030534838995337484,-0.013097345449589192,-0.03158464030921459
1686445363335535600,9.76553564453125,-0.038085108244419096,0.0018050035953521728,-0.02713642872869968
1686445363345551600,9.775551513671875,-0.031150340545177457,-0.006795651489496231,-0.04395721514821052
1686445363355568400,9.785568359375,-0.019997662889957427,-0.012782032422721384,-0.02752221317589283
1686445363365585700,9.795585693359374,-0.004573299264907836,-0.0063327101528644555,-0.02928103954195976
1686445363375601400,9.805601318359376,-0.01671498795747757,-0.00566284806728363,-0.018950199663639068
1686445363385618400,9.815618408203125,-0.01778407849371433,-0.013833587302267551,-0.00457622187435627
1686445363395635500,9.825635498046875,-0.027981647381186484,-0.003537526476383209,-0.020735914036631584
1686445363405651500,9.8356513671875,-0.03435118241310119,-0.011138649129867553,-0.02079261265993118
1686445363415668500,9.84566845703125,-0.041135143464803695,-0.007035013203322887,-0.04401449829339981
1686445363425684500,9.8556845703125,-0.020839958932995794,0.0026315175473690033,-0.03882277486920357
1686445363435701200,9.865701171875,-0.02176116543114185,0.006975026644393801,-0.01696983950138092
1686445363445718500,9.875718505859375,-0.02554360657930374,0.00395487510561943,-0.004874328038096428
1686445363455734500,9.885734619140624,-0.010702595800161361,-0.011956395253539085,-0.0009562778115272521
1686445363465751300,9.895751220703126,-0.010833528703451155,-0.028597148931026457,0.007527472895383834
1686445363475768600,9.9057685546875,-0.016139818418025968,-0.050853988924622534,0.005714870515465736
1686445363485784600,9.91578466796875,-0.02997252893745899,-0.03440462963338941,-0.01585048008263111
1686445363495801300,9.92580126953125,-0.03077683105766773,0.008896167432703076,-0.015554127484560011
1686445363505818400,9.935818359375,-0.026437925070524212,0.04265256229043007,-0.016643676286935805
1686445363515834600,9.945834716796876,-0.02208382151424885,0.04671498942375183,-0.024088147073984146
1686445363525851400,9.955851318359375,-0.0011450783818960188,0.027770269652828573,-0.04737900629043579
1686445363535868400,9.965868408203125,0.022855974930524825,-0.007094926697015762,-0.07056523608863353
1686445363545884400,9.975884521484375,0.017922610181570053,-0.03342179260849953,-0.07209434535205364
1686445363555901400,9.9859013671875,0.021483517533540726,-0.045006103146634995,-0.06514905625879765
1686445363565918500,9.99591845703125,0.04437339473366737,-0.04597173330839723,-0.04794540800154209
1686445363575934500,10.0059345703125,0.03351180897951126,-0.03178220870792865,-0.023120178824663162
1686445363585951200,10.015951171875,0.017462006932497023,-0.013131576512753963,-0.0014554595053195953
1686445363595968300,10.02596826171875,-0.01197276186645031,0.007236673255264759,0.012343348744511604
1686445363605984300,10.035984375,-0.024317279654741286,0.023010325242020187,0.01588672043979168
1686445363616001300,10.046001220703126,-0.035443069303035736,0.015112228935956954,0.017501754420995712
1686445363626018300,10.056018310546875,-0.05100830270349979,0.020902795036137102,0.03221358586251735
1686445363636034300,10.066034423828125,-0.060091772869229315,0.0193757315993309,0.013346972829103469
1686445363646051300,10.07605126953125,-0.0624625936537981,0.015619009414315222,-0.011173720443248748
1686445363656068400,10.086068359375,-0.06255085645914077,0.013260463589429854,-0.019018004202842713
1686445363666084400,10.09608447265625,-0.04375029439926147,0.022430442994832992,-0.015579846447706222
1686445363676101400,10.106101318359375,-0.026776947766542433,0.015536591827869414,0.014272270980477331
1686445363686118400,10.116118408203125,-0.011209960800409317,0.013556560459174215,0.023831541964411736
1686445363696134400,10.126134521484374,-0.027487141862511635,-0.008468553137779236,0.03164426154196262
1686445363706151200,10.136151123046876,-0.016794482934474945,-0.015774492236971853,0.0060106385916471475
1686445363716168400,10.14616845703125,-0.008598316997289657,-0.019947978529334068,-0.0058054714083671565
1686445363726184400,10.156184326171875,-0.00987958897948265,-0.03189151430130005,-0.023369185149669645
1686445363736201200,10.166201171875,0.0011626140385866165,-0.053981765556335444,-0.04477437674999237
1686445363746217200,10.17621728515625,0.00987608184814453,-0.05912435260917991,-0.043235915136337275
1686445363756234500,10.186234375,0.014314356556534766,-0.03616374826040119,-0.044941550010442734
1686445363766251300,10.196251220703125,0.030024551385641095,-0.0158288162400946,-0.03121639151871204
1686445363776267300,10.206267333984375,0.014701894569396972,0.008374445113539694,-0.01955050364434719
1686445363786284500,10.216284423828125,0.015666355687379837,0.021826924143731594,-0.02231587670445442
1686445363796301300,10.22630126953125,-0.025668109741806982,0.02453037441615015,-0.039486207213997836
1686445363806317300,10.2363173828125,-0.024607202512025833,0.027910043449699877,-0.06509820285439491
1686445363816334300,10.246334228515625,-0.033240006300807,0.0161400376137346,-0.08086217369735241
1686445363826351400,10.256351318359375,-0.022127076134085655,-0.0037114217385649678,-0.0779214440703392
1686445363836367400,10.266367431640624,-0.013486089038848877,-0.02251110701560974,-0.06102350076138973
1686445363846384400,10.27638427734375,-0.018639234018325804,-0.027318507297337053,-0.05616787742376327
1686445363856401400,10.2864013671875,-0.011674655702710151,-0.01795183627605438,-0.04698854566812515
1686445363866417400,10.29641748046875,-0.015704349610209466,-0.007260638652741909,-0.029914076748490333
1686445363876434400,10.306434326171875,-0.025641806256771087,0.005165164210833609,-0.016965747848153113
1686445363886451200,10.316451171875,-0.01367547413110733,0.002777355758845806,-0.014550503399968146
1686445363896467500,10.326467529296876,-0.0023065233767032623,-0.005501812286674976,-0.015160159730911255
1686445363906484500,10.336484375,0.0069505497902631755,-0.008664660231769084,-0.030021044254302978
1686445363916501200,10.346501220703125,0.0031289456754922864,-0.0012543474426493049,-0.02964753476679325
1686445363926517200,10.356517333984375,-0.01732230620086193,-0.0025751111850142476,-0.015654080727696418
1686445363936534500,10.366534423828124,-0.022114801174402236,-0.009013035278022288,-0.006661211454868316
1686445363946551300,10.37655126953125,-0.021348492977023122,-0.007797156682237983,0.0010287585258483885
1686445363956567300,10.3865673828125,-0.012712182056903838,-0.0035766894429922103,0.021786299872398374
1686445363966584300,10.396584228515625,0.0031482348978519436,-0.003406593573093414,0.029237784922122954
1686445363976601300,10.406601318359375,-0.008991115707159042,-0.00005757540613412857,0.03497428274750709
1686445363986617300,10.416617431640624,-0.02347439908981323,0.009155074097216128,0.03386252211332321
1686445363996634400,10.42663427734375,-0.018785949012637138,-0.0031011808857321736,0.012438625812530517
1686445364006651400,10.4366513671875,-0.028463293418288228,-0.016819873104058206,-0.02785188352167606
1686445364016667400,10.44666748046875,-0.02749824777841568,-0.003259586317837238,-0.048920975035429
1686445364026684200,10.45668408203125,-0.037945992034673685,0.0022846403384581206,-0.027612229546904562
1686445364036701400,10.466701416015624,-0.04065291290581226,-0.0018450433447957037,-0.020340777239203453
1686445364046717400,10.476717529296875,-0.021309330010414122,-0.008210194462537766,-0.008963643178343772
1686445364056734200,10.486734130859375,-0.02660977450609207,-0.03448299209922552,0.010640636479854583
1686445364066751200,10.496751220703125,-0.020334932020306586,-0.04192070435192436,-0.037812721043825145
1686445364076767500,10.506767578125,-0.010703764843940734,0.011567688196897507,-0.07059504670500755
1686445364086784300,10.5167841796875,-0.025133856734633444,0.03662384005282074,-0.0603103840559721
1686445364096800300,10.52680029296875,-0.023783026647567748,0.034523616370558736,-0.053662032082676885
1686445364106817300,10.5368173828125,0.0022264438778162,0.03452891360018402,-0.02045417448580265
1686445364116834300,10.546834228515625,0.028766660279035565,0.003884440217912197,-0.004905892220139503
1686445364126850300,10.556850341796874,0.018802315625548363,-0.0318648820227012,-0.011578794112801551
1686445364136867300,10.566867431640626,-0.016842413729429243,-0.03232522954344749,-0.029562779092788694
1686445364146884400,10.57688427734375,-0.03659340838193893,-0.0295952200576663,-0.054200961264967915
1686445364156900400,10.586900390625,-0.01972176855802536,-0.03780746034681797,-0.0656692807406187
1686445364166917400,10.59691748046875,-0.015528993043303489,-0.03488718898594379,-0.0623188012689352
1686445364176934100,10.60693408203125,-0.006562427255511283,-0.0027966449812054633,-0.030915947267413136
1686445364186950400,10.616950439453126,-0.012632687079906463,0.019450550401210784,0.013657353952527046
1686445364196967400,10.626967529296875,-0.026596915024518965,0.009513093754649161,0.019080548045039177
1686445364206984200,10.636984130859375,-0.013556816187500953,-0.0019359364986419676,0.014118541723489761
1686445364217000200,10.647000244140624,0.0039127895295619965,-0.006783961051702499,0.0003857844471931457
1686445364227017500,10.657017578125,-0.007343933022022247,0.004329845897853374,-0.010361235016584395
1686445364237034200,10.6670341796875,-0.007529226461052894,-0.002288403198122978,-0.013760229805111884
1686445364247050200,10.67705029296875,-0.031902035695314405,-0.0033536943420767783,-0.03755202428102493
1686445364257067500,10.687067626953125,-0.04338964439332485,0.00244037888944149,-0.04123042053282261
1686445364267084300,10.697084228515624,-0.04962473939061165,0.0005059036955237388,-0.0337713366985321
1686445364277100300,10.707100341796876,-0.03874678702354431,0.008580196818709373,-0.02221826154887676
1686445364287117300,10.717117431640625,-0.018728081345558166,0.004305588239431381,-0.0030406828701496124
1686445364297134300,10.72713427734375,-0.013080430847406387,0.0003042436435818672,0.01803951455950737
1686445364307150300,10.737150390625,-0.02426175007522106,-0.006790938781760633,0.016896774265170098
1686445364317167400,10.74716748046875,-0.026698037311434743,-0.009724106156826019,0.012087912678718567
1686445364327184400,10.757184326171876,0.012056933018565178,-0.026675496686063706,-0.009273439779877662
1686445364337200400,10.767200439453125,0.025354806008934975,-0.018877390155754983,-0.02889233248531818
1686445364347217400,10.777217529296875,0.03413140218257904,-0.00630728345066309,-0.04243453562557697
1686445364357234200,10.787234130859375,0.017583002963662147,-0.0018780322989448903,-0.043912206962704654
1686445364367250400,10.79725048828125,0.0005728314518928528,0.010405658680200576,-0.036117023041844366
1686445364377267500,10.807267333984376,-0.007124152791500091,0.007948328655958176,-0.03782558052539825
1686445364387284200,10.8172841796875,-0.010803133565187454,0.003324760508537292,-0.02127250513136387
1686445364397300200,10.82730029296875,-0.010621931779384612,-0.0037067455634474753,-0.018353402814269063
1686445364407317500,10.8373173828125,0.0033458032965660092,-0.016391418558917938,-0.01965337949693203
1686445364417333200,10.847333251953126,0.00959726490676403,-0.015231434868834912,-0.021798574832081793
1686445364427350300,10.857350341796876,-0.012380173623561858,0.007127659922838211,-0.011338555616140365
1686445364437367600,10.867367431640625,-0.04549976841509342,0.0028048282876610756,-0.018151158240437507
1686445364447383300,10.87738330078125,-0.05032499661445618,0.004399696263670921,-0.02806289592385292
1686445364457400300,10.887400390625,-0.032680618852376934,-0.008451017481088638,-0.04211480215191841
1686445364467417300,10.897417236328126,-0.01764379324018955,-0.016728687689267097,-0.02855506335496902
1686445364477433300,10.907433349609375,-0.027273206850886342,-0.014951485416293143,-0.002277297282218933
1686445364487450400,10.917450439453125,-0.032062194693088526,-0.015904511824809012,-0.0005535422295331955
1686445364497467400,10.92746728515625,-0.03185235133469105,-0.03254555776324123,-0.02013034935891628
1686445364507483100,10.937483154296874,-0.018496610677242276,-0.02493921094536781,-0.03253741098940372
1686445364517500400,10.94750048828125,-0.008685995280742645,-0.002537409523129463,-0.03845160346925258
1686445364527517400,10.957517333984375,-0.03474807277619839,0.007650222492218017,-0.008420622342824936
1686445364537533200,10.967533203125,-0.04975625681579113,-0.0058568728020414705,-0.003706453302502632
1686445364547550500,10.977550537109375,-0.04611526996493339,-0.01535246743261814,-0.014268763849139212
1686445364557567200,10.987567138671874,-0.0322334596067667,-0.012613690118491649,-0.023668460357189176
1686445364567582700,10.997582763671875,-0.021895605465769765,-0.010145546439290045,-0.01654547660946846
1686445364577599700,11.007599853515625,-0.018532851034402845,0.0020826514929533,-0.018208441385626793
1686445364587617000,11.017616943359375,0.0023106150299310683,0.0036979777351021765,-0.010972060391306876
1686445364597632800,11.0276328125,0.013881810358166694,0.006548690991103649,-0.011377134060859679
1686445364607649800,11.03764990234375,0.011126958692073821,-0.012189034965634345,-0.01925590461194515
1686445364617666800,11.047666748046876,0.013159925824403762,-0.007968786922097206,-0.02325871051251888
1686445364627682800,11.057682861328125,0.007799275574088096,-0.0002697203194722533,-0.015048516049981116
1686445364637699800,11.067699951171875,-0.01310205815732479,-0.0033665172910317775,-0.012201309925317764
1686445364647716900,11.077716796875,-0.016721417698264122,0.00998571623507887,-0.018974749583005903
1686445364657732600,11.087732666015626,0.0023719898283481597,0.01644698467105627,-0.02935001312494278
1686445364667750000,11.09775,0.003310147461295128,0.010590952119231223,-0.022893384331464765
1686445364677767000,11.107766845703125,-0.005626023188233375,0.003452222813107073,-0.015861585998535155
1686445364687782700,11.11778271484375,0.0015898995399475098,-0.0004106266275048256,-0.021259061127901074
1686445364697800000,11.127800048828124,-0.0034060090512037277,-0.004224887686036527,-0.03033025633394718
1686445364707817000,11.13781689453125,-0.008395487901568412,-0.014800971029698847,-0.04101356291174888
1686445364717832700,11.147832763671875,-0.002329319730401039,-0.026582886499166486,-0.03704933545589447
1686445364727849700,11.157849609375,0.018062310913205145,-0.04023497975468635,-0.03283785524070263
1686445364737866800,11.16786669921875,0.0021340894192457198,-0.029959925184212623,-0.022975801917910574
1686445364747882800,11.1778828125,-0.04444821353554725,-0.015388671257160603,-0.008315992924571037
1686445364757899800,11.187899658203126,-0.04989595754742622,-0.004133446542918682,-0.01683481494486332
1686445364767916800,11.197916748046875,-0.037734395110607145,-0.0039794250249862665,-0.022052257332205772
1686445364777932800,11.207932861328125,-0.03212356949150562,0.0006678162589669227,-0.0037292496562004087
1686445364787949800,11.21794970703125,-0.045370589077472684,0.001726093140244484,0.02489829441308975
1686445364797965800,11.2279658203125,-0.05405132366120815,0.01537204891592264,0.029531214910745618
1686445364807982800,11.23798291015625,-0.06125964760482311,0.013744776507653295,-0.00429214423596859
1686445364818000000,11.247999755859375,-0.0520797313272953,0.011527356186509132,-0.02709726576209068
1686445364828015900,11.258015869140625,-0.04715104275345802,0.005964169101417064,-0.03126782944500446
1686445364838032600,11.26803271484375,-0.04282148911654949,-0.002501717155240476,-0.02259820077717304
1686445364848050000,11.2780498046875,-0.032433950614929194,-0.00924216785877943,-0.013700608572363852
1686445364858066000,11.28806591796875,-0.031960487884283066,-0.015048223789036273,-0.02951367925405502
1686445364868082700,11.298082763671875,-0.013023732224106788,-0.026363617725297807,-0.04937982471883297
1686445364878100000,11.308099853515625,0.003413607835769653,-0.03529313943833112,-0.05629413415193557
1686445364888116000,11.318115966796874,0.008242927688360213,-0.04143909484744072,-0.0480669885545969
1686445364898132700,11.3281328125,0.002258592581748962,-0.041406069360673425,-0.03284428498148918
1686445364908149800,11.338149658203125,0.011557751324772833,-0.027350034946762025,-0.023737433940172192
1686445364918166000,11.348166015625,0.02339256602525711,-0.025049101060628888,-0.024890695628523824
1686445364928182800,11.358182861328125,0.01699848107397556,-0.01995703861862421,-0.012586509850621222
1686445364938199800,11.36819970703125,-0.022333412361145017,0.0018006196811795234,-0.012145195823907851
1686445364948215800,11.3782158203125,-0.04141512944996357,0.012850640679523347,-0.011744213807582855
1686445364958232800,11.38823291015625,-0.03976736224293709,0.018626082275807858,-0.02064531314373016
1686445364968249900,11.398249755859375,-0.040274142721295356,0.019852116939425467,-0.024665070179104805
1686445364978265900,11.408265869140624,-0.025091186636686323,0.020767185957729816,-0.026256138762831685
1686445364988283000,11.418282958984374,0.009238368466496467,0.01523735315296799,-0.03743219729363918
1686445364998300000,11.4282998046875,0.04223462913930416,0.015852818170189856,-0.02528875503540039
1686445365008316000,11.43831591796875,0.036322190225124354,0.01161240412145853,-0.013036007183790206
1686445365018332700,11.448332763671875,0.04595628001093864,-0.00263122528642416,-0.006100654962658882
1686445365028350000,11.458349853515625,0.06255436359047889,-0.007479505567811429,-0.014139584511518477
1686445365038366000,11.468365966796876,0.0426250897616148,-0.011293510898016392,-0.03601239362359047
1686445365048382700,11.4783828125,-0.0036608605951070784,-0.012990085682831705,-0.040865094351768494
1686445365058400000,11.48839990234375,-0.026183073526620863,-0.004823730362020433,-0.026112346377968786
1686445365068416000,11.498416015625,-0.042080899882316586,0.001701872014440596,-0.024891280150413513
1686445365078432800,11.508432861328124,-0.0530471150547266,0.0009437105908989906,-0.01120411558151245
1686445365088449800,11.51844970703125,-0.05130231721401214,0.004296528150141239,0.010883797585964201
1686445365098465800,11.5284658203125,-0.06505670180022716,0.01364394648168236,0.013316577690839767
1686445365108482800,11.53848291015625,-0.03516249879598617,0.010491583397984503,0.016961656194925307
1686445365118499800,11.548499755859375,0.004268763360381126,-0.0035699674412608146,-0.00028057050704956055
1686445365128515800,11.558515869140624,0.012120061382651329,-0.013505049467645585,-0.0015296937853097915
1686445365138532900,11.568532958984376,-0.010264204382896422,-0.019461948578059673,0.0016688099950551987
1686445365148550000,11.5785498046875,-0.016950550279021263,-0.022795476914942263,-0.00864741683602333
1686445365158565600,11.588565673828125,-0.012260346636176108,-0.029472433928214012,-0.021658289578557012
1686445365168583000,11.5985830078125,-0.01847732145488262,-0.028037432689033446,-0.025827099695801735
1686445365178600000,11.608599853515624,-0.021496961537003517,-0.025054654018580914,-0.021235680252313614
1686445365188615700,11.61861572265625,-0.034363457372784616,-0.014178747478127479,-0.010493921485543251
1686445365198632700,11.6286328125,-0.054687283477187154,-0.01966269531454891,-0.010162497574090957
1686445365208649000,11.63864892578125,-0.06361001012325286,-0.013782149375975132,-0.010351882666349411
1686445365218665700,11.648665771484374,-0.03197217832207679,-0.010874445235729217,-0.034731121641397474
1686445365228682800,11.658682861328124,-0.003809329155087471,-0.002476582713983953,-0.051316345739364624
1686445365238698800,11.66869873046875,0.022171499797701836,-0.003021649376116693,-0.05901274546086788
1686445365248715800,11.6787158203125,0.026484102299809454,0.005933810495771468,-0.05683598594367504
1686445365258732800,11.68873291015625,0.027788170635700223,0.0061436538541689515,-0.05370879383385181
1686445365268748800,11.698748779296874,0.04290273765921592,0.0016693945169448852,-0.036685762840509416
1686445365278765800,11.708765869140626,0.019014497071504592,0.0056070262268185615,-0.018290274450182914
1686445365288782800,11.718782958984375,-0.013366846573352813,0.01341185475885868,-0.00838905816078186
1686445365298798800,11.728798828125,-0.020574585995078085,0.006668225717544555,-0.0092412910759449
1686445365308815600,11.738815673828125,-0.02104103446304798,-0.01527293592300266,-0.016827800682187078
1686445365318833000,11.7488330078125,-0.018448679882287978,-0.013614683854579925,-0.027594693890213965
1686445365328849000,11.758848876953126,-0.020451251876354215,-0.0033601240828633307,-0.03290624430179596
1686445365338865700,11.76886572265625,-0.03263561066687107,0.012874679142236709,-0.035037411111593246
1686445365348883000,11.778883056640625,-0.007441548177599906,0.006343231546878814,-0.03134498633444309
1686445365358899000,11.78889892578125,0.019091069439053535,-0.004857084642350674,-0.020528993287682533
1686445365368915700,11.798915771484374,0.02925532057881355,-0.01783814676851034,-0.01134790796637535
1686445365378932700,11.8089326171875,0.019420155262947082,-0.011340016920864582,-0.005620762491226196
1686445365388949000,11.818948974609375,-0.018870704686641693,-0.004040507562458515,-0.005298106408119201
1686445365398965800,11.8289658203125,-0.05122866745591163,-0.008806991311907767,0.00038169279396533964
1686445365408982800,11.838982666015625,-0.06894377236664295,-0.017512860336899756,-0.00034369887113571166
1686445365418998800,11.848998779296876,-0.05497486824691295,-0.0065445628052577375,-0.010936989077925681
1686445365429015800,11.859015869140626,-0.05173310984671116,-0.021398725326918066,-0.0133195003002882
1686445365439032800,11.86903271484375,-0.027916765451431274,-0.015081797265075147,-0.02132511210143566
1686445365449048800,11.879048828125,-0.02073649855852127,0.0030155484288930893,-0.02233107427358627
1686445365459065900,11.88906591796875,-0.0011889175236225128,0.011123743821680545,-0.001432078629732132
1686445365469083000,11.899082763671874,0.013705869269371031,0.009472469483315944,0.0031049802780151363
1686445365479099000,11.909098876953125,0.010560556980967521,-0.0031102409750223157,-0.0031190088033676146
1686445365489115600,11.91911572265625,-0.003329436683654785,-0.004485036459565162,0.0014367548048496246
1686445365499133000,11.9291328125,-0.01777940231859684,-0.003475238362513482,-0.0159293905377388
1686445365509149000,11.93914892578125,-0.0223123695731163,-0.003689794428646564,-0.031118191841244695
1686445365519165700,11.949165771484376,-0.017995675417780875,-0.0017929843639954925,-0.033382629641890524
1686445365529183000,11.959182861328125,-0.011924246549606322,0.0006155015498399734,-0.041947628891468046
1686445365539199000,11.969198974609375,-0.009307342049479484,-0.009439407463930547,-0.039137832167744635
1686445365549215700,11.9792158203125,-0.00014496142864227294,-0.004990647894144058,-0.03363806570768356
1686445365559232800,11.989232666015624,0.01787175677716732,-0.00554882976617664,-0.02382394317984581
1686445365569249300,11.999249267578126,0.018610592445731163,0.0025918065914884206,-0.0048345805495977395
1686445365579266300,12.009266357421875,0.0004904138654470443,-0.003621697628498077,0.011066752937436104
1686445365589282300,12.0192822265625,-0.013440496331453323,-0.013729250144958495,0.0019587328523397443
1686445365599299000,12.029299072265625,-0.02236556106507778,-0.011616203513741492,-0.00873977129459381
1686445365609316000,12.039316162109374,-0.027134090641140935,-0.017243066952191292,-0.032168577677011485
1686445365619332400,12.049332275390626,-0.022591771036386488,-0.01820990269035101,-0.05220072735846042
