time,seconds_elapsed,z,y,x
1686445575395852300,0.137852294921875,0.03186111916303634,0.001619125634431839,-0.035407997989654535
1686445575405869300,0.147869384765625,0.0457096117734909,0.02343158286139369,0.006358429116010665
1686445575415886300,0.15788623046875,0.04779109422266483,0.005375263297557831,0.024020927056670187
1686445575425903400,0.1679033203125,0.023766660034656523,-0.016858488081395624,0.0057446811318397515
1686445575435920100,0.177920166015625,0.02382686578929424,-0.020077596258372066,-0.018808745366334916
1686445575445936000,0.18793603515625,0.01087386071383953,-0.03022533465474844,-0.031578795090317725
1686445575455953400,0.197953369140625,-0.003073416095972061,-0.040069706190377474,-0.06366027900576592
1686445575465970200,0.20797021484375,0.0021101240217685697,-0.045926615525037046,-0.0605892009973526
1686445575475987200,0.2179873046875,-0.010452420431375503,-0.04995835525915027,-0.03588087619841099
1686445575486004500,0.22800439453125,-0.019153028759360313,-0.04186038899943232,-0.04197627046406269
1686445575496021200,0.238021240234375,-0.04694762913584709,-0.03551803423538804,-0.05942307982742786
1686445575506038300,0.248038330078125,-0.06166238318681717,-0.025359628314524887,-0.04082768495082855
1686445575516054300,0.25805419921875,-0.08467617902755736,-0.031605390836298465,-0.07470540463328361
1686445575526071300,0.2680712890625,-0.048264556953310965,-0.012610621378570795,-0.0012906243324279784
1686445575536088300,0.27808837890625,0.011836568266153334,-0.015108575674146413,-0.0019844518154859543
1686445575546105300,0.288105224609375,0.007306523621082306,-0.02226619234383106,-0.05053893162608147
1686445575556122400,0.298122314453125,-0.0024818799436092374,-0.02145005365535617,-0.05076104994416237
1686445575566139100,0.30813916015625,0.0016308160722255706,-0.0013264262981712818,-0.030793197670578955
1686445575576156400,0.318156494140625,0.005195230555534363,0.03321808672994375,-0.010500351226329804
1686445575586172400,0.32817236328125,-0.023893501284718514,0.027063509622961283,0.025454174730181692
1686445575596189200,0.338189208984375,-0.023678981751203535,0.006075082129985094,0.024037878191471098
1686445575606206200,0.348206298828125,0.0012093757897615432,0.003489303420484066,0.1174047286748886
1686445575616223200,0.35822314453125,-0.008699439284205437,0.04302212625518441,0.08281155419945717
1686445575626240300,0.368240234375,-0.0820125127762556,-0.015192016173899172,-0.17911621170043945
1686445575636257500,0.378257568359375,-0.1285556527644396,-0.10260931060314178,-1.5281459713459014
1686445575646274300,0.3882744140625,-0.06363572908639907,-0.14703604295924305,-3.4418858357489106
1686445575656291300,0.398291259765625,-0.020460019704699513,-0.1775828646533191,-3.3204110811561343
1686445575666307300,0.408307373046875,-0.10222411067783832,-0.14867796494737268,-1.7096113765209913
1686445575676324400,0.418324462890625,-0.14645195946097372,-0.09319353974312543,0.0574345363587141
1686445575686341400,0.42834130859375,-0.134711252784729,-0.1707267151482403,1.2609966714054346
1686445575696358100,0.438358154296875,-0.07514905674755573,-0.20565277483984826,1.2926251508563755
1686445575706375400,0.44837548828125,-0.04357143070101738,-0.3450567154854536,1.0482219357311724
1686445575716392200,0.45839208984375,0.06523673454225062,-0.3516786178432405,0.859195155391097
1686445575726409200,0.4684091796875,0.1799684446156025,-0.10010536495819687,0.6149731420516967
1686445575736425500,0.478425537109375,0.16065116520524025,0.14383739304840565,0.5112456410735845
1686445575746442200,0.488442138671875,0.06200023683905601,0.27771453309655186,0.6462444786280394
1686445575756459300,0.498459228515625,-0.009102174866199493,0.3856817174710333,0.8511351830542087
1686445575766476800,0.508476806640625,-0.16418752263784409,0.4303787912011146,0.5551397278577089
1686445575776494000,0.518494140625,-0.2837479680418968,0.24454233133494852,-0.1105336738616228
1686445575786510800,0.5285107421875,-0.20910101559758185,-0.07717047957256436,-0.6224573603272437
1686445575796527900,0.53852783203125,-0.03821604114770889,-0.23744389750659464,-0.6226543442040682
1686445575806544100,0.548544189453125,0.1107996313214302,-0.12493410126641392,-0.47368718705177304
1686445575816561000,0.558560791015625,0.17332009264230727,0.1566664794832468,0.1792570814758539
1686445575826578000,0.568577880859375,0.08285539334118366,0.2323224628396332,0.9681699093729257
1686445575836595000,0.578594970703125,-0.042322891944646834,0.20782325074672697,1.3229624214529991
1686445575846612000,0.588612060546875,-0.17638766351938245,0.17318419130295515,0.7921691993445158
1686445575856629000,0.59862890625,-0.16595628587603567,0.1774335193105042,0.06585574322342873
1686445575866646000,0.60864599609375,-0.16147709463536739,0.1606258846335113,-0.12364391532540321
1686445575876662000,0.618662109375,-0.23809447036981582,0.157753397937119,-0.03488543542027473
1686445575886679000,0.628678955078125,-0.2733703664124012,0.14279709021523593,0.03865793969631195
1686445575896695800,0.63869580078125,-0.263495453608036,0.11745324399173258,0.09167816674411296
1686445575906713000,0.648713134765625,-0.28268413820266725,0.08157207553237676,-0.005965630406141281
1686445575916729900,0.658729736328125,-0.4663251338511705,0.0633003596521914,-0.27354630750119685
1686445575926747000,0.668746826171875,-0.6393751773804426,0.04186477291360497,-0.5094347922593355
1686445575936764000,0.678763916015625,-0.6353226871192454,-0.040068244885653255,-0.5414964024305343
1686445575946781000,0.688781005859375,-0.5150432797908783,-0.17576222509741782,-0.4284767569720745
1686445575956797000,0.698796875,-0.24275018722116945,-0.2655387960039079,-0.24372166260182856
1686445575966814000,0.70881396484375,0.03671031275987625,-0.2999694733940065,-0.05069909062385559
1686445575976831000,0.7188310546875,0.21044366237819193,-0.2455009472340345,-0.05505670131146907
1686445575986848000,0.728847900390625,0.2987023760676384,-0.1049850998237729,-0.17844518057107925
1686445575996865000,0.738864990234375,0.17295652002692222,0.059804334229975935,-0.17560440418720244
1686445576006882000,0.748882080078125,0.022833763098716736,0.1647169533394277,-0.06708499275743961
1686445576016898800,0.75889892578125,0.015916531056165695,-0.07026011566221714,-0.10855272917747497
1686445576026915000,0.7689150390625,1.18653559692204,0.029840719251334667,0.7207797873914241
1686445576036932000,0.77893212890625,0.8583551974356174,0.8665893572956324,0.39136195506453514
1686445576046948900,0.788948974609375,-1.6183926439821719,0.48209480378255243,-1.1494511901527642
1686445576056966100,0.798966064453125,-1.9121137245059012,0.667602177824825,-0.5127537075489759
1686445576066983000,0.80898291015625,-0.9404606491923332,0.08298544946163892,0.25888649850785733
1686445576077000000,0.819,-0.038171032962203026,-0.546731234344095,0.23592004894018173
1686445576087017000,0.829016845703125,0.16894962247312068,-0.8043287159547209,0.13096563651561735
1686445576097034000,0.839033935546875,0.30631109750568863,-0.6699249216839671,-0.14093933351933954
1686445576107050000,0.849050048828125,0.44079146414399145,-0.41386984720975156,-0.5141390244275331
1686445576117066800,0.859066650390625,0.32088848891258237,-0.15608005789741872,-0.6608505116075277
1686445576127084000,0.869083984375,0.18931261154413223,0.11335223841369152,-0.4672580307871103
1686445576137101000,0.87910107421875,0.13879472270607948,0.24166984463855623,-0.04501169263720512
1686445576147117800,0.889117919921875,0.1879056673556566,0.30150296657159925,0.31087329085469245
1686445576157135000,0.899135009765625,0.27973873240053654,0.31664208351448175,0.44053018285930157
1686445576167151900,0.90915185546875,0.305890826267004,0.2322527586042881,0.051803252473473546
1686445576177168000,0.91916796875,0.34654432369470595,0.11317556667253374,-0.9314648573100567
1686445576187185200,0.92918505859375,0.4690834926486015,-0.12113324767872691,-1.1883207267731428
1686445576197202000,0.939201904296875,0.36551615066826343,-0.2629218915037811,-0.4667693704873323
1686445576207219000,0.949218994140625,0.2701139949649572,-0.18945435810238123,0.1060503909677267
1686445576217236000,0.959236083984375,0.09357844740748406,-0.23584859113916753,0.4806020810067653
1686445576227253000,0.9692529296875,-0.4289870445817709,-0.25285890878140926,0.612525748899579
1686445576237269800,0.979269775390625,-0.45358314117789267,0.21661226801052688,-0.035573417684435844
1686445576247285800,0.98928564453125,0.1554816536128521,-0.30131007434800267,0.4602431835889816
1686445576257303000,0.999302978515625,-0.03445522730946541,-0.23944340076074003,1.2590502135127781
1686445576267319800,1.00931982421875,-0.8132774538248777,-0.04817629414796829,0.3729518536269665
1686445576277337000,1.019337158203125,-0.35901334464550017,0.09023615124225616,-1.0159703559458255
1686445576287354000,1.02935400390625,0.3939689226925373,-0.09998758379742502,-0.7519751361221074
1686445576297371000,1.039370849609375,0.5253823029756546,-0.3136404174804687,-0.032733810344338414
1686445576307388200,1.04938818359375,0.1418739840209484,-0.2789797307267785,0.08621697872877121
1686445576317405000,1.059405029296875,-0.27801673091351986,-0.07127835279405116,-0.08745090443789959
1686445576327421000,1.0694208984375,-0.42386020308732986,0.061122723352164024,-0.4112140720039606
1686445576337438000,1.07943798828125,-0.3370335680276155,0.08624635095372796,-0.6077163027912378
1686445576347455000,1.089455078125,0.4230687604486942,0.3495345915518701,0.047939562782645224
1686445576357472000,1.099471923828125,0.5638754074990749,0.45877661816775794,0.538973605954647
1686445576367488800,1.10948876953125,-0.03664543083012104,0.014015958131849766,-0.17664309958517552
1686445576377506000,1.119506103515625,-0.2726157486528158,-0.24501447889134287,-0.1290858141183853
1686445576387522800,1.129522705078125,-0.35697160968482494,-0.08619491302743554,0.07756371667385101
1686445576397538800,1.139538818359375,-0.05096913973689079,0.03521992807164788,0.2215554235011339
1686445576407556000,1.14955615234375,0.18482757508456707,0.12363047132194041,0.32328619770407674
1686445576417572900,1.15957275390625,0.09976385804414749,0.12263006210774183,0.1973001031666994
1686445576427590000,1.16958984375,-0.034545828202366825,0.016237871965020894,0.03745616269111633
1686445576437607200,1.179607177734375,-0.1719552340298891,0.023524667972326278,0.016454291194677353
1686445576447624000,1.1896240234375,-0.3414847022175789,0.036168168707191944,0.02735094826221466
1686445576457641000,1.199640869140625,-0.3476239356249571,0.041733693879842756,0.02671557296812534
1686445576467657000,1.209656982421875,-0.11895780333578586,0.07757862198203802,0.05027823486328125
1686445576477674000,1.219674072265625,0.0812637402355671,0.10722396479174494,0.04972819976508617
1686445576487691000,1.22969091796875,0.3285913183748722,0.13807400721609592,0.07649637970328331
1686445576497707800,1.239707763671875,0.4631938500881195,0.17047902399748563,0.12580255466401577
1686445576507725000,1.24972509765625,0.2581640294522047,0.0409954427331686,-0.07846388038396834
1686445576517741800,1.259741943359375,0.07733458409309386,-0.12370105234012008,-0.1798719985038042
1686445576527759000,1.269759033203125,0.2793488563001156,-0.10977321088314056,-0.015507950255274771
1686445576537775000,1.279775146484375,0.5926151797711849,-0.02149301601424813,0.14924538957178593
1686445576547792000,1.2897919921875,0.37153672613203526,-0.1069077384494245,0.16042495523393152
1686445576557809000,1.299808837890625,-0.1298135438710451,-0.2124004955343902,0.04851823945343494
1686445576567826000,1.309825927734375,-0.7312275316476822,-0.2922667900621891,-0.21981939348876475
1686445576577843000,1.319843017578125,-1.0894617086142302,-0.3338929319143295,-0.6910393136441707
1686445576587860000,1.32985986328125,-1.0340741679131984,-0.3813908884093165,-1.0378840815901755
1686445576597877000,1.339876953125,-0.5787409681975841,-0.24864918213188647,-0.7122381690174341
1686445576607893000,1.34989306640625,-0.14635960500240325,0.10641367132216692,-0.1951350340873003
1686445576617910000,1.359909912109375,-0.2646913853943348,0.1425222187966108,-0.15302198550105095
1686445576627927000,1.369927001953125,-0.6187012226641178,-0.021899989379942416,-0.35934418403506274
1686445576637944000,1.379944091796875,-0.5208166024953127,-0.01011924295425415,-0.08920447010695934
1686445576647960800,1.3899609375,-0.2502069329679012,0.04302987117022276,0.3877718216180801
1686445576657978000,1.39997802734375,0.061923664471507066,0.09483341590464114,0.670072513461113
1686445576667995000,1.409994873046875,0.49407004986703396,0.07970759683474898,0.6945446914166211
1686445576678012000,1.420011962890625,0.5886451070964336,-0.07047288163006306,0.42359366110563273
1686445576688028000,1.43002783203125,0.7278606855630875,-0.1369216223105788,0.23847207151055336
1686445576698045000,1.440044921875,0.987839655482769,0.09700666829049587,0.2992319528996944
1686445576708062000,1.45006201171875,0.9471168922111391,0.3922157954148948,0.4779869300723076
1686445576718079000,1.460078857421875,0.9835086405411362,0.2952965131469071,0.3462877185851335
1686445576728096000,1.470095947265625,0.5897299797236919,0.14662439341843128,0.16796762569844723
1686445576738113000,1.480113037109375,0.27482085748165846,0.09165200938954948,0.17617548207342623
1686445576748129800,1.4901298828125,-0.07236264089941978,0.08391863865852356,0.18728899676203728
1686445576758146000,1.50014599609375,-0.5895695284649729,-0.12490721325948834,-0.23931787468492982
1686445576768162300,1.510162353515625,-0.7598068526610732,-0.37495661757811904,-0.6467582733690739
1686445576778179300,1.520179443359375,-0.7688961680456996,-0.3318671251751482,-0.6713830115377902
1686445576788196400,1.5301962890625,-0.46695057227313513,-0.17291370379850268,-0.4982569801628589
1686445576798213000,1.540213134765625,0.028168109863996503,0.09290478592962026,-0.04477145414054393
1686445576808230400,1.55023046875,0.20001900673657655,0.29747181135937567,0.21596856327950953
1686445576818247400,1.560247314453125,0.2839905446261167,0.21676322078853844,0.13070318618714807
1686445576828263200,1.57026318359375,0.40469256128072734,0.07714607578366994,0.03224047386944294
1686445576838280400,1.580280517578125,0.42089726162850855,0.06271203837022185,0.09517536121010779
1686445576848297500,1.59029736328125,0.4032090447247028,0.02988455839306116,0.12434767968058585
1686445576858314200,1.600314208984375,0.3168251849964261,0.0335829745195806,0.2108364610880613
1686445576868331500,1.61033154296875,0.1676543219655752,0.03701806353479624,0.23948913959860801
1686445576878348300,1.620348388671875,-0.06882803703248501,-0.008683657193183899,0.3077671415328979
1686445576888365300,1.630365234375,-0.004850947162508964,0.05248918891102075,0.4243576312154531
1686445576898381300,1.64038134765625,0.06644114189594984,0.04166398964449763,0.35222529194056984
1686445576908398300,1.6503984375,-0.11706629050076008,-0.07036474508047104,0.17431144176721572
1686445576918415400,1.660415283203125,0.028132454028725624,0.02961041762679815,0.1655114647179842
1686445576928432000,1.67043212890625,0.019876959119737147,-0.013870266050845384,-0.22485271148085592
1686445576938449400,1.680449462890625,0.10448299552053213,-0.05442147214785218,-0.0818558609098196
1686445576948466200,1.690466064453125,0.1478033740699291,0.03172814043313265,0.11873042432069777
1686445576958483200,1.700483154296875,0.03709960433840751,-0.09531944585591554,0.1235001229405403
1686445576968499500,1.71049951171875,0.1609060167491436,-0.0699953272461891,0.31572248445153234
1686445576978516200,1.72051611328125,0.1436205354273319,-0.170712394361943,0.14657295549213886
1686445576988533200,1.730533203125,0.04628244322538375,-0.16498247240781783,0.0880821880787611
1686445576998550500,1.740550537109375,0.0933797099649906,-0.05673194104731082,0.19798750090897083
1686445577008567300,1.7505673828125,0.18692893127799032,0.07881941582337021,0.16885843705832956
1686445577018584300,1.760584228515625,-0.09007365415692328,-0.04531958954259753,0.0659480976819992
1686445577028601300,1.770601318359375,-0.33549861354529853,0.05524813223034143,0.2545616210460663
1686445577038618400,1.780618408203125,-0.20203005429804324,0.10923223587423563,0.13747954845428467
1686445577048634400,1.79063427734375,-0.10499942061007023,-0.07503200623914599,0.1084773258537054
1686445577058651400,1.8006513671875,-0.025559388670325277,-0.07456745746731758,-0.02484510292112827
1686445577068668400,1.81066845703125,-0.04673252508044243,-0.026236849540472028,-0.14176760103702543
1686445577078685200,1.820685302734375,-0.11342471912801265,0.03303527750894427,-0.05343523758947849
1686445577088702500,1.830702392578125,-0.13195873920619486,-0.02948883707374334,0.10678045880794525
1686445577098719200,1.84071923828125,-0.09851590380966663,-0.09507789218500257,0.16871932084858415
1686445577108736300,1.850736328125,-0.09744272162020205,-0.20199600589796898,0.14869944612681865
1686445577118752300,1.860752197265625,0.028883564656972883,-0.36037820325791836,0.15860767667889594
1686445577128769300,1.870769287109375,0.2423959669560194,-0.2723394159294665,0.37909459416568275
1686445577138786300,1.880786376953125,0.28007307892143724,-0.12636457246094943,0.3637088089853525
1686445577148803300,1.89080322265625,0.19875439362823963,-0.21082155577987433,0.38338323127031326
1686445577158820400,1.9008203125,0.08822422689795494,-0.42692952753007407,0.6574217062026262
1686445577168837400,1.91083740234375,0.05786708255708217,-0.4710393028914928,0.806363144391775
1686445577178854100,1.920854248046875,-0.08311316749453544,-0.4452325153313577,0.22354864314496517
1686445577188870400,1.930870361328125,-0.20045710589289664,-0.19991233149170876,0.1178361058294773
1686445577198887400,1.940887451171875,0.264511937174201,-0.3772429749496281,0.7352034495413303
1686445577208904200,1.950904296875,0.24090192900598048,-0.8753944489113986,1.0390946264237164
1686445577218921500,1.96092138671875,0.22804069386720657,-0.9802762344911694,1.1976818448364734
1686445577228938200,1.970938232421875,0.34939386790692806,-0.735008219230175,1.2230191151887178
1686445577238955300,1.980955322265625,0.3965437416166067,-0.6309178762890398,0.8838613946139812
1686445577248972300,1.99097216796875,0.37472061686515806,-0.1837131841018796,0.200497437903285
1686445577258988300,2.00098828125,0.2855611549437046,0.09669438747093081,-0.36425942860543725
1686445577269005300,2.01100537109375,0.16840893972516058,0.08281827620118856,-0.5473650022029877
1686445577279022300,2.021022216796875,0.10782090777158737,0.09672551326155662,-0.6873334448635577
1686445577289039400,2.031039306640625,0.08635141876339912,-0.07853197718411684,-0.7409522223263979
1686445577299056400,2.041056396484375,0.13630115232467652,-0.12656447894722223,-0.6467857458978891
1686445577309073400,2.051073486328125,0.06884498816728592,-0.11762655473202466,-0.631755934548378
1686445577319090400,2.06109033203125,-0.1411596982717514,-0.13308803549706935,-0.5969371346235275
1686445577329106400,2.0711064453125,-0.28726562077403067,-0.1205756137959659,-0.5119768779575824
1686445577339123200,2.081123291015625,-0.23124212025701998,-0.20699732131659984,-0.3940986865520477
1686445577349140500,2.091140380859375,-0.1325724871903658,-0.2663015970699489,-0.21483166820406913
1686445577359157200,2.1011572265625,0.027182605957984923,-0.31677988454997535,-0.04981646257042884
1686445577369174300,2.11117431640625,0.10153846650123595,-0.2503261754333973,-0.13187515257596968
1686445577379191300,2.12119140625,0.1361667122900486,-0.12464359388723968,-0.3301671893894672
1686445577389208300,2.131208251953125,0.21733575997948645,0.03699833592101932,-0.4137111495167017
1686445577399225300,2.141225341796875,0.28895488903522487,0.1245613224312663,-0.5790753147184848
1686445577409241300,2.151241455078125,0.228992880025506,0.18189283680692314,-0.6930781259953975
1686445577419258400,2.16125830078125,0.11693711116313933,0.10968860133960842,-0.7903472446143627
1686445577429275400,2.171275390625,-0.028905191966891286,0.018029869948327542,-0.7099725621730089
1686445577439292400,2.18129248046875,-0.03438099302947521,-0.007728256164491176,-0.5385030658334493
1686445577449309400,2.191309326171875,-0.18843582870960235,-0.02520458388328552,-0.31245909874141214
1686445577459326200,2.201326171875,-0.3566296643793583,-0.0632511136829853,-0.011502806267142295
1686445577469343500,2.211343505859375,-0.6545370906770229,-0.04172200344204902,-0.009675006318092346
1686445577479359500,2.221359375,-0.8615162918150424,0.07510404856204986,-0.13407295488119125
1686445577489376300,2.231376220703125,-0.9566676876276731,0.25029095798954365,-0.5026531692951918
1686445577499393300,2.241393310546875,-0.6936153016120195,0.31253684015274047,-0.4615764780193567
1686445577509410300,2.251410400390625,-0.4890875852793455,0.344915115057677,-0.4635194287806749
1686445577519427300,2.26142724609375,-0.47973055886924265,0.316651874256134,-0.3238637053310871
1686445577529444000,2.271444091796875,-0.536293573090434,0.16454875716567038,-0.12982874144017695
1686445577539461400,2.28146142578125,-0.45820554028153415,0.0488413339279592,0.13376198923587798
1686445577549477400,2.291477294921875,-0.3512058857649564,-0.07550503057837486,0.1594634167253971
1686445577559494100,2.301494140625,-0.33675153621584175,-0.16834391166493295,0.165545366987586
1686445577569511400,2.311511474609375,-0.29437340695261954,-0.09845306770652532,0.2311673014551401
1686445577579528400,2.321528564453125,-0.25379472832679745,-0.023598171599954365,0.13020634258091449
1686445577589545200,2.331545166015625,-0.1933683166757226,-0.06223755272626876,0.15490940668284892
1686445577599562500,2.3415625,-0.1862853726774454,-0.03591887012124061,0.022392449072003363
1686445577609579300,2.351579345703125,-0.09960895974338053,-0.10766162555664777,-0.06720949591994285
1686445577619595300,2.36159521484375,0.06617372313141823,-0.17039207636639475,0.05051438170671463
1686445577629612500,2.371612548828125,0.2227852575570345,-0.17790464395359157,0.12416121719777583
1686445577639629300,2.38162939453125,0.31324089676886796,-0.16021569639742372,0.04330196610987186
1686445577649646300,2.391646240234375,0.28542876073569057,-0.0899305924244225,-0.02780044559538364
1686445577659663400,2.401663330078125,0.1868950290083885,-0.08728241600319743,-0.13054828788638115
1686445577669680400,2.411680419921875,0.06414981608837843,-0.20915435322001574,-0.1416039349079132
1686445577679697200,2.421697265625,-0.0036062077984213826,-0.32510347625911235,-0.008137713748216629
1686445577689713200,2.431713134765625,0.001021159741282463,-0.39254517349973317,0.020069559082388878
1686445577699730400,2.44173046875,0.0000339022696018219,-0.42638796799927947,0.02640752993226051
1686445577709747200,2.451747314453125,0.026054478710889815,-0.46626244387850163,-0.007524550285935402
1686445577719764200,2.46176416015625,0.03172551008462906,-0.5593326495029032,-0.047286651831865305
1686445577729781500,2.471781494140625,-0.008838847754895686,-0.7800807021439075,-0.15352292076051235
1686445577739798300,2.48179833984375,-0.008232698555290699,-0.9856437528736889,-0.22025895394980907
1686445577749815300,2.491815185546875,-0.005911562131345272,-1.1266790941134095,-0.255298703148961
1686445577759831600,2.50183154296875,0.0716606301099062,-1.1228759024381636,-0.4110223488241434
1686445577769848000,2.51184814453125,0.2002934397637844,-0.8910990907825529,-0.6425894632518291
1686445577779865300,2.521865234375,0.22373101397454737,-0.4518086788512766,-0.9640677347511053
1686445577789882000,2.531882080078125,0.1949263597726822,0.05588482269868254,-1.3930237996727228
1686445577799899100,2.541899169921875,0.11546294695734977,0.33991496868282556,-1.7022060687005518
1686445577809916200,2.551916259765625,0.07687193501740694,0.6058296122618019,-1.833612434720993
1686445577819933200,2.56193310546875,0.11665011091530322,0.7870921883411705,-1.9612527262061834
1686445577829950200,2.5719501953125,0.1312958913832903,0.8245543423816561,-1.8425562041550874
1686445577839966000,2.581966064453125,-0.0430193497762084,0.8091087898381054,-1.5087258160829544
1686445577849983200,2.591983154296875,-0.23838176287859678,0.7679428128436208,-1.2712415865659712
1686445577860000300,2.602000244140625,-0.5315402410835027,0.7893206780456006,-0.90417353028059
1686445577870017000,2.61201708984375,-0.6766197431474924,0.8420989130310714,-0.6844318782031535
1686445577880034300,2.622034423828125,-0.7375234169214964,0.804953277593851,-0.49729368808865543
1686445577890051000,2.632051025390625,-0.8750131945088505,0.863355051549524,-0.35417876409590243
1686445577900068400,2.642068359375,-0.9057207597225904,1.0500476898536086,-0.43601592030525205
1686445577910084400,2.65208447265625,-0.7824556145817041,1.1739411960259079,-0.5347831685274839
1686445577920101000,2.66210107421875,-0.798211402118206,1.0600324927732347,-0.7093488773167133
1686445577930118100,2.6721181640625,-0.8591144913703203,0.9853551451906561,-0.6150847857326269
1686445577940135200,2.68213525390625,-0.5892179385483265,0.912069836488366,-0.4587263492852449
1686445577950152200,2.692152099609375,-0.25087065757364035,0.8184020302969962,-0.3574742985099554
1686445577960169000,2.7021689453125,-0.04019669357091188,0.7467829012412578,-0.2040799725651741
1686445577970186200,2.712186279296875,0.03513590305000543,0.6338778220731764,-0.07606032637357711
1686445577980202200,2.7222021484375,0.005910100826621055,0.425963605107367,-0.015305121159553526
1686445577990219000,2.732218994140625,-0.12645137396156786,0.35337373132333155,-0.01624035618305206
1686445578000236300,2.742236328125,-0.22361469411849974,0.4478317380443215,-0.0845528449088335
1686445578010253300,2.75225341796875,-0.2408797171741724,0.5413327363014221,-0.09203004892170429
1686445578020270000,2.76227001953125,-0.24788462750017642,0.6384870694343,-0.13961071526408195
1686445578030287400,2.772287353515625,-0.2853112718358636,0.6687544896651059,-0.17350421703755856
1686445578040304000,2.78230419921875,-0.3608329612880945,0.5226309584408998,0.028529344391822812
1686445578050320100,2.792320068359375,-0.26907997574210163,0.4322688427314162,0.36272564316689965
1686445578060337200,2.802337158203125,0.0869710119664669,0.32854777149409053,0.7864858930110931
1686445578070354200,2.812354248046875,0.3370049264550209,0.12730302235484123,1.079219131541252
1686445578080371200,2.82237109375,0.372117156368494,-0.07966945678144693,1.3512632177859545
1686445578090388000,2.832387939453125,0.327558468195796,-0.1802574906900525,1.4311129995703695
1686445578100405200,2.8424052734375,0.2976040594369173,-0.126584498821944,1.3695020543098448
1686445578110422000,2.852422119140625,0.2926727405145764,0.0082691581081599,1.1615566384881735
1686445578120438000,2.86243798828125,0.33445261162370443,0.10122070578895509,0.7833522711604833
1686445578130455300,2.872455322265625,0.39797815833389755,0.2501027419410646,0.4906599491626024
1686445578140472000,2.88247216796875,0.3571367371186614,0.25937493961192665,0.1799240209519863
1686445578150489000,2.892489013671875,0.17352525982558725,0.21473843696266412,0.20966449469923973
1686445578160506400,2.90250634765625,-0.005744388870894909,0.2105318155856803,0.16031564964056014
1686445578170523100,2.912523193359375,0.19310966573953628,-0.07720102084130048,0.5651110867738723
1686445578180540200,2.9225400390625,0.08593757726550101,-0.27890725001245736,0.27277356956303117
1686445578190557200,2.93255712890625,0.6440808708533644,0.3330293373549357,-0.23956980361938476
1686445578200573200,2.9425732421875,0.7419839034616946,0.9557999648824334,-0.7545318348675966
1686445578210590200,2.952590087890625,0.6238368319869041,0.9255617707461118,-1.1375234364718199
1686445578220607200,2.962607177734375,0.3554568212077021,0.5995005919033661,-1.26576110932827
1686445578230624300,2.972624267578125,-0.05826338839828968,0.14643997676223516,-0.8450251757413149
1686445578240641000,2.98264111328125,-0.1901537385433912,-0.3105611561655998,0.25659283461272714
1686445578250658300,2.992658203125,0.003956920932233333,-0.8227969773203134,0.8144716320455074
1686445578260675000,3.002675048828125,0.06755085670351982,-1.0847720894932746,0.9730138422727584
1686445578270691000,3.012691162109375,0.16909867555499075,-0.8689861893042922,1.2975976785719394
1686445578280708000,3.0227080078125,0.2974327945232391,-0.4565285469800234,0.7625216645777225
1686445578290725000,3.03272509765625,0.2749474064707756,-0.2153682592988014,0.2304705513626337
1686445578300742100,3.0427421875,0.07941957367360591,-0.14086188436895608,0.18060148182213306
1686445578310759200,3.05275927734375,-0.033054420600831504,-0.09426232888526283,0.26872166382372376
1686445578320776200,3.062776123046875,-0.007661620669066905,-0.032477196101611476,0.21868366745710371
1686445578330793200,3.072793212890625,-0.2172963047519326,0.14684330599927342,0.08349661385416984
1686445578340809200,3.082809326171875,-0.25430823080688714,0.18882278220057486,0.14871990439295768
1686445578350826200,3.092826171875,-0.17626549844443798,0.21105682584047317,0.3191296625465154
1686445578360843300,3.10284326171875,-0.1145727201193571,0.03768938692510128,0.31188334468007084
1686445578370860000,3.112860107421875,-0.03297141849249601,-0.114791020778846,0.27446108425855636
1686445578380877300,3.122877197265625,-0.08091185805797577,-0.23343320056051015,0.3096504710614681
1686445578390894000,3.13289404296875,-0.42000148183256386,-0.2152571818734519,0.4520224677324295
1686445578400911000,3.1429111328125,-0.16965806300342082,-0.10804682548195123,-0.5697662191033362
1686445578410927000,3.152927001953125,0.11528729812949895,-0.3260381267607212,-0.00914192235469818
1686445578420944100,3.162944091796875,0.14848755694180726,-0.5507309715047478,0.5829010104864836
1686445578430961200,3.172961181640625,0.2776180869847536,-0.7560504227370023,0.47286885640621185
1686445578440978200,3.182978271484375,0.43316549931019543,-0.731425392307341,0.5161661463409662
1686445578450995200,3.1929951171875,0.41995004390627144,-0.5989452595755458,0.47196401652097697
1686445578461012200,3.20301220703125,0.33350656294524667,-0.44367871001809833,0.3400602223724127
1686445578471029200,3.213029296875,0.19115911619365214,-0.2912096822246909,0.04042144223749637
1686445578481046300,3.22304638671875,0.0832040606483817,-0.2648726237127557,0.040162499040365215
1686445578491062300,3.233062255859375,0.02533580904752016,-0.20577886717123908,0.05639642548263073
1686445578501079000,3.2430791015625,-0.07253449033498764,-0.15147387927621603,-0.01579904215633869
1686445578511096300,3.253096435546875,-0.15061141722798346,-0.1615177189067006,-0.00808627582192421
1686445578521113000,3.263113037109375,-0.428365697813034,-0.6499895103752613,0.32451077106297016
1686445578531130000,3.273130126953125,-0.2312079257264733,-0.2938768373410217,0.1079021563142538
1686445578541147100,3.283147216796875,0.5633648276284337,-0.14948940919442102,-0.06314356165528297
1686445578551164200,3.2931640625,-0.33551001172214745,-0.08804680623812601,0.06385901644825935
1686445578561180200,3.30318017578125,-0.15617401979118584,-0.027186679344903677,0.019840426501631734
1686445578571197200,3.313197265625,-0.14437398414313793,0.07443623230308294,0.0011778116077184677
1686445578581214200,3.323214111328125,-0.005988134498894214,0.19584057027446106,0.002361468434333801
1686445578591231200,3.333231201171875,0.07891630032658577,0.2327928568303585,-0.008107903131842613
1686445578601248300,3.343248291015625,-0.051317514783143996,0.1464355928480625,0.626856472069025
1686445578611265300,3.353265380859375,-0.3101630967587232,0.3735807991802692,-0.22122809124290943
1686445578621282000,3.363281982421875,0.08089403014034033,0.39808600262254473,-0.5401081629425287
1686445578631298000,3.373298095703125,-0.10832388885766267,0.33433395368009805,-0.543061752051115
1686445578641315300,3.3833154296875,-0.013696516919136047,0.09788374338597058,-0.3512678450852632
1686445578651332000,3.39333203125,0.1824149609848857,0.028787721333373335,-0.07105331186652183
1686445578661349000,3.40334912109375,-0.07701397383660077,0.09732671229140832,0.09675357031226157
1686445578671366100,3.4133662109375,-0.1705658254981041,0.07267243750095367,0.03841360954642296
1686445578681383200,3.423383056640625,-0.10001052628159522,0.05737170025557279,-0.21598083823919295
1686445578691400000,3.43339990234375,-0.0030859833166003224,-0.18956832160456105,-0.47678982924222946
1686445578701416200,3.443416259765625,0.03911941972821951,-0.21375382810579613,-0.46212417502999303
1686445578711433200,3.45343310546875,-0.06442658720314502,-0.13093816398680208,-0.34329379746615885
1686445578721450000,3.463449951171875,-0.15172317786216735,-0.056687225122749804,-0.1741898612141609
1686445578731467300,3.47346728515625,-0.17859832530617714,-0.01870703855752945,-0.056653030592203134
1686445578741484300,3.483484375,-0.10284925683885812,-0.003308110767835751,0.0508686019718647
1686445578751501000,3.4935009765625,-0.03829115221053361,-0.011336797483894042,0.15325754782259463
1686445578761518600,3.5035185546875,-0.02134381680190563,-0.03301964154839516,0.16648410914242268
1686445578771535600,3.51353564453125,-0.002042319482564926,-0.0842436328291893,0.1769832913249731
1686445578781551600,3.523551513671875,0.023152619789540765,-0.13661620962321758,0.14704466465711594
1686445578791568600,3.533568603515625,0.03310147461295128,-0.14471096101254224,0.07855681936442852
1686445578801585400,3.54358544921875,0.04714169040322304,-0.15857202084362507,0.03801379657387733
1686445578811602700,3.553602783203125,0.11049743350446224,-0.15160510444045067,0.03269756998717785
1686445578821619500,3.563619384765625,0.22360212689787148,-0.12061316932737827,0.02650163795650005
1686445578831636500,3.573636474609375,0.31787440178841353,-0.075562605984509,0.038759646505117415
1686445578841653500,3.583653564453125,0.3797504277259111,-0.019574761302769184,0.04841244099140167
1686445578851669500,3.59366943359375,0.4004118152216077,0.027470772966311778,0.04068856874108314
1686445578861686500,3.6036865234375,0.43032267709970473,0.064137541128695,0.03861585412025451
1686445578871703600,3.61370361328125,0.4430775292545557,0.08113397637605667,0.019587328523397445
1686445578881720600,3.623720458984375,0.42534810355752706,0.058317452106508426,-0.025768647506833074
1686445578891737300,3.6337373046875,0.3756105514422059,0.03747047891083639,-0.0778127229988575
1686445578901754600,3.643754638671875,0.26867490207254885,0.02577157011628151,-0.11021686299741268
1686445578911771600,3.653771728515625,0.19974983440637586,0.018340251071751117,-0.14267711709737776
1686445578921787400,3.663787353515625,0.1648755049020052,0.026788930465281007,-0.10765373451113701
1686445578931804700,3.6738046875,0.128401923507452,0.0497007272362709,-0.009943886387348175
1686445578941821700,3.68382177734375,0.09342471815049648,0.09140782537013292,0.04888298111259937
1686445578951838500,3.69383837890625,0.12780220404863357,0.10192045155614614,0.11526947021186351
1686445578961855700,3.703855712890625,0.17993161973655222,0.0550838815793395,0.10093231730163096
1686445578971872500,3.71387255859375,0.16574439669102428,0.0051268323612865055,0.042154549640417094
1686445578981889500,3.7238896484375,0.1045300495326519,-0.03991203141063451,0.0003723404437303543
1686445578991906600,3.733906494140625,0.04497311419248581,-0.08574921508654952,-0.029773791494965552
1686445579001922600,3.743922607421875,0.0007972878575325012,-0.08941533637866378,-0.08602759363651274
1686445579011939600,3.753939697265625,-0.17280337529182432,-0.05675548631967976,-0.14059154299497603
1686445579021956400,3.763956298828125,-0.3299555924654007,-0.023740502680093048,-0.09976093543469905
1686445579031973600,3.7739736328125,-0.3376981694161892,0.01305337844369933,-0.08259820370972155
1686445579041990400,3.783990478515625,-0.24689269385337828,0.03417494906336069,-0.01934182932972908
1686445579052007400,3.79400732421875,-0.15257424173355102,0.021757512169331313,0.07669336358010768
1686445579062024700,3.804024658203125,-0.03591360942423343,0.022402258079964665,0.08739712842404841
1686445579072040400,3.81404052734375,0.05754910264909267,0.0029319617986679077,0.08691489786505699
1686445579082057500,3.824057373046875,0.1397042387664318,-0.022199118456989526,0.11342764173746109
1686445579092074800,3.83407470703125,0.16937807701826094,-0.016978168938308953,0.13163140694797038
1686445579102091500,3.844091552734375,0.09535247134268283,-0.006093366705346852,0.01877542761862278
1686445579112108500,3.854108642578125,0.04242342970967292,0.01090423758579418,-0.04277180475592613
1686445579122125600,3.86412548828125,-0.0070031567603349686,0.006850286019872874,-0.04883738840520382
1686445579132142600,3.874142578125,-0.07985679604709148,0.023443419429659842,-0.08527297587692736
1686445579142158600,3.88415869140625,-0.16899872231185437,0.03710966907469555,-0.06606558658182621
1686445579152175400,3.89417529296875,-0.2505862876743078,0.007518686800729483,0.008386720073223114
1686445579162192600,3.904192626953125,-0.3441191423743963,0.008605331259965897,-0.06452946305572986
1686445579172209400,3.91420947265625,-0.3969955770373344,-0.012330927654355764,-0.20046821180880067
1686445579182226700,3.924226806640625,-0.4138105182379484,-0.04032923390939831,-0.2506137602031231
1686445579192243500,3.934243408203125,-0.4040624466836452,-0.04453006486641243,-0.25297289054989813
1686445579202260500,3.944260498046875,-0.37997956030666824,-0.049597869649995116,-0.21535715338289738
1686445579212277800,3.95427783203125,-0.36352351554632184,-0.08334683011993765,-0.19328911395967005
1686445579222293500,3.96429345703125,-0.31195874800384044,-0.07162132101282477,-0.15843232011198996
1686445579232310500,3.974310546875,-0.24620061993598938,-0.04264861676767468,-0.11915946338772773
1686445579242327600,3.98432763671875,-0.1756622718542814,-0.005721117593161761,-0.09225392080545425
1686445579252344600,3.994344482421875,-0.12646423344314098,0.009560586158186196,-0.054769701063632964
1686445579262361600,4.004361572265625,-0.10959317814111709,0.019477438408136368,-0.0289525382399559
1686445579272378400,4.01437841796875,-0.10432195973992348,0.020027893631439656,-0.02307400159537792
1686445579282395600,4.024395751953125,-0.1403968972057104,0.01158405480980873,-0.035896658289432525
1686445579292411600,4.03441162109375,-0.17885142328441142,-0.01567280369447544,-0.0766881028831005
1686445579302428400,4.044428466796875,-0.2474234397292137,-0.012945406290888785,-0.14285714983940123
1686445579312445700,4.05444580078125,-0.3254015824228525,0.01579451211169362,-0.1787047082901001
1686445579322462500,4.06446240234375,-0.36594109808206554,0.03962442837459966,-0.16463409736156462
1686445579332479500,4.0744794921875,-0.3287298500627279,0.04402938533527776,-0.15171557907760141
1686445579342496500,4.08449658203125,-0.2126841347813606,0.01870119333863258,-0.12058803488612174
1686445579352513500,4.094513427734375,-0.04957330146431923,-0.033908553212136025,-0.07924889328181743
1686445579362529500,4.104529541015625,0.08482523210942745,-0.06024217765796929,-0.0355623117685318
1686445579372546600,4.114546630859375,0.15207096838653086,-0.037900399327278136,0.012010755789279936
1686445579382563600,4.1245634765625,0.17418518503904343,0.005743219827115536,0.0608896452486515
1686445579392580600,4.13458056640625,0.17978139761090278,0.03954363648965954,0.09055413115024566
1686445579402597400,4.144597412109375,0.15007131900191306,0.0451215827524662,0.10497603973448276
1686445579412614700,4.15461474609375,0.09878946005403995,0.037825269998144354,0.10938333478271961
1686445579422631400,4.16463134765625,0.04944236856102943,0.03718830553516746,0.10125380434095858
1686445579432647400,4.1746474609375,0.005207505515217781,0.03216273245811462,0.08905717059075832
1686445579442664700,4.184664794921875,-0.01972293760180473,0.008898030596226453,0.06035188511013984
1686445579452681500,4.194681396484375,-0.03254617881774902,0.000575607930868864,0.025272388422489165
1686445579462698500,4.204698486328125,-0.02586684718430042,0.02934720011334866,-0.010979074653983116
1686445579472715500,4.214715576171875,0.01955751790702343,0.059436816091835494,-0.011271335598826407
1686445579482732500,4.224732666015625,0.06502163048684596,0.09062544282078742,-0.002626256850361824
1686445579492749600,4.23474951171875,0.13148001577854157,0.1027323524609208,0.031660628154873846
1686445579502766600,4.2447666015625,0.2205050376653671,0.0850594609904103,0.03709551268517971
1686445579512782600,4.254782470703125,0.2773731723129749,0.07396582004604861,0.02759235580265522
1686445579522799600,4.264799560546875,0.3295271379202604,0.07635841427100822,0.06494681168496608
1686445579532816600,4.274816650390625,0.34890579212903977,0.06728197663426398,0.07543196534216404
1686445579542833700,4.284833740234375,0.3425193059623241,0.05180617508292198,0.08545242409706115
1686445579552850400,4.294850341796875,0.34684535246789455,0.03635872284322977,0.08620645733475685
1686445579562867700,4.30486767578125,0.33534546881020066,0.013287479460518807,0.07815466830432415
1686445579572884500,4.314884521484375,0.3021633301764726,-0.01140299915447831,0.057573652568459505
1686445579582900500,4.324900390625,0.2560942374408245,-0.03157369879009202,0.034730537119507784
1686445579592917500,4.33491748046875,0.23568331757485866,-0.04443244971083477,0.00048281508088111874
1686445579602934500,4.3449345703125,0.2572135968595743,-0.04565804598303511,-0.06544833146631718
1686445579612951600,4.35495166015625,0.3061877633869648,-0.035234833379834886,-0.15598317339420317
1686445579622968300,4.36496826171875,0.3583966740518808,-0.04754649007814005,-0.20808920820653437
1686445579632985600,4.374985595703125,0.336930107653141,-0.07298910223469138,-0.18052257136702538
1686445579643002600,4.385002685546875,0.2710521525979042,-0.10656287053450941,-0.10342413411736488
1686445579653018400,4.395018310546875,0.17055062792897224,-0.13565613241940735,-0.053210196661949156
1686445579663035600,4.40503564453125,0.0437228218704462,-0.11940010374318807,-0.020325579670071602
1686445579673052700,4.415052734375,-0.08529927936196327,-0.06962137936726212,0.009158873489499092
1686445579683069400,4.4250693359375,-0.21728198396563528,-0.03139963913112879,0.024851532661914824
1686445579693086700,4.435086669921875,-0.32556934020519257,-0.02318579140678048,0.004953823015093803
1686445579703103500,4.445103515625,-0.4417489109992981,-0.07131125041665509,-0.051286535122990605
1686445579713120500,4.45512060546875,-0.5624164408624172,-0.09843582431077956,-0.12853870162963865
1686445579723137500,4.465137451171875,-0.6569096650272608,-0.05695128288641572,-0.17069325127005577
1686445579733153500,4.475153564453125,-0.6400479620754719,0.01887596538364887,-0.16044599802196025
1686445579743170600,4.485170654296875,-0.5489063864260911,0.05986307867988944,-0.10900865625143051
1686445579753187600,4.4951875,-0.4805962357878685,0.03963146090358496,-0.08071721226871013
1686445579763204600,4.50520458984375,-0.403995811188221,0.010242430942505598,-0.05553425569534302
1686445579773221600,4.5152216796875,-0.350145563057065,-0.007631225530803203,-0.07551613649427891
1686445579783238700,4.52523876953125,-0.28529227487444875,-0.017545319568086415,-0.09209259276390075
1686445579793255700,4.535255615234375,-0.19948036981523035,-0.019871132167149332,-0.13105448384284973
1686445579803271700,4.545271728515625,-0.12126374219059943,-0.02063422549413517,-0.18768764069080351
1686445579813288700,4.555288818359375,-0.02448912909030914,-0.033224516470730305,-0.21835048997998235
1686445579823305700,4.5653056640625,0.034762685823440546,-0.016877192781865596,-0.2267056458711624
1686445579833322800,4.57532275390625,0.06042845747768879,0.007898626029025763,-0.16463760449290274
1686445579843339800,4.58533984375,0.013405425018072127,0.020555881294608114,-0.1059375782430172
1686445579853356500,4.5953564453125,-0.0762438662469387,0.042295419415831564,-0.0450952792674303
1686445579863373800,4.605373779296875,-0.1404319685190916,0.06741829809872434,-0.0266477684289217
1686445579873390600,4.615390625,-0.14409341363608835,0.08806960259182378,-0.03495908517837524
1686445579883406600,4.625406494140625,-0.1030436103671789,0.10178308891206979,-0.062326400053501124
1686445579893423600,4.635423583984375,0.01001812066733837,0.0744818250104785,-0.08955518324077129
1686445579903440600,4.645440673828125,0.14719488678276538,0.061565334286820136,-0.06353986749649047
1686445579913457700,4.655457763671875,0.2747995224326849,0.046171950321923935,-0.014287468549609184
1686445579923474700,4.665474609375,0.39195699834823605,-0.004325754244625568,0.0674251844972372
1686445579933491700,4.67549169921875,0.4183464081019163,-0.04552535951407626,0.11712357364594936
1686445579943508700,4.6855087890625,0.40453590941429135,-0.08059331189440563,0.11924071193039416
1686445579953524500,4.6955244140625,0.3405377767562866,-0.1025419444553554,0.06992986079454422
1686445579963541800,4.705541748046875,0.2634825941264629,-0.12894688057173043,-0.01234042613506317
1686445579973558800,4.715558837890625,0.21087854666411876,-0.12956161493659019,-0.09711714292764663
1686445579983575600,4.725575439453125,0.1483528246462345,-0.08590031399503349,-0.0942781201094389
1686445579993592800,4.7355927734375,0.09535714751780032,-0.0546653273737058,-0.03891162219643592
1686445580003609600,4.745609619140625,0.05578676915168762,-0.030334932509064674,-0.010031564670801163
1686445580013626600,4.755626708984375,-0.0026057985842227933,-0.0033734584884718057,0.0661053340703249
1686445580023643600,4.7656435546875,-0.1095183593392372,0.013053871634043753,0.14704115752577782
1686445580033659600,4.77565966796875,-0.2239396882891655,0.0032065409563481807,0.17018062557280061
1686445580043676700,4.7856767578125,-0.36597090869843957,0.019587017996143548,0.17130232307910917
1686445580053693700,4.795693603515625,-0.44586686771214007,0.10026683913022279,0.079324296605587
1686445580063710700,4.805710693359375,-0.41150691747069357,0.14583015603451058,-0.05770867712497711
1686445580073727500,4.8157275390625,-0.29506957252323623,0.18768893759874625,-0.18478899663984774
1686445580083744800,4.825744873046875,-0.11719663888216018,0.20765490844249723,-0.26302725157439705
1686445580093761800,4.83576171875,0.03453881393969059,0.16428513779342174,-0.27808102832138537
1686445580103777500,4.845777587890625,0.09297112916409969,0.11341768659902736,-0.2493056002140045
1686445580113794600,4.855794677734375,0.05284428595900535,0.02730314533142373,-0.15129706140458582
1686445580123811800,4.865811767578125,0.00017009586989879608,-0.10691899049580096,-0.04714636657834053
1686445580133828600,4.87582861328125,-0.04268295742869377,-0.23911855272054672,-0.0060930561780929565
1686445580143845600,4.885845703125,-0.07816051352322101,-0.2971145223543048,0.006170797589421272
1686445580153862700,4.895862548828125,-0.13461831380426884,-0.2581070568342693,0.012656652477383613
1686445580163879700,4.905879638671875,-0.15576573125123977,-0.17900836741179227,0.013234160104393959
1686445580173895700,4.915895751953125,-0.15101765994131564,-0.11059329509437084,-0.03475041086375713
1686445580183912700,4.92591259765625,-0.10825754562318324,-0.0656166737705469,-0.06759703393280506
1686445580193929700,4.9359296875,-0.009400865551829337,-0.05038315654247999,-0.06780804633498191
1686445580203946500,4.945946533203125,0.10494389103054999,-0.049175534318387504,-0.031553076127171516
1686445580213963800,4.9559638671875,0.18519933100640773,-0.05262509025037288,0.030273557710647582
1686445580223980500,4.96598046875,0.24380934088528156,-0.048370355415344235,0.09958090269267558
1686445580233997600,4.97599755859375,0.3053799541354179,-0.048162283888924864,0.15294249052405356
1686445580244014800,4.986014892578125,0.358058820399642,-0.025788247256446628,0.1317787064641714
1686445580254030600,4.996030517578125,0.4302969581365585,0.026282716242503373,0.09111234955489635
1686445580264047600,5.006047607421875,0.49476621543765065,0.08091766674425452,0.06485621079206466
1686445580274065000,5.01606494140625,0.5354594603538513,0.13128069381415844,0.09153378983736038
1686445580284081700,5.02608154296875,0.5309311692744493,0.14519317330522463,0.14777590154111384
1686445580294098700,5.0360986328125,0.4128197536349296,0.10410188724845647,0.1636333958864212
1686445580304115700,5.04611572265625,0.26065759983360764,0.019685217673610894,0.1529319691300392
1686445580314132700,5.0561328125,0.09959025504291057,-0.07196021584467963,0.0908703574925661
1686445580324148700,5.066148681640625,-0.0315624284774065,-0.07576194621520116,0.002152209597826004
1686445580334165500,5.07616552734375,-0.07049684702754021,-0.04480740223675966,-0.03545417521893978
1686445580344182800,5.086182861328125,-0.09576397475302219,0.007814180882275104,-0.04740881690680981
1686445580354199600,5.096199462890625,-0.14122341115772724,0.062359133279323575,-0.030336101552844046
1686445580364216600,5.106216552734375,-0.1785743599087,0.09758620347781106,-0.023172201272845267
1686445580374233600,5.116233642578125,-0.1642477283924818,0.12649700320158153,-0.034382162073254584
1686445580384250600,5.126250732421875,-0.08874912755489349,0.16123831744343042,-0.031310499542951585
1686445580394267600,5.136267578125,0.01734627159833908,0.15776216576546429,-0.01607961266338825
1686445580404283600,5.14628369140625,0.08806699050962924,0.14285514054540543,0.004293313279747963
1686445580414300700,5.15630078125,0.15520517475903034,0.1037841630687937,0.019746902999281883
1686445580424317700,5.166317626953125,0.21238193696439264,0.03087705829543993,0.041622050198912616
1686445580434334700,5.176334716796875,0.2805903807938099,-0.030604104839265345,0.06760755532681942
1686445580444351700,5.186351806640625,0.344696065479517,-0.11594782613115384,0.08350129002928733
1686445580454368500,5.196368408203125,0.3211363261938095,-0.22617959443675353,0.05859481230974197
1686445580464385800,5.2063857421875,0.12567746697962284,-0.309729089255631,-0.015060206487774848
1686445580474401800,5.21640185546875,-0.2362783608585596,-0.2787450634543784,-0.10506196445226669
1686445580484418600,5.22641845703125,-0.6324228740245104,-0.15169628985524178,-0.13976210643351078
1686445580494435800,5.236435791015625,-0.8673907368063927,-0.03553162436932325,-0.13257540979981422
1686445580504452600,5.24645263671875,-1.01310853677392,-0.0005243344013579189,-0.14942249970436094
1686445580514469600,5.2564697265625,-1.0432850638508797,-0.08267156120687723,-0.251119371637702
1686445580524486700,5.266486572265625,-0.7991098122626542,-0.1949028327666223,-0.3523585629314184
1686445580534503700,5.276503662109375,-0.3608732932984829,-0.1997512957111001,-0.29981881287693973
1686445580544520700,5.286520751953125,0.0725794985204935,-0.1694812085991725,-0.16916998722553253
1686445580554536700,5.29653662109375,0.3791378487855196,-0.14802784874187783,-0.09037760553956031
1686445580564553700,5.3065537109375,0.5448837067812681,-0.11121314402576535,-0.0551601616859436
1686445580574570800,5.31657080078125,0.5915192012280226,-0.07069825135115533,-0.03002747399508953
1686445580584587500,5.32658740234375,0.5040747265309095,-0.0258721078813076,-0.009345335972309111
1686445580594604800,5.336604736328125,0.29039398192763327,0.011528671360760927,0.012310615518689155
1686445580604621600,5.34662158203125,0.02754267144203186,0.024006606270372866,0.031003041028976438
1686445580614638600,5.356638671875,-0.1901847182035446,0.009378653720021248,0.02632920399904251
1686445580624654800,5.36665478515625,-0.31717677491307256,0.00017974048107862473,-0.0005582184046506881
1686445580634671600,5.376671630859375,-0.335667540371418,-0.012516367223858833,-0.020594459739327428
1686445580644688600,5.386688720703125,-0.27016952454447746,-0.027948037372529506,-0.04257949705421924
1686445580654705700,5.39670556640625,-0.1585913100659847,-0.018276976577192544,-0.0921691651314497
1686445580664722700,5.40672265625,-0.047643210184574125,-0.011021890882402657,-0.11298048249185084
1686445580674739700,5.41673974609375,0.009509002101421356,-0.0025870938837528226,-0.07787409779727458
1686445580684756700,5.4267568359375,0.04157353488206863,0.0198354580655694,-0.021221651726961135
1686445580694773800,5.436773681640625,0.02884673977792263,0.053320634766481814,0.023162264400720594
1686445580704789800,5.446789794921875,0.01727437540590763,0.08313463040767237,0.04331307202577591
1686445580714806500,5.456806640625,0.02223229007422924,0.08156359996497631,0.06935235316753387
1686445580724823800,5.46682373046875,0.07054243973493575,0.07286255324557424,0.07487491598129271
1686445580734840600,5.476840576171875,0.12848200300633908,0.05833181399200111,0.03944938233494758
1686445580744857900,5.48685791015625,0.17458499801158903,0.0650721733639948,-0.005548866298794746
1686445580754874600,5.49687451171875,0.19175474399924278,0.07137976734191179,-0.026121114206314085
1686445580764891100,5.50689111328125,0.162688223990798,0.07996610164046287,-0.04262801237106323
1686445580774907100,5.5169072265625,0.09967559523880481,0.0750432400192134,-0.011461889734864235
1686445580784924000,5.526923828125,0.010203414106369019,0.07350508893281221,0.024242460852861403
1686445580794941000,5.53694091796875,-0.03409223921597004,0.05653236335460096,0.04990589441955089
1686445580804958200,5.546958251953125,-0.020623101311922073,0.03363338953256607,0.0444593194514513
1686445580814975000,5.55697509765625,0.026765257328748703,0.036732232330739495,0.04781505962014198
1686445580824992000,5.566991943359375,0.09657938278913497,0.012031798577308654,0.04377776692807674
1686445580835009000,5.577009033203125,0.14334581013917921,-0.01689092904627323,0.029997078856825826
1686445580845025000,5.58702490234375,0.16077683741152285,-0.044436249103117734,0.020887889727950096
1686445580855042000,5.5970419921875,0.1337871236771345,-0.06764264490650966,-0.0018739771783351897
1686445580865059000,5.60705908203125,0.08046002263724804,-0.07921820588260889,-0.03689326811134815
1686445580875076000,5.617076171875,0.004704232168197631,-0.06121347037553787,-0.056198272562026974
1686445580885092900,5.6270927734375,-0.06634557256698607,-0.05095686477720737,-0.07246317866444588
1686445580895110100,5.637110107421875,-0.1453852070122957,-0.03441957147419453,-0.0965957494020462
1686445580905127200,5.647127197265625,-0.2106371391236782,-0.03689852880835533,-0.11393500673770904
1686445580915144000,5.65714404296875,-0.279195127043128,-0.04151042478429153,-0.1084685580253601
1686445580925160000,5.667159912109375,-0.3208931650876999,-0.051365445578098294,-0.08883096061944962
1686445580935177000,5.677177001953125,-0.31402211027443405,-0.052282852683961385,-0.05168167192041874
1686445580945194000,5.687194091796875,-0.2639806067764759,-0.04724982695281505,-0.026701544442772864
1686445580955211300,5.697211181640625,-0.20217209311723708,-0.03404430842101574,0.0066273091852664945
1686445580965228000,5.70722802734375,-0.13023673771917818,-0.014035831876099109,0.004707739299535751
1686445580975245000,5.7172451171875,-0.08185410734415054,0.013047387094330043,-0.013458616510033607
1686445580985262000,5.727261962890625,-0.08364391337037086,0.028794717329740524,-0.03669453066885471
1686445580995278000,5.737278076171875,-0.09371756361722945,0.02362783608585596,-0.0442588284432888
1686445581005295000,5.747295166015625,-0.1268681380689144,0.016859364864230154,-0.03908756328523159
1686445581015312000,5.757311767578125,-0.11921440844535827,-0.003942015624046325,-0.030611995884776113
1686445581025329200,5.7673291015625,-0.097079149004817,-0.031615930496621876,-0.04171265109181404
1686445581035346000,5.777345947265625,-0.06270517023801803,-0.06109422791004181,-0.06400865405201911
1686445581045363000,5.787363037109375,-0.024721184280514716,-0.06906155352741479,-0.09345978946387767
1686445581055380200,5.797380126953125,0.015113397979736327,-0.057552317519485946,-0.09617781625092028
1686445581065397000,5.80739697265625,0.0393745635330677,-0.048690088889002794,-0.08841536555588245
1686445581075413000,5.8174130859375,0.05406652123034,-0.05292670354545116,-0.07979308316111564
1686445581085430300,5.82743017578125,0.07664718635082245,-0.0463327121078968,-0.05299216999709606
1686445581095447000,5.837447021484375,0.07319558459222317,-0.03539866390572861,-0.012384849798679352
1686445581105464000,5.847464111328125,0.04342354666292667,-0.020164251628518103,0.010962123519182205
1686445581115481000,5.857481201171875,0.011750643548369407,0.00644378757821396,0.004348842859268188
1686445581125498000,5.867498046875,0.014993570992350578,0.022680326102674005,-0.0010375263541936874
1686445581135515000,5.877514892578125,0.026721418187022207,0.038272739771008486,-0.009994155269861221
1686445581145532200,5.8875322265625,0.04772913490235805,0.041026714654266834,-0.02658054841160774
1686445581155548200,5.897548095703125,0.09122048610448837,0.04116351104276254,-0.023486089527606963
1686445581165565000,5.90756494140625,0.1307721597701311,0.0353898595447652,-0.0065688569962978356
1686445581175582000,5.91758203125,0.13388240074515342,0.021676994279026984,0.02320785710811615
1686445581185599000,5.927598876953125,0.08345511280000209,0.02654343127161264,0.04087912287712097
1686445581195616000,5.937615966796875,0.02821370257139206,-0.0018789456143975256,0.02560848850905895
1686445581205633300,5.94763330078125,-0.0330786782592535,-0.020266561225522308,0.0008358663022518157
1686445581215650000,5.957650146484375,-0.0658259326070547,-0.013282109165657311,-0.011571779850125313
1686445581225666000,5.967666015625,-0.07510112595260143,-0.008304905274976045,-0.02288578554689884
1686445581235683000,5.97768310546875,-0.07667816601097584,0.0021656536012887953,-0.023266309297084807
1686445581245700000,5.9877001953125,-0.08130582581162452,0.0017044658303260803,-0.005768062007427215
1686445581255717000,5.997717041015625,-0.08051438317298888,-0.0015586276188492773,0.017177929294109343
1686445581265734000,6.00773388671875,-0.08690437647104263,-0.002066284880042076,0.030084757140278813
1686445581275751200,6.017751220703125,-0.0953191535949707,-0.018609423401951788,0.022121815437078474
1686445581285768000,6.027767822265625,-0.10746551846265792,-0.011396131022274493,-0.0070353054642677305
1686445581295784000,6.037783935546875,-0.09732114106714725,-0.017333430383075027,-0.03326338717639446
1686445581305801200,6.04780126953125,-0.08914192626476287,-0.03445875270711258,-0.043241175833344456
1686445581315818000,6.05781787109375,-0.05612403828203678,-0.027571623541880398,-0.05361936198472976
1686445581325835000,6.0678349609375,-0.009611877954006195,-0.03146512384908274,-0.04891746790409088
1686445581335852000,6.07785205078125,0.0213145907074213,-0.03884179009692743,-0.054555181530117985
1686445581345869000,6.087869140625,0.025284078860282895,-0.04320904539572075,-0.0488905798971653
1686445581355886000,6.097885986328125,-0.0039437691897153855,-0.04417993625449016,-0.04147299711704254
1686445581365903000,6.107903076171875,-0.04566051193475723,-0.04225508740544319,-0.03839724293351173
1686445581375919000,6.117919189453125,-0.07686462849378585,-0.03958002297729254,-0.05669745425581932
1686445581385936100,6.12793603515625,-0.07800795331001281,-0.040500370958913116,-0.07839256871342659
1686445581395953000,6.137952880859375,-0.04688216268420219,-0.04249854077249765,-0.08958382481336594
1686445581405970200,6.14797021484375,-0.0216021754771471,-0.028068759409058838,-0.07693827825188636
1686445581415987000,6.157987060546875,0.028602409628033638,-0.004371639212965965,-0.08657529064714908
1686445581426004000,6.16800390625,0.05885141741931438,0.005466430446039885,-0.07888122901320457
1686445581436021000,6.17802099609375,0.055552960395812985,0.00978635773807764,-0.0629722967416048
1686445581446038000,6.1880380859375,0.025896657800674436,0.01109217963963747,-0.05071253462731838
1686445581456054000,6.198053955078125,0.00006663549542427062,0.008307791351806372,-0.024880174234509465
1686445581466071000,6.208071044921875,-0.02415419804751873,0.00478780053211376,-0.012093757897615432
1686445581476088000,6.218088134765625,-0.020896657556295394,-0.012136446261871605,-0.011911971589922904
1686445581486105000,6.22810498046875,-0.011902619239687919,-0.020487218238878994,-0.0029711247652769086
1686445581496122000,6.2381220703125,-0.008528174370527266,-0.01975187143534422,0.011149755045771597
1686445581506139100,6.24813916015625,-0.007653729623556137,-0.01869273603754118,0.026640754166245458
1686445581516156000,6.258156005859375,-0.02021276694536209,-0.010040332499146461,0.010674538749456406
1686445581526172200,6.268172119140625,-0.025500351959466934,-0.0018967735320329665,-0.016353168907761572
1686445581536189200,6.278189208984375,-0.020552374163269996,-0.003951386240590364,-0.06034194823801517
1686445581546206000,6.2882060546875,-0.015040332743525503,-0.019136095890868454,-0.05046937352120876
1686445581556223200,6.29822314453125,-0.01350596278309822,-0.009143675920367241,-0.02260346147418022
1686445581566240000,6.308239990234375,0.011214636975526809,-0.008745324252545834,-0.005374094253778458
1686445581576257000,6.318257080078125,0.01623217287659645,-0.014568605312239379,0.011580547678470611
1686445581586274000,6.328274169921875,-0.00467383702993393,-0.01644610788822174,0.02959609684050083
1686445581596290000,6.3382900390625,-0.02983224368393421,-0.012687924398481844,0.03085749507844448
1686445581606307000,6.34830712890625,-0.0753419489711523,-0.014460194768011568,0.027727964881062505
1686445581616323800,6.35832373046875,-0.08878653695583343,-0.025501228742301464,0.013855506873130797
1686445581626341000,6.368341064453125,-0.055692076605558395,-0.022080022121965883,-0.017321721678972245
1686445581636358100,6.378358154296875,-0.034274025523662564,-0.005026303729414939,-0.03258592630624771
1686445581646375000,6.388375,-0.029530045866966247,-0.00024725275933742524,-0.029694296517968177
1686445581656392200,6.39839208984375,-0.008691255977749824,-0.017296294976770876,-0.02963876693844795
1686445581666409000,6.408408935546875,0.004193360036611557,-0.01287292557656765,-0.03169511494636536
1686445581676425000,6.418425048828125,-0.01457213070988655,-0.008007073105871678,-0.02048983032107353
1686445581686442200,6.428442138671875,-0.018926818788051605,-0.004731120175123215,-0.005468202278017998
1686445581696459000,6.438458984375,-0.033146482798457146,-0.01442570797652006,-0.029597265884280202
1686445581706476000,6.44847607421875,-0.0197591779589653,-0.012782324683666229,-0.07691080572307109
1686445581716493000,6.4584931640625,0.00490647674202919,-0.02519318570643663,-0.09819207868278026
1686445581726510000,6.468510009765625,0.013412439280748367,-0.02682897021472454,-0.11193360378742218
1686445581736526800,6.47852685546875,0.021183657804131506,-0.011739263637829572,-0.10655950953364372
1686445581746544000,6.488544189453125,0.020338439151644707,-0.021361370724905283,-0.09485212060511111
1686445581756560100,6.49856005859375,0.007507014629244804,-0.030645916420686987,-0.06883095964193343
1686445581766577200,6.5085771484375,-0.008827449578046799,-0.024620938776433468,-0.046693362113833424
1686445581776594200,6.51859423828125,-0.02684066065251827,-0.02252953772144392,-0.022927286601066587
1686445581786611200,6.528611083984375,-0.059060676255822175,-0.019394436299800873,-0.013776596418023108
1686445581796628200,6.538628173828125,-0.06981997067928314,-0.018094167356193066,-0.0038859015226364135
1686445581806645200,6.548645263671875,-0.06890519392192364,-0.027874972136318683,0.006404021823406219
1686445581816662000,6.558662109375,-0.06514379556179047,-0.027026538613438605,0.008213701593875885
1686445581826678300,6.56867822265625,-0.0573211391121149,-0.01390433271722868,-0.012957096728682517
1686445581836695300,6.5786953125,-0.03273264130055904,-0.00824263542741537,-0.007939560827612876
1686445581846712000,6.588712158203125,-0.014206804528832434,0.005854552980791777,-0.009212064981460572
1686445581856729300,6.598729248046875,-0.008020809370279311,0.005776537574827671,-0.0019499650239944457
1686445581866746000,6.60874609375,-0.03175239809155464,-0.005416179829835891,0.0014256488889455795
1686445581876763100,6.61876318359375,-0.030181203252077102,-0.018309271411597727,-0.0038742110848426817
1686445581886780200,6.6287802734375,-0.019856208592653274,-0.023873043018579482,-0.021341478714346884
1686445581896797200,6.638797119140625,-0.019783727878332137,-0.020368542028963564,-0.025036241579055783
1686445581906813200,6.648813232421875,-0.02448445291519165,-0.010704349365830422,-0.021188333979248998
1686445581916830000,6.658829833984375,-0.009119126001000405,-0.0044116972287185485,-0.016830723291635513
1686445581926847200,6.66884716796875,-0.007122983747720718,-0.015542437046766281,-0.007916179952025412
1686445581936864300,6.6788642578125,-0.005550619864463806,-0.02026245130598545,-0.014748656320571898
1686445581946881000,6.688881103515625,0.005164250895380974,-0.014706863005459307,-0.007754267388582229
1686445581956898300,6.698898193359375,0.0013356325179338453,-0.003473831856716424,-0.00646890375316143
1686445581966915000,6.7089150390625,0.0025087679505348204,-0.004287175799906254,-0.005149637848138809
1686445581976931000,6.71893115234375,0.007983984491229057,-0.0002735745106823742,-0.019619477227330206
1686445581986948400,6.7289482421875,-0.008489595925807952,-0.010476385828852653,-0.04133797256052494
1686445581996965000,6.738965087890625,-0.005361819294095039,-0.007796663491893559,-0.05372632949054241
1686445582006982100,6.748982177734375,0.008949030131101607,-0.004974573542177677,-0.05222703084349632
1686445582016999200,6.758999267578125,0.016609774017333982,-0.016447879720199853,-0.0534130257576704
1686445582027016200,6.76901611328125,0.009524784192442893,-0.008192384811211376,-0.06377542981803416
1686445582037033000,6.779032958984375,0.003606500059366226,-0.019896248342096804,-0.05699906755089759
1686445582047050200,6.78905029296875,-0.022781740650534628,-0.03461306648598984,-0.04071837935745716
1686445582057066200,6.799066162109375,-0.02731470790505409,-0.030043840608000753,-0.033606501525640486
1686445582067083000,6.8090830078125,-0.03917290348112583,-0.03115006655054167,-0.03482406062185764
1686445582077100300,6.819100341796875,-0.03674012337625027,-0.021125790137052534,-0.022623335218429564
1686445582087117300,6.829117431640625,-0.03302081059217453,-0.013912205496430395,-0.02243745725750923
1686445582097134000,6.839134033203125,-0.033711715465784074,-0.020795261274743824,-0.009528291323781014
1686445582107151400,6.8491513671875,-0.029816461592912673,-0.01975479404479265,0.0013549217402935027
1686445582117168000,6.859168212890625,-0.038198505491018296,-0.007739362080395221,-0.007723872250318527
1686445582127184100,6.86918408203125,-0.036332711619138716,-0.0030360066950321195,-0.011813771912455558
1686445582137201200,6.879201171875,-0.03941255745589733,0.000263034850358963,-0.018155834415555
1686445582147218200,6.88921826171875,-0.04283025694489479,-0.008774860874284059,-0.02402209610044956
1686445582157235200,6.899235107421875,-0.04527355844378471,-0.01336392396390438,-0.024651041653752325
1686445582167252000,6.909251953125,-0.03458791377842426,-0.021437358570564537,-0.030344869381189344
1686445582177269200,6.919269287109375,-0.012080898416042327,-0.016660335160791875,-0.031654198414087294
1686445582187286000,6.9292861328125,0.000008767828345298767,-0.023012042275071143,-0.02728898894190788
1686445582197303000,6.939302978515625,0.01216273148059845,-0.016679332122206687,-0.01739069526195526
1686445582207319300,6.9493193359375,-0.004625321713089943,-0.015675434042979032,-0.003991699984669685
1686445582217336000,6.959336181640625,-0.007456161224842071,-0.010814531742036343,-0.009319032487273216
1686445582227353000,6.96935302734375,-0.001187163957953453,-0.013329729433357715,-0.02293839251697063
1686445582237370400,6.979370361328125,-0.01216273148059845,-0.006524433332681655,-0.0289437704116106
1686445582247387100,6.98938720703125,-0.02353460484445095,0.010529869581758975,-0.001952303111553192
1686445582257404200,6.999404052734375,-0.03105389443337917,-0.0020808979272842407,-0.005866261684894561
1686445582267421200,7.009421142578125,-0.014390344402194022,-0.010139116698503493,-0.04049801460504532
1686445582277437200,7.019437255859375,-0.0052162733435630795,-0.0243558580994606,-0.033981764578819275
1686445582287454200,7.0294541015625,0.006178396373987197,-0.01305325057953596,-0.011721417453885078
1686445582297471200,7.03947119140625,0.0053021980613470075,-0.005690338862407952,0.0064472764432430265
1686445582307488300,7.04948828125,-0.0023678981751203538,-0.0160296543081291,-0.002353285127878189
1686445582317505000,7.059505126953125,-0.018858429726958274,-0.0346452151899226,-0.018483166673779486
1686445582327522300,7.069522216796875,-0.03119827134013176,-0.035876200023293496,-0.013289105162024497
1686445582337539000,7.0795390625,-0.03359656465351581,-0.02103402020037174,-0.022869418933987615
1686445582347555000,7.08955517578125,-0.02311024195253849,-0.011614139420818537,-0.03209142078757286
1686445582357572000,7.099572021484375,-0.017778233274817465,-0.012897475495934486,-0.03542553364634514
1686445582367589000,7.109589111328125,-0.01418050104379654,-0.016417174054682255,-0.04629997888207436
1686445582377606100,7.119606201171875,-0.007147533667087555,-0.03367635189145803,-0.0641530309587717
1686445582387623200,7.129623046875,0.0025800796210765837,-0.01897971801906824,-0.06559913811385631
1686445582397640200,7.13964013671875,-0.000533083963394165,-0.00808101512491703,-0.04238192865550518
1686445582407657200,7.1496572265625,0.003392565047740936,0.002432177316676825,-0.04230418724417686
1686445582417674000,7.159674072265625,-0.0007522796720266342,-0.002482482731807977,-0.04616027815043926
1686445582427690200,7.169690185546875,-0.02014554692804813,0.005305686926376074,-0.029805940198898314
1686445582437707300,7.179707275390625,-0.037542087408900256,0.0059440030962228775,-0.026039281141757964
1686445582447724000,7.18972412109375,-0.046285950356721874,-0.0030897827088832855,-0.024734628283977506
1686445582457741300,7.1997412109375,-0.039243630629777905,-0.004182546381652355,-0.026118191596865653
1686445582467758000,7.209758056640625,-0.028764906713366508,-0.020615210266411305,-0.02157645651400089
1686445582477775000,7.219775146484375,-0.018878303471207617,-0.024707758543360978,-0.030302199283242223
1686445582487792000,7.229792236328125,-0.014148352339863775,-0.019412867005635052,-0.0387689988553524
1686445582497809200,7.23980908203125,-0.0014507833302021026,-0.013005338050890713,-0.03189560595452785
1686445582507825200,7.2498251953125,-0.0074848027974367135,-0.02350861188666895,-0.03047404871881008
1686445582517842200,7.25984228515625,-0.003923895445466041,-0.028232425538171083,-0.03158288674354553
1686445582527859200,7.269859130859375,0.0009697218149900435,-0.03364009326798841,-0.028010873475670814
1686445582537876200,7.279876220703125,-0.00795242030918598,-0.030597967359423637,-0.02287935580611229
1686445582547893200,7.289893310546875,-0.013581950628757476,-0.03181612924383953,-0.022238135293126106
1686445582557910300,7.29991015625,-0.018137129715085028,-0.024611604692507533,-0.031305238845944404
1686445582567927000,7.309927001953125,-0.017014847686886787,-0.017472546592820434,-0.02416939561665058
1686445582577943000,7.319943115234375,-0.023997546181082723,-0.00324353023217991,-0.013961305335164069
1686445582587960300,7.329960205078125,-0.022222353202104566,0.005383738864958286,-0.0036988545179367062
1686445582597977000,7.33997705078125,-0.0200771578669548,-0.0004366378515958786,0.011247370201349258
1686445582607994000,7.349994140625,-0.013398995277285575,0.0018403489033691585,0.013801730859279632
1686445582618011100,7.36001123046875,-0.017227029132843016,-0.012334288655221461,0.005512041419744491
1686445582628028200,7.370028076171875,-0.014427753803133964,-0.01210866320580244,-0.015270049846172333
1686445582638045200,7.380045166015625,-0.013614683854579925,-0.014557225401699542,-0.034433015477657314
1686445582648062200,7.390062255859375,-0.008749708166718483,-0.018840894070267677,-0.04191957184076309
1686445582658078200,7.400078125,-0.013245266020298003,-0.022875264152884482,-0.03957973071634769
1686445582668095200,7.41009521484375,-0.009581482815742491,-0.015007599517703056,-0.0353442851036787
1686445582678112300,7.4201123046875,-0.001387070444226265,-0.0173433672551997,-0.03496785300672054
1686445582688129300,7.43012939453125,0.0018605331748723982,-0.01743484493093565,-0.028906945532560346
1686445582698146000,7.44014599609375,0.005609072053432464,-0.019610709398984908,-0.024803017345070837
1686445582708163300,7.450163330078125,-0.008846738800406456,-0.014125848247110842,-0.011335048484802246
1686445582718180000,7.46018017578125,-0.021782208219170568,-0.008743844681512564,-0.014311433947086333
1686445582728196000,7.470196044921875,-0.025953940945863722,-0.0041135910649783905,-0.010203998628258704
1686445582738213000,7.480213134765625,-0.025618425381183623,-0.004637614939082413,-0.029129648372530934
1686445582748230100,7.490230224609375,-0.013856091395020484,-0.00830048482818529,-0.04004091848731041
1686445582758247200,7.5002470703125,-0.023330022183060645,-0.0016773038287647068,-0.03882043678164482
1686445582768264400,7.510264404296875,-0.020309797579050062,-0.004349445647466928,-0.037104280513525004
1686445582778281500,7.520281494140625,-0.004402034351229668,-0.007715122688282281,-0.04165829055607319
1686445582788298500,7.530298583984375,-0.002435702714323997,-0.02192338852183893,-0.03520399985015392
1686445582798315500,7.5403154296875,-0.01433072316944599,-0.01412002129452303,-0.019236615389585494
1686445582808331500,7.55033154296875,-0.027168577432632443,-0.013893500795960426,-0.010133271479606628
1686445582818348300,7.560348388671875,-0.028937340670824048,-0.024068583856988696,-0.010912439158558844
1686445582828365600,7.570365478515625,-0.02463525956273079,-0.016349972303677348,-0.008738602250814437
1686445582838382600,7.580382568359375,-0.01988075851202011,-0.018377094217110423,-0.03613689678609371
1686445582848399400,7.5903994140625,-0.009137830701470374,-0.00994797804057598,-0.03470131102502346
1686445582858416600,7.600416748046875,-0.002456160980463028,-0.005838204634189605,-0.014323124384880065
1686445582868433400,7.610433349609375,0.003236497703194618,-0.0017079912279732525,-0.010866261929273605
1686445582878450400,7.620450439453125,-0.01251169104874134,-0.008691858765948563,-0.0113806411921978
1686445582888466400,7.630466552734375,-0.025910101804137227,-0.020873294947016983,-0.012328151175379753
1686445582898483500,7.6404833984375,-0.024914661026000977,-0.008437573477625847,-0.011408698242902755
1686445582908500500,7.65050048828125,-0.016159692162275315,-0.017006079858541488,-0.010955109256505965
1686445582918517200,7.660517333984375,-0.00479191045165062,-0.021837153276801108,-0.016340893948078153
1686445582928534500,7.670534423828125,-0.01798456950187683,-0.01290682784616947,-0.021889175724983213
1686445582938551600,7.680551513671875,-0.006278349617123604,-0.006124638626445084,-0.02959258970916271
1686445582948568300,7.690568359375,-0.01011748938858509,-0.002037661573756486,-0.03049976768195629
1686445582958584600,7.70058447265625,-0.013960720813274383,-0.002766249842941761,-0.037698154753446574
1686445582968601300,7.710601318359375,-0.015299275940656661,-0.006560399695206433,-0.023767829078435897
1686445582978618400,7.720618408203125,-0.016183073037862778,-0.011271335598826407,-0.018668460112810134
1686445582988635600,7.7306357421875,-0.013488427126407623,-0.011364274579286574,-0.023254034337401388
1686445582998652400,7.74065234375,-0.0025485154390335082,-0.005816285063326358,-0.024237200155854222
1686445583008669400,7.75066943359375,-0.0005599719703197479,-0.016271920365095137,-0.03169102329313755
1686445583018686500,7.7606865234375,-0.009421908339858055,-0.019772329701483248,-0.03315525062680244
1686445583028703500,7.770703369140625,-0.003525836038589477,-0.012748422414064407,-0.02582300804257393
1686445583038719500,7.780719482421875,-0.006856441766023636,-0.00912497121989727,-0.029088147318363188
1686445583048736500,7.790736572265625,-0.007831424278020858,-0.007948328655958176,-0.026838322564959525
1686445583058753500,7.80075341796875,-0.029599019449949263,-0.009638765960931777,-0.026777532288432118
1686445583068770300,7.810770263671875,-0.04394727827608585,-0.006355214245617389,-0.02725800928175449
1686445583078787600,7.82078759765625,-0.039024434921145434,-0.013181260873377322,-0.018882395124435424
1686445583088804600,7.8308046875,-0.03582710018455982,-0.004474515065550804,-0.026220482927560806
1686445583098821400,7.8408212890625,-0.022799860829114914,-0.015054945790767668,-0.028352818781137466
1686445583108837400,7.85083740234375,-0.013816928428411483,-0.008080430603027343,-0.016626140630245208
1686445583118854400,7.8608544921875,0.005191138902306556,-0.012741718678642064,-0.0169184015750885
1686445583128871400,7.870871337890625,0.00002864157259464264,-0.013630776472855358,-0.011367197188735008
1686445583138888400,7.880888427734375,0.014879004701972006,-0.00990941786216572,-0.0029027357041835782
1686445583148905500,7.890905517578125,-0.0061883332461118695,-0.003910469708312303,-0.01139759232699871
1686445583158922500,7.900922607421875,-0.02363923426270485,-0.0031131635844707487,-0.025715456014871595
1686445583168939300,7.910939208984375,-0.028221885877847668,-0.002445347325503826,-0.03130231623649597
1686445583178956500,7.92095654296875,-0.04281272128820419,-0.005824486636091023,-0.03239069599509239
1686445583188972500,7.93097265625,-0.03175473617911339,-0.02164515610234812,-0.035187633237242694
1686445583198989300,7.9409892578125,-0.016648352462053297,-0.027674207133520392,-0.03648351826667785
1686445583209006600,7.951006591796875,-0.002336918514966965,-0.03318389219939708,-0.016517419558763503
1686445583219023400,7.9610234375,-0.002006079125404358,-0.03091914387149736,-0.008669044145941733
1686445583229040400,7.971040283203125,-0.0017827917635440825,-0.017234043395519257,-0.005130933147668838
1686445583239057700,7.9810576171875,0.004355272600054741,-0.0063461724226363,-0.013301964643597602
1686445583249074400,7.991074462890625,-0.012745499804615973,0.004765899227559566,-0.010725976675748825
1686445583259091500,8.001091552734374,-0.016144494593143464,0.016139526157081127,-0.033926234999299046
1686445583269107500,8.011107421875,-0.0014776713371276854,0.02655015327334404,-0.03954056774973869
1686445583279124500,8.02112451171875,-0.00002221183180809021,0.015583061318099499,-0.023486089527606963
1686445583289141500,8.0311416015625,-0.011069675546884535,0.004686111989617347,-0.016962240716814993
1686445583299158500,8.041158447265625,-0.020571663385629654,0.0008565985630266368,-0.01290858141183853
1686445583309175600,8.051175537109375,-0.020997195321321487,-0.003084832539130002,-0.010439560949802399
1686445583319192300,8.0611923828125,-0.03292144187092781,-0.01753799477815628,0.0010287585258483885
1686445583329209600,8.071209716796876,-0.03579904313385487,-0.020618132875859736,-0.004316694155335426
1686445583339225600,8.0812255859375,-0.04357727591991424,-0.030201953779160975,-0.00021335048973560332
1686445583349242400,8.091242431640625,-0.04301379681825637,-0.04489771086871624,-0.004368132081627845
1686445583359259400,8.10125927734375,-0.01677636275589466,-0.03629296413064003,-0.017646131327748296
1686445583369276400,8.1112763671875,-0.00010053776502609253,-0.02208674412369728,-0.034357612153887745
1686445583379293400,8.12129345703125,-0.002467266896367073,-0.019842764589190483,-0.030798458367586132
1686445583389310500,8.131310546875,0.0038180969834327697,-0.01175942964302376,-0.02077566152513027
1686445583399327500,8.141327392578125,-0.004537643429636955,-0.016327468210924415,-0.024306758260726927
1686445583409344500,8.151344482421875,0.009134323570132255,-0.02135636575622484,-0.024577391895651817
1686445583419360500,8.161360595703124,0.014286884027719497,-0.025250468851625917,-0.02324175937771797
1686445583429377500,8.17137744140625,0.014927520018815994,-0.011928630463778973,-0.045912440869212146
1686445583439394600,8.18139453125,0.008047697377204895,-0.002950374238193035,-0.046159109106659886
1686445583449411300,8.191411376953125,-0.004624152669310569,0.006284779357910156,-0.047967035311460494
1686445583459428600,8.2014287109375,-0.027630934247374533,0.00861934151900932,-0.061952306044101714
1686445583469445400,8.2114453125,-0.03024433161616325,0.007026811630558222,-0.05121054727733135
1686445583479462400,8.22146240234375,-0.030616672059893605,0.004509275851678103,-0.043562662872672075
1686445583489479400,8.2314794921875,-0.03776595929265022,0.011625245336722581,-0.02945756515264511
1686445583499495400,8.241495361328125,-0.02991641483604908,0.004566851257812232,-0.024212065714597702
1686445583509512400,8.251512451171875,-0.020246669214963913,-0.00967327101873234,-0.01810615005493164
1686445583519529200,8.261529296875,-0.0299590849339962,-0.014951503682602197,-0.0056219315350055695
1686445583529546500,8.27154638671875,-0.024971359649300574,-0.019796002838015556,-0.02194821243584156
1686445583539563500,8.2815634765625,-0.013714052575826644,-0.020142916579544545,-0.02601414670050144
1686445583549580500,8.29158056640625,-0.0005190554380416869,-0.01606529187709093,-0.026088965502381323
1686445583559597600,8.30159765625,0.0186176067084074,-0.019564258175063878,-0.02873860322833061
1686445583569613600,8.311613525390625,0.025239070674777028,-0.012373451621830463,-0.024714170017838478
1686445583579630300,8.32163037109375,0.01116319904923439,-0.015128887809813021,-0.031792730101943015
1686445583589647600,8.331647705078124,0.004421908095479011,-0.01485593435363844,-0.022668927925825116
1686445583599664400,8.341664306640626,-0.020029227072000503,-0.013533727572858333,-0.02465162617564201
1686445583609681400,8.351681396484375,-0.028490181425213812,-0.0065586461295373735,-0.012084405547380446
1686445583619698400,8.361698486328125,-0.03634849371016025,-0.006150028796028346,0.0017833762854337692
1686445583629715500,8.371715576171875,-0.03679214582443237,-0.005523731857538223,0.0006879822641611098
1686445583639732500,8.381732421875,-0.0352571913421154,-0.010875906540453433,0.006499298891425132
1686445583649748500,8.39174853515625,-0.027785832548141477,-0.004844517421722412,-0.0035801965743303297
1686445583659765500,8.401765625,-0.016511574339866636,0.0016761165186762808,-0.012276713249087332
1686445583669782500,8.411782470703125,-0.019503157371282578,-0.01006429789662361,-0.018466800060868264
1686445583679799600,8.421799560546875,-0.022104279780387877,-0.02155745955258608,-0.02634089443683624
1686445583689816600,8.431816650390624,-0.008590133690834044,-0.015032733958959578,-0.03763911804258823
1686445583699833300,8.441833251953126,0.0024181670576334,-0.01585749434530735,-0.04317161772847175
1686445583709850600,8.4518505859375,0.003149403941631317,-0.0032651392757892606,-0.03734802614152431
1686445583719867400,8.461867431640625,0.010210428369045257,-0.0044482115805149075,-0.03169219233691692
1686445583729883400,8.47188330078125,0.006889759513735771,-0.0031268998488783836,-0.028518238475918768
1686445583739900400,8.481900390625,-0.0047153380841016765,0.004692833991348743,-0.030066052439808845
1686445583749917400,8.49191748046875,-0.010036240845918655,-0.004114449581503868,-0.018092706051468847
1686445583759934500,8.5019345703125,-0.02965980972647667,0.0007832410658709704,-0.025092940202355384
1686445583769951200,8.511951171875,-0.027620412853360175,0.0071627312362194055,-0.03385667689442634
1686445583779968300,8.52196826171875,-0.016160276684165,-0.0022138949234969912,-0.040434301719069476
1686445583789985300,8.5319853515625,-0.011742460241913794,-0.009234587340522557,-0.041188919478654856
1686445583800001300,8.542001220703124,0.002453238371014595,-0.006972195366490632,-0.03617372166514397
1686445583810018300,8.552018310546876,0.015008184039592741,-0.003040098348259926,-0.031608021184802056
1686445583820035300,8.562035400390625,0.01696107167303562,-0.013608856901992112,-0.02482522917687893
1686445583830052400,8.57205224609375,0.007950082221627235,-0.02743919280124828,-0.028937925192713737
1686445583840069400,8.5820693359375,0.002685293561220169,-0.01888385642915964,-0.025120412731170653
1686445583850086100,8.592086181640624,-0.020572832429409025,-0.02265022322535515,-0.020876199290156362
1686445583860103400,8.602103515625,-0.02276595855951309,-0.020673077933490276,-0.027828502646088597
1686445583870120200,8.6121201171875,-0.02755143927037716,-0.02000586446272209,-0.0345078342795372
1686445583880136200,8.62213623046875,-0.03694178342819213,-0.01686433330029249,-0.01672492482960224
1686445583890153500,8.632153564453125,-0.054359951218962664,-0.012792279822099952,-0.020458266139030457
1686445583900170200,8.642170166015624,-0.04752338319718837,0.0019064181432127951,-0.02208791316747665
1686445583910187300,8.652187255859374,-0.029843934121727943,0.0002551255385391414,0.005600888746976852
1686445583920204300,8.662204345703126,-0.02289747598469257,-0.003854647867847234,0.005032733470201492
1686445583930221300,8.67222119140625,-0.013851999741792678,-0.011215221497416496,-0.00620703794658184
1686445583940238300,8.68223828125,-0.00858428847193718,-0.012699322575330733,-0.009238368466496467
1686445583950255400,8.69225537109375,-0.011222235760092734,-0.007971143275965004,-0.02048106249272823
1686445583960271400,8.702271240234374,-0.01433247673511505,-0.007948328655958176,-0.015334347254037857
1686445583970288400,8.712288330078126,0.002052256354689598,-0.006662965020537376,-0.017336334726214406
1686445583980305200,8.72230517578125,0.008940846824645996,0.004357318426668644,-0.029713585740327834
1686445583990322400,8.732322509765625,0.02909457705914974,0.009063578155171125,-0.02955167317688465
1686445584000339200,8.742339111328125,0.016087795969843863,-0.0036594175566919147,-0.030449498799443243
1686445584010356200,8.752356201171875,0.019678513938188553,-0.006337970849871635,-0.031954058143496514
1686445584020373200,8.762373291015624,0.0018219547301530836,-0.002639974848460406,-0.03967033160924911
1686445584030390300,8.772390380859376,-0.012165069568157195,-0.01228635786026716,-0.027208324921131132
1686445584040406300,8.78240625,-0.0003121346890926361,-0.014404683454800397,-0.030287586236000058
1686445584050423300,8.79242333984375,0.0020756372302770613,-0.019090192656219005,-0.04900222357809543
1686445584060440300,8.8024404296875,-0.012274959683418274,-0.009589081600308417,-0.031333880418539045
1686445584070457300,8.812457275390624,-0.016571195572614668,-0.007011924588680267,-0.03250292419791222
1686445584080474400,8.822474365234376,-0.009151274704933167,-0.003462415413558483,-0.021378303593397138
1686445584090491400,8.832491455078125,-0.015789105284214018,-0.004474807326495647,-0.016726093873381614
1686445584100508200,8.842508056640625,-0.022886370068788527,-0.006889467252790928,-0.0026595745980739593
1686445584110524200,8.852524169921875,-0.015324410381913183,-0.012364391532540321,-0.009548749589920044
1686445584120541400,8.86254150390625,-0.02559504450559616,-0.017566928611695766,-0.016104747104644775
1686445584130558200,8.87255810546875,-0.028064064967632293,-0.01054185228049755,-0.040250177323818206
1686445584140575500,8.882575439453126,-0.03295768222808838,-0.018257248963415622,-0.03967383874058723
1686445584150592300,8.89259228515625,-0.02478898881971836,-0.010920622465014457,-0.040019291177392
1686445584160609300,8.902609375,-0.021512159106135367,-0.01760813740491867,-0.03434533719420433
1686445584170626300,8.912626220703125,-0.013913959062099456,-0.022695231410861015,-0.027281390157341955
1686445584180643300,8.922643310546874,-0.028027240088582036,-0.030409751310944557,-0.017986907589435577
1686445584190659300,8.932659423828126,-0.02920388265252113,-0.024600480510294436,-0.01104337206184864
1686445584200676000,8.942676025390625,-0.03410568321943283,-0.022881693893671035,-0.0055921209186315535
1686445584210693400,8.952693359375,-0.01984802528619766,-0.011003332312405108,-0.0032288989186286922
1686445584220710400,8.96271044921875,-0.009560440027713776,-0.011155600264668464,-0.004409048613905907
1686445584230727200,8.97272705078125,-0.005869184294342994,-0.0006499883413314818,-0.0037526305317878723
1686445584240744400,8.982744384765626,0.00823649794757366,0.011773439902067183,-0.022679449319839475
1686445584250761200,8.99276123046875,0.0017097265273332595,0.02894552397727966,-0.023836802661418913
1686445584260778200,9.0027783203125,-0.004968436062335968,0.022151918314397334,-0.0350175373673439
1686445584270794500,9.01279443359375,-0.01498480316400528,0.024530337883532045,-0.023131284740567207
1686445584280811300,9.022811279296874,-0.0058294368058443066,0.024968126512598245,-0.01194353577196598
1686445584290828300,9.032828369140624,-0.008432897302508353,0.014323398379515856,-0.016076105532050133
1686445584300845300,9.04284521484375,-0.012977554994821547,0.005644435627758503,-0.005641805279254913
1686445584310862300,9.0528623046875,-0.008181552889943123,-0.001488192731142044,0.00044774376749992365
1686445584320879000,9.062879150390625,-0.02399462357163429,-0.017673603856563566,0.010803133565187454
1686445584330896400,9.072896484375,-0.02704290522634983,-0.024959669211506844,0.0018336451679468154
1686445584340912400,9.082912353515624,-0.021306991922855376,-0.03521744385361671,-0.01664484533071518
1686445584350929200,9.09292919921875,-0.02110591639280319,-0.039893034449219704,-0.0332312384724617
1686445584360946200,9.1029462890625,-0.018166355809569358,-0.03153875534087419,-0.037215339672565455
1686445584370963500,9.11296337890625,-0.005569909086823463,-0.023527024326194076,-0.044993572458624835
1686445584380980200,9.122980224609375,-0.002023614782094955,-0.024570962154865265,-0.029078210446238515
1686445584390997500,9.13299755859375,0.001644260075688362,-0.0233189162671566,-0.01687748504281044
1686445584401014300,9.14301416015625,0.008905190989375113,-0.019029712906945495,-0.032954175096750256
1686445584411031300,9.15303125,0.006366027900576591,-0.017716876742709428,-0.025387539234757422
1686445584421047300,9.16304736328125,0.0069242463052272794,-0.006702127987146377,-0.03750175539851188
1686445584431064300,9.173064208984375,-0.0013479074776172636,0.007823222705256193,-0.040135026511549945
1686445584441081300,9.183081298828125,-0.0010088847815990446,0.013346680568158626,-0.039969022294878954
1686445584451098000,9.19309814453125,-0.028248189362883567,0.014074702581763267,-0.03498772675096989
1686445584461115400,9.203115478515626,-0.03709726625084877,0.012750760501623153,-0.04303717769384384
1686445584471132200,9.213132080078125,-0.035976153266429896,0.0010088847815990446,-0.039806525209546084
1686445584481149200,9.223149169921875,-0.021070845079421995,0.007460252878069877,-0.023643325915932652
1686445584491165400,9.23316552734375,-0.00632686493396759,-0.002011339822411537,-0.02804360670149326
1686445584501182200,9.24318212890625,0.010621931779384612,-0.01459784967303276,-0.025077742633223533
1686445584511199200,9.25319921875,0.01281622695326805,-0.01836363194733858,-0.033739772516489026
1686445584521216500,9.263216552734375,0.007519289588928222,-0.017009020734298972,-0.033872458985447884
1686445584531233300,9.2732333984375,0.0008422960430383682,-0.023028134893346576,-0.029889526829123495
1686445584541250300,9.283250244140625,-0.010815993046760558,-0.017634440889954566,-0.034469255834817886
1686445584551267300,9.293267333984375,-0.014611878198385237,-0.029581776054203507,-0.036298809349536894
1686445584561284400,9.303284423828124,-0.024261165553331375,-0.013146189559996127,-0.026719664621353147
1686445584571300400,9.31330029296875,-0.018774258574843404,-0.005936988833546638,-0.01578033745586872
1686445584581317000,9.323317138671875,-0.01931260323524475,-0.01341010119318962,-0.007763619738817214
1686445584591334400,9.33333447265625,-0.030945757883787152,-0.004939794489741325,0.0017301847934722899
1686445584601351200,9.34335107421875,-0.0434399132758379,-0.0010331607063300908,-0.003219546568393707
1686445584611368200,9.3533681640625,-0.04048164799213409,-0.006997329807747155,0.0013806407034397125
1686445584621385200,9.36338525390625,-0.025413842719793318,-0.010569050814677029,0.008870704197883605
1686445584631402200,9.37340234375,-0.024822891089320183,-0.019205361734796315,0.0018207856863737106
1686445584641419500,9.38341943359375,-0.013522329396009444,-0.016650690549612043,0.0018114333361387252
1686445584651435300,9.393435302734375,0.0012485387563705443,-0.02306932542026043,-0.01164250699877739
1686445584661452300,9.403452392578124,0.0005874444991350174,-0.011707699455786496,-0.022722119417786596
1686445584671469300,9.41346923828125,-0.001419219148159027,-0.0065413844674825665,-0.03329670492410659
1686445584681486300,9.423486328125,-0.0008919804036617279,-0.0006374211207032203,-0.025624855121970175
1686445584691503400,9.43350341796875,-0.005058452433347702,0.00023059388548135756,-0.037038229539990426
1686445584701520100,9.44352001953125,0.014991232904791832,-0.0014584003810770808,-0.03150923698544502
1686445584711537400,9.453537353515625,0.01702127742767334,0.00871843624562025,-0.03175473617911339
1686445584721554200,9.46355419921875,0.0027957681983709335,0.003032189036440104,-0.023435820645093915
1686445584731570200,9.473570068359376,0.005882628297805786,0.012218553321063518,-0.023273908081650734
1686445584741587500,9.48358740234375,-0.0020230302602052687,0.008752612509857862,-0.018718144473433493
1686445584751604200,9.493604248046875,-0.014050737184286117,0.01246112990528345,-0.022303601744771
1686445584761621200,9.503621337890625,-0.01376782858967781,0.01260404550731182,-0.019727613776922226
1686445584771639000,9.51363916015625,0.00022445640563964844,0.0030322073027491568,-0.020535423028469085
1686445584781656000,9.523656005859374,-0.00514262358546257,0.0038189737662672994,-0.021431495085358618
1686445584791672800,9.5336728515625,0.0007306523621082306,-0.006442892529070377,-0.025659341913461683
1686445584801690000,9.543690185546875,0.0017459668844938276,-0.02258212642520666,-0.033875381594896316
1686445584811706000,9.5537060546875,0.0021077859342098237,-0.025307167474925518,-0.04481704684793949
1686445584821723000,9.563722900390625,-0.01677811632156372,-0.031628771711885925,-0.040106384938955304
1686445584831740200,9.573740234375,-0.026452538117766378,-0.027317922775447367,-0.025958617120981214
1686445584841757200,9.583757080078126,-0.03442717025876045,-0.020199907463788986,-0.020702011767029762
1686445584851774000,9.59377392578125,-0.021899112597107886,-0.016070863101352004,-0.012152794608473776
1686445584861791200,9.603791259765625,-0.01927519383430481,-0.013662614649534225,-0.0029179332733154295
1686445584871808000,9.61380810546875,-0.021724340552091596,-0.0042819151028990745,-0.0038514147311449047
1686445584881825000,9.623824951171875,-0.03122223673760891,0.005251052395999431,0.00008592471778392792
1686445584891841000,9.633841064453126,-0.03488894255161285,0.003288520151376724,0.00013210194706916807
1686445584901858000,9.643858154296876,-0.024603695380687712,-0.00003068739920854568,-0.02065758810341358
1686445584911875000,9.653875,-0.015236732098460196,-0.001827525954414159,-0.03253273481428623
1686445584921891800,9.663891845703125,0.00578267505466938,-0.00537877042889595,-0.03888531871140003
1686445584931909000,9.6739091796875,0.006825462105870247,-0.006202654032409191,-0.035900165420770645
1686445584941926000,9.68392578125,0.007658405798673629,-0.013356325179338454,-0.035302784049510955
1686445584951943200,9.693943115234376,-0.0017488894939422606,-0.006658581106364726,-0.02436813305914402
1686445584961959200,9.703959228515625,-0.010844050097465514,0.0005006429985165596,-0.021502806755900383
1686445584971976000,9.713975830078125,-0.013143559211492538,-0.004620353277027606,-0.026926000848412512
1686445584981993000,9.723992919921875,-0.009060673812031746,-0.005710504867602139,-0.007240472647547722
1686445584992010200,9.73401025390625,-0.004708908343315124,0.0010027473017573357,-0.009778466692566871
1686445585002027000,9.744027099609376,-0.0006558335602283477,-0.004065075748134404,-0.013220131579041481
1686445585012044000,9.7540439453125,-0.0035340193450450895,-0.003986147026717663,-0.014741057536005972
1686445585022061000,9.76406103515625,-0.009050736939907074,-0.009097790952026844,-0.017125322324037552
1686445585032078000,9.774078125,-0.00423895274400711,-0.009556640635430812,-0.035817163312435146
1686445585042094000,9.784093994140624,0.0010626607954502105,-0.009526830019056796,-0.031741876697540285
1686445585052111000,9.794111083984374,-0.0016144494593143461,-0.004016834425926208,-0.022958850783109663
1686445585062128000,9.804128173828126,-0.008364508241415023,0.0025000001221895216,-0.02471709262728691
1686445585072145000,9.814144775390625,-0.008522329151630401,-0.006890344035625457,-0.029612463453412053
1686445585082162200,9.824162109375,-0.005106967750191688,-0.012483652264345436,-0.018156418937444685
1686445585092179000,9.834178955078125,-0.021343232280015945,-0.011795359472930431,-0.013765490502119063
1686445585102196000,9.844196044921874,-0.025369419056177137,-0.007519581849873065,-0.007024784070253372
1686445585112213200,9.854213134765626,-0.02723053675293922,-0.011793313646316528,-0.015603227323293684
1686445585122229000,9.86422900390625,-0.023745617246627805,-0.013383505447208881,-0.0345294615894556
1686445585132246000,9.87424609375,-0.018113748839497564,-0.02289718372374773,-0.023141221612691876
1686445585142263000,9.884262939453125,-0.008306640574336051,-0.009705109195411205,-0.01690320400595665
1686445585152280000,9.894280029296874,-0.01279576868712902,-0.0076213069249875835,-0.014764438411593436
1686445585162297000,9.904297119140624,-0.00460018727183342,-0.001056541581917554,-0.024220833542943
1686445585172313900,9.91431396484375,-0.0013157587736845017,-0.0043748540833592415,-0.031159108373522756
1686445585182331100,9.9243310546875,-0.02154898398518562,-0.007873802115023136,-0.03242576730847359
1686445585192348000,9.934347900390625,-0.01941197195649147,0.004862345339357852,-0.022419337078928948
1686445585202364000,9.944364013671875,-0.017011925077438355,0.01439998901337385,-0.01901975776851177
1686445585212381200,9.954381103515624,-0.010845219141244887,0.007972586314380168,-0.010469371566176415
1686445585222398000,9.96439794921875,-0.021355507239699364,-0.0035495274414308366,-0.006602759265899658
1686445585232415000,9.9744150390625,-0.013970073163509369,-0.006783979318011552,-0.0106049806445837
1686445585242432000,9.984431884765625,-0.011523264533281325,-0.016112053628265857,-0.01386018304824829
1686445585252449000,9.994448974609375,-0.008171031495928764,-0.015345471436250953,-0.021752397602796552
1686445585262466000,10.004466064453124,0.009821136790513992,-0.009736088855564594,-0.036191841843724246
1686445585272483000,10.014483154296874,0.003153495594859123,0.0007081482693552971,-0.029206805261969563
1686445585282499000,10.0244990234375,0.008862520891427993,-0.005426408962905406,-0.03690905020236969
1686445585292516000,10.03451611328125,0.0019061258822679519,-0.008959843786060809,-0.030963293540477752
1686445585302533000,10.044533203125,-0.007739069819450378,-0.01915626189606264,-0.012938976550102232
1686445585312550100,10.054550048828125,-0.004474515065550804,-0.02391892798691988,-0.022872926065325736
1686445585322567000,10.06456689453125,-0.00840951642692089,-0.02989860518472269,-0.024392682978510855
1686445585332584200,10.074584228515626,-0.021485855621099472,-0.03288960369424894,-0.010607903254032134
1686445585342601000,10.08460107421875,-0.020527824243903158,-0.025069577593076972,-0.00971358476281166
1686445585352617000,10.094616943359375,-0.01309504389464855,-0.006694255207944661,-0.011684008052945137
1686445585362634000,10.104634033203125,-0.01042377885878086,0.013012041786313057,-0.016180150428414343
1686445585372651000,10.114651123046874,-0.014521277305483818,0.025847557961940763,-0.02034954506754875
1686445585382668000,10.12466796875,-0.00940203459560871,0.024497586391400546,-0.030838790377974507
1686445585392685000,10.13468505859375,-0.015050269615650176,0.008730400678049772,-0.027805706292390823
1686445585402702000,10.1447021484375,-0.036347909188270563,0.017042612476646898,-0.0024865561187267303
1686445585412719000,10.154718994140625,-0.029828736552596092,0.015441314759850501,-0.00003331774771213531
1686445585422736000,10.16473583984375,-0.019499650239944457,0.011343524052202701,-0.02636544435620308
1686445585432752000,10.174752197265626,-0.015395722052454947,0.0016004026676528155,-0.02547872464954853
1686445585442769200,10.18476904296875,-0.014015081349015236,-0.00039603184657171364,-0.01732055263519287
1686445585452786000,10.194785888671875,-0.01775368335545063,-0.0018599486529827117,-0.013725158491730689
1686445585462803200,10.20480322265625,-0.004378068953752518,-0.010656126309931277,-0.014227847316861152
1686445585472820000,10.214820068359375,0.00991699838042259,-0.022038795062433926,-0.018709376645088194
1686445585482837000,10.2248369140625,-0.002730301746726036,-0.03248421949744224,-0.033220132556557654
1686445585492854000,10.23485400390625,-0.007819733840227126,-0.02223579720556736,-0.035114568001031875
1686445585502871000,10.24487109375,-0.01061900916993618,-0.023116982220578938,-0.028006197300553322
1686445585512887000,10.254886962890625,-0.03299333806335926,-0.03600099544674158,-0.020184125372767446
1686445585522904000,10.264904052734375,-0.03637187458574772,-0.035903983079362656,-0.02474105802476406
1686445585532921000,10.274921142578124,-0.004667407289147376,-0.021582612260151655,-0.010647650742530821
1686445585542938000,10.284938232421876,-0.005429039311408996,-0.01144639990478754,-0.01570318056643009
1686445585552955100,10.294955078125,0.008415946167707442,0.0014499065473675726,-0.016855857732892037
1686445585562972200,10.30497216796875,0.023875381106138228,0.0067053245912306,-0.02974456540048122
1686445585572989000,10.314989013671875,0.011952888122200965,0.007777922258805483,-0.030307459980249404
1686445585583006200,10.325006103515625,0.006937690308690071,0.014493201988469808,-0.02706336349248886
1686445585593022200,10.335022216796874,-0.004914660048484802,0.016458949103485793,-0.033219548034667964
1686445585603039000,10.3450390625,-0.01168166996538639,0.013702051610779016,-0.046208793467283245
1686445585613056000,10.355055908203125,0.0054430678367614746,0.0015595044016838073,-0.04182137216329574
1686445585623073000,10.365072998046875,-0.0012859481573104857,-0.001300579470861703,-0.03871872997283935
1686445585633090000,10.375090087890625,0.0019499650239944457,0.002109539499878883,-0.03750058635473251
1686445585643106800,10.38510693359375,0.0034907647252082822,-0.0027452253212220967,-0.030080665487051007
1686445585653124000,10.3951240234375,-0.012640285864472389,-0.016514515215624123,-0.027656068688631057
1686445585663141000,10.40514111328125,-0.027350363740324974,-0.013155560176540165,-0.035757542079687114
1686445585673156900,10.415156982421875,-0.02681494168937206,-0.007927888656128198,-0.03124970926642418
1686445585683174100,10.425174072265625,-0.022145196312665937,-0.011934475682675838,-0.018251111483573914
1686445585693191200,10.435191162109374,-0.012848960179090499,-0.016123744066059587,-0.0017208324432373045
1686445585703208000,10.4452080078125,-0.005162497329711913,-0.009020341801643371,-0.006175473764538765
1686445585713225200,10.45522509765625,-0.009738719204068184,-0.009579144728183745,-0.0054822308033704754
1686445585723242000,10.465241943359375,-0.006228080734610557,-0.011519172880053519,-0.0027928455889225006
1686445585733259000,10.475259033203125,-0.00829495013654232,-0.009195424373913555,-0.0005313303977251052
1686445585743275000,10.48527490234375,-0.006588146218657494,-0.010021353804040699,0.004845101943612098
1686445585753292000,10.4952919921875,-0.016243278792500496,-0.017640596636105326,-0.006529109507799148
1686445585763309000,10.50530908203125,-0.025531916141510007,-0.009304419440031051,-0.01895487583875656
1686445585773325600,10.51532568359375,-0.024855039793252945,-0.01699380489885807,-0.022442717954516408
1686445585783342600,10.525342529296875,-0.020045593684911725,-0.011748305460810661,-0.017689385947585106
1686445585793359600,10.535359619140625,-0.031441432446241376,0.0006555412992835045,-0.014262918630242347
1686445585803376600,10.545376708984374,-0.024752748462557792,-0.007730612518358975,-0.013498948520421982
1686445585813393700,10.5553935546875,-0.018978256714344024,-0.017189619731903076,-0.01613280415534973
1686445585823409700,10.56540966796875,-0.007902735948562622,-0.00911883374005556,-0.018978256714344024
1686445585833426400,10.575426513671875,0.021367197677493094,0.0013221702481620013,-0.020463526836037634
1686445585843443700,10.585443603515625,0.017494155636429785,-0.0051727447290904815,-0.02598725869357586
1686445585853460500,10.59546044921875,0.014196867656707763,0.005106967750191688,-0.026733693146705626
1686445585863477500,10.6054775390625,0.022499416577816008,-0.0013107903376221655,-0.035956279522180556
1686445585873494500,10.61549462890625,0.013566753059625625,-0.004736399138439446,-0.0349216757774353
1686445585883511600,10.625511474609375,0.006855857244133949,0.0026285766716115174,-0.027267946153879164
1686445585893528600,10.635528564453125,0.012905074280500412,0.003331482510268688,-0.026667057651281356
1686445585903544600,10.645544677734375,-0.004617722928524017,0.0064484272207133465,-0.03275076147913933
1686445585913561600,10.6555615234375,-0.025707272708415982,0.009734627550840378,-0.0271487036883831
1686445585923578600,10.66557861328125,-0.03928045550882816,0.0030055932904593644,-0.027518121522665022
1686445585933595600,10.675595703125,-0.024389760369062423,-0.0032929040655493734,-0.02022621094882488
1686445585943612700,10.68561279296875,-0.01981412301659584,-0.010178279665112495,-0.018216040170192717
1686445585953629400,10.69562939453125,-0.011365443623065947,-0.009131693221628665,-0.00749240158200264
1686445585963646700,10.705646728515624,-0.009556932896375655,-0.01033230118304491,-0.000991933646798134
1686445585973663500,10.71566357421875,-0.007427519652247428,-0.014670056392718105,-0.002258592581748962
1686445585983679500,10.725679443359375,-0.011992051088809966,-0.019696067861188202,-0.00644669192135334
1686445585993696800,10.73569677734375,-0.013232991060614586,-0.00987783541381359,-0.014005144476890562
1686445586003713500,10.745713623046875,-0.01277531042098999,-0.0031137298400513826,-0.012702829706668852
1686445586013730600,10.75573046875,-0.007883446726202965,-0.003664057199191302,-0.011737199544906615
1686445586023747600,10.76574755859375,-0.015453005197644233,-0.006465104360878467,-0.02805763522684574
1686445586033764600,10.7757646484375,-0.009285714739561081,-0.0013066986843943596,-0.035565818899869914
1686445586043781600,10.78578173828125,-0.013059972581267357,-0.005550053608883172,-0.028304303464293478
1686445586053798700,10.795798583984375,-0.015173603734374045,0.0019654548540711404,-0.021280103915929792
1686445586063814700,10.805814697265625,-0.009476268875598907,-0.0019426585003733633,-0.02266191366314888
1686445586073831700,10.815831787109374,-0.009559270983934403,-0.007032675115764141,-0.016624387064576147
1686445586083848400,10.825848388671876,-0.013691256222128868,-0.006291209098696709,-0.019417232653498647
1686445586093865700,10.83586572265625,-0.010892565414309502,0.001061199490725994,-0.018487842848896978
1686445586103882500,10.845882568359375,-0.006743629041314125,0.005425806174706668,-0.020752865171432495
1686445586113899500,10.8558994140625,-0.00034662148058414456,0.005418517917394638,-0.025111644902825355
1686445586123916500,10.86591650390625,-0.009012743017077446,0.00377044018311426,-0.019071780216693878
1686445586133933600,10.87593359375,-0.015388123267889022,0.0031753968994133173,-0.005315057542920112
1686445586143949600,10.885949462890625,-0.005102876096963882,0.00348258141875267,0.0031347908943891523
1686445586153966600,10.895966552734375,0.007604629784822464,0.001437339326739311,-0.011895020455121993
1686445586163983600,10.905983642578125,0.014788988330960273,0.0026642325068823992,-0.03434709075987339
1686445586174000400,10.91600048828125,0.03492342934310436,-0.007264127517770976,-0.0539969631254673
1686445586184017700,10.926017578125,0.031794483667612075,-0.00941080242395401,-0.054933367192745206
1686445586194034700,10.93603466796875,0.01658814670741558,-0.018288246889878065,-0.040219782185554505
1686445586204051500,10.946051513671875,0.007403554254770278,-0.02186201372342184,-0.03575520399212837
1686445586214068700,10.95606884765625,-0.023082184901833534,-0.02267007870329544,-0.020545359900593755
1686445586224084700,10.966084716796875,-0.039192777225375175,-0.019998247411847112,-0.022490064227581024
1686445586234101500,10.9761015625,-0.03544774547815323,-0.021604221303761006,-0.02750292395353317
1686445586244118800,10.986118896484374,-0.04499649506807327,-0.00877513486891985,-0.015140870508551597
1686445586254135600,10.996135498046876,-0.046239773127436636,-0.005286415970325469,-0.008770166432857513
1686445586264152600,11.006152587890625,-0.03896247560083866,-0.003412749319244176,-0.0007189619243144989
1686445586274169600,11.016169677734375,-0.02106324629485607,-0.007592647086083888,0.007824994537234306
1686445586284186600,11.0261865234375,-0.010433131209015846,-0.001353734430205077,-0.007884615769982338
1686445586294203400,11.036203369140624,-0.005451835665106773,-0.012957078462373465,-0.013942016112804411
1686445586304219400,11.046219482421876,0.0023509470403194426,-0.006544891598820686,-0.024001053312420844
1686445586314236700,11.056236572265625,-0.0027571897536516187,-0.0026885266979224977,-0.03483633558154106
1686445586324253400,11.06625341796875,0.0069669164031744,0.0009895772929303347,-0.033683658415079115
1686445586334270500,11.0762705078125,-0.003469721937179565,0.003257248230278492,-0.02502338209748268
1686445586344287700,11.086287841796874,-0.018255787658691406,0.0028977672681212425,-0.020706687942147254
1686445586354304500,11.096304443359376,-0.023134791871905324,-0.004464596459735184,-0.02140928325355053
1686445586364321500,11.106321533203126,-0.026282442247867584,-0.00442892235815525,-0.013573767322301864
1686445586374338600,11.116338623046875,-0.022317045748233795,-0.0014130816683173178,-0.018151742762327193
1686445586384354600,11.1263544921875,-0.011294131952524185,0.0007265607088804244,-0.01997135940492153
1686445586394371600,11.13637158203125,0,-0.0005693243205547332,-0.024406126981973645
1686445586404388600,11.146388671875,0.010192308190464973,0.007102817742526531,-0.021594576692581177
1686445586414405600,11.156405517578126,0.010727145719528198,-0.0035518472626805304,-0.023325346007943153
1686445586424422400,11.16642236328125,-0.0009176993668079376,-0.020056699600815773,-0.03607318390011787
1686445586434439700,11.176439697265625,0.007225859600305556,-0.018780396054685115,-0.03199088302254677
1686445586444456700,11.186456787109375,0.0031540801167488095,-0.019879589468240737,-0.0209399121761322
1686445586454473500,11.196473388671874,0.0008335282146930694,-0.027177363527286797,-0.008320084577798844
1686445586464489700,11.20648974609375,-0.007382511466741562,-0.023971827217936514,-0.00561667083799839
1686445586474506500,11.216506591796875,-0.02508008072078228,-0.0074240307872183615,0.0004985971719026565
1686445586484523500,11.2265234375,-0.027615736678242683,0.006447568704187869,-0.012757190242409705
1686445586494540800,11.236540771484375,-0.025353052443265914,0.02199292836040258,-0.023361001843214033
1686445586504557600,11.2465576171875,-0.013894669839739799,0.016381207692157475,-0.02334463523030281
1686445586514574600,11.25657470703125,0.003402501919865608,0.01608865448636934,-0.015843465819954872
1686445586524591600,11.266591552734376,-0.008213117071986197,0.0070686049456708125,-0.011254968985915183
1686445586534608600,11.276608642578125,-0.01761339810192585,0.0024678331519477066,-0.012879939839243888
1686445586544624600,11.286624755859375,-0.01985679311454296,0.0038198322827927766,-0.02879354828596115
1686445586554641400,11.296641357421874,-0.006148585757613182,-0.004587346056569367,-0.021348492977023122
1686445586564658700,11.30665869140625,-0.019359364986419676,-0.006589315262436867,-0.008949614652991295
1686445586574675500,11.316675537109376,-0.023261633121967315,-0.018581969139445573,0.004864975687861442
1686445586584692500,11.3266923828125,-0.03772679632604122,-0.026705051574110985,0.007244564300775528
1686445586594709800,11.336709716796875,-0.023567922592163084,-0.029519250478316095,-0.004025017732381821
1686445586604726500,11.3467265625,-0.009105097475647925,-0.02883156047509983,-0.02048106249272823
1686445586614743600,11.35674365234375,-0.010347206491231917,-0.024574761547148227,-0.036440848168730736
1686445586624759600,11.366759521484376,-0.008969488397240637,-0.019544384430814535,-0.035838206100463864
1686445586634776600,11.376776611328125,0.0017997428983449935,-0.013147376870084554,-0.037706338059902186
1686445586644793600,11.386793701171875,0.02255377711355686,-0.011070278335083275,-0.03745265555977821
1686445586654810600,11.396810546875,0.024858546924591062,-0.010791443127393722,-0.02924538370668888
1686445586664827600,11.40682763671875,0.027744916015863416,-0.005505611678957939,-0.031516835770010944
1686445586674844400,11.416844482421874,0.021593407648801802,0.00412701680213213,-0.025939912420511243
1686445586684861700,11.42686181640625,0.011755904245376586,0.01222936697602272,-0.0287999780267477
1686445586694878500,11.43687841796875,-0.01823766748011112,0.012047891195584089,-0.03671908058822155
1686445586704894500,11.44689453125,-0.03720657184422016,0.015334931775927542,-0.036598084557056425
1686445586714911700,11.456911865234375,-0.04014788599312305,0.018865151728689668,-0.0412087932229042
1686445586724928500,11.466928466796874,-0.020151976668834684,0.011886252626776695,-0.0275321500480175
1686445586734945500,11.476945556640626,-0.00637479572892189,0.009380407285690307,-0.020997195321321487
1686445586744962800,11.486962890625,0.005620762491226196,0.002629179459810257,-0.01270867492556572
1686445586754979600,11.4969794921875,0.006604512831568717,-0.009689637631643563,-0.01450198808312416
1686445586764996600,11.50699658203125,0.011588730984926222,-0.017931670270860196,-0.010489245310425757
1686445586775013600,11.517013671875,-0.00018938509225845335,-0.02280923144565895,-0.02173895359933376
1686445586785029600,11.527029541015626,-0.0004021510601043701,-0.017156886506080625,-0.03550210601389408
1686445586795046700,11.537046630859376,0.008870704197883605,-0.017131167542934415,-0.034162381842732424
1686445586805063400,11.5470634765625,0.003387304350733757,-0.018535189121961594,-0.024103344643115997
1686445586815080700,11.557080810546875,0.01623743357360363,-0.009590268910396844,-0.016537293303012846
1686445586825097500,11.567097412109375,-0.0027589433193206787,-0.0128597738340497,-0.02027647983133793
1686445586835114500,11.577114501953124,-0.024157120656967162,-0.014065642492473125,-0.009210895937681197
1686445586845131500,11.587131591796876,-0.027020108872652052,-0.006477982108760625,0.004285714495182037
1686445586855148500,11.5971484375,-0.023052374285459518,-0.0013674889609217643,0.009466916525363921
1686445586865164500,11.60716455078125,-0.011328618744015693,0.0006081767599098384,0.008744447469711304
1686445586875181600,11.617181640625,-0.009082301121950149,-0.0029743396356701848,-0.0019879589468240737
1686445586885198600,11.627198486328124,-0.009729366853833198,-0.009215005857218057,-0.008312485793232917
1686445586895215600,11.637215576171876,-0.020091770914196967,-0.0033195180778391657,-0.028044191223382947
1686445586905232600,11.647232666015626,-0.021515666237473488,-0.008001538414228708,-0.03498889579474926
1686445586915249700,11.657249755859375,-0.012548515927791595,-0.006049509297311306,-0.018490765458345413
1686445586925266400,11.667266357421875,-0.0021335048973560333,-0.014169121133256702,-0.020035656812787055
1686445586935283700,11.67728369140625,-0.0037508769661188123,-0.019553152259159833,-0.027208324921131132
1686445586945299700,11.6872998046875,0.0023579613029956815,-0.015236458103824405,-0.023939093992114066
1686445586955316500,11.69731640625,0.005219780474901199,-0.002260346147418022,-0.02288286293745041
1686445586965333800,11.707333740234375,-0.0034779052436351775,0.00222732066065073,-0.019455226576328276
1686445586975350500,11.7173505859375,-0.005087678527832031,0.010142623829841614,-0.01839198125898838
1686445586985367600,11.727367431640625,-0.0022796353697776793,0.002955342674255371,-0.012384265276789664
1686445586995384600,11.737384521484374,-0.01104863275885582,-0.0020607501883991063,-0.03370236311554908
1686445587005401600,11.747401611328126,0.003384381741285324,-0.013111995029449462,-0.044838089635968206
1686445587015418600,11.757418701171876,-0.0023678981751203538,-0.0090802735616453,-0.0476835421949625
1686445587025434400,11.767434326171875,-0.013746785801649094,-0.004845101943612098,-0.03617605975270271
1686445587035451600,11.77745166015625,0.003782441148161888,-0.018962182362377643,-0.03063654580414295
1686445587045468700,11.78746875,0.008874795851111412,-0.006921031434834003,-0.011288871255517006
1686445587055485400,11.7974853515625,0.012636194211244582,-0.01708703614026308,-0.0017559037566184997
1686445587065502700,11.807502685546876,0.014439444240927695,-0.021181611977517605,-0.009981880310177802
1686445587075519500,11.81751953125,-0.0028910452663898465,-0.014580314016342162,-0.024776129338145256
1686445587085536500,11.82753662109375,-0.023755554118752478,-0.009386563031841069,-0.021375965505838392
1686445587095553500,11.837553466796875,-0.033164602977037425,-0.013093893117178231,-0.016920739662647247
1686445587105569500,11.847569580078124,-0.031013562422990797,-0.0038306824703700838,-0.019418986219167707
1686445587115586600,11.857586669921876,-0.03301028919816017,0.0028448680371046067,-0.012523966008424758
1686445587125603600,11.867603515625,-0.030161329507827756,0.003787701845169067,-0.00982815105319023
1686445587135620600,11.87762060546875,-0.022479542833566665,0.012925532546639442,-0.010402736070752143
1686445587145637600,11.8876376953125,-0.015555881050229071,-0.0029319617986679077,-0.012628595426678657
1686445587155654700,11.897654541015624,-0.022092589342594147,-0.0026239187628030775,0.0013140052080154417
1686445587165671700,11.907671630859374,-0.02682546308338642,0.0022696984976530075,0.003883563435077667
1686445587175688400,11.9176884765625,-0.009856792625784873,-0.002170640303660184,-0.0002256254494190216
1686445587185704400,11.927704345703125,-0.00336450799703598,-0.006418634870648384,-0.006879822641611099
1686445587195721700,11.9377216796875,0.001997311297059059,-0.008865735761821269,-0.015436054062843322
1686445587205738500,11.947738525390625,0.01849777972102165,-0.0048699441239237785,-0.031927754658460615
1686445587215755800,11.957755859375,0.006271919876337051,-0.010383154587447643,-0.03898468743264675
1686445587225772500,11.9677724609375,0.01794014583826065,-0.005597381615638733,-0.03221007873117924
1686445587235789600,11.97778955078125,0.012285481077432632,-0.002874386392533779,-0.02311491812765598
1686445587245806600,11.987806640625,0.0017079729616641998,0.0033189152896404266,-0.021937106519937515
1686445587255823600,11.99782373046875,-0.003084522011876106,-0.008608272135723382,-0.01799976707100868
1686445587265839600,12.007839599609374,0.0045662850022315975,-0.0232338683322072,-0.02168108593225479
1686445587275856400,12.0178564453125,0.0036374797195196148,-0.008662906666100024,-0.011477087303996086
1686445587285873700,12.027873779296876,0.006143325060606003,-0.009051905983686447,-0.010009937360882758
1686445587295890700,12.037890625,0.004514262554049492,-0.016416900060046462,-0.015735329270362853
1686445587305907500,12.047907470703125,-0.00442541522681713,-0.012535364185273647,-0.016657704812288284
1686445587315924700,12.0579248046875,-0.014471008422970772,-0.00677491922872141,-0.04031798186302185
1686445587325941500,12.06794140625,-0.028683073648810384,-0.0025756957069039345,-0.04226093262434005
1686445587335958500,12.07795849609375,-0.01411503459215164,-0.00770107589662075,-0.0453653283804655
1686445587345974800,12.087974853515625,-0.020285247659683227,-0.00481061515212059,-0.025033903491497037
1686445587355991600,12.097991455078125,-0.007731471034884452,-0.01048601217372343,-0.017506430596113204
1686445587366008600,12.108008544921875,-0.013932663762569427,-0.012779109813272953,-0.010070727637410163
