time,seconds_elapsed,z,y,x
1686445575385835500,0.12783544921875,-0.81292724609375,-0.2343902587890625,0.5263671875
1686445575395852300,0.137852294921875,-0.8100128173828125,-0.232696533203125,0.5296630859375
1686445575405869300,0.147869384765625,-0.8083343505859375,-0.2303924560546875,0.53436279296875
1686445575415886300,0.15788623046875,-0.80792236328125,-0.2321624755859375,0.5364990234375
1686445575425903400,0.1679033203125,-0.81024169921875,-0.2343902587890625,0.53485107421875
1686445575435920100,0.177920166015625,-0.8101654052734375,-0.23468017578125,0.532470703125
1686445575445936000,0.18793603515625,-0.8114776611328125,-0.2357330322265625,0.5311737060546875
1686445575455953400,0.197953369140625,-0.812957763671875,-0.2368011474609375,0.5277862548828125
1686445575465970200,0.20797021484375,-0.812530517578125,-0.237518310546875,0.52789306640625
1686445575475987200,0.2179873046875,-0.81396484375,-0.23809814453125,0.5301055908203125
1686445575486004500,0.22800439453125,-0.8150177001953125,-0.2374725341796875,0.529144287109375
1686445575496021200,0.238021240234375,-0.8179931640625,-0.2370452880859375,0.5270538330078125
1686445575506038300,0.248038330078125,-0.81964111328125,-0.236236572265625,0.52862548828125
1686445575516054300,0.25805419921875,-0.8221435546875,-0.237152099609375,0.524810791015625
1686445575526071300,0.2680712890625,-0.8186187744140625,-0.2355194091796875,0.5318756103515625
1686445575536088300,0.27808837890625,-0.812713623046875,-0.236083984375,0.5313262939453125
1686445575546105300,0.288105224609375,-0.8133697509765625,-0.237091064453125,0.5259552001953125
1686445575556122400,0.298122314453125,-0.8145294189453125,-0.2372589111328125,0.52557373046875
1686445575566139100,0.30813916015625,-0.814239501953125,-0.2354278564453125,0.527313232421875
1686445575576156400,0.318156494140625,-0.813995361328125,-0.2321319580078125,0.5290985107421875
1686445575586172400,0.32817236328125,-0.8170928955078125,-0.233001708984375,0.5324554443359375
1686445575596189200,0.338189208984375,-0.81719970703125,-0.2353668212890625,0.532012939453125
1686445575606206200,0.348206298828125,-0.8146514892578125,-0.2357330322265625,0.54150390625
1686445575616223200,0.35822314453125,-0.8156890869140625,-0.2317047119140625,0.537933349609375
1686445575626240300,0.368240234375,-0.8231201171875,-0.2377471923828125,0.5112457275390625
1686445575636257500,0.378257568359375,-0.8271942138671875,-0.24639892578125,0.3748321533203125
1686445575646274300,0.3882744140625,-0.819580078125,-0.2489776611328125,0.18206787109375
1686445575656291300,0.398291259765625,-0.8145294189453125,-0.2484893798828125,0.1970062255859375
1686445575666307300,0.408307373046875,-0.822723388671875,-0.2410888671875,0.363372802734375
1686445575676324400,0.418324462890625,-0.827423095703125,-0.2310638427734375,0.5450897216796875
1686445575686341400,0.42834130859375,-0.8266143798828125,-0.2353668212890625,0.668701171875
1686445575696358100,0.438358154296875,-0.821380615234375,-0.2359771728515625,0.671844482421875
1686445575706375400,0.44837548828125,-0.819061279296875,-0.24755859375,0.6466064453125
1686445575716392200,0.45839208984375,-0.8084259033203125,-0.2455902099609375,0.6276702880859375
1686445575726409200,0.4684091796875,-0.7967071533203125,-0.2169189453125,0.6039581298828125
1686445575736425500,0.478425537109375,-0.7980499267578125,-0.1886749267578125,0.5955963134765625
1686445575746442200,0.488442138671875,-0.8070831298828125,-0.1717529296875,0.6121063232421875
1686445575756459300,0.498459228515625,-0.81329345703125,-0.1581573486328125,0.6354827880859375
1686445575766476800,0.508476806640625,-0.8285980224609375,-0.1519927978515625,0.60662841796875
1686445575776494000,0.518494140625,-0.8409576416015625,-0.170135498046875,0.538787841796875
1686445575786510800,0.5285107421875,-0.833709716796875,-0.20245361328125,0.4862213134765625
1686445575796527900,0.53852783203125,-0.8163299560546875,-0.217987060546875,0.486419677734375
1686445575806544100,0.548544189453125,-0.800384521484375,-0.205078125,0.5032196044921875
1686445575816561000,0.558560791015625,-0.7925262451171875,-0.174468994140625,0.5726318359375
1686445575826578000,0.568577880859375,-0.79986572265625,-0.165008544921875,0.6564178466796875
1686445575836595000,0.578594970703125,-0.8109130859375,-0.16644287109375,0.6954345703125
1686445575846612000,0.588612060546875,-0.82342529296875,-0.1695556640625,0.6431121826171875
1686445575856629000,0.59862890625,-0.821319580078125,-0.1691131591796875,0.5705413818359375
1686445575866646000,0.60864599609375,-0.8194122314453125,-0.1710052490234375,0.55322265625
1686445575876662000,0.618662109375,-0.8251953125,-0.1715850830078125,0.5650482177734375
1686445575886679000,0.628678955078125,-0.8262481689453125,-0.1734466552734375,0.5760040283203125
1686445575896695800,0.63869580078125,-0.8222503662109375,-0.176422119140625,0.5854339599609375
1686445575906713000,0.648713134765625,-0.8204345703125,-0.1805267333984375,0.58050537109375
1686445575916729900,0.658729736328125,-0.8341064453125,-0.1828155517578125,0.559906005859375
1686445575926747000,0.668746826171875,-0.8454742431640625,-0.1854400634765625,0.5440216064453125
1686445575936764000,0.678763916015625,-0.8378143310546875,-0.1943206787109375,0.549957275390625
1686445575946781000,0.688781005859375,-0.8176422119140625,-0.208770751953125,0.571258544921875
1686445575956797000,0.698796875,-0.7818145751953125,-0.2184906005859375,0.599822998046875
1686445575966814000,0.70881396484375,-0.7452239990234375,-0.2222747802734375,0.6291046142578125
1686445575976831000,0.7188310546875,-0.7198638916015625,-0.216583251953125,0.6376190185546875
1686445575986848000,0.728847900390625,-0.7035980224609375,-0.2017364501953125,0.6334686279296875
1686445575996865000,0.738864990234375,-0.7089080810546875,-0.1842041015625,0.642333984375
1686445576006882000,0.748882080078125,-0.716552734375,-0.1728363037109375,0.66192626953125
1686445576016898800,0.75889892578125,-0.7118988037109375,-0.1965484619140625,0.663482666015625
1686445576026915000,0.7689150390625,-0.59130859375,-0.18719482421875,0.7490997314453125
1686445576036932000,0.77893212890625,-0.617645263671875,-0.1032867431640625,0.7225494384765625
1686445576046948900,0.788948974609375,-0.8584136962890625,-0.1436309814453125,0.57708740234375
1686445576056966100,0.798966064453125,-0.87786865234375,-0.126251220703125,0.65191650390625
1686445576066983000,0.80898291015625,-0.770355224609375,-0.18804931640625,0.7380828857421875
1686445576077000000,0.819,-0.6699371337890625,-0.2547454833984375,0.7429351806640625
1686445576087017000,0.829016845703125,-0.6406707763671875,-0.28326416015625,0.73907470703125
1686445576097034000,0.839033935546875,-0.619537353515625,-0.2709503173828125,0.7173614501953125
1686445576107050000,0.849050048828125,-0.5994720458984375,-0.2451171875,0.6848297119140625
1686445576117066800,0.859066650390625,-0.605682373046875,-0.2184600830078125,0.6751861572265625
1686445576127084000,0.869083984375,-0.613494873046875,-0.1905975341796875,0.6998138427734375
1686445576137101000,0.87910107421875,-0.6137847900390625,-0.1776123046875,0.7469329833984375
1686445576147117800,0.889117919921875,-0.6049346923828125,-0.172454833984375,0.786163330078125
1686445576157135000,0.899135009765625,-0.592803955078125,-0.1727142333984375,0.801177978515625
1686445576167151900,0.90915185546875,-0.588165283203125,-0.183624267578125,0.7625274658203125
1686445576177168000,0.91916796875,-0.5827789306640625,-0.1976776123046875,0.662750244140625
1686445576187185200,0.92918505859375,-0.5697479248046875,-0.2224578857421875,0.636749267578125
1686445576197202000,0.939201904296875,-0.579498291015625,-0.2369842529296875,0.710968017578125
1686445576207219000,0.949218994140625,-0.5878448486328125,-0.2290802001953125,0.7706146240234375
1686445576217236000,0.959236083984375,-0.603302001953125,-0.232513427734375,0.81121826171875
1686445576227253000,0.9692529296875,-0.6551361083984375,-0.233184814453125,0.8261260986328125
1686445576237269800,0.979269775390625,-0.6562347412109375,-0.1850128173828125,0.7612457275390625
1686445576247285800,0.98928564453125,-0.5914306640625,-0.236572265625,0.8142852783203125
1686445576257303000,0.999302978515625,-0.6089630126953125,-0.2285614013671875,0.89764404296875
1686445576267319800,1.00931982421875,-0.6874237060546875,-0.20892333984375,0.808074951171875
1686445576277337000,1.019337158203125,-0.63983154296875,-0.195404052734375,0.6672821044921875
1686445576287354000,1.02935400390625,-0.561614990234375,-0.2147216796875,0.695343017578125
1686445576297371000,1.039370849609375,-0.54644775390625,-0.235443115234375,0.7703399658203125
1686445576307388200,1.04938818359375,-0.5835113525390625,-0.2303619384765625,0.784454345703125
1686445576317405000,1.059405029296875,-0.6243133544921875,-0.207763671875,0.7686614990234375
1686445576327421000,1.0694208984375,-0.6371917724609375,-0.193145751953125,0.737457275390625
1686445576337438000,1.07943798828125,-0.6259307861328125,-0.189483642578125,0.7195281982421875
1686445576347455000,1.089455078125,-0.5449371337890625,-0.161041259765625,0.7894134521484375
1686445576357472000,1.099471923828125,-0.5259552001953125,-0.14788818359375,0.8434295654296875
1686445576367488800,1.10948876953125,-0.5823211669921875,-0.190887451171875,0.7746124267578125
1686445576377506000,1.119506103515625,-0.601318359375,-0.2149810791015625,0.78369140625
1686445576387522800,1.129522705078125,-0.6048431396484375,-0.19683837890625,0.8088531494140625
1686445576397538800,1.139538818359375,-0.5692901611328125,-0.1828460693359375,0.8269805908203125
1686445576407556000,1.14955615234375,-0.541748046875,-0.1725616455078125,0.840087890625
1686445576417572900,1.15957275390625,-0.5475311279296875,-0.1717376708984375,0.8294525146484375
1686445576427590000,1.16958984375,-0.5585479736328125,-0.1818695068359375,0.815155029296875
1686445576437607200,1.179607177734375,-0.5694427490234375,-0.180572509765625,0.8152618408203125
1686445576447624000,1.1896240234375,-0.582916259765625,-0.1789093017578125,0.81903076171875
1686445576457641000,1.199640869140625,-0.5791015625,-0.178070068359375,0.821990966796875
1686445576467657000,1.209656982421875,-0.5509033203125,-0.174163818359375,0.827667236328125
1686445576477674000,1.219674072265625,-0.52557373046875,-0.1708526611328125,0.83087158203125
1686445576487691000,1.22969091796875,-0.4959564208984375,-0.1674346923828125,0.83648681640625
1686445576497707800,1.239707763671875,-0.4784698486328125,-0.1638641357421875,0.843963623046875
1686445576507725000,1.24972509765625,-0.4958953857421875,-0.1767578125,0.8253936767578125
1686445576517741800,1.259741943359375,-0.5110015869140625,-0.1930999755859375,0.817230224609375
1686445576527759000,1.269759033203125,-0.4876556396484375,-0.1910247802734375,0.8358306884765625
1686445576537775000,1.279775146484375,-0.45343017578125,-0.1810150146484375,0.854248046875
1686445576547792000,1.2897919921875,-0.4737396240234375,-0.18829345703125,0.8570556640625
1686445576557809000,1.299808837890625,-0.5226898193359375,-0.197418212890625,0.8473052978515625
1686445576567826000,1.309825927734375,-0.5811614990234375,-0.2039794921875,0.821990966796875
1686445576577843000,1.319843017578125,-0.61322021484375,-0.2065582275390625,0.776947021484375
1686445576587860000,1.32985986328125,-0.601318359375,-0.2094268798828125,0.7456512451171875
1686445576597877000,1.339876953125,-0.5478973388671875,-0.193695068359375,0.7833251953125
1686445576607893000,1.34989306640625,-0.4966278076171875,-0.1551971435546875,0.8405609130859375
1686445576617910000,1.359909912109375,-0.5010833740234375,-0.1493377685546875,0.8494873046875
1686445576627927000,1.369927001953125,-0.5291290283203125,-0.1641693115234375,0.8331756591796875
1686445576637944000,1.379944091796875,-0.5108795166015625,-0.1612548828125,0.86541748046875
1686445576647960800,1.3899609375,-0.475067138671875,-0.1543426513671875,0.9185791015625
1686445576657978000,1.39997802734375,-0.435943603515625,-0.1476593017578125,0.9513092041015625
1686445576667995000,1.409994873046875,-0.386138916015625,-0.14776611328125,0.9569091796875
1686445576678012000,1.420011962890625,-0.3726806640625,-0.1615753173828125,0.9314117431640625
1686445576688028000,1.43002783203125,-0.357025146484375,-0.1667938232421875,0.91351318359375
1686445576698045000,1.440044921875,-0.3311920166015625,-0.1416473388671875,0.9196014404296875
1686445576708062000,1.45006201171875,-0.337554931640625,-0.1109161376953125,0.936859130859375
1686445576718079000,1.460078857421875,-0.3375244140625,-0.1206512451171875,0.9216461181640625
1686445576728096000,1.470095947265625,-0.3822479248046875,-0.1359405517578125,0.9011688232421875
1686445576738113000,1.480113037109375,-0.419219970703125,-0.141845703125,0.899505615234375
1686445576748129800,1.4901298828125,-0.4591217041015625,-0.1431427001953125,0.89825439453125
1686445576758146000,1.50014599609375,-0.5153045654296875,-0.1648406982421875,0.8529052734375
1686445576768162300,1.510162353515625,-0.5345306396484375,-0.1903839111328125,0.8103790283203125
1686445576778179300,1.520179443359375,-0.53564453125,-0.18572998046875,0.8078155517578125
1686445576788196400,1.5301962890625,-0.504150390625,-0.1690826416015625,0.8259124755859375
1686445576798213000,1.540213134765625,-0.4528350830078125,-0.1416015625,0.872650146484375
1686445576808230400,1.55023046875,-0.434906005859375,-0.1204986572265625,0.8994903564453125
1686445576818247400,1.560247314453125,-0.4266815185546875,-0.1284332275390625,0.8906707763671875
1686445576828263200,1.57026318359375,-0.41552734375,-0.1421051025390625,0.880126953125
1686445576838280400,1.580280517578125,-0.4156494140625,-0.142669677734375,0.885772705078125
1686445576848297500,1.59029736328125,-0.419891357421875,-0.1447601318359375,0.8876800537109375
1686445576858314200,1.600314208984375,-0.4315185546875,-0.1429595947265625,0.8952484130859375
1686445576868331500,1.61033154296875,-0.449859619140625,-0.1412506103515625,0.896728515625
1686445576878348300,1.620348388671875,-0.4774017333984375,-0.1449432373046875,0.902008056640625
1686445576888365300,1.630365234375,-0.474945068359375,-0.13818359375,0.911773681640625
1686445576898381300,1.64038134765625,-0.472259521484375,-0.1390838623046875,0.9019317626953125
1686445576908398300,1.6503984375,-0.495635986328125,-0.1504974365234375,0.881195068359375
1686445576918415400,1.660415283203125,-0.485382080078125,-0.1403045654296875,0.8777313232421875
1686445576928432000,1.67043212890625,-0.490509033203125,-0.144561767578125,0.83551025390625
1686445576938449400,1.680449462890625,-0.4862823486328125,-0.148345947265625,0.8476104736328125
1686445576948466200,1.690466064453125,-0.4864501953125,-0.139007568359375,0.865478515625
1686445576958483200,1.700483154296875,-0.5024871826171875,-0.151214599609375,0.86328125
1686445576968499500,1.71049951171875,-0.494842529296875,-0.1478118896484375,0.880035400390625
1686445576978516200,1.72051611328125,-0.5014801025390625,-0.157135009765625,0.8599853515625
1686445576988533200,1.730533203125,-0.5159454345703125,-0.1555633544921875,0.8513946533203125
1686445576998550500,1.740550537109375,-0.5155029296875,-0.1436767578125,0.8600311279296875
1686445577008567300,1.7505673828125,-0.51019287109375,-0.129119873046875,0.854522705078125
1686445577018584300,1.760584228515625,-0.542236328125,-0.141143798828125,0.8417205810546875
1686445577028601300,1.770601318359375,-0.5703582763671875,-0.130462646484375,0.859039306640625
1686445577038618400,1.780618408203125,-0.559661865234375,-0.124603271484375,0.84527587890625
1686445577048634400,1.79063427734375,-0.55242919921875,-0.1430816650390625,0.84063720703125
1686445577058651400,1.8006513671875,-0.546722412109375,-0.1426849365234375,0.825531005859375
1686445577068668400,1.81066845703125,-0.5511932373046875,-0.13726806640625,0.812164306640625
1686445577078685200,1.820685302734375,-0.560211181640625,-0.1307525634765625,0.8197784423828125
1686445577088702500,1.830702392578125,-0.5639190673828125,-0.13677978515625,0.8349609375
1686445577098719200,1.84071923828125,-0.561981201171875,-0.143218994140625,0.84033203125
1686445577108736300,1.850736328125,-0.5632781982421875,-0.153961181640625,0.837371826171875
1686445577118752300,1.860752197265625,-0.5516815185546875,-0.1700592041015625,0.8375244140625
1686445577128769300,1.870769287109375,-0.530792236328125,-0.1612091064453125,0.8593902587890625
1686445577138786300,1.880786376953125,-0.52734375,-0.146484375,0.8575286865234375
1686445577148803300,1.89080322265625,-0.5354156494140625,-0.155120849609375,0.85968017578125
1686445577158820400,1.9008203125,-0.5459136962890625,-0.177215576171875,0.8881378173828125
1686445577168837400,1.91083740234375,-0.548004150390625,-0.181976318359375,0.903961181640625
1686445577178854100,1.920854248046875,-0.5621337890625,-0.179534912109375,0.84466552734375
1686445577188870400,1.930870361328125,-0.5753631591796875,-0.1548614501953125,0.832977294921875
1686445577198887400,1.940887451171875,-0.5302276611328125,-0.173919677734375,0.89422607421875
1686445577208904200,1.950904296875,-0.53436279296875,-0.2265167236328125,0.923736572265625
1686445577218921500,1.96092138671875,-0.5358123779296875,-0.2397003173828125,0.93939208984375
1686445577228938200,1.970938232421875,-0.522247314453125,-0.21783447265625,0.9422454833984375
1686445577238955300,1.980955322265625,-0.5153961181640625,-0.2105560302734375,0.9084625244140625
1686445577248972300,1.99097216796875,-0.5153961181640625,-0.1678314208984375,0.8397674560546875
1686445577258988300,2.00098828125,-0.5225830078125,-0.1414031982421875,0.7830657958984375
1686445577269005300,2.01100537109375,-0.5330963134765625,-0.1443328857421875,0.76507568359375
1686445577279022300,2.021022216796875,-0.5379791259765625,-0.144012451171875,0.75146484375
1686445577289039400,2.031039306640625,-0.5385284423828125,-0.1628875732421875,0.7469024658203125
1686445577299056400,2.041056396484375,-0.531524658203125,-0.1688690185546875,0.757568359375
1686445577309073400,2.051073486328125,-0.5364227294921875,-0.169097900390625,0.76019287109375
1686445577319090400,2.06109033203125,-0.55609130859375,-0.1717071533203125,0.7646942138671875
1686445577329106400,2.0711064453125,-0.5695343017578125,-0.17132568359375,0.774139404296875
1686445577339123200,2.081123291015625,-0.56243896484375,-0.180999755859375,0.786895751953125
1686445577349140500,2.091140380859375,-0.550689697265625,-0.1880645751953125,0.8060760498046875
1686445577359157200,2.1011572265625,-0.5321502685546875,-0.1944732666015625,0.8241119384765625
1686445577369174300,2.11117431640625,-0.521942138671875,-0.189117431640625,0.8171539306640625
1686445577379191300,2.12119140625,-0.5160675048828125,-0.1775360107421875,0.798187255859375
1686445577389208300,2.131208251953125,-0.506195068359375,-0.1617584228515625,0.7905426025390625
1686445577399225300,2.141225341796875,-0.4980316162109375,-0.152801513671875,0.77423095703125
1686445577409241300,2.151241455078125,-0.5036163330078125,-0.1463470458984375,0.7630615234375
1686445577419258400,2.16125830078125,-0.5142669677734375,-0.1527862548828125,0.753814697265625
1686445577429275400,2.171275390625,-0.527984619140625,-0.1611785888671875,0.7629241943359375
1686445577439292400,2.18129248046875,-0.527008056640625,-0.1627044677734375,0.781585693359375
1686445577449309400,2.191309326171875,-0.54058837890625,-0.1631927490234375,0.80621337890625
1686445577459326200,2.201326171875,-0.5550079345703125,-0.1657257080078125,0.8388519287109375
1686445577469343500,2.211343505859375,-0.582611083984375,-0.162322998046875,0.840972900390625
1686445577479359500,2.221359375,-0.60137939453125,-0.1493682861328125,0.8299102783203125
1686445577489376300,2.231376220703125,-0.6092529296875,-0.1305694580078125,0.793609619140625
1686445577499393300,2.241393310546875,-0.5809173583984375,-0.1230926513671875,0.798919677734375
1686445577509410300,2.251410400390625,-0.558502197265625,-0.1182403564453125,0.7999420166015625
1686445577519427300,2.26142724609375,-0.5556182861328125,-0.119171142578125,0.8156890869140625
1686445577529444000,2.271444091796875,-0.55908203125,-0.1324005126953125,0.837249755859375
1686445577539461400,2.28146142578125,-0.54876708984375,-0.1417083740234375,0.8659515380859375
1686445577549477400,2.291477294921875,-0.535552978515625,-0.151824951171875,0.870361328125
1686445577559494100,2.301494140625,-0.5316619873046875,-0.1590118408203125,0.872772216796875
1686445577569511400,2.311511474609375,-0.5247344970703125,-0.1501617431640625,0.881256103515625
1686445577579528400,2.321528564453125,-0.517730712890625,-0.141326904296875,0.872802734375
1686445577589545200,2.331545166015625,-0.508758544921875,-0.1445159912109375,0.877044677734375
1686445577599562500,2.3415625,-0.50543212890625,-0.141448974609375,0.8650665283203125
1686445577609579300,2.351579345703125,-0.493896484375,-0.14862060546875,0.8574676513671875
1686445577619595300,2.36159521484375,-0.47412109375,-0.1550750732421875,0.871063232421875
1686445577629612500,2.371612548828125,-0.455230712890625,-0.156036376953125,0.880157470703125
1686445577639629300,2.38162939453125,-0.4431610107421875,-0.154327392578125,0.8734588623046875
1686445577649646300,2.391646240234375,-0.443359375,-0.147064208984375,0.8676605224609375
1686445577659663400,2.401663330078125,-0.450836181640625,-0.146453857421875,0.8586273193359375
1686445577669680400,2.411680419921875,-0.4606170654296875,-0.1584320068359375,0.859039306640625
1686445577679697200,2.421697265625,-0.4649200439453125,-0.16986083984375,0.8740997314453125
1686445577689713200,2.431713134765625,-0.4622650146484375,-0.1764678955078125,0.878173828125
1686445577699730400,2.44173046875,-0.4604949951171875,-0.1798095703125,0.87982177734375
1686445577709747200,2.451747314453125,-0.4561767578125,-0.1839141845703125,0.877227783203125
1686445577719764200,2.46176416015625,-0.454010009765625,-0.1935577392578125,0.8739776611328125
1686445577729781500,2.471781494140625,-0.4564361572265625,-0.2163848876953125,0.863983154296875
1686445577739798300,2.48179833984375,-0.45458984375,-0.23797607421875,0.858001708984375
1686445577749815300,2.491815185546875,-0.45263671875,-0.2534942626953125,0.855133056640625
1686445577759831600,2.50183154296875,-0.4432525634765625,-0.25482177734375,0.8397369384765625
1686445577769848000,2.51184814453125,-0.4290771484375,-0.23345947265625,0.8162994384765625
1686445577779865300,2.521865234375,-0.426055908203125,-0.191253662109375,0.783416748046875
1686445577789882000,2.531882080078125,-0.428558349609375,-0.1419525146484375,0.7394866943359375
1686445577799899100,2.541899169921875,-0.4360809326171875,-0.115081787109375,0.7079010009765625
1686445577809916200,2.551916259765625,-0.4390869140625,-0.0894622802734375,0.6947174072265625
1686445577819933200,2.56193310546875,-0.4332733154296875,-0.071533203125,0.6824951171875
1686445577829950200,2.5719501953125,-0.4286346435546875,-0.0672454833984375,0.696258544921875
1686445577839966000,2.581966064453125,-0.4421539306640625,-0.0676116943359375,0.7326202392578125
1686445577849983200,2.591983154296875,-0.4572601318359375,-0.06988525390625,0.759521484375
1686445577860000300,2.602000244140625,-0.4825897216796875,-0.06536865234375,0.7995452880859375
1686445577870017000,2.61201708984375,-0.4937591552734375,-0.0572509765625,0.824127197265625
1686445577880034300,2.622034423828125,-0.4976043701171875,-0.057952880859375,0.844818115234375
1686445577890051000,2.632051025390625,-0.5105133056640625,-0.0487060546875,0.860443115234375
1686445577900068400,2.642068359375,-0.5134735107421875,-0.0262603759765625,0.852691650390625
1686445577910084400,2.65208447265625,-0.5011444091796875,-0.0101470947265625,0.843017578125
1686445577920101000,2.66210107421875,-0.5029449462890625,-0.0181732177734375,0.8256378173828125
1686445577930118100,2.6721181640625,-0.5089874267578125,-0.02227783203125,0.8358154296875
1686445577940135200,2.68213525390625,-0.480865478515625,-0.026275634765625,0.852508544921875
1686445577950152200,2.692152099609375,-0.4452972412109375,-0.0321197509765625,0.8638153076171875
1686445577960169000,2.7021689453125,-0.42254638671875,-0.035400390625,0.88055419921875
1686445577970186200,2.712186279296875,-0.413421630859375,-0.0426788330078125,0.8947906494140625
1686445577980202200,2.7222021484375,-0.4146575927734375,-0.0596466064453125,0.90228271484375
1686445577990219000,2.732218994140625,-0.4262237548828125,-0.06304931640625,0.9035186767578125
1686445578000236300,2.742236328125,-0.4346160888671875,-0.0496826171875,0.89764404296875
1686445578010253300,2.75225341796875,-0.4351043701171875,-0.0365753173828125,0.8978271484375
1686445578020270000,2.76227001953125,-0.4343109130859375,-0.0230712890625,0.894012451171875
1686445578030287400,2.772287353515625,-0.4356536865234375,-0.016326904296875,0.8920135498046875
1686445578040304000,2.78230419921875,-0.4393768310546875,-0.0276947021484375,0.914703369140625
1686445578050320100,2.792320068359375,-0.4247589111328125,-0.0336456298828125,0.9513702392578125
1686445578060337200,2.802337158203125,-0.3822479248046875,-0.0412750244140625,0.99749755859375
1686445578070354200,2.812354248046875,-0.3494873046875,-0.0591278076171875,1.0306243896484375
1686445578080371200,2.82237109375,-0.337249755859375,-0.07794189453125,1.062103271484375
1686445578090388000,2.832387939453125,-0.3320465087890625,-0.0863494873046875,1.07427978515625
1686445578100405200,2.8424052734375,-0.3249664306640625,-0.0795135498046875,1.072021484375
1686445578110422000,2.852422119140625,-0.31549072265625,-0.0648040771484375,1.05462646484375
1686445578120438000,2.86243798828125,-0.301483154296875,-0.054534912109375,1.0196533203125
1686445578130455300,2.872455322265625,-0.2852935791015625,-0.0385894775390625,0.9932708740234375
1686445578140472000,2.88247216796875,-0.2802734375,-0.0367584228515625,0.9647674560546875
1686445578150489000,2.892489013671875,-0.2907867431640625,-0.040435791015625,0.9705657958984375
1686445578160506400,2.90250634765625,-0.302215576171875,-0.040008544921875,0.9677886962890625
1686445578170523100,2.912523193359375,-0.2759552001953125,-0.06866455078125,1.010986328125
1686445578180540200,2.9225400390625,-0.2816619873046875,-0.088134765625,0.98284912109375
1686445578190557200,2.93255712890625,-0.2210540771484375,-0.0240478515625,0.93182373046875
1686445578200573200,2.9425732421875,-0.21026611328125,0.0421905517578125,0.8797149658203125
1686445578210590200,2.952590087890625,-0.2243804931640625,0.0435333251953125,0.8402862548828125
1686445578220607200,2.962607177734375,-0.256072998046875,0.0164031982421875,0.826202392578125
1686445578230624300,2.972624267578125,-0.3046417236328125,-0.0228118896484375,0.867431640625
1686445578240641000,2.98264111328125,-0.32623291015625,-0.062774658203125,0.9774169921875
1686445578250658300,2.992658203125,-0.314605712890625,-0.1093902587890625,1.03179931640625
1686445578260675000,3.002675048828125,-0.3148651123046875,-0.13177490234375,1.045806884765625
1686445578270691000,3.012691162109375,-0.3098602294921875,-0.106719970703125,1.0771331787109375
1686445578280708000,3.0227080078125,-0.3011474609375,-0.062286376953125,1.021087646484375
1686445578290725000,3.03272509765625,-0.3071746826171875,-0.0355987548828125,0.965545654296875
1686445578300742100,3.0427421875,-0.330322265625,-0.02630615234375,0.9593353271484375
1686445578310759200,3.05275927734375,-0.3443145751953125,-0.0205078125,0.9674224853515625
1686445578320776200,3.062776123046875,-0.3432769775390625,-0.013702392578125,0.961761474609375
1686445578330793200,3.072793212890625,-0.3649749755859375,0.004730224609375,0.9478607177734375
1686445578340809200,3.082809326171875,-0.3680267333984375,0.0088348388671875,0.95477294921875
1686445578350826200,3.092826171875,-0.3577728271484375,0.0105743408203125,0.9729766845703125
1686445578360843300,3.10284326171875,-0.3468780517578125,-0.008056640625,0.973876953125
1686445578370860000,3.112860107421875,-0.3323974609375,-0.0248260498046875,0.9722137451171875
1686445578380877300,3.122877197265625,-0.3306732177734375,-0.0384674072265625,0.978057861328125
1686445578390894000,3.13289404296875,-0.35833740234375,-0.038421630859375,0.994873046875
1686445578400911000,3.1429111328125,-0.3267364501953125,-0.028778076171875,0.8926544189453125
1686445578410927000,3.152927001953125,-0.292572021484375,-0.0522003173828125,0.951446533203125
1686445578420944100,3.162944091796875,-0.2848358154296875,-0.0765228271484375,1.0131683349609375
1686445578430961200,3.172961181640625,-0.2679901123046875,-0.0988311767578125,1.0030670166015625
1686445578440978200,3.182978271484375,-0.249237060546875,-0.0975189208984375,1.0083465576171875
1686445578450995200,3.1929951171875,-0.2486419677734375,-0.0849761962890625,1.0044097900390625
1686445578461012200,3.20301220703125,-0.2563323974609375,-0.0697021484375,0.9912872314453125
1686445578471029200,3.213029296875,-0.270355224609375,-0.0543670654296875,0.96087646484375
1686445578481046300,3.22304638671875,-0.281219482421875,-0.0517578125,0.9608917236328125
1686445578491062300,3.233062255859375,-0.287139892578125,-0.0457916259765625,0.9625396728515625
1686445578501079000,3.2430791015625,-0.297088623046875,-0.04034423828125,0.9551849365234375
1686445578511096300,3.253096435546875,-0.304840087890625,-0.04119873046875,0.9560394287109375
1686445578521113000,3.263113037109375,-0.3331298828125,-0.0900115966796875,0.989990234375
1686445578531130000,3.273130126953125,-0.3127899169921875,-0.0525054931640625,0.9680023193359375
1686445578541147100,3.283147216796875,-0.231658935546875,-0.0364837646484375,0.95062255859375
1686445578551164200,3.2931640625,-0.323394775390625,-0.028961181640625,0.9635772705078125
1686445578561180200,3.30318017578125,-0.3053741455078125,-0.02166748046875,0.9590301513671875
1686445578571197200,3.313197265625,-0.3046417236328125,-0.010467529296875,0.957000732421875
1686445578581214200,3.323214111328125,-0.2912139892578125,0.002471923828125,0.9569244384765625
1686445578591231200,3.333231201171875,-0.2832794189453125,0.006561279296875,0.9556427001953125
1686445578601248300,3.343248291015625,-0.2974090576171875,-0.0025482177734375,1.0201263427734375
1686445578611265300,3.353265380859375,-0.325347900390625,0.0202789306640625,0.93316650390625
1686445578621282000,3.363281982421875,-0.287384033203125,0.02252197265625,0.900054931640625
1686445578631298000,3.373298095703125,-0.307952880859375,0.0157318115234375,0.89935302734375
1686445578641315300,3.3833154296875,-0.2992706298828125,-0.00836181640625,0.918609619140625
1686445578651332000,3.39333203125,-0.27996826171875,-0.0149078369140625,0.9469757080078125
1686445578661349000,3.40334912109375,-0.30706787109375,-0.007232666015625,0.963897705078125
1686445578671366100,3.4133662109375,-0.317474365234375,-0.009124755859375,0.9576873779296875
1686445578681383200,3.423383056640625,-0.311767578125,-0.0099334716796875,0.9312896728515625
1686445578691400000,3.43339990234375,-0.30401611328125,-0.0338592529296875,0.9040374755859375
1686445578701416200,3.443416259765625,-0.3021240234375,-0.0346221923828125,0.90478515625
1686445578711433200,3.45343310546875,-0.315216064453125,-0.0243377685546875,0.916107177734375
1686445578721450000,3.463449951171875,-0.3267059326171875,-0.015045166015625,0.932525634765625
1686445578731467300,3.47346728515625,-0.3321533203125,-0.0096282958984375,0.943634033203125
1686445578741484300,3.483484375,-0.327423095703125,-0.00665283203125,0.95361328125
1686445578751501000,3.4935009765625,-0.3241424560546875,-0.0062103271484375,0.96295166015625
1686445578761518300,3.503518310546875,-0.326080322265625,-0.0073089599609375,0.9630584716796875
1686445578771535600,3.51353564453125,-0.3282012939453125,-0.011566162109375,0.9627227783203125
1686445578781551600,3.523551513671875,-0.330169677734375,-0.0162200927734375,0.9580841064453125
1686445578791568600,3.533568603515625,-0.3341064453125,-0.0166168212890625,0.9493408203125
1686445578801585400,3.54358544921875,-0.3381195068359375,-0.0177154541015625,0.9432373046875
1686445578811602700,3.553602783203125,-0.3378448486328125,-0.016632080078125,0.9404144287109375
1686445578821619500,3.563619384765625,-0.333221435546875,-0.012939453125,0.9371795654296875
1686445578831636500,3.573636474609375,-0.331085205078125,-0.0075531005859375,0.935546875
1686445578841653500,3.583653564453125,-0.332672119140625,-0.000823974609375,0.93341064453125
1686445578851669500,3.59366943359375,-0.3388214111328125,0.005126953125,0.9292755126953125
1686445578861686500,3.6036865234375,-0.344390869140625,0.0100555419921875,0.92547607421875
1686445578871703600,3.61370361328125,-0.3520050048828125,0.012939453125,0.9197235107421875
1686445578881720600,3.623720458984375,-0.36297607421875,0.0117340087890625,0.91107177734375
1686445578891737300,3.6337373046875,-0.3772430419921875,0.01080322265625,0.901611328125
1686445578901754600,3.643754638671875,-0.3971710205078125,0.010894775390625,0.8941192626953125
1686445578911771600,3.653771728515625,-0.4130401611328125,0.0115203857421875,0.8865966796875
1686445578921787400,3.663787353515625,-0.4252471923828125,0.01373291015625,0.8859405517578125
1686445578931804700,3.6738046875,-0.437469482421875,0.01727294921875,0.8916473388671875
1686445578941821700,3.68382177734375,-0.449676513671875,0.0224456787109375,0.893218994140625
1686445578951838500,3.69383837890625,-0.4550628662109375,0.0241851806640625,0.89532470703125
1686445578961855700,3.703855712890625,-0.45892333984375,0.01995849609375,0.8889312744140625
1686445578971872500,3.71387255859375,-0.46978759765625,0.01544189453125,0.87774658203125
1686445578981889500,3.7238896484375,-0.48541259765625,0.01153564453125,0.8681793212890625
1686445578991906600,3.733906494140625,-0.5003662109375,0.0076904296875,0.859954833984375
1686445579001922600,3.743922607421875,-0.5127105712890625,0.0083160400390625,0.8495635986328125
1686445579011939600,3.753939697265625,-0.537017822265625,0.012725830078125,0.839996337890625
1686445579021956400,3.763956298828125,-0.558685302734375,0.01702880859375,0.8406829833984375
1686445579031973600,3.7739736328125,-0.564453125,0.0214691162109375,0.839324951171875
1686445579041990400,3.783990478515625,-0.5597076416015625,0.0240478515625,0.842926025390625
1686445579052007400,3.79400732421875,-0.554443359375,0.0229339599609375,0.849945068359375
1686445579062024700,3.804024658203125,-0.547088623046875,0.0229644775390625,0.848114013671875
1686445579072040400,3.81404052734375,-0.5424957275390625,0.020904541015625,0.8448486328125
1686445579082057500,3.824057373046875,-0.539459228515625,0.0183258056640625,0.844024658203125
1686445579092074800,3.83407470703125,-0.542022705078125,0.0189971923828125,0.842132568359375
1686445579102091500,3.844091552734375,-0.5553436279296875,0.02044677734375,0.826690673828125
1686445579112108500,3.854108642578125,-0.5665740966796875,0.02264404296875,0.816375732421875
1686445579122125600,3.86412548828125,-0.57733154296875,0.022735595703125,0.811737060546875
1686445579132142600,3.874142578125,-0.5902252197265625,0.02490234375,0.8041229248046875
1686445579142158600,3.88415869140625,-0.6042633056640625,0.026641845703125,0.8025054931640625
1686445579152175400,3.89417529296875,-0.616668701171875,0.023773193359375,0.8071136474609375
1686445579162192600,3.904192626953125,-0.62945556640625,0.0238494873046875,0.7972869873046875
1686445579172209400,3.91420947265625,-0.63726806640625,0.0216522216796875,0.7816314697265625
1686445579182226700,3.924226806640625,-0.6405181884765625,0.0187225341796875,0.7753753662109375
1686445579192243500,3.934243408203125,-0.6401214599609375,0.018280029296875,0.774688720703125
1686445579202260500,3.944260498046875,-0.6374053955078125,0.0178375244140625,0.778717041015625
1686445579212277800,3.95427783203125,-0.6348114013671875,0.014556884765625,0.781646728515625
1686445579222293500,3.96429345703125,-0.6281890869140625,0.016021728515625,0.7862091064453125
1686445579232310500,3.974310546875,-0.619873046875,0.0193634033203125,0.7913970947265625
1686445579242327600,3.98432763671875,-0.6109619140625,0.02362060546875,0.7953948974609375
1686445579252344600,3.994344482421875,-0.60418701171875,0.025787353515625,0.8004913330078125
1686445579262361600,4.004361572265625,-0.600738525390625,0.027496337890625,0.8043670654296875
1686445579272378400,4.01437841796875,-0.598541259765625,0.028289794921875,0.80615234375
1686445579282395600,4.024395751953125,-0.600616455078125,0.0281524658203125,0.8059844970703125
1686445579292411600,4.03441162109375,-0.602996826171875,0.0260009765625,0.80291748046875
1686445579302428400,4.044428466796875,-0.608245849609375,0.0267333984375,0.7974090576171875
1686445579312445700,4.05444580078125,-0.614105224609375,0.029937744140625,0.7952423095703125
1686445579322462500,4.06446240234375,-0.6157073974609375,0.0324249267578125,0.7984771728515625
1686445579332479500,4.0744794921875,-0.6089019775390625,0.03277587890625,0.8019256591796875
1686445579342496500,4.08449658203125,-0.5936126708984375,0.0300750732421875,0.807525634765625
1686445579352513500,4.094513427734375,-0.57318115234375,0.024749755859375,0.8143768310546875
1686445579362529500,4.104529541015625,-0.555419921875,0.0223388671875,0.8216094970703125
1686445579372546600,4.114546630859375,-0.544586181640625,0.025115966796875,0.8291473388671875
1686445579382563600,4.1245634765625,-0.538665771484375,0.0301666259765625,0.836578369140625
1686445579392580600,4.13458056640625,-0.534912109375,0.0342254638671875,0.841705322265625
1686445579402597400,4.144597412109375,-0.535247802734375,0.03533935546875,0.844940185546875
1686445579412614700,4.15461474609375,-0.538238525390625,0.035003662109375,0.8468475341796875
1686445579422631400,4.16463134765625,-0.5413818359375,0.03521728515625,0.8472442626953125
1686445579432647400,4.1746474609375,-0.5442047119140625,0.0349273681640625,0.8470916748046875
1686445579442664700,4.184664794921875,-0.5451202392578125,0.032684326171875,0.84521484375
1686445579452681500,4.194681396484375,-0.54473876953125,0.0318603515625,0.8427276611328125
1686445579462698500,4.204698486328125,-0.5422515869140625,0.03472900390625,0.8401947021484375
1686445579472715500,4.214715576171875,-0.5357208251953125,0.03765869140625,0.8413848876953125
1686445579482732500,4.224732666015625,-0.5291748046875,0.040618896484375,0.8434906005859375
1686445579492749600,4.23474951171875,-0.520538330078125,0.0415802001953125,0.848175048828125
1686445579502766600,4.2447666015625,-0.5097198486328125,0.039459228515625,0.8498382568359375
1686445579512782600,4.254782470703125,-0.5023956298828125,0.0380096435546875,0.8498382568359375
1686445579522799600,4.264799560546875,-0.495819091796875,0.0379180908203125,0.8544464111328125
1686445579532816600,4.274816650390625,-0.4929351806640625,0.0366363525390625,0.8560943603515625
1686445579542833700,4.284833740234375,-0.4930419921875,0.034698486328125,0.8574676513671875
1686445579552850400,4.294850341796875,-0.492401123046875,0.0327606201171875,0.8576812744140625
1686445579562867700,4.30486767578125,-0.4936981201171875,0.0300140380859375,0.8567962646484375
1686445579572884500,4.314884521484375,-0.4974365234375,0.02703857421875,0.8544921875
1686445579582900500,4.324900390625,-0.5026397705078125,0.024383544921875,0.85186767578125
1686445579592917500,4.33491748046875,-0.5053253173828125,0.0223236083984375,0.8480224609375
1686445579602934500,4.3449345703125,-0.503814697265625,0.021392822265625,0.8408966064453125
1686445579612951600,4.35495166015625,-0.4996337890625,0.021759033203125,0.8311767578125
1686445579622968300,4.36496826171875,-0.49530029296875,0.02001953125,0.82525634765625
1686445579632985600,4.374985595703125,-0.49871826171875,0.017181396484375,0.827301025390625
1686445579643002600,4.385002685546875,-0.5069427490234375,0.0136871337890625,0.8342132568359375
1686445579653018400,4.395018310546875,-0.51898193359375,0.0107879638671875,0.83819580078125
1686445579663035600,4.40503564453125,-0.533935546875,0.0126190185546875,0.8402557373046875
1686445579673052700,4.415052734375,-0.549224853515625,0.0179290771484375,0.841888427734375
1686445579683069400,4.4250693359375,-0.5647735595703125,0.022125244140625,0.842132568359375
1686445579693086700,4.435086669921875,-0.5776824951171875,0.023345947265625,0.8388824462890625
1686445579703103500,4.445103515625,-0.5909423828125,0.018890380859375,0.83221435546875
1686445579713120500,4.45512060546875,-0.6039886474609375,0.0166168212890625,0.8238372802734375
1686445579723137500,4.465137451171875,-0.6136322021484375,0.02130126953125,0.81951904296875
1686445579733153500,4.475153564453125,-0.611297607421875,0.0294036865234375,0.820953369140625
1686445579743170600,4.485170654296875,-0.6009521484375,0.03387451171875,0.826873779296875
1686445579753187600,4.4951875,-0.592681884765625,0.032073974609375,0.830596923828125
1686445579763204600,4.50520458984375,-0.5834503173828125,0.0293121337890625,0.834075927734375
1686445579773221600,4.5152216796875,-0.5764923095703125,0.027679443359375,0.832977294921875
1686445579783238700,4.52523876953125,-0.5684051513671875,0.0267791748046875,0.8322296142578125
1686445579793255700,4.535255615234375,-0.5582122802734375,0.026580810546875,0.8291778564453125
1686445579803271700,4.545271728515625,-0.548858642578125,0.0265350341796875,0.82427978515625
1686445579813288700,4.555288818359375,-0.5376434326171875,0.0253143310546875,0.8220062255859375
1686445579823305700,4.5653056640625,-0.5302734375,0.0270843505859375,0.821990966796875
1686445579833322800,4.57532275390625,-0.526336669921875,0.029754638671875,0.8291473388671875
1686445579843339800,4.58533984375,-0.52984619140625,0.0311431884765625,0.8359375
1686445579853356500,4.5953564453125,-0.5377349853515625,0.0333709716796875,0.842926025390625
1686445579863373800,4.605373779296875,-0.542999267578125,0.035797119140625,0.845611572265625
1686445579873390600,4.615390625,-0.542022705078125,0.0376739501953125,0.845611572265625
1686445579883406600,4.625406494140625,-0.536376953125,0.0388031005859375,0.8437347412109375
1686445579893423600,4.635423583984375,-0.5233306884765625,0.0357513427734375,0.8419036865234375
1686445579903440600,4.645440673828125,-0.5078887939453125,0.0341796875,0.845458984375
1686445579913457700,4.655457763671875,-0.493621826171875,0.0323944091796875,0.85125732421875
1686445579923474700,4.665474609375,-0.480712890625,0.0270538330078125,0.8601837158203125
1686445579933491700,4.67549169921875,-0.4774322509765625,0.022705078125,0.8656158447265625
1686445579943508700,4.6855087890625,-0.4786224365234375,0.0190582275390625,0.865966796875
1686445579953524500,4.6955244140625,-0.4851837158203125,0.016845703125,0.8609161376953125
1686445579963541800,4.705541748046875,-0.4931640625,0.0142974853515625,0.852447509765625
1686445579973558800,4.715558837890625,-0.498626708984375,0.0144805908203125,0.8437347412109375
1686445579983575600,4.725575439453125,-0.505035400390625,0.0192413330078125,0.843994140625
1686445579993592800,4.7355927734375,-0.5104217529296875,0.0227508544921875,0.849639892578125
1686445580003609600,4.745609619140625,-0.5143890380859375,0.0255584716796875,0.8526153564453125
1686445580013626600,4.755626708984375,-0.5202484130859375,0.0285797119140625,0.8604278564453125
1686445580023643600,4.7656435546875,-0.5311126708984375,0.030426025390625,0.8686981201171875
1686445580033659600,4.77565966796875,-0.5428466796875,0.0294189453125,0.8710174560546875
1686445580043676700,4.7856767578125,-0.5574798583984375,0.0308685302734375,0.8710479736328125
1686445580053693700,4.795693603515625,-0.56573486328125,0.0386505126953125,0.8616180419921875
1686445580063710700,4.805710693359375,-0.5621185302734375,0.0427093505859375,0.8477325439453125
1686445580073727500,4.8157275390625,-0.5498199462890625,0.0463714599609375,0.835052490234375
1686445580083744800,4.825744873046875,-0.5309600830078125,0.047882080078125,0.8275299072265625
1686445580093761800,4.83576171875,-0.51458740234375,0.043060302734375,0.8265533447265625
1686445580103777500,4.845777587890625,-0.5077667236328125,0.037628173828125,0.83001708984375
1686445580113794600,4.855794677734375,-0.5111846923828125,0.0286712646484375,0.840423583984375
1686445580123811800,4.865811767578125,-0.516082763671875,0.0148468017578125,0.8513336181640625
1686445580133828600,4.87582861328125,-0.520111083984375,0.00128173828125,0.8557281494140625
1686445580143845600,4.885845703125,-0.5234222412109375,-0.004608154296875,0.8571624755859375
1686445580153862700,4.895862548828125,-0.5288543701171875,-0.00054931640625,0.8580169677734375
1686445580163879700,4.905879638671875,-0.5306243896484375,0.0075531005859375,0.858306884765625
1686445580173895700,4.915895751953125,-0.5296173095703125,0.0144805908203125,0.853729248046875
1686445580183912700,4.92591259765625,-0.5245361328125,0.0189666748046875,0.8508148193359375
1686445580193929700,4.9359296875,-0.513580322265625,0.0204620361328125,0.851318359375
1686445580203946500,4.945946533203125,-0.501007080078125,0.0205841064453125,0.855560302734375
1686445580213963800,4.9559638671875,-0.4919281005859375,0.0202789306640625,0.862396240234375
1686445580223980500,4.96598046875,-0.4851837158203125,0.0207366943359375,0.8699188232421875
1686445580233997600,4.97599755859375,-0.4784088134765625,0.0207061767578125,0.8756561279296875
1686445580244014800,4.986014892578125,-0.472930908203125,0.0228271484375,0.873565673828125
1686445580254030600,4.996030517578125,-0.4658660888671875,0.02789306640625,0.8692474365234375
1686445580264047600,5.006047607421875,-0.4600372314453125,0.033233642578125,0.8661346435546875
1686445580274065000,5.01606494140625,-0.4571075439453125,0.0382232666015625,0.868133544921875
1686445580284081700,5.02608154296875,-0.4591522216796875,0.0395965576171875,0.8729248046875
1686445580294098700,5.0360986328125,-0.4729766845703125,0.035400390625,0.87347412109375
1686445580304115700,5.04611572265625,-0.4903564453125,0.0267333984375,0.8712615966796875
1686445580314132700,5.0561328125,-0.50860595703125,0.0172882080078125,0.86383056640625
1686445580324148700,5.066148681640625,-0.5236663818359375,0.0168304443359375,0.853759765625
1686445580334165500,5.07616552734375,-0.5290985107421875,0.0200653076171875,0.849029541015625
1686445580344182800,5.086182861328125,-0.5329132080078125,0.0256195068359375,0.8470458984375
1686445580354199600,5.096199462890625,-0.538604736328125,0.031463623046875,0.8481292724609375
1686445580364216600,5.106216552734375,-0.5432891845703125,0.035308837890625,0.8483123779296875
1686445580374233600,5.116233642578125,-0.5424652099609375,0.0384063720703125,0.846771240234375
1686445580384250600,5.126250732421875,-0.535125732421875,0.04193115234375,0.84686279296875
1686445580394267600,5.136267578125,-0.5244598388671875,0.0413665771484375,0.84832763671875
1686445580404283600,5.14628369140625,-0.51739501953125,0.0394287109375,0.8503265380859375
1686445580414300700,5.15630078125,-0.51092529296875,0.034912109375,0.8516845703125
1686445580424317700,5.166317626953125,-0.5058135986328125,0.02691650390625,0.853485107421875
1686445580434334700,5.176334716796875,-0.5,0.0201568603515625,0.855438232421875
1686445580444351700,5.186351806640625,-0.4951934814453125,0.0111236572265625,0.855987548828125
1686445580454368500,5.196368408203125,-0.5000152587890625,-0.0001068115234375,0.8519287109375
1686445580464385800,5.2063857421875,-0.5229644775390625,-0.0082244873046875,0.842498779296875
1686445580474401800,5.21640185546875,-0.5630645751953125,-0.00439453125,0.831268310546875
1686445580484418600,5.22641845703125,-0.606353759765625,0.00921630859375,0.8258514404296875
1686445580494435800,5.236435791015625,-0.63232421875,0.021484375,0.8252716064453125
1686445580504452600,5.24645263671875,-0.647796630859375,0.0252227783203125,0.823150634765625
1686445580514469600,5.2564697265625,-0.6499176025390625,0.0168609619140625,0.8134002685546875
1686445580524486700,5.266486572265625,-0.6229248046875,0.005462646484375,0.8044281005859375
1686445580534503700,5.276503662109375,-0.57562255859375,0.005035400390625,0.81146240234375
1686445580544520700,5.286520751953125,-0.5288848876953125,0.008209228515625,0.8264007568359375
1686445580554536700,5.29653662109375,-0.4956817626953125,0.0105438232421875,0.835662841796875
1686445580564553700,5.3065537109375,-0.4777374267578125,0.014556884765625,0.83990478515625
1686445580574570800,5.31657080078125,-0.47296142578125,0.0190887451171875,0.84246826171875
1686445580584587500,5.32658740234375,-0.4826812744140625,0.024139404296875,0.84405517578125
1686445580594604800,5.336604736328125,-0.505767822265625,0.02838134765625,0.845428466796875
1686445580604621600,5.34662158203125,-0.53399658203125,0.0299224853515625,0.8464202880859375
1686445580614638600,5.356638671875,-0.5574798583984375,0.028533935546875,0.845123291015625
1686445580624654800,5.36665478515625,-0.571441650390625,0.0275421142578125,0.84173583984375
1686445580634671600,5.376671630859375,-0.5740509033203125,0.0261077880859375,0.8392333984375
1686445580644688600,5.386688720703125,-0.56781005859375,0.0243682861328125,0.8367156982421875
1686445580654705700,5.39670556640625,-0.5565948486328125,0.025238037109375,0.8315582275390625
1686445580664722700,5.40672265625,-0.545257568359375,0.02593994140625,0.8294525146484375
1686445580674739700,5.41673974609375,-0.5393218994140625,0.0268707275390625,0.833099365234375
1686445580684756700,5.4267568359375,-0.535919189453125,0.0292510986328125,0.838958740234375
1686445580694773800,5.436773681640625,-0.537109375,0.0327301025390625,0.8435516357421875
1686445580704789800,5.446789794921875,-0.5382080078125,0.0358123779296875,0.8456573486328125
1686445580714806500,5.456806640625,-0.53765869140625,0.03558349609375,0.8483428955078125
1686445580724823800,5.46682373046875,-0.53271484375,0.0345306396484375,0.8489227294921875
1686445580734840600,5.476840576171875,-0.5268707275390625,0.0328369140625,0.84527587890625
1686445580744857900,5.48685791015625,-0.5223541259765625,0.033294677734375,0.840576171875
1686445580754874600,5.49687451171875,-0.52093505859375,0.033721923828125,0.8382720947265625
1686445580764891100,5.50689111328125,-0.5243072509765625,0.0343475341796875,0.836334228515625
1686445580774907100,5.5169072265625,-0.531158447265625,0.03350830078125,0.8392486572265625
1686445580784924000,5.526923828125,-0.5406951904296875,0.032928466796875,0.8426361083984375
1686445580794941000,5.53694091796875,-0.5455322265625,0.030670166015625,0.845062255859375
1686445580804958200,5.546958251953125,-0.5443878173828125,0.02777099609375,0.8443756103515625
1686445580814975000,5.55697509765625,-0.5397796630859375,0.02752685546875,0.8445892333984375
1686445580824992000,5.566991943359375,-0.532989501953125,0.024505615234375,0.8439788818359375
1686445580835009000,5.577009033203125,-0.5287322998046875,0.0211181640625,0.842254638671875
1686445580845025000,5.58702490234375,-0.5277252197265625,0.017974853515625,0.8408355712890625
1686445580855042000,5.5970419921875,-0.531494140625,0.015380859375,0.837860107421875
1686445580865059000,5.60705908203125,-0.5381317138671875,0.0140533447265625,0.8335113525390625
1686445580875076000,5.617076171875,-0.547119140625,0.015838623046875,0.830718994140625
1686445580885092900,5.6270927734375,-0.5555572509765625,0.01690673828125,0.828277587890625
1686445580895110100,5.637110107421875,-0.564605712890625,0.0186614990234375,0.825164794921875
1686445580905127200,5.647127197265625,-0.5719757080078125,0.018524169921875,0.8229217529296875
1686445580915144000,5.65714404296875,-0.5793914794921875,0.0181427001953125,0.8231964111328125
1686445580925160000,5.667159912109375,-0.583831787109375,0.017181396484375,0.8250732421875
1686445580935177000,5.677177001953125,-0.5831146240234375,0.0170745849609375,0.8288726806640625
1686445580945194000,5.687194091796875,-0.577850341796875,0.017547607421875,0.8315277099609375
1686445580955211300,5.697211181640625,-0.5713348388671875,0.01885986328125,0.8350677490234375
1686445580965228000,5.70722802734375,-0.5637969970703125,0.0208587646484375,0.8350067138671875
1686445580975245000,5.7172451171875,-0.5587158203125,0.0236053466796875,0.833251953125
1686445580985262000,5.727261962890625,-0.55877685546875,0.0251922607421875,0.830963134765625
1686445580995278000,5.737278076171875,-0.5596771240234375,0.024627685546875,0.8302764892578125
1686445581005295000,5.747295166015625,-0.5629119873046875,0.0238494873046875,0.830902099609375
1686445581015312000,5.757311767578125,-0.561920166015625,0.0215911865234375,0.8319091796875
1686445581025329200,5.7673291015625,-0.5594329833984375,0.01861572265625,0.8309326171875
1686445581035346000,5.777345947265625,-0.5556793212890625,0.01544189453125,0.828826904296875
1686445581045363000,5.787363037109375,-0.5515594482421875,0.0145111083984375,0.82598876953125
1686445581055380200,5.797380126953125,-0.5472412109375,0.0156097412109375,0.8258819580078125
1686445581065397000,5.80739697265625,-0.5445098876953125,0.0164794921875,0.82684326171875
1686445581075413000,5.8174130859375,-0.542816162109375,0.0160675048828125,0.827850341796875
1686445581085430300,5.82743017578125,-0.5404205322265625,0.0167999267578125,0.8306427001953125
1686445581095447000,5.837447021484375,-0.5407562255859375,0.0179595947265625,0.8347930908203125
1686445581105464000,5.847464111328125,-0.5438385009765625,0.01953125,0.8371429443359375
1686445581115481000,5.857481201171875,-0.5471343994140625,0.022216796875,0.83642578125
1686445581125498000,5.867498046875,-0.5468292236328125,0.0238189697265625,0.8358612060546875
1686445581135515000,5.877514892578125,-0.54559326171875,0.02532958984375,0.8349761962890625
1686445581145532200,5.8875322265625,-0.543365478515625,0.0255126953125,0.833343505859375
1686445581155548200,5.897548095703125,-0.53887939453125,0.02545166015625,0.8336944580078125
1686445581165565000,5.90756494140625,-0.5348968505859375,0.0247955322265625,0.83538818359375
1686445581175582000,5.91758203125,-0.5347442626953125,0.023345947265625,0.83831787109375
1686445581185599000,5.927598876953125,-0.5401458740234375,0.0238037109375,0.8399505615234375
1686445581195616000,5.937615966796875,-0.54608154296875,0.0208587646484375,0.83819580078125
1686445581205633300,5.94763330078125,-0.5525970458984375,0.0189971923828125,0.8354949951171875
1686445581215650000,5.957650146484375,-0.556121826171875,0.0197601318359375,0.8341064453125
1686445581225666000,5.967666015625,-0.55718994140625,0.0203399658203125,0.8328704833984375
1686445581235683000,5.97768310546875,-0.557403564453125,0.021514892578125,0.832794189453125
1686445581245700000,5.9877001953125,-0.557891845703125,0.0216064453125,0.834564208984375
1686445581255717000,5.997717041015625,-0.5578155517578125,0.0213623046875,0.8368988037109375
1686445581265734000,6.00773388671875,-0.5584716796875,0.0213470458984375,0.8382110595703125
1686445581275751200,6.017751220703125,-0.559326171875,0.019622802734375,0.83740234375
1686445581285768000,6.027767822265625,-0.560546875,0.0203094482421875,0.834442138671875
1686445581295784000,6.037783935546875,-0.5594635009765625,0.0196075439453125,0.8318023681640625
1686445581305801200,6.04780126953125,-0.5585479736328125,0.01776123046875,0.830841064453125
1686445581315818000,6.05781787109375,-0.555084228515625,0.0183563232421875,0.8298492431640625
1686445581325835000,6.0678349609375,-0.5503082275390625,0.0178680419921875,0.830352783203125
1686445581335852000,6.07785205078125,-0.547210693359375,0.017059326171875,0.829742431640625
1686445581345869000,6.087869140625,-0.546966552734375,0.016571044921875,0.8302154541015625
1686445581355886000,6.097885986328125,-0.5501708984375,0.01641845703125,0.8308258056640625
1686445581365903000,6.107903076171875,-0.55462646484375,0.0165252685546875,0.8310089111328125
1686445581375919000,6.117919189453125,-0.55792236328125,0.01666259765625,0.829071044921875
1686445581385936100,6.12793603515625,-0.55804443359375,0.0164337158203125,0.8268585205078125
1686445581395953000,6.137952880859375,-0.5548095703125,0.0161285400390625,0.8257598876953125
1686445581405970200,6.14797021484375,-0.552154541015625,0.0175018310546875,0.8271026611328125
1686445581415987000,6.157987060546875,-0.5469818115234375,0.0198516845703125,0.8261566162109375
1686445581426004000,6.16800390625,-0.54388427734375,0.020843505859375,0.8269500732421875
1686445581436021000,6.17802099609375,-0.54425048828125,0.02130126953125,0.82855224609375
1686445581446038000,6.1880380859375,-0.5473175048828125,0.021484375,0.82977294921875
1686445581456054000,6.198053955078125,-0.54998779296875,0.021240234375,0.8323822021484375
1686445581466071000,6.208071044921875,-0.552490234375,0.020904541015625,0.8336639404296875
1686445581476088000,6.218088134765625,-0.55218505859375,0.0192108154296875,0.8336639404296875
1686445581486105000,6.22810498046875,-0.5512847900390625,0.01837158203125,0.834564208984375
1686445581496122000,6.2381220703125,-0.5509490966796875,0.0184478759765625,0.83599853515625
1686445581506139100,6.24813916015625,-0.550872802734375,0.0185394287109375,0.8375701904296875
1686445581516156000,6.258156005859375,-0.55218505859375,0.019378662109375,0.8359222412109375
1686445581526172200,6.268172119140625,-0.552734375,0.020172119140625,0.833160400390625
1686445581536189200,6.278189208984375,-0.55218505859375,0.0199432373046875,0.828704833984375
1686445581546206000,6.2882060546875,-0.5515289306640625,0.0184173583984375,0.82977294921875
1686445581556223200,6.29822314453125,-0.5512847900390625,0.019439697265625,0.832672119140625
1686445581566240000,6.308239990234375,-0.5487213134765625,0.01947021484375,0.8344573974609375
1686445581576257000,6.318257080078125,-0.5482635498046875,0.01885986328125,0.836151123046875
1686445581586274000,6.328274169921875,-0.5505218505859375,0.0186309814453125,0.8379058837890625
1686445581596290000,6.3382900390625,-0.5532379150390625,0.0189666748046875,0.8379364013671875
1686445581606307000,6.34830712890625,-0.5579986572265625,0.0187225341796875,0.8375396728515625
1686445581616323800,6.35832373046875,-0.5594482421875,0.0175323486328125,0.8360748291015625
1686445581626341000,6.368341064453125,-0.55609130859375,0.0178070068359375,0.8328857421875
1686445581636358100,6.378358154296875,-0.5539093017578125,0.0194854736328125,0.831329345703125
1686445581646375000,6.388375,-0.553436279296875,0.0198822021484375,0.8316192626953125
1686445581656392200,6.39839208984375,-0.5513458251953125,0.01806640625,0.83160400390625
1686445581666409000,6.408408935546875,-0.55010986328125,0.0184478759765625,0.8313446044921875
1686445581676425000,6.418425048828125,-0.5521392822265625,0.01885986328125,0.8324127197265625
1686445581686442200,6.428442138671875,-0.5526885986328125,0.0190887451171875,0.8338775634765625
1686445581696459000,6.438458984375,-0.554229736328125,0.017974853515625,0.83135986328125
1686445581706476000,6.44847607421875,-0.5529327392578125,0.0180511474609375,0.8264923095703125
1686445581716493000,6.4584931640625,-0.5504608154296875,0.0167236328125,0.8242950439453125
1686445581726510000,6.468510009765625,-0.54962158203125,0.0165252685546875,0.8228759765625
1686445581736526800,6.47852685546875,-0.548828125,0.018035888671875,0.82342529296875
1686445581746544000,6.488544189453125,-0.548919677734375,0.017059326171875,0.824615478515625
1686445581756560100,6.49856005859375,-0.5502471923828125,0.0161590576171875,0.8272552490234375
1686445581766577200,6.5085771484375,-0.5519561767578125,0.016815185546875,0.8294830322265625
1686445581776594200,6.51859423828125,-0.5538330078125,0.01708984375,0.831878662109375
1686445581786611200,6.528611083984375,-0.5571441650390625,0.0174407958984375,0.832794189453125
1686445581796628200,6.538628173828125,-0.5582427978515625,0.0175933837890625,0.83380126953125
1686445581806645200,6.548645263671875,-0.5581207275390625,0.0166015625,0.834869384765625
1686445581816662000,6.558662109375,-0.5576934814453125,0.0166778564453125,0.8350830078125
1686445581826678300,6.56867822265625,-0.5568389892578125,0.01800537109375,0.8329620361328125
1686445581836695300,6.5786953125,-0.5542755126953125,0.0185546875,0.8335113525390625
1686445581846712000,6.588712158203125,-0.5523529052734375,0.01995849609375,0.833404541015625
1686445581856729300,6.598729248046875,-0.5517120361328125,0.019927978515625,0.8341522216796875
1686445581866746000,6.60874609375,-0.5541229248046875,0.0187530517578125,0.834503173828125
1686445581876763100,6.61876318359375,-0.553955078125,0.0173797607421875,0.8339691162109375
1686445581886780200,6.6287802734375,-0.552886962890625,0.0167694091796875,0.8321990966796875
1686445581896797200,6.638797119140625,-0.5528411865234375,0.0171051025390625,0.83184814453125
1686445581906813200,6.648813232421875,-0.5532684326171875,0.01806640625,0.832275390625
1686445581916830000,6.658829833984375,-0.5516357421875,0.0186920166015625,0.832763671875
1686445581926847200,6.66884716796875,-0.5513763427734375,0.017547607421875,0.833709716796875
1686445581936864300,6.6788642578125,-0.551177978515625,0.017059326171875,0.833038330078125
1686445581946881000,6.688881103515625,-0.550079345703125,0.0176239013671875,0.8337554931640625
1686445581956898300,6.698898193359375,-0.550506591796875,0.018768310546875,0.8338623046875
1686445581966915000,6.7089150390625,-0.5504302978515625,0.018646240234375,0.8339691162109375
1686445581976931000,6.71893115234375,-0.5499267578125,0.019012451171875,0.83245849609375
1686445581986948400,6.7289482421875,-0.5516510009765625,0.0179290771484375,0.8302154541015625
1686445581996965000,6.738965087890625,-0.551361083984375,0.0181732177734375,0.8289337158203125
1686445582006982100,6.748982177734375,-0.5499267578125,0.0184173583984375,0.829071044921875
1686445582016999200,6.758999267578125,-0.5491943359375,0.0172271728515625,0.82891845703125
1686445582027016200,6.76901611328125,-0.549957275390625,0.01806640625,0.8278350830078125
1686445582037033000,6.779032958984375,-0.5506134033203125,0.016876220703125,0.8284912109375
1686445582047050200,6.78905029296875,-0.5533447265625,0.015411376953125,0.8301239013671875
1686445582057066200,6.799066162109375,-0.5538177490234375,0.0159149169921875,0.830841064453125
1686445582067083000,6.8090830078125,-0.555023193359375,0.0158233642578125,0.830718994140625
1686445582077100300,6.819100341796875,-0.5547637939453125,0.0168609619140625,0.83197021484375
1686445582087117300,6.829117431640625,-0.5543670654296875,0.0175933837890625,0.832000732421875
1686445582097134000,6.839134033203125,-0.554443359375,0.01690673828125,0.83331298828125
1686445582107151400,6.8491513671875,-0.5540618896484375,0.0170440673828125,0.83441162109375
1686445582117168000,6.859168212890625,-0.5549468994140625,0.018280029296875,0.833465576171875
1686445582127184100,6.86918408203125,-0.5547943115234375,0.0187835693359375,0.8330230712890625
1686445582137201200,6.879201171875,-0.555145263671875,0.019134521484375,0.8323516845703125
1686445582147218200,6.88921826171875,-0.555511474609375,0.0182342529296875,0.8317413330078125
1686445582157235200,6.899235107421875,-0.555755615234375,0.0177764892578125,0.8316802978515625
1686445582167252000,6.909251953125,-0.5546417236328125,0.0169525146484375,0.83111572265625
1686445582177269200,6.919269287109375,-0.5523529052734375,0.017425537109375,0.8309783935546875
1686445582187286000,6.9292861328125,-0.5511474609375,0.0167694091796875,0.8314056396484375
1686445582197303000,6.939302978515625,-0.549957275390625,0.017425537109375,0.8323822021484375
1686445582207319300,6.9493193359375,-0.551727294921875,0.017547607421875,0.833709716796875
1686445582217336000,6.959336181640625,-0.552093505859375,0.01806640625,0.8331146240234375
1686445582227353000,6.96935302734375,-0.551544189453125,0.0178680419921875,0.8316650390625
1686445582237370400,6.979370361328125,-0.5527496337890625,0.018646240234375,0.83099365234375
1686445582247387100,6.98938720703125,-0.553985595703125,0.0204315185546875,0.8336944580078125
1686445582257404200,6.999404052734375,-0.5547943115234375,0.0191650390625,0.8332672119140625
1686445582267421200,7.009421142578125,-0.553131103515625,0.018341064453125,0.8297119140625
1686445582277437200,7.019437255859375,-0.5522308349609375,0.01690673828125,0.830352783203125
1686445582287454200,7.0294541015625,-0.5511322021484375,0.01806640625,0.83258056640625
1686445582297471200,7.03947119140625,-0.551300048828125,0.018829345703125,0.834381103515625
1686445582307488300,7.04948828125,-0.552154541015625,0.0178070068359375,0.83343505859375
1686445582317505000,7.059505126953125,-0.5539093017578125,0.01593017578125,0.8317413330078125
1686445582327522300,7.069522216796875,-0.555206298828125,0.0158233642578125,0.832244873046875
1686445582337539000,7.0795390625,-0.555450439453125,0.017333984375,0.831268310546875
1686445582347555000,7.08955517578125,-0.5543670654296875,0.018280029296875,0.8303375244140625
1686445582357572000,7.099572021484375,-0.5538177490234375,0.01812744140625,0.8300018310546875
1686445582367589000,7.109589111328125,-0.553436279296875,0.0177459716796875,0.8289031982421875
1686445582377606100,7.119606201171875,-0.5526885986328125,0.0159912109375,0.8271026611328125
1686445582387623200,7.129623046875,-0.5516815185546875,0.017486572265625,0.82696533203125
1686445582397640200,7.13964013671875,-0.552001953125,0.01861572265625,0.8293304443359375
1686445582407657200,7.1496572265625,-0.5516357421875,0.01971435546875,0.829315185546875
1686445582417674000,7.159674072265625,-0.5521087646484375,0.0192413330078125,0.828887939453125
1686445582427690200,7.169690185546875,-0.55413818359375,0.0200653076171875,0.8305206298828125
1686445582437707300,7.179707275390625,-0.555938720703125,0.0201416015625,0.8308868408203125
1686445582447724000,7.18972412109375,-0.55682373046875,0.01922607421875,0.831024169921875
1686445582457741300,7.1997412109375,-0.5560760498046875,0.019134521484375,0.830902099609375
1686445582467758000,7.209758056640625,-0.55499267578125,0.0174560546875,0.8313751220703125
1686445582477775000,7.219775146484375,-0.5540008544921875,0.01702880859375,0.830474853515625
1686445582487792000,7.229792236328125,-0.55352783203125,0.017578125,0.8296051025390625
1686445582497809200,7.23980908203125,-0.5522308349609375,0.01824951171875,0.8303070068359375
1686445582507825200,7.2498251953125,-0.5528564453125,0.0172119140625,0.8304443359375
1686445582517842200,7.25984228515625,-0.5525054931640625,0.0167694091796875,0.830322265625
1686445582527859200,7.269859130859375,-0.5520477294921875,0.016265869140625,0.830657958984375
1686445582537876200,7.279876220703125,-0.553009033203125,0.0166168212890625,0.831146240234375
1686445582547893200,7.289893310546875,-0.5536346435546875,0.0165252685546875,0.8311767578125
1686445582557910300,7.29991015625,-0.5541534423828125,0.0172882080078125,0.8302154541015625
1686445582567927000,7.309927001953125,-0.5540771484375,0.018035888671875,0.8309173583984375
1686445582577943000,7.319943115234375,-0.5547943115234375,0.0194854736328125,0.8319549560546875
1686445582587960300,7.329960205078125,-0.55462646484375,0.0203704833984375,0.8329925537109375
1686445582597977000,7.33997705078125,-0.5544281005859375,0.019775390625,0.834503173828125
1686445582607994000,7.349994140625,-0.55377197265625,0.0200042724609375,0.834747314453125
1686445582618011100,7.36001123046875,-0.55419921875,0.0185546875,0.8338775634765625
1686445582628028200,7.370028076171875,-0.5539398193359375,0.0185699462890625,0.8317413330078125
1686445582638045200,7.380045166015625,-0.5538787841796875,0.018310546875,0.82977294921875
1686445582648062200,7.390062255859375,-0.55340576171875,0.017852783203125,0.8289947509765625
1686445582658078200,7.400078125,-0.5538787841796875,0.0174407958984375,0.8292236328125
1686445582668095200,7.41009521484375,-0.5535125732421875,0.0182342529296875,0.82965087890625
1686445582678112300,7.4201123046875,-0.5526885986328125,0.01800537109375,0.829681396484375
1686445582688129300,7.43012939453125,-0.5523681640625,0.0180206298828125,0.830291748046875
1686445582698146000,7.44014599609375,-0.5520172119140625,0.0178375244140625,0.8306884765625
1686445582708163300,7.450163330078125,-0.5535125732421875,0.0184478759765625,0.8320465087890625
1686445582718180000,7.46018017578125,-0.5548553466796875,0.01904296875,0.83172607421875
1686445582728196000,7.470196044921875,-0.5553131103515625,0.0195465087890625,0.832122802734375
1686445582738213000,7.480213134765625,-0.5553131103515625,0.0195159912109375,0.830169677734375
1686445582748230100,7.490230224609375,-0.55413818359375,0.0191497802734375,0.82904052734375
1686445582758247200,7.5002470703125,-0.5551300048828125,0.0198516845703125,0.8291473388671875
1686445582768264400,7.510264404296875,-0.5548553466796875,0.01959228515625,0.8292999267578125
1686445582778281500,7.520281494140625,-0.5532684326171875,0.0192718505859375,0.8288116455078125
1686445582788298500,7.530298583984375,-0.5531158447265625,0.017852783203125,0.829437255859375
1686445582798315500,7.5403154296875,-0.5543670654296875,0.0186767578125,0.8310394287109375
1686445582808331500,7.55033154296875,-0.5557403564453125,0.0187225341796875,0.8319244384765625
1686445582818348300,7.560348388671875,-0.5559844970703125,0.0177001953125,0.8318023681640625
1686445582828365600,7.570365478515625,-0.55560302734375,0.0185089111328125,0.8319854736328125
1686445582838382600,7.580382568359375,-0.5551605224609375,0.018341064453125,0.82916259765625
1686445582848399400,7.5903994140625,-0.5540771484375,0.0192413330078125,0.8292999267578125
1686445582858416600,7.600416748046875,-0.5534210205078125,0.01971435546875,0.83135986328125
1686445582868433400,7.610433349609375,-0.552886962890625,0.0201873779296875,0.8316802978515625
1686445582878450400,7.620450439453125,-0.5545501708984375,0.0195159912109375,0.8315887451171875
1686445582888466400,7.630466552734375,-0.5559539794921875,0.0182952880859375,0.8314666748046875
1686445582898483500,7.6404833984375,-0.555877685546875,0.01959228515625,0.83154296875
1686445582908500500,7.65050048828125,-0.5550079345703125,0.01873779296875,0.831573486328125
1686445582918517200,7.660517333984375,-0.55389404296875,0.0182647705078125,0.83099365234375
1686445582928534500,7.670534423828125,-0.5552825927734375,0.019195556640625,0.8303985595703125
1686445582938551600,7.680551513671875,-0.5541229248046875,0.0199127197265625,0.82958984375
1686445582948568300,7.690568359375,-0.554534912109375,0.020355224609375,0.8294830322265625
1686445582958584600,7.70058447265625,-0.5549468994140625,0.020294189453125,0.8287353515625
1686445582968601300,7.710601318359375,-0.555084228515625,0.0199432373046875,0.8301544189453125
1686445582978618400,7.720618408203125,-0.55517578125,0.01947021484375,0.8306732177734375
1686445582988635600,7.7306357421875,-0.5548858642578125,0.01947021484375,0.8302154541015625
1686445582998652400,7.74065234375,-0.5537567138671875,0.020050048828125,0.8301239013671875
1686445583008669400,7.75066943359375,-0.553558349609375,0.01898193359375,0.8293609619140625
1686445583018686500,7.7606865234375,-0.5544891357421875,0.018646240234375,0.829193115234375
1686445583028703500,7.770703369140625,-0.553955078125,0.0194091796875,0.82989501953125
1686445583038719500,7.780719482421875,-0.5543670654296875,0.0197906494140625,0.8295135498046875
1686445583048736500,7.790736572265625,-0.554534912109375,0.0199432373046875,0.8296966552734375
1686445583058753500,7.80075341796875,-0.5568084716796875,0.019805908203125,0.8296661376953125
1686445583068770300,7.810770263671875,-0.55828857421875,0.020172119140625,0.8296051025390625
1686445583078787600,7.82078759765625,-0.5577850341796875,0.019500732421875,0.8304595947265625
1686445583088804600,7.8308046875,-0.55743408203125,0.020416259765625,0.8297271728515625
1686445583098821400,7.8408212890625,-0.5560760498046875,0.0193634033203125,0.82952880859375
1686445583108837400,7.85083740234375,-0.555145263671875,0.02008056640625,0.8307342529296875
1686445583118854400,7.8608544921875,-0.5532073974609375,0.019622802734375,0.8307037353515625
1686445583128871400,7.870871337890625,-0.5537567138671875,0.01959228515625,0.8312530517578125
1686445583138888400,7.880888427734375,-0.5523223876953125,0.02001953125,0.832061767578125
1686445583148905500,7.890905517578125,-0.5545654296875,0.02069091796875,0.8311309814453125
1686445583158922500,7.900922607421875,-0.5564422607421875,0.02081298828125,0.8296051025390625
1686445583168939300,7.910939208984375,-0.5569915771484375,0.02093505859375,0.8289794921875
1686445583178956500,7.92095654296875,-0.5585174560546875,0.0206298828125,0.8288421630859375
1686445583188972500,7.93097265625,-0.557373046875,0.01904296875,0.8285675048828125
1686445583198989300,7.9409892578125,-0.5557708740234375,0.0184478759765625,0.8284759521484375
1686445583209006600,7.951006591796875,-0.5542755126953125,0.01788330078125,0.830535888671875
1686445583219023400,7.9610234375,-0.554229736328125,0.018096923828125,0.8313446044921875
1686445583229040400,7.971040283203125,-0.5542449951171875,0.0194854736328125,0.8316802978515625
1686445583239057700,7.9810576171875,-0.5536956787109375,0.0206298828125,0.8307952880859375
1686445583249074400,7.991074462890625,-0.5555572509765625,0.0218048095703125,0.8309783935546875
1686445583259091500,8.001091552734374,-0.5560150146484375,0.0230255126953125,0.8285369873046875
1686445583269107500,8.011107421875,-0.554595947265625,0.024169921875,0.827911376953125
1686445583279124500,8.02112451171875,-0.5545196533203125,0.02313232421875,0.829498291015625
1686445583289141500,8.0311416015625,-0.55572509765625,0.0221099853515625,0.830108642578125
1686445583299158500,8.041158447265625,-0.5567626953125,0.0217742919921875,0.830474853515625
1686445583309175600,8.051175537109375,-0.556884765625,0.0214080810546875,0.8306732177734375
1686445583319192300,8.0611923828125,-0.5581817626953125,0.019989013671875,0.831787109375
1686445583329209600,8.071209716796876,-0.5585479736328125,0.0197296142578125,0.8311920166015625
1686445583339225600,8.0812255859375,-0.5593719482421875,0.018798828125,0.8315887451171875
1686445583349242400,8.091242431640625,-0.559295654296875,0.017333984375,0.8311767578125
1686445583359259400,8.10125927734375,-0.55657958984375,0.0182342529296875,0.8298492431640625
1686445583369276400,8.1112763671875,-0.554840087890625,0.0196990966796875,0.8281707763671875
1686445583379293400,8.12129345703125,-0.5550537109375,0.019927978515625,0.82855224609375
1686445583389310500,8.131310546875,-0.554412841796875,0.0207366943359375,0.8295745849609375
1686445583399327500,8.141327392578125,-0.5552978515625,0.0202484130859375,0.829193115234375
1686445583409344500,8.151344482421875,-0.553955078125,0.0196990966796875,0.829132080078125
1686445583419360500,8.161360595703124,-0.553497314453125,0.019287109375,0.8292236328125
1686445583429377500,8.17137744140625,-0.5535125732421875,0.0206298828125,0.8268585205078125
1686445583439394600,8.18139453125,-0.554290771484375,0.02154541015625,0.8267822265625
1686445583449411300,8.191411376953125,-0.5556488037109375,0.0225067138671875,0.8265533447265625
1686445583459428600,8.2014287109375,-0.5580291748046875,0.02276611328125,0.825103759765625
1686445583469445400,8.2114453125,-0.55828857421875,0.0226593017578125,0.826202392578125
1686445583479462400,8.22146240234375,-0.5583038330078125,0.0224609375,0.826995849609375
1686445583489479400,8.2314794921875,-0.558990478515625,0.02325439453125,0.828460693359375
1686445583499495400,8.241495361328125,-0.55816650390625,0.0225830078125,0.829010009765625
1686445583509512400,8.251512451171875,-0.5571746826171875,0.0211639404296875,0.8296356201171875
1686445583519529200,8.261529296875,-0.5581512451171875,0.0206451416015625,0.8309173583984375
1686445583529546500,8.27154638671875,-0.5576171875,0.0201568603515625,0.8292694091796875
1686445583539563500,8.2815634765625,-0.5564422607421875,0.0201263427734375,0.8288726806640625
1686445583549580500,8.29158056640625,-0.555084228515625,0.02056884765625,0.8288726806640625
1686445583559597600,8.30159765625,-0.55316162109375,0.020233154296875,0.828582763671875
1686445583569613600,8.311613525390625,-0.55255126953125,0.02099609375,0.828948974609375
1686445583579630300,8.32163037109375,-0.5540924072265625,0.020751953125,0.828155517578125
1686445583589647600,8.331647705078124,-0.55487060546875,0.020782470703125,0.8290252685546875
1686445583599664400,8.341664306640626,-0.5574493408203125,0.0209197998046875,0.828765869140625
1686445583609681400,8.351681396484375,-0.558380126953125,0.021636962890625,0.8300018310546875
1686445583619698400,8.361698486328125,-0.5592193603515625,0.0216827392578125,0.831390380859375
1686445583629715500,8.371715576171875,-0.5592803955078125,0.0217437744140625,0.831268310546875
1686445583639732500,8.381732421875,-0.55914306640625,0.0211944580078125,0.83184814453125
1686445583649748500,8.39174853515625,-0.5583953857421875,0.021820068359375,0.830810546875
1686445583659765500,8.401765625,-0.5572662353515625,0.0224761962890625,0.8299102783203125
1686445583669782500,8.411782470703125,-0.557586669921875,0.0212554931640625,0.8292694091796875
1686445583679799600,8.421799560546875,-0.557861328125,0.0200653076171875,0.828460693359375
1686445583689816600,8.431816650390624,-0.5564727783203125,0.0207061767578125,0.8273162841796875
1686445583699833300,8.441833251953126,-0.555328369140625,0.0206146240234375,0.8267669677734375
1686445583709850600,8.4518505859375,-0.5552520751953125,0.0218963623046875,0.827362060546875
1686445583719867400,8.461867431640625,-0.5545501708984375,0.0217742919921875,0.8279266357421875
1686445583729883400,8.47188330078125,-0.5549163818359375,0.02191162109375,0.8282318115234375
1686445583739900400,8.481900390625,-0.5561370849609375,0.0227203369140625,0.8280487060546875
1686445583749917400,8.49191748046875,-0.55670166015625,0.0218505859375,0.829254150390625
1686445583759934500,8.5019345703125,-0.5587310791015625,0.0223388671875,0.828521728515625
1686445583769951200,8.511951171875,-0.55853271484375,0.0229949951171875,0.8276214599609375
1686445583779968300,8.52196826171875,-0.557342529296875,0.02203369140625,0.82696533203125
1686445583789985300,8.5319853515625,-0.5568695068359375,0.0212860107421875,0.826904296875
1686445583800001300,8.542001220703124,-0.555389404296875,0.021484375,0.8274383544921875
1686445583810018300,8.552018310546876,-0.5540771484375,0.0218353271484375,0.8279266357421875
1686445583820035300,8.562035400390625,-0.553863525390625,0.0207366943359375,0.8286285400390625
1686445583830052400,8.57205224609375,-0.5547943115234375,0.019317626953125,0.8282012939453125
1686445583840069400,8.5820693359375,-0.555389404296875,0.020172119140625,0.82855224609375
1686445583850086100,8.592086181640624,-0.5578155517578125,0.019775390625,0.828948974609375
1686445583860103400,8.602103515625,-0.558074951171875,0.01995849609375,0.828216552734375
1686445583870120200,8.6121201171875,-0.55859375,0.0200347900390625,0.8275146484375
1686445583880136200,8.62213623046875,-0.5595703125,0.020355224609375,0.829315185546875
1686445583890153500,8.632153564453125,-0.5613250732421875,0.0207672119140625,0.828948974609375
1686445583900170200,8.642170166015624,-0.5605621337890625,0.0222625732421875,0.828826904296875
1686445583910187300,8.652187255859374,-0.5586700439453125,0.022064208984375,0.8317108154296875
1686445583920204300,8.662204345703126,-0.5578765869140625,0.0216064453125,0.8317108154296875
1686445583930221300,8.67222119140625,-0.556884765625,0.02081298828125,0.8306121826171875
1686445583940238300,8.68223828125,-0.5563201904296875,0.0206298828125,0.830322265625
1686445583950255400,8.69225537109375,-0.5565643310546875,0.021087646484375,0.829193115234375
1686445583960271400,8.702271240234374,-0.5568695068359375,0.0210418701171875,0.8297271728515625
1686445583970288400,8.712288330078126,-0.5551910400390625,0.021148681640625,0.82952880859375
1686445583980305200,8.72230517578125,-0.554473876953125,0.0222320556640625,0.828277587890625
1686445583990322400,8.732322509765625,-0.552398681640625,0.0226898193359375,0.82830810546875
1686445584000339200,8.742339111328125,-0.5537261962890625,0.0213623046875,0.828216552734375
1686445584010356200,8.752356201171875,-0.5533599853515625,0.02105712890625,0.82806396484375
1686445584020373200,8.762373291015624,-0.5551910400390625,0.02142333984375,0.8272705078125
1686445584030390300,8.772390380859376,-0.5566253662109375,0.0204010009765625,0.8285369873046875
1686445584040406300,8.78240625,-0.5554046630859375,0.0201568603515625,0.8282318115234375
1686445584050423300,8.79242333984375,-0.5551605224609375,0.0196533203125,0.826324462890625
1686445584060440300,8.8024404296875,-0.5566253662109375,0.0206298828125,0.828125
1686445584070457300,8.812457275390624,-0.55706787109375,0.0208892822265625,0.8280029296875
1686445584080474400,8.822474365234376,-0.5563201904296875,0.0212249755859375,0.829132080078125
1686445584090491400,8.832491455078125,-0.5570220947265625,0.0211181640625,0.82958984375
1686445584100508200,8.842508056640625,-0.557769775390625,0.020843505859375,0.8310089111328125
1686445584110524200,8.852524169921875,-0.5570220947265625,0.0202484130859375,0.830291748046875
1686445584120541400,8.86254150390625,-0.558074951171875,0.019683837890625,0.829620361328125
1686445584130558200,8.87255810546875,-0.558319091796875,0.0203857421875,0.8271636962890625
1686445584140575500,8.882575439453126,-0.5587921142578125,0.01959228515625,0.827239990234375
1686445584150592300,8.89259228515625,-0.5579071044921875,0.02032470703125,0.827239990234375
1686445584160609300,8.902609375,-0.557525634765625,0.0196380615234375,0.827850341796875
1686445584170626300,8.912626220703125,-0.5566864013671875,0.019134521484375,0.82861328125
1686445584180643300,8.922643310546874,-0.55810546875,0.018341064453125,0.8295745849609375
1686445584190659300,8.932659423828126,-0.5582122802734375,0.0189208984375,0.830291748046875
1686445584200676000,8.942676025390625,-0.5587005615234375,0.0190582275390625,0.8308563232421875
1686445584210693400,8.952693359375,-0.557220458984375,0.020233154296875,0.83111572265625
1686445584220710400,8.96271044921875,-0.55615234375,0.0201873779296875,0.8310089111328125
1686445584230727200,8.97272705078125,-0.5557861328125,0.0212249755859375,0.8310699462890625
1686445584240744400,8.982744384765626,-0.55438232421875,0.022491455078125,0.8291168212890625
1686445584250761200,8.99276123046875,-0.5550994873046875,0.0242462158203125,0.8289642333984375
1686445584260778200,9.0027783203125,-0.5558319091796875,0.0235748291015625,0.827789306640625
1686445584270794500,9.01279443359375,-0.556884765625,0.0238494873046875,0.8289794921875
1686445584280811300,9.022811279296874,-0.55596923828125,0.0238800048828125,0.830108642578125
1686445584290828300,9.032828369140624,-0.556243896484375,0.0227813720703125,0.829681396484375
1686445584300845300,9.04284521484375,-0.5567474365234375,0.021881103515625,0.830718994140625
1686445584310862300,9.0528623046875,-0.5563201904296875,0.021148681640625,0.831298828125
1686445584320879000,9.062879150390625,-0.5579833984375,0.0194854736328125,0.8323211669921875
1686445584330896400,9.072896484375,-0.558319091796875,0.0187225341796875,0.831390380859375
1686445584340912400,9.082912353515624,-0.5577239990234375,0.0176544189453125,0.8295135498046875
1686445584350929200,9.09292919921875,-0.5576629638671875,0.0171356201171875,0.827850341796875
1686445584360946200,9.1029462890625,-0.557281494140625,0.0179595947265625,0.8274993896484375
1686445584370963500,9.11296337890625,-0.555908203125,0.0187225341796875,0.8267669677734375
1686445584380980200,9.122980224609375,-0.5554656982421875,0.0185546875,0.8284454345703125
1686445584390997500,9.13299755859375,-0.5550384521484375,0.0186004638671875,0.8297271728515625
1686445584401014300,9.14301416015625,-0.554290771484375,0.0189666748046875,0.828094482421875
1686445584411031300,9.15303125,-0.5545654296875,0.0190277099609375,0.828857421875
1686445584421047300,9.16304736328125,-0.554534912109375,0.02008056640625,0.827606201171875
1686445584431064300,9.173064208984375,-0.555389404296875,0.021514892578125,0.82733154296875
1686445584441081300,9.183081298828125,-0.55535888671875,0.02203369140625,0.8273468017578125
1686445584451098000,9.19309814453125,-0.5581207275390625,0.0220947265625,0.8278656005859375
1686445584461115400,9.203115478515626,-0.5589599609375,0.021942138671875,0.82708740234375
1686445584471132200,9.213132080078125,-0.558746337890625,0.0207061767578125,0.827484130859375
1686445584481149200,9.223149169921875,-0.5571136474609375,0.021331787109375,0.8292083740234375
1686445584491165400,9.23316552734375,-0.555511474609375,0.0203094482421875,0.828826904296875
1686445584501182200,9.24318212890625,-0.5537109375,0.019012451171875,0.8291778564453125
1686445584511199200,9.25319921875,-0.553466796875,0.0186309814453125,0.82830810546875
1686445584521216500,9.263216552734375,-0.5540313720703125,0.018798828125,0.828277587890625
1686445584531233300,9.2732333984375,-0.55474853515625,0.0182037353515625,0.8286590576171875
1686445584541250300,9.283250244140625,-0.55596923828125,0.0187530517578125,0.8281707763671875
1686445584551267300,9.293267333984375,-0.5563507080078125,0.017547607421875,0.8279876708984375
1686445584561284400,9.303284423828124,-0.55731201171875,0.01922607421875,0.8289794921875
1686445584571300400,9.31330029296875,-0.556732177734375,0.01995849609375,0.830108642578125
1686445584581317000,9.323317138671875,-0.5567779541015625,0.0191802978515625,0.8309326171875
1686445584591334400,9.33333447265625,-0.557952880859375,0.0200042724609375,0.8319091796875
1686445584601351200,9.34335107421875,-0.5592041015625,0.020355224609375,0.8314208984375
1686445584611368200,9.3533681640625,-0.5588531494140625,0.019683837890625,0.8319244384765625
1686445584621385200,9.36338525390625,-0.5572509765625,0.0192718505859375,0.832733154296875
1686445584631402200,9.37340234375,-0.5571441650390625,0.018341064453125,0.8320465087890625
1686445584641419500,9.38341943359375,-0.55596923828125,0.0185546875,0.832061767578125
1686445584651435300,9.393435302734375,-0.554443359375,0.0178680419921875,0.8307037353515625
1686445584661452300,9.403452392578124,-0.5544891357421875,0.0189666748046875,0.82958984375
1686445584671469300,9.41346923828125,-0.554656982421875,0.0194549560546875,0.8285369873046875
1686445584681486300,9.423486328125,-0.5545654296875,0.0200042724609375,0.829345703125
1686445584691503400,9.43350341796875,-0.554962158203125,0.0200653076171875,0.8282012939453125
1686445584701520100,9.44352001953125,-0.5528717041015625,0.019866943359375,0.82879638671875
1686445584711537400,9.453537353515625,-0.5526275634765625,0.0208892822265625,0.82879638671875
1686445584721554200,9.46355419921875,-0.554046630859375,0.020294189453125,0.8296661376953125
1686445584731570200,9.473570068359376,-0.5537109375,0.0212249755859375,0.8296966552734375
1686445584741587500,9.48358740234375,-0.55450439453125,0.0208740234375,0.830169677734375
1686445584751604200,9.493604248046875,-0.5557098388671875,0.0212249755859375,0.8298187255859375
1686445584761621200,9.503621337890625,-0.5556640625,0.021209716796875,0.8300933837890625
1686445584771639000,9.51363916015625,-0.554229736328125,0.0201873779296875,0.83001708984375
1686445584781656000,9.523656005859374,-0.554779052734375,0.0202178955078125,0.829925537109375
1686445584791672800,9.5336728515625,-0.55419921875,0.0191192626953125,0.8294830322265625
1686445584801690000,9.543690185546875,-0.5541229248046875,0.0174102783203125,0.8286285400390625
1686445584811706000,9.5537060546875,-0.554107666015625,0.01708984375,0.8274993896484375
1686445584821723000,9.563722900390625,-0.5560455322265625,0.01641845703125,0.827972412109375
1686445584831740200,9.573740234375,-0.5570220947265625,0.016845703125,0.8294219970703125
1686445584841757200,9.583757080078126,-0.5578155517578125,0.0175628662109375,0.8299713134765625
1686445584851774000,9.59377392578125,-0.5565185546875,0.017974853515625,0.8308563232421875
1686445584861791200,9.603791259765625,-0.556243896484375,0.0182342529296875,0.8318023681640625
1686445584871808000,9.61380810546875,-0.556488037109375,0.019195556640625,0.8317108154296875
1686445584881825000,9.623824951171875,-0.557464599609375,0.0201416015625,0.8321075439453125
1686445584891841000,9.633841064453126,-0.5578460693359375,0.019927978515625,0.8321075439453125
1686445584901858000,9.643858154296876,-0.5567779541015625,0.01953125,0.8300018310546875
1686445584911875000,9.653875,-0.5557708740234375,0.019287109375,0.828826904296875
1686445584921891800,9.663891845703125,-0.5535736083984375,0.01885986328125,0.828216552734375
1686445584931909000,9.6739091796875,-0.5534210205078125,0.0187530517578125,0.82855224609375
1686445584941926000,9.68392578125,-0.553314208984375,0.0179901123046875,0.8286285400390625
1686445584951943200,9.693943115234376,-0.5542755126953125,0.0186614990234375,0.829742431640625
1686445584961959200,9.703959228515625,-0.555206298828125,0.0193939208984375,0.8300323486328125
1686445584971976000,9.713975830078125,-0.5554351806640625,0.0188751220703125,0.8294830322265625
1686445584981993000,9.723992919921875,-0.5550079345703125,0.0187835693359375,0.8314971923828125
1686445584992010200,9.73401025390625,-0.5545654296875,0.0194549560546875,0.83123779296875
1686445585002027000,9.744027099609376,-0.5541534423828125,0.0189056396484375,0.8308868408203125
1686445585012044000,9.7540439453125,-0.554443359375,0.0189056396484375,0.8307342529296875
1686445585022061000,9.76406103515625,-0.5550079345703125,0.01837158203125,0.8304901123046875
1686445585032078000,9.774078125,-0.5545196533203125,0.018310546875,0.828582763671875
1686445585042094000,9.784093994140624,-0.553985595703125,0.018280029296875,0.8289947509765625
1686445585052111000,9.794111083984374,-0.5542755126953125,0.0188140869140625,0.8298797607421875
1686445585062128000,9.804128173828126,-0.55499267578125,0.01947021484375,0.829681396484375
1686445585072145000,9.814144775390625,-0.5550384521484375,0.0185089111328125,0.82916259765625
1686445585082162200,9.824162109375,-0.5547027587890625,0.0179443359375,0.830322265625
1686445585092179000,9.834178955078125,-0.556365966796875,0.0180206298828125,0.8307647705078125
1686445585102196000,9.844196044921874,-0.5567779541015625,0.0184478759765625,0.831451416015625
1686445585112213200,9.854213134765626,-0.5569610595703125,0.0179901123046875,0.8305816650390625
1686445585122229000,9.86422900390625,-0.5565948486328125,0.017822265625,0.8286590576171875
1686445585132246000,9.87424609375,-0.555999755859375,0.0168609619140625,0.829833984375
1686445585142263000,9.884262939453125,-0.55499267578125,0.0182037353515625,0.830474853515625
1686445585152280000,9.894280029296874,-0.5554351806640625,0.0183868408203125,0.8307037353515625
1686445585162297000,9.904297119140624,-0.554595947265625,0.0190277099609375,0.829742431640625
1686445585172313900,9.91431396484375,-0.5542755126953125,0.0186920166015625,0.8290252685546875
1686445585182331100,9.9243310546875,-0.5563507080078125,0.018341064453125,0.828887939453125
1686445585192348000,9.934347900390625,-0.55615234375,0.0196533203125,0.82989501953125
1686445585202364000,9.944364013671875,-0.5559234619140625,0.0206451416015625,0.830230712890625
1686445585212381200,9.954381103515624,-0.5552978515625,0.019989013671875,0.8311004638671875
1686445585222398000,9.96439794921875,-0.556365966796875,0.0188140869140625,0.8314971923828125
1686445585232415000,9.9744150390625,-0.5556182861328125,0.01849365234375,0.831085205078125
1686445585242432000,9.984431884765625,-0.5553741455078125,0.017547607421875,0.83074951171875
1686445585252449000,9.994448974609375,-0.5550384521484375,0.0176239013671875,0.8299407958984375
1686445585262466000,10.004466064453124,-0.5532379150390625,0.0182037353515625,0.8284454345703125
1686445585272483000,10.014483154296874,-0.553955078125,0.0193023681640625,0.829132080078125
1686445585282499000,10.0244990234375,-0.55340576171875,0.01873779296875,0.8283233642578125
1686445585292516000,10.03451611328125,-0.5541534423828125,0.0184173583984375,0.8289031982421875
1686445585302533000,10.044533203125,-0.5551910400390625,0.0174407958984375,0.8307037353515625
1686445585312550100,10.054550048828125,-0.5549163818359375,0.016998291015625,0.82965087890625
1686445585322567000,10.06456689453125,-0.55535888671875,0.01641845703125,0.8294677734375
1686445585332584200,10.074584228515626,-0.5567169189453125,0.016143798828125,0.8308563232421875
1686445585342601000,10.08460107421875,-0.556640625,0.0169677734375,0.8309326171875
1686445585352617000,10.094616943359375,-0.5559234619140625,0.0188751220703125,0.8307037353515625
1686445585362634000,10.104634033203125,-0.555694580078125,0.0209197998046875,0.8302154541015625
1686445585372651000,10.114651123046874,-0.556182861328125,0.0222625732421875,0.829742431640625
1686445585382668000,10.12466796875,-0.55572509765625,0.022186279296875,0.8286285400390625
1686445585392685000,10.13468505859375,-0.5563507080078125,0.0206451416015625,0.8289031982421875
1686445585402702000,10.1447021484375,-0.5585479736328125,0.02154541015625,0.8314666748046875
1686445585412719000,10.154718994140625,-0.557891845703125,0.021392822265625,0.8317108154296875
1686445585422736000,10.16473583984375,-0.5568389892578125,0.0209808349609375,0.8290252685546875
1686445585432752000,10.174752197265626,-0.5564422607421875,0.0199737548828125,0.8291015625
1686445585442769200,10.18476904296875,-0.55633544921875,0.0197906494140625,0.8299102783203125
1686445585452786000,10.194785888671875,-0.5567626953125,0.0196533203125,0.8302459716796875
1686445585462803200,10.20480322265625,-0.5554351806640625,0.0187835693359375,0.830169677734375
1686445585472820000,10.214820068359375,-0.5540008544921875,0.01763916015625,0.8296966552734375
1686445585482837000,10.2248369140625,-0.5553131103515625,0.0166015625,0.8282012939453125
1686445585492854000,10.23485400390625,-0.5558624267578125,0.0176544189453125,0.8279876708984375
1686445585502871000,10.24487109375,-0.556182861328125,0.017547607421875,0.8286895751953125
1686445585512887000,10.254886962890625,-0.5584716796875,0.016204833984375,0.8294830322265625
1686445585522904000,10.264904052734375,-0.558807373046875,0.01617431640625,0.8290252685546875
1686445585532921000,10.274921142578124,-0.5555572509765625,0.0175933837890625,0.830474853515625
1686445585542938000,10.284938232421876,-0.5556182861328125,0.018585205078125,0.8299713134765625
1686445585552955100,10.294955078125,-0.5542144775390625,0.019866943359375,0.8298492431640625
1686445585562972200,10.30497216796875,-0.5526580810546875,0.0204010009765625,0.828521728515625
1686445585572989000,10.314989013671875,-0.5538787841796875,0.0205230712890625,0.828460693359375
1686445585583006200,10.325006103515625,-0.55438232421875,0.0212249755859375,0.82879638671875
1686445585593022200,10.335022216796874,-0.5555877685546875,0.02142333984375,0.8281707763671875
1686445585603039000,10.3450390625,-0.5562591552734375,0.021148681640625,0.8268585205078125
1686445585613056000,10.355055908203125,-0.554473876953125,0.019927978515625,0.82733154296875
1686445585623073000,10.365072998046875,-0.5551300048828125,0.0196685791015625,0.827667236328125
1686445585633090000,10.375090087890625,-0.554779052734375,0.020050048828125,0.8278045654296875
1686445585643106800,10.38510693359375,-0.5546112060546875,0.01959228515625,0.8285675048828125
1686445585653124000,10.3951240234375,-0.5562591552734375,0.0182342529296875,0.8288116455078125
1686445585663141000,10.40514111328125,-0.5577545166015625,0.01861572265625,0.8279876708984375
1686445585673156900,10.415156982421875,-0.55767822265625,0.019195556640625,0.828460693359375
1686445585683174100,10.425174072265625,-0.5571746826171875,0.018829345703125,0.829803466796875
1686445585693191200,10.435191162109374,-0.55621337890625,0.0184326171875,0.8314971923828125
1686445585703208000,10.4452080078125,-0.5554351806640625,0.0191497802734375,0.8310394287109375
1686445585713225200,10.45522509765625,-0.555938720703125,0.01910400390625,0.831085205078125
1686445585723242000,10.465241943359375,-0.55560302734375,0.0189056396484375,0.8313446044921875
1686445585733259000,10.475259033203125,-0.5558624267578125,0.019134521484375,0.83154296875
1686445585743275000,10.48527490234375,-0.555755615234375,0.01904296875,0.8320465087890625
1686445585753292000,10.4952919921875,-0.5568084716796875,0.0182647705078125,0.830841064453125
1686445585763309000,10.50530908203125,-0.55780029296875,0.0191192626953125,0.8295440673828125
1686445585773325600,10.51532568359375,-0.557769775390625,0.018341064453125,0.82916259765625
1686445585783342600,10.525342529296875,-0.5572967529296875,0.0188751220703125,0.8296356201171875
1686445585793359600,10.535359619140625,-0.5584564208984375,0.0201416015625,0.829986572265625
1686445585803376600,10.545376708984374,-0.5577545166015625,0.0192718505859375,0.830078125
1686445585813393700,10.5553935546875,-0.55712890625,0.018310546875,0.829833984375
1686445585823409700,10.56540966796875,-0.5559539794921875,0.0191192626953125,0.8295745849609375
1686445585833426400,10.575426513671875,-0.552947998046875,0.0201873779296875,0.829437255859375
1686445585843443700,10.585443603515625,-0.5533447265625,0.01953125,0.8288726806640625
1686445585853460500,10.59546044921875,-0.553680419921875,0.020599365234375,0.82879638671875
1686445585863477500,10.6054775390625,-0.5528411865234375,0.0199737548828125,0.827850341796875
1686445585873494500,10.61549462890625,-0.55377197265625,0.0196533203125,0.82794189453125
1686445585883511600,10.625511474609375,-0.55450439453125,0.0204315185546875,0.8286895751953125
1686445585893528600,10.635528564453125,-0.553955078125,0.020538330078125,0.828704833984375
1686445585903544600,10.645544677734375,-0.555816650390625,0.020904541015625,0.828033447265625
1686445585913561600,10.6555615234375,-0.55804443359375,0.021270751953125,0.82855224609375
1686445585923578600,10.66557861328125,-0.55950927734375,0.0205841064453125,0.828460693359375
1686445585933595600,10.675595703125,-0.5580291748046875,0.0199737548828125,0.8291778564453125
1686445585943612700,10.68561279296875,-0.5575714111328125,0.0193023681640625,0.829376220703125
1686445585953629400,10.69562939453125,-0.55670166015625,0.0194244384765625,0.830474853515625
1686445585963646700,10.705646728515624,-0.5565032958984375,0.0193328857421875,0.831146240234375
1686445585973663500,10.71566357421875,-0.5562744140625,0.0189208984375,0.831024169921875
1686445585983679500,10.725679443359375,-0.5567626953125,0.0184173583984375,0.8305816650390625
1686445585993696800,10.73569677734375,-0.5569000244140625,0.0194244384765625,0.829803466796875
1686445586003713500,10.745713623046875,-0.5568695068359375,0.020111083984375,0.829925537109375
1686445586013730600,10.75573046875,-0.5563812255859375,0.020050048828125,0.83001708984375
1686445586023747600,10.76574755859375,-0.5571746826171875,0.0197601318359375,0.828338623046875
1686445586033764600,10.7757646484375,-0.5565643310546875,0.020294189453125,0.8275604248046875
1686445586043781600,10.78578173828125,-0.5569610595703125,0.019866943359375,0.8282928466796875
1686445586053798700,10.795798583984375,-0.5571746826171875,0.0206451416015625,0.829010009765625
1686445586063814700,10.805814697265625,-0.556610107421875,0.0202789306640625,0.828857421875
1686445586073831700,10.815831787109374,-0.5566253662109375,0.0197906494140625,0.8294677734375
1686445586083848400,10.825848388671876,-0.5570526123046875,0.0199127197265625,0.8291778564453125
1686445586093865700,10.83586572265625,-0.556793212890625,0.0207061767578125,0.829254150390625
1686445586103882500,10.845882568359375,-0.5564117431640625,0.02117919921875,0.8289947509765625
1686445586113899500,10.8558994140625,-0.5558013916015625,0.0211944580078125,0.828521728515625
1686445586123916500,10.86591650390625,-0.5567169189453125,0.0210113525390625,0.8291168212890625
1686445586133933600,10.87593359375,-0.5573883056640625,0.0209503173828125,0.83050537109375
1686445586143949600,10.885949462890625,-0.5563507080078125,0.020965576171875,0.83135986328125
1686445586153966600,10.895966552734375,-0.5550689697265625,0.020721435546875,0.8298187255859375
1686445586163983600,10.905983642578125,-0.55438232421875,0.02081298828125,0.8274993896484375
1686445586174000400,10.91600048828125,-0.5524139404296875,0.019775390625,0.825439453125
1686445586184017700,10.926017578125,-0.5528411865234375,0.019561767578125,0.8252716064453125
1686445586194034700,10.93603466796875,-0.5544891357421875,0.0186920166015625,0.8267059326171875
1686445586204051500,10.946051513671875,-0.555511474609375,0.01837158203125,0.8271026611328125
1686445586214068700,10.95606884765625,-0.5587005615234375,0.0183563232421875,0.8285980224609375
1686445586224084700,10.966084716796875,-0.5604095458984375,0.0186920166015625,0.8283538818359375
1686445586234101500,10.9761015625,-0.56005859375,0.01861572265625,0.82781982421875
1686445586244118800,10.986118896484374,-0.5610198974609375,0.02001953125,0.8290863037109375
1686445586254135600,10.996135498046876,-0.5611114501953125,0.02044677734375,0.8297576904296875
1686445586264152600,11.006152587890625,-0.5603179931640625,0.0206756591796875,0.8306121826171875
1686445586274169600,11.016169677734375,-0.5584716796875,0.020263671875,0.8314971923828125
1686445586284186600,11.0261865234375,-0.5573883056640625,0.0208892822265625,0.82989501953125
1686445586294203400,11.036203369140624,-0.556915283203125,0.0196990966796875,0.829254150390625
1686445586304219400,11.046219482421876,-0.556182861328125,0.020355224609375,0.82818603515625
1686445586314236700,11.056236572265625,-0.5567626953125,0.020751953125,0.8270416259765625
1686445586324253400,11.06625341796875,-0.5558319091796875,0.021148681640625,0.827117919921875
1686445586334270500,11.0762705078125,-0.5569610595703125,0.021392822265625,0.8279571533203125
1686445586344287700,11.086287841796874,-0.55853271484375,0.0213775634765625,0.8283538818359375
1686445586354304500,11.096304443359376,-0.55908203125,0.0206451416015625,0.8282470703125
1686445586364321500,11.106321533203126,-0.5594329833984375,0.0206756591796875,0.8290252685546875
1686445586374338600,11.116338623046875,-0.5590362548828125,0.021026611328125,0.82855224609375
1686445586384354600,11.1263544921875,-0.5579071044921875,0.0212860107421875,0.828369140625
1686445586394371600,11.13637158203125,-0.5567626953125,0.02117919921875,0.827911376953125
1686445586404388600,11.146388671875,-0.5557403564453125,0.0219879150390625,0.82818603515625
1686445586414405600,11.156405517578126,-0.5557403564453125,0.0209197998046875,0.827972412109375
1686445586424422400,11.16642236328125,-0.5569915771484375,0.0192413330078125,0.826629638671875
1686445586434439700,11.176439697265625,-0.55621337890625,0.0193634033203125,0.8270111083984375
1686445586444456700,11.186456787109375,-0.556671142578125,0.0192413330078125,0.8281097412109375
1686445586454473500,11.196473388671874,-0.5569610595703125,0.01849365234375,0.8293609619140625
1686445586464489700,11.20648974609375,-0.5578460693359375,0.0188140869140625,0.8296051025390625
1686445586474506500,11.216506591796875,-0.5596923828125,0.0205230712890625,0.8302001953125
1686445586484523500,11.2265234375,-0.5599822998046875,0.0219573974609375,0.828826904296875
1686445586494540800,11.236540771484375,-0.55975341796875,0.0235748291015625,0.8277435302734375
1686445586504557600,11.2465576171875,-0.558563232421875,0.023040771484375,0.8277587890625
1686445586514574600,11.25657470703125,-0.5567779541015625,0.0230560302734375,0.8285369873046875
1686445586524591600,11.266591552734376,-0.557952880859375,0.022186279296875,0.829010009765625
1686445586534608600,11.276608642578125,-0.5589141845703125,0.021728515625,0.8288421630859375
1686445586544624600,11.286624755859375,-0.5591583251953125,0.0218505859375,0.82720947265625
1686445586554641400,11.296641357421874,-0.55780029296875,0.02099609375,0.82794189453125
1686445586564658700,11.30665869140625,-0.5591888427734375,0.02081298828125,0.8291778564453125
1686445586574675500,11.316675537109376,-0.5596160888671875,0.0196075439453125,0.83056640625
1686445586584692500,11.3266923828125,-0.5611114501953125,0.0187835693359375,0.8307952880859375
1686445586594709800,11.336709716796875,-0.559661865234375,0.018463134765625,0.82965087890625
1686445586604726500,11.3467265625,-0.55816650390625,0.01849365234375,0.8279876708984375
1686445586614743600,11.35674365234375,-0.558258056640625,0.01885986328125,0.826385498046875
1686445586624759600,11.366759521484376,-0.558074951171875,0.019317626953125,0.82647705078125
1686445586634776600,11.376776611328125,-0.55694580078125,0.0198974609375,0.8263092041015625
1686445586644793600,11.386793701171875,-0.5548248291015625,0.020050048828125,0.8263397216796875
1686445586654810600,11.396810546875,-0.5546112060546875,0.02001953125,0.8271636962890625
1686445586664827600,11.40682763671875,-0.55438232421875,0.0205230712890625,0.8268890380859375
1686445586674844400,11.416844482421874,-0.555084228515625,0.0214996337890625,0.8274078369140625
1686445586684861700,11.42686181640625,-0.55615234375,0.0223388671875,0.8270721435546875
1686445586694878500,11.43687841796875,-0.559234619140625,0.0223388671875,0.8262481689453125
1686445586704894500,11.44689453125,-0.5611419677734375,0.022674560546875,0.8262786865234375
1686445586714911700,11.456911865234375,-0.5613555908203125,0.0230255126953125,0.82586669921875
1686445586724928500,11.466928466796874,-0.5591888427734375,0.0223236083984375,0.8273468017578125
1686445586734945500,11.476945556640626,-0.5576629638671875,0.022064208984375,0.828094482421875
1686445586744962800,11.486962890625,-0.55633544921875,0.0213623046875,0.829010009765625
1686445586754979600,11.4969794921875,-0.5561676025390625,0.0200958251953125,0.8288726806640625
1686445586764996600,11.50699658203125,-0.555633544921875,0.01922607421875,0.8292999267578125
1686445586775013600,11.517013671875,-0.5568084716796875,0.018707275390625,0.8281707763671875
1686445586785029600,11.527029541015626,-0.5568084716796875,0.0192718505859375,0.8267822265625
1686445586795046700,11.537046630859376,-0.5558624267578125,0.019256591796875,0.8269195556640625
1686445586805063400,11.5470634765625,-0.556427001953125,0.01910400390625,0.82794189453125
1686445586815080700,11.557080810546875,-0.5551300048828125,0.0200042724609375,0.828704833984375
1686445586825097500,11.567097412109375,-0.55706787109375,0.0196533203125,0.8283233642578125
1686445586835114500,11.577114501953124,-0.5592498779296875,0.019500732421875,0.8294525146484375
1686445586845131500,11.587131591796876,-0.5595245361328125,0.0202484130859375,0.830841064453125
1686445586855148500,11.5971484375,-0.559112548828125,0.0207366943359375,0.8313751220703125
1686445586865164500,11.60716455078125,-0.55792236328125,0.020904541015625,0.831298828125
1686445586875181600,11.617181640625,-0.5577239990234375,0.0204925537109375,0.8301849365234375
1686445586885198600,11.627198486328124,-0.557830810546875,0.0198211669921875,0.8295135498046875
1686445586895215600,11.637215576171876,-0.5589141845703125,0.0204010009765625,0.827484130859375
1686445586905232600,11.647232666015626,-0.559051513671875,0.0198822021484375,0.8267822265625
1686445586915249700,11.657249755859375,-0.5581207275390625,0.0200653076171875,0.8284759521484375
1686445586925266400,11.667266357421875,-0.5570068359375,0.0192108154296875,0.8283538818359375
1686445586935283700,11.67728369140625,-0.55712890625,0.0186309814453125,0.8276519775390625
1686445586945299700,11.6872998046875,-0.55645751953125,0.0190582275390625,0.8280181884765625
1686445586955316500,11.69731640625,-0.556121826171875,0.0203704833984375,0.828155517578125
1686445586965333800,11.707333740234375,-0.5569610595703125,0.0208282470703125,0.8285369873046875
1686445586975350500,11.7173505859375,-0.5570831298828125,0.0216064453125,0.82867431640625
1686445586985367600,11.727367431640625,-0.5567779541015625,0.0208587646484375,0.8292999267578125
1686445586995384600,11.737384521484374,-0.5576629638671875,0.0203094482421875,0.8271331787109375
1686445587005401600,11.747401611328126,-0.556182861328125,0.0191497802734375,0.8260040283203125
1686445587015418600,11.757418701171876,-0.5567474365234375,0.01953125,0.8257293701171875
1686445587025434400,11.767434326171875,-0.557861328125,0.019927978515625,0.826934814453125
1686445587035451600,11.77745166015625,-0.5560302734375,0.0184478759765625,0.8275299072265625
1686445587045468700,11.78746875,-0.5554962158203125,0.0196380615234375,0.8295135498046875
1686445587055485400,11.7974853515625,-0.5551300048828125,0.0185699462890625,0.830474853515625
1686445587065502700,11.807502685546876,-0.55499267578125,0.0181427001953125,0.8296051025390625
1686445587075519500,11.81751953125,-0.5568084716796875,0.0188140869140625,0.82806396484375
1686445587085536500,11.82753662109375,-0.5589752197265625,0.01934814453125,0.8283843994140625
1686445587095553500,11.837553466796875,-0.5599517822265625,0.01898193359375,0.828826904296875
1686445587105569500,11.847569580078124,-0.5597381591796875,0.01995849609375,0.8285675048828125
1686445587115586600,11.857586669921876,-0.5599212646484375,0.0206298828125,0.82928466796875
1686445587125603600,11.867603515625,-0.5595855712890625,0.020721435546875,0.82958984375
1686445587135620600,11.87762060546875,-0.5587615966796875,0.0216217041015625,0.829559326171875
1686445587145637600,11.8876376953125,-0.558013916015625,0.0199737548828125,0.8293609619140625
1686445587155654700,11.897654541015624,-0.5586395263671875,0.019989013671875,0.830810546875
1686445587165671700,11.907671630859374,-0.55908203125,0.02044677734375,0.8311004638671875
1686445587175688400,11.9176884765625,-0.557342529296875,0.01995849609375,0.8306884765625
1686445587185704400,11.927704345703125,-0.556671142578125,0.0194854736328125,0.83001708984375
1686445587195721700,11.9377216796875,-0.556121826171875,0.019195556640625,0.8291473388671875
1686445587205738500,11.947738525390625,-0.5544586181640625,0.019561767578125,0.82745361328125
1686445587215755800,11.957755859375,-0.55572509765625,0.01898193359375,0.82672119140625
1686445587225772500,11.9677724609375,-0.5545654296875,0.019439697265625,0.827392578125
1686445587235789600,11.97778955078125,-0.5551605224609375,0.0196990966796875,0.82830810546875
1686445587245806600,11.987806640625,-0.5562591552734375,0.02032470703125,0.8284149169921875
1686445587255823600,11.99782373046875,-0.5567779541015625,0.01910400390625,0.82879638671875
1686445587265839600,12.007839599609374,-0.5560302734375,0.0175933837890625,0.828399658203125
1686445587275856400,12.0178564453125,-0.55615234375,0.019073486328125,0.8294219970703125
1686445587285873700,12.027873779296876,-0.555938720703125,0.019012451171875,0.8295440673828125
1686445587295890700,12.037890625,-0.5561676025390625,0.01824951171875,0.82891845703125
1686445587305907500,12.047907470703125,-0.5571441650390625,0.0186309814453125,0.8287811279296875
1686445587315924700,12.0579248046875,-0.5582122802734375,0.019195556640625,0.8263397216796875
1686445587325941500,12.06794140625,-0.559661865234375,0.019622802734375,0.826141357421875
1686445587335958500,12.07795849609375,-0.558135986328125,0.0191192626953125,0.8258514404296875
1686445587345974800,12.087974853515625,-0.5587158203125,0.019439697265625,0.8279571533203125
1686445587355991600,12.097991455078125,-0.557373046875,0.018890380859375,0.828765869140625
1686445587366008600,12.108008544921875,-0.557952880859375,0.0186614990234375,0.829559326171875
1686445587376025600,12.118025634765624,-0.5592193603515625,0.018035888671875,0.830108642578125
1686445587386042600,12.128042724609376,-0.5580902099609375,0.0182952880859375,0.8304595947265625
1686445587396059400,12.138059326171875,-0.5570526123046875,0.0189056396484375,0.8303985595703125
1686445587406076700,12.14807666015625,-0.5578765869140625,0.019012451171875,0.8296051025390625
1686445587416093700,12.15809375,-0.5568389892578125,0.019378662109375,0.8292694091796875
1686445587426109400,12.168109375,-0.5564727783203125,0.0195770263671875,0.8281402587890625
1686445587436126500,12.17812646484375,-0.5544891357421875,0.019500732421875,0.8274688720703125
1686445587446143700,12.188143798828126,-0.556427001953125,0.0188140869140625,0.82733154296875
1686445587456160500,12.198160400390625,-0.55712890625,0.01910400390625,0.827789306640625
1686445587466177800,12.208177734375,-0.557708740234375,0.02008056640625,0.8284912109375
1686445587476194600,12.218194580078125,-0.55731201171875,0.019195556640625,0.8286895751953125
1686445587486211600,12.228211669921874,-0.5576324462890625,0.02032470703125,0.829620361328125
1686445587496228600,12.238228515625,-0.5574798583984375,0.0213470458984375,0.8301239013671875
1686445587506244600,12.24824462890625,-0.5569000244140625,0.0217742919921875,0.830413818359375
1686445587516261600,12.25826171875,-0.55780029296875,0.02081298828125,0.830108642578125
1686445587526278400,12.2682783203125,-0.557342529296875,0.020355224609375,0.8287353515625
1686445587536295700,12.278295654296874,-0.557525634765625,0.0188751220703125,0.8276519775390625
1686445587546312400,12.2883125,-0.5567169189453125,0.017913818359375,0.82830810546875
1686445587556329500,12.29832958984375,-0.5550079345703125,0.0175323486328125,0.828399658203125
1686445587566346800,12.3083466796875,-0.5538330078125,0.0172119140625,0.8290557861328125
1686445587576363500,12.318363525390625,-0.55487060546875,0.0160064697265625,0.829315185546875
1686445587586379500,12.328379638671874,-0.5552825927734375,0.0187225341796875,0.8293609619140625
1686445587596396800,12.338396728515624,-0.556121826171875,0.0199737548828125,0.8278045654296875
1686445587606413600,12.34841357421875,-0.5582122802734375,0.0194549560546875,0.8265380859375
1686445587616430600,12.3584306640625,-0.558685302734375,0.0195159912109375,0.826812744140625
1686445587626447600,12.368447509765625,-0.55816650390625,0.020050048828125,0.828338623046875
1686445587636464600,12.378464599609375,-0.5585784912109375,0.02056884765625,0.830322265625
1686445587646481400,12.3884814453125,-0.5598602294921875,0.020477294921875,0.830322265625
1686445587656498700,12.398498779296874,-0.560699462890625,0.02001953125,0.829681396484375
1686445587666514700,12.4085146484375,-0.560455322265625,0.0207672119140625,0.8291473388671875
1686445587676531500,12.418531494140625,-0.558807373046875,0.020843505859375,0.829010009765625
1686445587686548500,12.428548583984375,-0.5591583251953125,0.0203399658203125,0.8301239013671875
1686445587696565500,12.4385654296875,-0.558929443359375,0.0195159912109375,0.8307037353515625
1686445587706582500,12.44858251953125,-0.5588836669921875,0.0179901123046875,0.8294219970703125
1686445587716599800,12.458599853515626,-0.5578155517578125,0.0167388916015625,0.827423095703125
1686445587726616600,12.468616455078125,-0.556365966796875,0.0171661376953125,0.82818603515625
1686445587736633600,12.478633544921875,-0.555755615234375,0.017425537109375,0.8279571533203125
1686445587746649600,12.488649658203125,-0.5555572509765625,0.0162811279296875,0.8275909423828125
1686445587756666600,12.49866650390625,-0.555419921875,0.0169525146484375,0.827178955078125
1686445587766683600,12.50868359375,-0.5533599853515625,0.017303466796875,0.8260040283203125
1686445587776700400,12.518700439453125,-0.5538330078125,0.0189666748046875,0.826019287109375
1686445587786717700,12.5287177734375,-0.5556488037109375,0.01959228515625,0.8263092041015625
1686445587796734500,12.538734375,-0.5591278076171875,0.0204315185546875,0.827545166015625
1686445587806751500,12.54875146484375,-0.561614990234375,0.020660400390625,0.8263702392578125
1686445587816768800,12.558768798828124,-0.5610198974609375,0.0212554931640625,0.828521728515625
1686445587826785500,12.56878564453125,-0.5577392578125,0.0196533203125,0.8290252685546875
1686445587836801500,12.578801513671875,-0.5571441650390625,0.019287109375,0.829254150390625
1686445587846818600,12.588818603515625,-0.5544281005859375,0.0201263427734375,0.8296051025390625
1686445587856835600,12.598835693359375,-0.5538330078125,0.02001953125,0.82928466796875
1686445587866852600,12.6088525390625,-0.5526580810546875,0.01727294921875,0.8268585205078125
1686445587876869400,12.618869384765626,-0.5520172119140625,0.0153350830078125,0.82550048828125
1686445587886886700,12.62888671875,-0.553955078125,0.0178985595703125,0.8246002197265625
1686445587896903400,12.6389033203125,-0.556304931640625,0.0189971923828125,0.8252105712890625
1686445587906920400,12.64892041015625,-0.5583343505859375,0.018463134765625,0.8265228271484375
1686445587916936700,12.658936767578124,-0.55908203125,0.019134521484375,0.828094482421875
1686445587926953500,12.668953369140626,-0.560272216796875,0.020172119140625,0.8299560546875
1686445587936970500,12.678970458984375,-0.560516357421875,0.0205078125,0.83294677734375
1686445587946987500,12.688987548828125,-0.5609130859375,0.0204925537109375,0.833740234375
1686445587957004500,12.699004638671875,-0.559173583984375,0.0203704833984375,0.8346099853515625
1686445587967021600,12.709021484375,-0.5574798583984375,0.0196990966796875,0.83441162109375
1686445587977038600,12.71903857421875,-0.557373046875,0.019012451171875,0.8343353271484375
1686445587987055600,12.7290556640625,-0.5572052001953125,0.01953125,0.8338165283203125
1686445587997071600,12.739071533203125,-0.5559539794921875,0.0185089111328125,0.82958984375
1686445588007088600,12.749088623046875,-0.55377197265625,0.0165252685546875,0.82354736328125
1686445588017105700,12.759105712890625,-0.55340576171875,0.01519775390625,0.8217315673828125
1686445588027122400,12.769122314453124,-0.5537872314453125,0.01513671875,0.8245697021484375
1686445588037139700,12.7791396484375,-0.555267333984375,0.0161590576171875,0.827178955078125
1686445588047156500,12.789156494140625,-0.5566558837890625,0.0164337158203125,0.8278350830078125
1686445588057173500,12.799173583984375,-0.557952880859375,0.016326904296875,0.8296661376953125
1686445588067190500,12.8091904296875,-0.5599212646484375,0.0172576904296875,0.830291748046875
1686445588077206500,12.81920654296875,-0.5613555908203125,0.019256591796875,0.8297119140625
1686445588087223600,12.8292236328125,-0.560546875,0.0194854736328125,0.827484130859375
1686445588097240300,12.839240234375,-0.5581207275390625,0.0190582275390625,0.8260955810546875
1686445588107257600,12.849257568359375,-0.5567169189453125,0.0186767578125,0.8261566162109375
1686445588117274600,12.859274658203125,-0.5566558837890625,0.0191497802734375,0.827178955078125
1686445588127291400,12.86929150390625,-0.55706787109375,0.019927978515625,0.8277435302734375
1686445588137308700,12.87930859375,-0.5580902099609375,0.019744873046875,0.82781982421875
1686445588147325400,12.889325439453126,-0.5580291748046875,0.019317626953125,0.827392578125
1686445588157341400,12.899341552734375,-0.55718994140625,0.019622802734375,0.8273162841796875
1686445588167358700,12.909358642578125,-0.5572662353515625,0.0193939208984375,0.8287200927734375
1686445588177375500,12.91937548828125,-0.5571441650390625,0.01861572265625,0.8293914794921875
1686445588187392500,12.929392578125,-0.5558624267578125,0.0189056396484375,0.8292388916015625
1686445588197409500,12.939409423828126,-0.554840087890625,0.018463134765625,0.8283843994140625
1686445588207426600,12.949426513671876,-0.55572509765625,0.017608642578125,0.828216552734375
1686445588217443600,12.959443603515625,-0.556365966796875,0.018768310546875,0.828887939453125
1686445588227460600,12.969460693359375,-0.55694580078125,0.0192413330078125,0.8294677734375
1686445588237476600,12.9794765625,-0.558807373046875,0.0192413330078125,0.830322265625
1686445588247493600,12.98949365234375,-0.560455322265625,0.01904296875,0.829864501953125
1686445588257510700,12.9995107421875,-0.561248779296875,0.0187530517578125,0.8299407958984375
1686445588267527700,13.009527587890625,-0.5601348876953125,0.0195770263671875,0.8306732177734375
1686445588277544400,13.01954443359375,-0.558380126953125,0.0201873779296875,0.830810546875
1686445588287561700,13.029561767578125,-0.555877685546875,0.0192108154296875,0.8313446044921875
1686445588297578500,13.03957861328125,-0.55535888671875,0.0194091796875,0.8306427001953125
1686445588307595500,13.049595458984374,-0.5556182861328125,0.018951416015625,0.82928466796875
1686445588317611500,13.059611572265625,-0.555938720703125,0.01849365234375,0.8282928466796875
1686445588327628500,13.069628662109375,-0.5567626953125,0.0177459716796875,0.8270416259765625
1686445588337645600,13.0796455078125,-0.558380126953125,0.018310546875,0.8270111083984375
1686445588347662300,13.089662353515624,-0.5579376220703125,0.018798828125,0.8270416259765625
1686445588357679600,13.0996796875,-0.55859375,0.0184478759765625,0.8275604248046875
1686445588367696600,13.109696533203126,-0.5584869384765625,0.0196075439453125,0.82830810546875
