time,seconds_elapsed,z,y,x
1686445575385835500,0.12783544921875,-0.008587096817791462,0.0751863643527031,-0.015545403584837914
1686445575395852300,0.137852294921875,-0.002416286151856184,0.06199146434664726,-0.009673932567238808
1686445575405869300,0.147869384765625,-0.0005233111442066729,0.05482330173254013,-0.012271580286324024
1686445575415886300,0.15788623046875,0.0011667308863252401,0.04035594314336777,-0.009253685362637043
1686445575425903400,0.1679033203125,0.0016205335268750787,0.027579164132475853,-0.009206813760101795
1686445575435920100,0.177920166015625,0.002757703186944127,0.01690042018890381,-0.004803543444722891
1686445575445936000,0.18793603515625,0.001184041379019618,0.000570981705095619,0.0011206581257283688
1686445575455953400,0.197953369140625,0.0006934871198609471,-0.014869493432343006,0.009549030102789402
1686445575465970200,0.20797021484375,0.0012724583502858877,-0.025716548785567284,0.014959508553147316
1686445575475987200,0.2179873046875,0.0036043222062289715,-0.03855138644576073,0.020309265702962875
1686445575486004500,0.22800439453125,0.005947637837380171,-0.036143623292446136,0.02015134133398533
1686445575496021200,0.238021240234375,0.006835535634309053,-0.03251266852021217,0.01841788925230503
1686445575506038300,0.248038330078125,0.005680522415786982,-0.03947603702545166,0.026489930227398872
1686445575516054300,0.25805419921875,0.00026285400963388383,-0.04430514574050903,0.03400803357362747
1686445575526071300,0.2680712890625,0.0009587379754520953,-0.05662146583199501,0.03617797791957855
1686445575536088300,0.27808837890625,0.0005440838285721838,-0.051838696002960205,0.032582178711891174
1686445575546105300,0.288105224609375,-0.00145222176797688,-0.0421365350484848,0.031747009605169296
1686445575556122400,0.298122314453125,-0.003498861100524664,-0.03771009296178818,0.025901105254888535
1686445575566139100,0.30813916015625,-0.001446362817659974,-0.029814621433615685,0.02479296363890171
1686445575576156400,0.318156494140625,0.0031577101908624172,-0.02936907485127449,0.026036661118268967
1686445575586172400,0.32817236328125,0.00008069378236541525,-0.0357031375169754,0.028556544333696365
1686445575596189200,0.338189208984375,-0.004515123087912798,-0.020862137898802757,0.02328268624842167
1686445575606206200,0.348206298828125,-0.0025094966404139996,0.015113439410924911,0.002624545246362686
1686445575616223200,0.35822314453125,0.0016295883106067777,-0.019905265420675278,0.0009813748765736818
1686445575626240300,0.368240234375,0.023395070806145668,0.07817229628562927,0.0046690539456903934
1686445575636257500,0.378257568359375,-0.09486286342144012,0.20496299862861633,-0.06366606056690216
1686445575646274300,0.3882744140625,-0.3180810213088989,0.24041952192783356,-0.14483335614204407
1686445575656291300,0.398291259765625,-0.5421373248100281,0.14283624291419983,-0.16143442690372467
1686445575666307300,0.408307373046875,-0.6856582760810852,0.03362959995865822,-0.11453376710414886
1686445575676324400,0.418324462890625,-0.6929928660392761,-0.030542463064193726,-0.039935965090990067
1686445575686341400,0.42834130859375,-0.6436290144920349,-0.12160526216030121,0.030549386516213417
1686445575696358100,0.438358154296875,-0.6369572877883911,-0.21822340786457062,0.08579852432012558
1686445575706375400,0.44837548828125,-0.6388071179389954,-0.17762857675552368,0.10707025974988937
1686445575716392200,0.45839208984375,-0.618440568447113,-0.06324022263288498,0.06900223344564438
1686445575726409200,0.4684091796875,-0.6023947596549988,0.0620974600315094,-0.0008748483960516751
1686445575736425500,0.478425537109375,-0.533486545085907,0.19103093445301056,-0.06903206557035446
1686445575746442200,0.488442138671875,-0.4023522436618805,0.24752138555049896,-0.10422227531671524
1686445575756459300,0.498459228515625,-0.2587625980377197,0.1883946806192398,-0.08951470255851746
1686445575766476800,0.508476806640625,-0.1741054803133011,0.03742566704750061,-0.02340039797127247
1686445575776494000,0.518494140625,-0.18991534411907196,-0.09251794964075089,0.05907157436013222
1686445575786510800,0.5285107421875,-0.24462465941905975,-0.0792522132396698,0.09730285406112671
1686445575796527900,0.53852783203125,-0.3074222505092621,0.021890118718147278,0.06398244202136993
1686445575806544100,0.548544189453125,-0.26506176590919495,0.23504872620105743,-0.03418300300836563
1686445575816561000,0.558560791015625,-0.22805660963058472,0.3451813757419586,-0.08975731581449509
1686445575826578000,0.568577880859375,-0.10446248948574066,0.3906274139881134,-0.10487634688615799
1686445575836595000,0.578594970703125,-0.005689577199518681,0.2836000323295593,-0.08175718039274216
1686445575846612000,0.588612060546875,0.028206070885062218,0.1904735416173935,-0.04201509431004524
1686445575856629000,0.59862890625,0.047809068113565445,0.2186545729637146,-0.023843014612793922
1686445575866646000,0.60864599609375,0.07717281579971313,0.31759607791900635,-0.02647874504327774
1686445575876662000,0.618662109375,0.1041857898235321,0.4194963276386261,-0.03825124725699425
1686445575886679000,0.628678955078125,0.12990181148052216,0.5024490356445312,-0.04776938632130623
1686445575896695800,0.63869580078125,0.14576758444309235,0.5877125263214111,-0.05609975382685661
1686445575906713000,0.648713134765625,0.17374569177627563,0.7742477655410767,-0.07183850556612015
1686445575916729900,0.658729736328125,0.19723716378211975,1.0091534852981567,-0.09845732897520065
1686445575926747000,0.668746826171875,0.19882521033287048,1.1681220531463623,-0.09394194185733795
1686445575936764000,0.678763916015625,0.17275500297546387,1.293272614479065,-0.0648152157664299
1686445575946781000,0.688781005859375,0.12083373963832855,1.3106629848480225,-0.01569853536784649
1686445575956797000,0.698796875,0.05332234501838684,1.2954446077346802,0.010628942400217056
1686445575966814000,0.70881396484375,0.0033835461363196373,1.2544554471969604,0.006900783162564039
1686445575976831000,0.7188310546875,-0.032771527767181396,1.14518141746521,-0.02009807713329792
1686445575986848000,0.728847900390625,-0.0389828197658062,1.146170973777771,-0.05444087088108063
1686445575996865000,0.738864990234375,-0.026867566630244255,1.1898984909057617,-0.08008844405412674
1686445576006882000,0.748882080078125,0.007980961352586746,1.161188006401062,-0.08847740292549133
1686445576016898800,0.75889892578125,-0.006959372665733099,0.4239177107810974,0.04234772175550461
1686445576026915000,0.7689150390625,0.1668933779001236,0.4702913463115692,0.042876627296209335
1686445576036932000,0.77893212890625,0.3863935172557831,1.6225605010986328,-0.20817877352237701
1686445576046948900,0.788948974609375,0.4314139783382416,1.7984689474105835,-0.2623852789402008
1686445576056966100,0.798966064453125,0.3523029088973999,1.3001514673233032,-0.08866089582443237
1686445576066983000,0.80898291015625,0.26432645320892334,1.1369633674621582,0.07423534989356995
1686445576077000000,0.819,0.1886111944913864,1.1338621377944946,0.16491784155368805
1686445576087017000,0.829016845703125,0.06686478108167648,1.00279700756073,0.21584787964820862
1686445576097034000,0.839033935546875,-0.07331202924251556,0.8487406373023987,0.19996771216392517
1686445576107050000,0.849050048828125,-0.15868417918682098,0.7931159734725952,0.15063558518886566
1686445576117066800,0.859066650390625,-0.16316922008991241,0.7611926794052124,0.1081022322177887
1686445576127084000,0.869083984375,-0.12327586114406586,0.6809979677200317,0.1060103252530098
1686445576137101000,0.87910107421875,-0.04867139831185341,0.5515763163566589,0.12839525938034058
1686445576147117800,0.889117919921875,0.05431783199310303,0.3944554328918457,0.1562977284193039
1686445576157135000,0.899135009765625,0.137594074010849,0.25821104645729065,0.17549645900726318
1686445576167151900,0.90915185546875,0.16180488467216492,0.17777052521705627,0.16640602052211761
1686445576177168000,0.91916796875,0.0930873304605484,0.0712113305926323,0.11205649375915527
1686445576187185200,0.92918505859375,0.017375262454152107,0.061098240315914154,0.03809305652976036
1686445576197202000,0.939201904296875,0.006146043073385954,0.15511448681354523,-0.04291524365544319
1686445576207219000,0.949218994140625,0.011954131536185741,0.2672913670539856,-0.12001188844442368
1686445576217236000,0.959236083984375,-0.11500914394855499,0.3425546884536743,-0.13926520943641663
1686445576227253000,0.9692529296875,-0.05859673395752907,0.12891803681850433,-0.00628985371440649
1686445576237269800,0.979269775390625,-0.035357456654310226,0.300733745098114,-0.03226286545395851
1686445576247285800,0.98928564453125,-0.203139528632164,0.37577763199806213,-0.0728001743555069
1686445576257303000,0.999302978515625,-0.26835182309150696,0.09077384322881699,0.16401930153369904
1686445576267319800,1.00931982421875,-0.20145589113235474,0.055641159415245056,0.34527936577796936
1686445576277337000,1.019337158203125,-0.17048650979995728,0.1019950732588768,0.27938395738601685
1686445576287354000,1.02935400390625,-0.1811884343624115,0.17005668580532074,0.12487216293811798
1686445576297371000,1.039370849609375,-0.20844268798828125,0.25185540318489075,0.025831064209342003
1686445576307388200,1.04938818359375,-0.23123587667942047,0.2579633593559265,0.03188096731901169
1686445576317405000,1.059405029296875,-0.23781868815422058,0.2284800410270691,0.09754998981952667
1686445576327421000,1.0694208984375,-0.2591628432273865,0.22330258786678314,0.1696513444185257
1686445576337438000,1.07943798828125,-0.25637027621269226,0.3480690121650696,0.10392346978187561
1686445576347455000,1.089455078125,-0.13546541333198547,0.560161828994751,-0.12988342344760895
1686445576357472000,1.099471923828125,-0.09878223389387131,0.679858922958374,-0.25203755497932434
1686445576367488800,1.10948876953125,-0.14025618135929108,0.6781215071678162,-0.22897246479988098
1686445576377506000,1.119506103515625,-0.17427140474319458,0.6855463981628418,-0.13990703225135803
1686445576387522800,1.129522705078125,-0.16907423734664917,0.6203790903091431,-0.0747850239276886
1686445576397538800,1.139538818359375,-0.14705096185207367,0.4983879625797272,-0.05190900340676308
1686445576407556000,1.14955615234375,-0.11768908053636551,0.39761900901794434,-0.02714107371866703
1686445576417572900,1.15957275390625,-0.10846096277236938,0.3325931429862976,0.006807039491832256
1686445576427590000,1.16958984375,-0.10252451151609421,0.33842945098876953,0.026627084240317345
1686445576437607200,1.179607177734375,-0.09086838364601135,0.4198305606842041,0.041126664727926254
1686445576447624000,1.1896240234375,-0.0786665827035904,0.49770113825798035,0.05736102908849716
1686445576457641000,1.199640869140625,-0.07145127654075623,0.5641552805900574,0.056480586528778076
1686445576467657000,1.209656982421875,-0.06112753599882126,0.6011161804199219,0.038118623197078705
1686445576477674000,1.219674072265625,-0.05331834778189659,0.5712531208992004,0.02117426134645939
1686445576487691000,1.22969091796875,-0.03299150615930557,0.49060219526290894,-0.0035337484441697598
1686445576497707800,1.239707763671875,-0.019628828391432762,0.43307578563690186,-0.03008865937590599
1686445576507725000,1.24972509765625,-0.03603576496243477,0.420023113489151,-0.019626431167125702
1686445576517741800,1.259741943359375,-0.046959519386291504,0.38416871428489685,-0.03389724716544151
1686445576527759000,1.269759033203125,-0.049307361245155334,0.305032342672348,-0.08208262175321579
1686445576537775000,1.279775146484375,-0.059833772480487823,0.3017366826534271,-0.15045981109142303
1686445576547792000,1.2897919921875,-0.08422193676233292,0.29537147283554077,-0.1828499734401703
1686445576557809000,1.299808837890625,-0.10820210725069046,0.3058675229549408,-0.14199015498161316
1686445576567826000,1.309825927734375,-0.151600182056427,0.4322797656059265,-0.06536542624235153
1686445576577843000,1.319843017578125,-0.22083836793899536,0.6446484923362732,0.014055631123483181
1686445576587860000,1.32985986328125,-0.28596755862236023,0.7974798679351807,0.05294710397720337
1686445576597877000,1.339876953125,-0.2989531457424164,0.8168469071388245,0.056295230984687805
1686445576607893000,1.34989306640625,-0.29787614941596985,0.8454923629760742,0.05053561180830002
1686445576617910000,1.359909912109375,-0.2980649769306183,0.8920372724533081,0.10012553632259369
1686445576627927000,1.369927001953125,-0.28983768820762634,0.9134434461593628,0.14436917006969452
1686445576637944000,1.379944091796875,-0.26111680269241333,0.9310797452926636,0.14293451607227325
1686445576647960800,1.3899609375,-0.22803662717342377,0.8761698603630066,0.12456057220697403
1686445576657978000,1.39997802734375,-0.20246948301792145,0.7395073771476746,0.07961306720972061
1686445576667995000,1.409994873046875,-0.20126973092556,0.5331736207008362,0.061043113470077515
1686445576678012000,1.420011962890625,-0.21168668568134308,0.303428590297699,0.07077483832836151
1686445576688028000,1.43002783203125,-0.20083457231521606,0.014286527410149574,0.0552360899746418
1686445576698045000,1.440044921875,-0.13923858106136322,-0.16951553523540497,0.0515739768743515
1686445576708062000,1.45006201171875,-0.05295056477189064,-0.33845260739326477,0.025616945698857307
1686445576718079000,1.460078857421875,0.004984638653695583,-0.47326475381851196,-0.008214253932237625
1686445576728096000,1.470095947265625,0.03786935284733772,-0.533785343170166,-0.03662512078881264
1686445576738113000,1.480113037109375,0.08408425003290176,-0.5305546522140503,-0.08345042169094086
1686445576748129800,1.4901298828125,0.11196088790893555,-0.44174811244010925,-0.10455384105443954
1686445576758146000,1.50014599609375,0.07489687949419022,-0.2922952473163605,-0.10157696157693863
1686445576768162300,1.510162353515625,0.028117921203374863,-0.09206946939229965,-0.08384563028812408
1686445576778179300,1.520179443359375,-0.017133712768554688,0.06549778580665588,-0.06326685100793839
1686445576788196400,1.5301962890625,-0.024281371384859085,0.11153105646371841,-0.05771815776824951
1686445576798213000,1.540213134765625,-0.0036607813090085983,0.09779766947031021,-0.06969305872917175
1686445576808230400,1.55023046875,0.015727031975984573,0.021205952391028404,-0.08642011135816574
1686445576818247400,1.560247314453125,0.01540532149374485,-0.06421813368797302,-0.11897405982017517
1686445576828263200,1.57026318359375,-0.00452737370505929,-0.1402420550584793,-0.16201074421405792
1686445576838280400,1.580280517578125,-0.02251409739255905,-0.20178638398647308,-0.20550815761089325
1686445576848297500,1.59029736328125,-0.041665419936180115,-0.26810041069984436,-0.23157091438770294
1686445576858314200,1.600314208984375,-0.03735189884901047,-0.2929871380329132,-0.24371705949306488
1686445576868331500,1.61033154296875,-0.029341110959649086,-0.33978232741355896,-0.21323052048683167
1686445576878348300,1.620348388671875,-0.004522580187767744,-0.3910955786705017,-0.15187235176563263
1686445576888365300,1.630365234375,0.03738731890916824,-0.484357088804245,-0.14216646552085876
1686445576898381300,1.64038134765625,0.034624289721250534,-0.5228933095932007,-0.08670533448457718
1686445576908398300,1.6503984375,0.02304619736969471,-0.5280441045761108,-0.04104597121477127
1686445576918415400,1.660415283203125,0.0070248860865831375,-0.49843934178352356,-0.03814951702952385
1686445576928432000,1.67043212890625,-0.010864898562431335,-0.48903119564056396,-0.04361219331622124
1686445576938449400,1.680449462890625,-0.0046179210767149925,-0.5132284164428711,-0.08674687892198563
1686445576948466200,1.690466064453125,-0.02413170225918293,-0.5229388475418091,-0.10679995268583298
1686445576958483200,1.700483154296875,-0.0235801599919796,-0.5466330051422119,-0.11980602890253067
1686445576968499500,1.71049951171875,-0.03050837479531765,-0.5691952705383301,-0.1275198757648468
1686445576978516200,1.72051611328125,-0.04614752158522606,-0.5306995511054993,-0.12635447084903717
1686445576988533200,1.730533203125,-0.04113678261637688,-0.5009406208992004,-0.12123268097639084
1686445576998550500,1.740550537109375,0.004511661361902952,-0.4790946841239929,-0.1555728167295456
1686445577008567300,1.7505673828125,0.020837903022766113,-0.463174045085907,-0.17721658945083618
1686445577018584300,1.760584228515625,0.0011448930017650127,-0.38233140110969543,-0.10626358538866043
1686445577028601300,1.770601318359375,-0.002195776207372546,-0.3408941924571991,-0.07025525718927383
1686445577038618400,1.780618408203125,0.0011531487107276917,-0.3258156478404999,-0.07019160687923431
1686445577048634400,1.79063427734375,0.011796205304563046,-0.28696972131729126,-0.07489128410816193
1686445577058651400,1.8006513671875,0.0043870252557098866,-0.2597080171108246,-0.09193498641252518
1686445577068668400,1.81066845703125,-0.00023196132679004222,-0.26196396350860596,-0.09801018983125687
1686445577078685200,1.820685302734375,0.005944708362221718,-0.2314894199371338,-0.09508869796991348
1686445577088702500,1.830702392578125,0.023984961211681366,-0.17599447071552277,-0.08976823836565018
1686445577098719200,1.84071923828125,0.030041787773370743,-0.1525631695985794,-0.08695434033870697
1686445577108736300,1.850736328125,0.025115206837654114,-0.16416896879673004,-0.07489554584026337
1686445577118752300,1.860752197265625,0.06685413420200348,-0.12230673432350159,-0.08919698745012283
1686445577128769300,1.870769287109375,0.09984750300645828,-0.05277186632156372,-0.11579344421625137
1686445577138786300,1.880786376953125,0.10168348252773285,0.007419832982122898,-0.14143382012844086
1686445577148803300,1.89080322265625,0.09822350740432739,0.0998472347855568,-0.15219512581825256
1686445577158820400,1.9008203125,0.12522928416728973,0.1396753340959549,-0.15951669216156006
1686445577168837400,1.91083740234375,0.1537080705165863,0.16034333407878876,-0.16577191650867462
1686445577178854100,1.920854248046875,0.10728038102388382,-0.04598001018166542,-0.14972664415836334
1686445577188870400,1.930870361328125,0.21843060851097107,-0.1964329034090042,-0.22175423800945282
1686445577198887400,1.940887451171875,0.3367961347103119,-0.24459749460220337,-0.25055497884750366
1686445577208904200,1.950904296875,0.4222777485847473,-0.07640289515256882,-0.23911350965499878
1686445577218921500,1.96092138671875,0.5107519626617432,0.12251659482717514,-0.240645632147789
1686445577228938200,1.970938232421875,0.5793206095695496,0.2514657974243164,-0.25331321358680725
1686445577238955300,1.980955322265625,0.5672106742858887,0.331449031829834,-0.25981399416923523
1686445577248972300,1.99097216796875,0.486714243888855,0.30475112795829773,-0.2725583016872406
1686445577258988300,2.00098828125,0.3826778829097748,0.25375503301620483,-0.2494862675666809
1686445577269005300,2.01100537109375,0.30146077275276184,0.19574740529060364,-0.2245500236749649
1686445577279022300,2.021022216796875,0.26107022166252136,0.21790435910224915,-0.21976085007190704
1686445577289039400,2.031039306640625,0.2825765609741211,0.26749563217163086,-0.24481214582920074
1686445577299056400,2.041056396484375,0.3254249691963196,0.3027007579803467,-0.2855159044265747
1686445577309073400,2.051073486328125,0.3336288332939148,0.2896246314048767,-0.30743345618247986
1686445577319090400,2.06109033203125,0.30321580171585083,0.24759727716445923,-0.2926611602306366
1686445577329106400,2.0711064453125,0.266181617975235,0.21740609407424927,-0.2599189281463623
1686445577339123200,2.081123291015625,0.2597849667072296,0.22509756684303284,-0.23334643244743347
1686445577349140500,2.091140380859375,0.2839941680431366,0.28329962491989136,-0.23286360502243042
1686445577359157200,2.1011572265625,0.32580021023750305,0.35759034752845764,-0.25553908944129944
1686445577369174300,2.11117431640625,0.34863096475601196,0.3714427947998047,-0.2930039167404175
1686445577379191300,2.12119140625,0.3329888880252838,0.31075146794319153,-0.3332573175430298
1686445577389208300,2.131208251953125,0.2695808708667755,0.21659941971302032,-0.3777608871459961
1686445577399225300,2.141225341796875,0.2033669650554657,0.15219645202159882,-0.38832908868789673
1686445577409241300,2.151241455078125,0.1315649449825287,0.14256487786769867,-0.3714100420475006
1686445577419258400,2.16125830078125,0.08110204339027405,0.17709249258041382,-0.33292123675346375
1686445577429275400,2.171275390625,0.08189752697944641,0.22670450806617737,-0.3145483434200287
1686445577439292400,2.18129248046875,0.052745770663022995,0.274360716342926,-0.33096808195114136
1686445577449309400,2.191309326171875,0.05234389752149582,0.36845284700393677,-0.3461052179336548
1686445577459326200,2.201326171875,0.04093172028660774,0.4084692597389221,-0.32654082775115967
1686445577469343500,2.211343505859375,0.0406172014772892,0.3650858402252197,-0.289937287569046
1686445577479359500,2.221359375,0.016140088438987732,0.2902568578720093,-0.22260084748268127
1686445577489376300,2.231376220703125,-0.012677712365984917,0.22547386586666107,-0.17412066459655762
1686445577499393300,2.241393310546875,-0.0574028380215168,0.20604024827480316,-0.17309801280498505
1686445577509410300,2.251410400390625,-0.09752495586872101,0.23479865491390228,-0.1881009340286255
1686445577519427300,2.26142724609375,-0.14714577794075012,0.2930947244167328,-0.182908296585083
1686445577529444000,2.271444091796875,-0.17952822148799896,0.31312301754951477,-0.17994846403598785
1686445577539461400,2.28146142578125,-0.1797684282064438,0.3074773848056793,-0.21000570058822632
1686445577549477400,2.291477294921875,-0.1575440913438797,0.31490227580070496,-0.23839685320854187
1686445577559494100,2.301494140625,-0.10291359573602676,0.33380141854286194,-0.2395888864994049
1686445577569511400,2.311511474609375,-0.05041550472378731,0.35606223344802856,-0.21516530215740204
1686445577579528400,2.321528564453125,-0.014247112907469273,0.3725879490375519,-0.17347005009651184
1686445577589545200,2.331545166015625,-0.00026604978484101593,0.33037206530570984,-0.11762277036905289
1686445577599562500,2.3415625,0.00538304727524519,0.31533104181289673,-0.06353743374347687
1686445577609579300,2.351579345703125,0.010489392094314098,0.33261576294898987,-0.036791834980249405
1686445577619595300,2.36159521484375,0.03653563931584358,0.3429698646068573,-0.04399675130844116
1686445577629612500,2.371612548828125,0.06182049214839935,0.35340094566345215,-0.07883276045322418
1686445577639629300,2.38162939453125,0.06559924781322479,0.33927419781684875,-0.13084164261817932
1686445577649646300,2.391646240234375,0.059242017567157745,0.3182797133922577,-0.15818297863006592
1686445577659663400,2.401663330078125,0.030460171401500702,0.33181601762771606,-0.16100166738033295
1686445577669680400,2.411680419921875,0.019390741363167763,0.34057196974754333,-0.14382055401802063
1686445577679697200,2.421697265625,0.02616821974515915,0.2980298399925232,-0.13052046298980713
1686445577689713200,2.431713134765625,0.04840188845992088,0.24918586015701294,-0.1380992829799652
1686445577699730400,2.44173046875,0.07048588246107101,0.2283484786748886,-0.14811091125011444
1686445577709747200,2.451747314453125,0.09192033857107162,0.20614704489707947,-0.1615590751171112
1686445577719764200,2.46176416015625,0.1082116886973381,0.2154899388551712,-0.16799938678741455
1686445577729781500,2.471781494140625,0.12721574306488037,0.22592420876026154,-0.16624143719673157
1686445577739798300,2.48179833984375,0.18173198401927948,0.2350202351808548,-0.16862283647060394
1686445577749815300,2.491815185546875,0.25541579723358154,0.21292345225811005,-0.1932389736175537
1686445577759831600,2.50183154296875,0.3590625524520874,0.19222989678382874,-0.2654990553855896
1686445577769848000,2.51184814453125,0.45466870069503784,0.1514347940683365,-0.34813693165779114
1686445577779865300,2.521865234375,0.49636343121528625,0.12294909358024597,-0.4008456766605377
1686445577789882000,2.531882080078125,0.46337857842445374,0.12148541957139969,-0.41065651178359985
1686445577799899100,2.541899169921875,0.3992406129837036,0.14902889728546143,-0.381474107503891
1686445577809916200,2.551916259765625,0.2975749671459198,0.1995927393436432,-0.3536185324192047
1686445577819933200,2.56193310546875,0.1668206751346588,0.33084291219711304,-0.34210115671157837
1686445577829950200,2.5719501953125,0.06732204556465149,0.4919090270996094,-0.34120073914527893
1686445577839966000,2.581966064453125,-0.00424294825643301,0.5866448283195496,-0.35686516761779785
1686445577849983200,2.591983154296875,-0.07138363271951675,0.6094990372657776,-0.3682936131954193
1686445577860000300,2.602000244140625,-0.10521643608808517,0.531241774559021,-0.37396666407585144
1686445577870017000,2.61201708984375,-0.14201466739177704,0.4074237048625946,-0.40561914443969727
1686445577880034300,2.622034423828125,-0.1597161591053009,0.2613338530063629,-0.42356619238853455
1686445577890051000,2.632051025390625,-0.18741436302661896,0.1292264312505722,-0.41657406091690063
1686445577900068400,2.642068359375,-0.20405060052871704,0.04565270617604256,-0.3812648057937622
1686445577910084400,2.65208447265625,-0.24809876084327698,0.016144348308444023,-0.3237317204475403
1686445577920101000,2.66210107421875,-0.29589956998825073,0.026128273457288742,-0.22657056152820587
1686445577930118100,2.6721181640625,-0.3268313705921173,0.06221197545528412,-0.12834171950817108
1686445577940135200,2.68213525390625,-0.3624783158302307,0.10573042184114456,-0.07806790620088577
1686445577950152200,2.692152099609375,-0.40018388628959656,0.1468040943145752,-0.07476504892110825
1686445577960169000,2.7021689453125,-0.41287145018577576,0.16625554859638214,-0.11126287281513214
1686445577970186200,2.712186279296875,-0.40735766291618347,0.19482913613319397,-0.15398050844669342
1686445577980202200,2.7222021484375,-0.3809332251548767,0.23465831577777863,-0.17337045073509216
1686445577990219000,2.732218994140625,-0.35558420419692993,0.21923567354679108,-0.16685663163661957
1686445578000236300,2.742236328125,-0.33563631772994995,0.16221021115779877,-0.14796629548072815
1686445578010253300,2.75225341796875,-0.35149678587913513,0.15369075536727905,-0.09345218539237976
1686445578020270000,2.76227001953125,-0.3970456123352051,0.20368841290473938,-0.02534051053225994
1686445578030287400,2.772287353515625,-0.43250560760498047,0.3459531366825104,0.0691433846950531
1686445578040304000,2.78230419921875,-0.4489293396472931,0.5077273845672607,0.15660718083381653
1686445578050320100,2.792320068359375,-0.4135284721851349,0.6153201460838318,0.16867157816886902
1686445578060337200,2.802337158203125,-0.353490948677063,0.7230945825576782,0.10021554678678513
1686445578070354200,2.812354248046875,-0.2971286177635193,0.854533314704895,0.049250904470682144
1686445578080371200,2.82237109375,-0.241188645362854,1.0080573558807373,0.03561152517795563
1686445578090388000,2.832387939453125,-0.19986490905284882,1.0809882879257202,0.061461228877305984
1686445578100405200,2.8424052734375,-0.1587963104248047,1.0809434652328491,0.08903560042381287
1686445578110422000,2.852422119140625,-0.13014841079711914,1.0478625297546387,0.10523241013288498
1686445578120438000,2.86243798828125,-0.11653060466051102,1.0281788110733032,0.08807553350925446
1686445578130455300,2.872455322265625,-0.10585532337427139,1.0180963277816772,0.04965011030435562
1686445578140472000,2.88247216796875,-0.10744789987802505,0.9185351729393005,0.006614493206143379
1686445578150489000,2.892489013671875,-0.09055919200181961,0.8087335824966431,0.0038312235847115517
1686445578160506400,2.90250634765625,-0.11096087098121643,0.6225056648254395,0.035053856670856476
1686445578170523100,2.912523193359375,-0.1187940314412117,0.6101096868515015,0.1210385411977768
1686445578180540200,2.9225400390625,-0.1746831238269806,0.4789103865623474,0.06807465851306915
1686445578190557200,2.93255712890625,-0.18674404919147491,0.26829349994659424,-0.09812843054533005
1686445578200573200,2.9425732421875,-0.3054150342941284,-0.061461761593818665,-0.2257433831691742
1686445578210590200,2.952590087890625,-0.46472588181495667,-0.3238300085067749,-0.3158831298351288
1686445578220607200,2.962607177734375,-0.6235346794128418,-0.5438284277915955,-0.309219628572464
1686445578230624300,2.972624267578125,-0.6673029661178589,-0.7634598612785339,-0.22415906190872192
1686445578240641000,2.98264111328125,-0.6180099844932556,-0.9006972908973694,-0.11223732680082321
1686445578250658300,2.992658203125,-0.5282116532325745,-0.7892477512359619,-0.009381251409649849
1686445578260675000,3.002675048828125,-0.410016804933548,-0.6317811608314514,0.06363490223884583
1686445578270691000,3.012691162109375,-0.30291780829429626,-0.5024276971817017,0.0685095489025116
1686445578280708000,3.0227080078125,-0.24470774829387665,-0.4266242980957031,0.016868196427822113
1686445578290725000,3.03272509765625,-0.21686360239982605,-0.3677263557910919,0.012745622545480728
1686445578300742100,3.0427421875,-0.16734345257282257,-0.3081035017967224,0.05331595242023468
1686445578310759200,3.05275927734375,-0.1156267300248146,-0.22233107686042786,0.08712851256132126
1686445578320776200,3.062776123046875,-0.07259883731603622,-0.09579470008611679,0.10590539127588272
1686445578330793200,3.072793212890625,-0.04687030240893364,0.02107146382331848,0.11792450398206711
1686445578340809200,3.082809326171875,0.0004961469094268978,0.13925082981586456,0.08731280267238617
1686445578350826200,3.092826171875,0.07265129685401917,0.3639609217643738,0.00555215822532773
1686445578360843300,3.10284326171875,0.1597854048013687,0.6050741672515869,-0.1189626082777977
1686445578370860000,3.112860107421875,0.2127775102853775,0.6895347237586975,-0.23286600410938263
1686445578380877300,3.122877197265625,0.2771834135055542,0.7632752656936646,-0.225644052028656
1686445578390894000,3.13289404296875,0.2274044007062912,0.6999703645706177,-0.20832151174545288
1686445578400911000,3.1429111328125,0.17892926931381226,0.5897125601768494,-0.2070581167936325
1686445578410927000,3.152927001953125,0.18010932207107544,0.4958835244178772,-0.13746625185012817
1686445578420944100,3.162944091796875,0.16862016916275024,0.4264269471168518,-0.07031703740358353
1686445578430961200,3.172961181640625,0.14361202716827393,0.3503289818763733,-0.039913326501846313
1686445578440978200,3.182978271484375,0.11333587765693665,0.2578563094139099,-0.009220928885042667
1686445578450995200,3.1929951171875,0.07605109363794327,0.1541498899459839,0.014821556396782398
1686445578461012200,3.20301220703125,0.021694909781217575,0.07336129993200302,0.02340838685631752
1686445578471029200,3.213029296875,0.004171841777861118,0.03496623784303665,0.01576325111091137
1686445578481046300,3.22304638671875,-0.007427556440234184,0.0028450549580156803,0.027703799307346344
1686445578491062300,3.233062255859375,-0.00606481684371829,-0.0030570426024496555,0.034892737865448
1686445578501079000,3.2430791015625,-0.010864099487662315,0.015139005146920681,0.038963112980127335
1686445578511096300,3.253096435546875,-0.11780226975679398,0.02461826056241989,0.11527758836746216
1686445578521113000,3.263113037109375,-0.17434117197990417,0.02634851634502411,0.20738141238689423
1686445578531130000,3.273130126953125,-0.1591734141111374,0.007936752401292324,0.052799299359321594
1686445578541147100,3.283147216796875,-0.1608133763074875,0.00558065390214324,0.0704006627202034
1686445578551164200,3.2931640625,-0.16240808367729187,-0.023840883746743202,0.10413678735494614
1686445578561180200,3.30318017578125,-0.1492542028427124,-0.036190759390592575,0.12351847440004349
1686445578571197200,3.313197265625,-0.11398781836032867,-0.0653848648071289,0.12131337821483612
1686445578581214200,3.323214111328125,-0.08066128939390182,-0.06695826351642609,0.08567522466182709
1686445578591231200,3.333231201171875,-0.01926024630665779,-0.07065632939338684,0.05007914453744888
1686445578601248300,3.343248291015625,0.0068089039996266365,-0.10865244269371033,0.07691448926925659
1686445578611265300,3.353265380859375,-0.0013097425689920783,-0.20832231640815735,0.07439406961202621
1686445578621282000,3.363281982421875,0.001770203118212521,-0.1610964834690094,0.07445186376571655
1686445578631298000,3.373298095703125,-0.01267211977392435,-0.11274545639753342,0.10036628693342209
1686445578641315300,3.3833154296875,-0.05365470424294472,-0.0859127789735794,0.07165714353322983
1686445578651332000,3.39333203125,-0.08412633091211319,-0.059971459209918976,0.029331257566809654
1686445578661349000,3.40334912109375,-0.08373803645372391,-0.07683991640806198,0.04045581445097923
1686445578671366100,3.4133662109375,-0.07671528309583664,-0.11212893575429916,0.03948189690709114
1686445578681383200,3.423383056640625,-0.11958924680948257,-0.19711387157440186,0.04832625389099121
1686445578691400000,3.43339990234375,-0.1696486920118332,-0.2391742318868637,0.032157137989997864
1686445578701416200,3.443416259765625,-0.1993410736322403,-0.25995010137557983,0.01840990036725998
1686445578711433200,3.45343310546875,-0.20138344168663025,-0.26216715574264526,0.02286110632121563
1686445578721450000,3.463449951171875,-0.19037500023841858,-0.27738073468208313,0.04529983550310135
1686445578731467300,3.47346728515625,-0.18081772327423096,-0.3000842034816742,0.06288895010948181
1686445578741484300,3.483484375,-0.16774000227451324,-0.32705509662628174,0.07135673612356186
1686445578751501000,3.4935009765625,-0.15199512243270874,-0.3671204745769501,0.07080919295549393
1686445578761518300,3.503518310546875,-0.13806626200675964,-0.40562233328819275,0.07005924731492996
1686445578771535600,3.51353564453125,-0.12037887424230576,-0.45347586274147034,0.07293333113193512
1686445578781551600,3.523551513671875,-0.08954639732837677,-0.49910035729408264,0.08014676719903946
1686445578791568600,3.533568603515625,-0.07600182294845581,-0.5459309816360474,0.10000728815793991
1686445578801585400,3.54358544921875,-0.07785990834236145,-0.6142919063568115,0.11052730679512024
1686445578811602700,3.553602783203125,-0.08917594701051712,-0.6972478032112122,0.10224274545907974
1686445578821619500,3.563619384765625,-0.10544626414775848,-0.7676356434822083,0.08196410536766052
1686445578831636500,3.573636474609375,-0.12370223551988602,-0.8244603276252747,0.04705885425209999
1686445578841653500,3.583653564453125,-0.1321716159582138,-0.8656141757965088,0.020838169381022453
1686445578851669500,3.59366943359375,-0.1327631026506424,-0.9094985127449036,-0.00030360036180354655
1686445578861686500,3.6036865234375,-0.12608975172042847,-0.9467159509658813,-0.011721104383468628
1686445578871703600,3.61370361328125,-0.11746777594089508,-0.9842659831047058,-0.020723387598991394
1686445578881720600,3.623720458984375,-0.11598412692546844,-1.0041613578796387,-0.036188896745443344
1686445578891737300,3.6337373046875,-0.11477238684892654,-1.0013477802276611,-0.05072629451751709
1686445578901754600,3.643754638671875,-0.12545005977153778,-0.9816068410873413,-0.05668112263083458
1686445578911771600,3.653771728515625,-0.13294926285743713,-0.9698404669761658,-0.05434686318039894
1686445578921787400,3.663787353515625,-0.12650413811206818,-0.9499061703681946,-0.047275103628635406
1686445578931804700,3.6738046875,-0.10985565930604935,-0.9500361084938049,-0.03283917158842087
1686445578941821700,3.68382177734375,-0.08548986911773682,-0.9832484126091003,-0.0054488275200128555
1686445578951838500,3.69383837890625,-0.07590728253126144,-1.0176026821136475,0.007537811063230038
1686445578961855700,3.703855712890625,-0.06884750723838806,-1.0557609796524048,0.005188636481761932
1686445578971872500,3.71387255859375,-0.07699544727802277,-1.0790660381317139,0.000621848099399358
1686445578981889500,3.7238896484375,-0.084206223487854,-1.0622036457061768,-0.007354851812124252
1686445578991906600,3.733906494140625,-0.09005452692508698,-0.9706372618675232,-0.03478194773197174
1686445579001922600,3.743922607421875,-0.09215682744979858,-0.8379362225532532,-0.062303055077791214
1686445579011939600,3.753939697265625,-0.09447351098060608,-0.7048356533050537,-0.05301181972026825
1686445579021956400,3.763956298828125,-0.0876651406288147,-0.6134234666824341,-0.020486898720264435
1686445579031973600,3.7739736328125,-0.079498291015625,-0.5546408295631409,0.012801814824342728
1686445579041990400,3.783990478515625,-0.06633082032203674,-0.5122299790382385,0.04508332163095474
1686445579052007400,3.79400732421875,-0.0486663393676281,-0.5143309831619263,0.06490869075059891
1686445579062024700,3.804024658203125,-0.04292083531618118,-0.5561116933822632,0.07644683867692947
1686445579072040400,3.81404052734375,-0.04941442236304283,-0.6144325137138367,0.07801996916532516
1686445579082057500,3.824057373046875,-0.04996170103549957,-0.6545178890228271,0.06138639524579048
1686445579092074800,3.83407470703125,-0.060437776148319244,-0.6837335824966431,0.041245706379413605
1686445579102091500,3.844091552734375,-0.07683698832988739,-0.7049107551574707,0.027879035100340843
1686445579112108500,3.854108642578125,-0.07940560579299927,-0.7001511454582214,0.021215006709098816
1686445579122125600,3.86412548828125,-0.07796217501163483,-0.6856808662414551,0.017557954415678978
1686445579132142600,3.874142578125,-0.07317434251308441,-0.6453390717506409,0.019646672531962395
1686445579142158600,3.88415869140625,-0.05712160840630531,-0.5590441226959229,0.030556578189134598
1686445579152175400,3.89417529296875,-0.03618490323424339,-0.44758257269859314,0.04054316505789757
1686445579162192600,3.904192626953125,-0.029642313718795776,-0.34862589836120605,0.04375413805246353
1686445579172209400,3.91420947265625,-0.03125086426734924,-0.24476101994514465,0.046056974679231644
1686445579182226700,3.924226806640625,-0.030104106292128563,-0.12940992414951324,0.045517150312662125
1686445579192243500,3.934243408203125,-0.03509433940052986,-0.012971991673111916,0.03503654524683952
1686445579202260500,3.944260498046875,-0.03978682681918144,0.08076249063014984,0.028382105752825737
1686445579212277800,3.95427783203125,-0.05090632289648056,0.1519053727388382,0.02436632663011551
1686445579222293500,3.96429345703125,-0.0583525225520134,0.19147488474845886,0.01841975376009941
1686445579232310500,3.974310546875,-0.06324049085378647,0.21303556859493256,0.006631803698837757
1686445579242327600,3.98432763671875,-0.06768929958343506,0.21906150877475739,-0.008715461008250713
1686445579252344600,3.994344482421875,-0.06626823544502258,0.21908068656921387,-0.02749314345419407
1686445579262361600,4.004361572265625,-0.06324634701013565,0.2083960771560669,-0.04241057485342026
1686445579272378400,4.01437841796875,-0.05597884580492973,0.2012162059545517,-0.053938332945108414
1686445579282395600,4.024395751953125,-0.047983236610889435,0.19697459042072296,-0.059475842863321304
1686445579292411600,4.03441162109375,-0.03630581125617027,0.21539780497550964,-0.04984026029706001
1686445579302428400,4.044428466796875,-0.032702021300792694,0.24809768795967102,-0.03067775070667267
1686445579312445700,4.05444580078125,-0.02636369690299034,0.2950612008571625,0.0006362291751429439
1686445579322462500,4.06446240234375,-0.01950499229133129,0.3522073030471802,0.025431323796510696
1686445579332479500,4.0744794921875,-0.009460080415010452,0.40644150972366333,0.03777267783880234
1686445579342496500,4.08449658203125,-0.015421832911670208,0.45936012268066406,0.028298217803239822
1686445579352513500,4.094513427734375,-0.024752750992774963,0.4882335960865021,0.001886050682514906
1686445579362529500,4.104529541015625,-0.036445360630750656,0.49360039830207825,-0.02586808241903782
1686445579372546600,4.114546630859375,-0.04577574506402016,0.4660547971725464,-0.04056446999311447
1686445579382563600,4.1245634765625,-0.053348444402217865,0.41409358382225037,-0.04276290908455849
1686445579392580600,4.13458056640625,-0.05032682046294212,0.3525737524032593,-0.03418806567788124
1686445579402597400,4.144597412109375,-0.0492146834731102,0.2947426736354828,-0.019305255264043808
1686445579412614700,4.15461474609375,-0.04465002566576004,0.24709554016590118,-0.0012383698485791683
1686445579422631400,4.16463134765625,-0.042868103832006454,0.21524439752101898,0.012464925646781921
1686445579432647400,4.1746474609375,-0.038126081228256226,0.19685980677604675,0.018798988312482834
1686445579442664700,4.184664794921875,-0.029857231304049492,0.19785796105861664,0.025886723771691322
1686445579452681500,4.194681396484375,-0.022779880091547966,0.2123016119003296,0.03338991478085518
1686445579462698500,4.204698486328125,-0.015060176141560078,0.22313322126865387,0.032275646924972534
1686445579472715500,4.214715576171875,-0.006190251559019089,0.2296728789806366,0.032103341072797775
1686445579482732500,4.224732666015625,0.005096757784485817,0.22993972897529602,0.034017886966466904
1686445579492749600,4.23474951171875,0.012352273799479008,0.2195906788110733,0.02839542180299759
1686445579502766600,4.2447666015625,0.021992916241288185,0.19904465973377228,0.019331885501742363
1686445579512782600,4.254782470703125,0.026912840083241463,0.16673944890499115,0.01281433179974556
1686445579522799600,4.264799560546875,0.034204840660095215,0.13190796971321106,0.0003736414946615696
1686445579532816600,4.274816650390625,0.04210351034998894,0.09209343791007996,-0.0062517705373466015
1686445579542833700,4.284833740234375,0.04631689935922623,0.048532914370298386,-0.010581538081169128
1686445579552850400,4.294850341796875,0.048642102628946304,0.007893876172602177,-0.013888118788599968
1686445579562867700,4.30486767578125,0.056833188980817795,-0.02822498045861721,-0.016203470528125763
1686445579572884500,4.314884521484375,0.062247928231954575,-0.05341262370347977,-0.0049532135017216206
1686445579582900500,4.324900390625,0.07255276292562485,-0.06984645873308182,0.006653375457972288
1686445579592917500,4.33491748046875,0.07688279449939728,-0.08053532242774963,0.02305205538868904
1686445579602934500,4.3449345703125,0.07109468430280685,-0.09403834491968155,0.027424434199929237
1686445579612951600,4.35495166015625,0.05290449410676956,-0.1123044341802597,0.02292395755648613
1686445579622968300,4.36496826171875,0.03032674640417099,-0.13350559771060944,0.01501250546425581
1686445579632985600,4.374985595703125,0.009846239350736141,-0.16407015919685364,0.005959355738013983
1686445579643002600,4.385002685546875,-0.005139368120580912,-0.19980712234973907,0.005135640036314726
1686445579653018400,4.395018310546875,-0.02376365289092064,-0.23158343136310577,0.002986468840390444
1686445579663035600,4.40503564453125,-0.03759318217635155,-0.25362586975097656,0.01577097363770008
1686445579673052700,4.415052734375,-0.04569185525178909,-0.2576456665992737,0.017675666138529778
1686445579683069400,4.4250693359375,-0.0525343157351017,-0.24293887615203857,0.012881443835794926
1686445579693086700,4.435086669921875,-0.05813387781381607,-0.20454168319702148,0.004908205941319466
1686445579703103500,4.445103515625,-0.062189072370529175,-0.13268055021762848,-0.0024410535115748644
1686445579713120500,4.45512060546875,-0.06932980567216873,-0.04381139576435089,0.006999852601438761
1686445579723137500,4.465137451171875,-0.06827093660831451,0.04008030891418457,0.022476812824606895
1686445579733153500,4.475153564453125,-0.06290652602910995,0.10511097311973572,0.03374224901199341
1686445579743170600,4.485170654296875,-0.06316165626049042,0.14842142164707184,0.0392288938164711
1686445579753187600,4.4951875,-0.060330718755722046,0.1685543954372406,0.041375137865543365
1686445579763204600,4.50520458984375,-0.061403706669807434,0.17666877806186676,0.04658640921115875
1686445579773221600,4.5152216796875,-0.05753413215279579,0.18421244621276855,0.052930593490600586
1686445579783238700,4.52523876953125,-0.05113881826400757,0.18239670991897583,0.06161356344819069
1686445579793255700,4.535255615234375,-0.04646017774939537,0.18136392533779144,0.057788729667663574
1686445579803271700,4.545271728515625,-0.04471580684185028,0.17871807515621185,0.05786862596869469
1686445579813288700,4.555288818359375,-0.042096320539712906,0.17410096526145935,0.04615657776594162
1686445579823305700,4.5653056640625,-0.04328329116106033,0.170654296875,0.04073544591665268
1686445579833322800,4.57532275390625,-0.041424937546253204,0.16627445816993713,0.03446290269494057
1686445579843339800,4.58533984375,-0.03425810486078262,0.15725113451480865,0.03517822548747063
1686445579853356500,4.5953564453125,-0.023839818313717842,0.15676644444465637,0.041132256388664246
1686445579863373800,4.605373779296875,-0.01236265990883112,0.16313380002975464,0.0506671704351902
1686445579873390600,4.615390625,-0.00481286458671093,0.17368631064891815,0.05215827748179436
1686445579883406600,4.625406494140625,-0.009050752967596054,0.18706469237804413,0.059304602444171906
1686445579893423600,4.635423583984375,-0.009986055083572865,0.18781118094921112,0.05609043315052986
1686445579903440600,4.645440673828125,-0.010664096102118492,0.17074377834796906,0.05270795151591301
1686445579913457700,4.655457763671875,-0.0062789348885416985,0.13974031805992126,0.04151974618434906
1686445579923474700,4.665474609375,0.0011885687708854675,0.09776091575622559,0.028671592473983765
1686445579933491700,4.67549169921875,0.0009536779834888875,0.05173110589385033,0.011413775384426117
1686445579943508700,4.6855087890625,0.002319879597052932,0.015004515647888184,-0.0031822111923247576
1686445579953524500,4.6955244140625,-0.0036458675749599934,-0.007122624199837446,-0.014515026472508907
1686445579963541800,4.705541748046875,-0.013887852430343628,-0.009247560054063797,-0.022406771779060364
1686445579973558800,4.715558837890625,-0.02256869152188301,-0.006684001535177231,-0.023793213069438934
1686445579983575600,4.725575439453125,-0.027696076780557632,-0.002049835165962577,-0.020745491608977318
1686445579993592800,4.7355927734375,-0.03093527816236019,-0.0014825817197561264,-0.0193161740899086
1686445580003609600,4.745609619140625,-0.03337686508893967,0.002745985286310315,-0.012925918214023113
1686445580013626600,4.755626708984375,-0.028070250526070595,-0.0013132047606632113,-0.010045976378023624
1686445580023643600,4.7656435546875,-0.02004268392920494,-0.009036371484398842,0.0044080642983317375
1686445580033659600,4.77565966796875,-0.011800467036664486,-0.018671156838536263,0.02502971887588501
1686445580043676700,4.7856767578125,0.0004266384057700634,-0.01962163858115673,0.057971157133579254
1686445580053693700,4.795693603515625,0.0024146882351487875,0.0022386531345546246,0.09051205962896347
1686445580063710700,4.805710693359375,-0.0014154701493680477,0.03446503356099129,0.11216089129447937
1686445580073727500,4.8157275390625,-0.008423312567174435,0.0736345425248146,0.11542486399412155
1686445580083744800,4.825744873046875,-0.01944187469780445,0.10271093249320984,0.11283999681472778
1686445580093761800,4.83576171875,-0.0334722064435482,0.11276676505804062,0.10666918754577637
1686445580103777500,4.845777587890625,-0.04483778029680252,0.09874388575553894,0.10882315039634705
1686445580113794600,4.855794677734375,-0.05468375235795975,0.07775738090276718,0.1127992495894432
1686445580123811800,4.865811767578125,-0.05194442346692085,0.0594438873231411,0.10987722873687744
1686445580133828600,4.87582861328125,-0.057789262384176254,0.05234310030937195,0.10063579678535461
1686445580143845600,4.885845703125,-0.06283941864967346,0.05571519210934639,0.09081459045410156
1686445580153862700,4.895862548828125,-0.059067316353321075,0.054060306400060654,0.08190978318452835
1686445580163879700,4.905879638671875,-0.04470834881067276,0.060630857944488525,0.07412269711494446
1686445580173895700,4.915895751953125,-0.036063726991415024,0.08026288449764252,0.07338153570890427
1686445580183912700,4.92591259765625,-0.031562719494104385,0.1038435772061348,0.06553160399198532
1686445580193929700,4.9359296875,-0.03220374137163162,0.11041545867919922,0.05134521424770355
1686445580203946500,4.945946533203125,-0.033001359552145004,0.11036299169063568,0.038062695413827896
1686445580213963800,4.9559638671875,-0.03543122857809067,0.1053575798869133,0.031984832137823105
1686445580223980500,4.96598046875,-0.03515505790710449,0.08578947186470032,0.036970801651477814
1686445580233997600,4.97599755859375,-0.03286420553922653,0.046121422201395035,0.05862735956907272
1686445580244014800,4.986014892578125,-0.02852139063179493,-0.0009808422764763236,0.07888629287481308
1686445580254030600,4.996030517578125,-0.032523587346076965,-0.04863438010215759,0.09325990825891495
1686445580264047600,5.006047607421875,-0.03457928076386452,-0.10722552239894867,0.0894598439335823
1686445580274065000,5.01606494140625,-0.029812224209308624,-0.16272367537021637,0.06156349554657936
1686445580284081700,5.02608154296875,-0.018320150673389435,-0.19738364219665527,0.02749101258814335
1686445580294098700,5.0360986328125,-0.0009219863568432629,-0.21616984903812408,-0.0006287723081186414
1686445580304115700,5.04611572265625,0.009573264978826046,-0.22341550886631012,-0.00820919405668974
1686445580314132700,5.0561328125,0.013395966030657291,-0.21415862441062927,-0.010095776990056038
1686445580324148700,5.066148681640625,-0.0008255799184553325,-0.19302351772785187,-0.008525843732059002
1686445580334165500,5.07616552734375,-0.013128585182130337,-0.16677939891815186,-0.012480637989938259
1686445580344182800,5.086182861328125,-0.027704332023859024,-0.14525066316127777,-0.008669654838740826
1686445580354199600,5.096199462890625,-0.03935805708169937,-0.12258423864841461,0.004385161213576794
1686445580364216600,5.106216552734375,-0.0404914990067482,-0.09488629549741745,0.018339326605200768
1686445580374233600,5.116233642578125,-0.03768585994839668,-0.061705175787210464,0.039256591349840164
1686445580384250600,5.126250732421875,-0.025827601552009583,-0.026746392250061035,0.05050498619675636
1686445580394267600,5.136267578125,-0.006247243378311396,-0.009310677647590637,0.06672923266887665
1686445580404283600,5.14628369140625,0.002231462625786662,-0.023087475448846817,0.07760264724493027
1686445580414300700,5.15630078125,0.010280334390699863,-0.058214835822582245,0.08809097856283188
1686445580424317700,5.166317626953125,0.004605937283486128,-0.09814414381980896,0.0842064917087555
1686445580434334700,5.176334716796875,0.008894957602024078,-0.1592932492494583,0.0706334263086319
1686445580444351700,5.186351806640625,-0.00015339808305725455,-0.2359430193901062,0.030717965215444565
1686445580454368500,5.196368408203125,-0.0126380305737257,-0.3246329426765442,-0.018382469192147255
1686445580464385800,5.2063857421875,-0.0362434908747673,-0.3786002993583679,-0.05423793941736221
1686445580474401800,5.21640185546875,-0.04897020757198334,-0.37579041719436646,-0.055759403854608536
1686445580484418600,5.22641845703125,-0.04912174120545387,-0.30821216106414795,-0.035530563443899155
1686445580494435800,5.236435791015625,-0.025112276896834373,-0.16724784672260284,-0.01908154971897602
1686445580504452600,5.24645263671875,-0.0018141453620046377,0.025180986151099205,-0.014274809509515762
1686445580514469600,5.2564697265625,0.004346545320004225,0.19596551358699799,-0.011919243261218071
1686445580524486700,5.266486572265625,-0.013169331476092339,0.29437410831451416,-0.003120692213997245
1686445580534503700,5.276503662109375,-0.016116386279463768,0.3178783655166626,0.007161506451666355
1686445580544520700,5.286520751953125,-0.022111160680651665,0.27891072630882263,0.009388442151248455
1686445580554536700,5.29653662109375,-0.028672924265265465,0.18520501255989075,0.002633067313581705
1686445580564553700,5.3065537109375,-0.03779451549053192,0.06624480336904526,-0.008852614089846611
1686445580574570800,5.31657080078125,-0.04658987373113632,-0.04740346968173981,-0.018642926588654518
1686445580584587500,5.32658740234375,-0.04809802025556564,-0.12747406959533691,-0.021978003904223442
1686445580594604800,5.336604736328125,-0.035771045833826065,-0.16402621567249298,-0.015561648644506931
1686445580604621600,5.34662158203125,-0.02497539110481739,-0.15939471125602722,0.00036751621519215405
1686445580614638600,5.356638671875,-0.017903100699186325,-0.133929044008255,0.01474352553486824
1686445580624654800,5.36665478515625,-0.012168249115347862,-0.0995660051703453,0.03218802809715271
1686445580634671600,5.376671630859375,-0.007684551179409027,-0.06595078855752945,0.03460964187979698
1686445580644688600,5.386688720703125,-0.009182047098875046,-0.03573376312851906,0.03668930381536484
1686445580654705700,5.39670556640625,-0.011236143298447132,-0.002891926560550928,0.027875039726495743
1686445580664722700,5.40672265625,-0.018098842352628708,0.008532768115401268,0.015414908528327942
1686445580674739700,5.41673974609375,-0.020740699023008347,0.016113189980387688,0.01016714982688427
1686445580684756700,5.4267568359375,-0.020377177745103836,0.01709429919719696,0.006258961278945208
1686445580694773800,5.436773681640625,-0.016173377633094788,0.016732107847929,0.008133826777338982
1686445580704789800,5.446789794921875,-0.015986956655979156,0.011048922315239906,0.01661732606589794
1686445580714806500,5.456806640625,-0.005148156546056271,0.013216203078627586,0.025831330567598343
1686445580724823800,5.46682373046875,-0.005268797744065523,0.005648298189043999,0.03562270849943161
1686445580734840600,5.476840576171875,-0.003802461316809058,-0.005784918554127216,0.044193293899297714
1686445580744857900,5.48685791015625,-0.00911653321236372,-0.024583639577031136,0.049737460911273956
1686445580754874600,5.49687451171875,-0.012893694452941418,-0.0425485260784626,0.05254390090703964
1686445580764891100,5.50689111328125,-0.008423046208918095,-0.04620451480150223,0.05983031168580055
1686445580774907100,5.5169072265625,-0.004021905828267336,-0.04842185974121094,0.07172585278749466
1686445580784924000,5.526923828125,0.004535097163170576,-0.041604433208703995,0.07742874324321747
1686445580794941000,5.53694091796875,0.010540791787207127,-0.02919250726699829,0.08461208641529083
1686445580804958200,5.546958251953125,0.01176531333476305,-0.024274978786706924,0.08565258979797363
1686445580814975000,5.55697509765625,0.008041414432227612,-0.030173614621162415,0.08215159177780151
1686445580824992000,5.566991943359375,0.0056802560575306416,-0.05131112411618233,0.0766332596540451
1686445580835009000,5.577009033203125,0.0021318604703992605,-0.07558823376893997,0.06917188316583633
1686445580845025000,5.58702490234375,-0.0049521480686962605,-0.10774217545986176,0.05422621965408325
1686445580855042000,5.5970419921875,-0.007198257837444544,-0.13299986720085144,0.04364041984081268
1686445580865059000,5.60705908203125,-0.008473912253975868,-0.14911864697933197,0.028873993083834648
1686445580875076000,5.617076171875,-0.01242018397897482,-0.1483713537454605,0.014251373708248138
1686445580885092900,5.6270927734375,-0.009473130106925964,-0.13378283381462097,0.0012692625168710947
1686445580895110100,5.637110107421875,-0.008650479838252068,-0.10556317865848541,-0.005945240613073111
1686445580905127200,5.647127197265625,-0.011847871355712414,-0.07361296564340591,-0.008351939730346203
1686445580915144000,5.65714404296875,-0.00706856232136488,-0.0451432429254055,-0.005256281234323978
1686445580925160000,5.667159912109375,-0.008791627362370491,-0.010870491154491901,0.003207244910299778
1686445580935177000,5.677177001953125,-0.006354834884405136,0.012403406202793121,0.008699748665094376
1686445580945194000,5.687194091796875,-0.008371646516025066,0.025078188627958298,0.009721336886286736
1686445580955211300,5.697211181640625,-0.00598518829792738,0.029576268047094345,0.0114958006888628
1686445580965228000,5.70722802734375,-0.007354319095611572,0.02905348874628544,0.006597715429961681
1686445580975245000,5.7172451171875,-0.008577775210142136,0.02304007112979889,0.0030509172938764095
1686445580985262000,5.727261962890625,-0.005979329347610474,0.023607058450579643,0.00624165078625083
1686445580995278000,5.737278076171875,-0.004495149478316307,0.03032434917986393,0.010580472648143768
1686445581005295000,5.747295166015625,-0.003709516953676939,0.03459605947136879,0.017849303781986237
1686445581015312000,5.757311767578125,0.00041731735109351575,0.03861583396792412,0.021401960402727127
1686445581025329200,5.7673291015625,-0.002383262850344181,0.03838813677430153,0.022910641506314278
1686445581035346000,5.777345947265625,-0.0024256070610135794,0.03701367601752281,0.02574504353106022
1686445581045363000,5.787363037109375,-0.010178068652749062,0.037755101919174194,0.023566313087940216
1686445581055380200,5.797380126953125,-0.013646570034325123,0.03689862787723541,0.024630511179566383
1686445581065397000,5.80739697265625,-0.01733904331922531,0.03296061232686043,0.021034978330135345
1686445581075413000,5.8174130859375,-0.02196868136525154,0.026981815695762634,0.019151324406266212
1686445581085430300,5.82743017578125,-0.020714333280920982,0.013073990121483803,0.013729927130043507
1686445581095447000,5.837447021484375,-0.015777364373207092,0.004036553204059601,0.010701379738748074
1686445581105464000,5.847464111328125,-0.011929896660149097,-0.0015994944842532277,0.010683536529541016
1686445581115481000,5.857481201171875,-0.008496815338730812,-0.0010221211705356836,0.012132829055190086
1686445581125498000,5.867498046875,-0.004025368019938469,0.006564425770193338,0.007990282028913498
1686445581135515000,5.877514892578125,-0.0021350563038140535,0.012094479985535145,0.009575662203133106
1686445581145532200,5.8875322265625,0.000597879639826715,0.01269662007689476,0.007237140089273453
1686445581155548200,5.897548095703125,0.001722532557323575,0.001716939965263009,0.0038165762089192867
1686445581165565000,5.90756494140625,0.00047617321251891553,-0.013118465431034565,0.0027118970174342394
1686445581175582000,5.91758203125,0.0018130800453945994,-0.025231853127479553,0.0001680454588495195
1686445581185599000,5.927598876953125,0.0021611552219837904,-0.03465384989976883,-0.0008442220860160887
1686445581195616000,5.937615966796875,0.001035436987876892,-0.03407168388366699,-0.0028991170693188906
1686445581205633300,5.94763330078125,-0.005047223065048456,-0.024226775392889977,-0.005033907014876604
1686445581215650000,5.957650146484375,-0.00884915143251419,-0.017290839925408363,-0.005447762086987495
1686445581225666000,5.967666015625,-0.011151987127959728,-0.010206298902630806,-0.005224056541919708
1686445581235683000,5.97768310546875,-0.014690794982016087,-0.004704207647591829,-0.004786499310284853
1686445581245700000,5.9877001953125,-0.012168515473604202,-0.0026349315885454416,-0.007386277429759502
1686445581255717000,5.997717041015625,-0.01173308864235878,-0.0031305458396673203,-0.002856240142136812
1686445581265734000,6.00773388671875,-0.00433163158595562,0.0006000102148391306,0.004708202555775642
1686445581275751200,6.017751220703125,-0.002980343531817198,0.0028605014085769653,0.004720719531178474
1686445581285768000,6.027767822265625,-0.0022216090001165867,0.006091448478400707,0.0070251524448394775
1686445581295784000,6.037783935546875,0.00025592977181077003,0.012342154048383236,0.014296913519501686
1686445581305801200,6.04780126953125,-0.00008628641808172688,0.015925170853734016,0.012917396612465382
1686445581315818000,6.05781787109375,0.0011259844759479165,0.013881727121770382,0.010794591158628464
1686445581325835000,6.0678349609375,-0.0020511667244136333,0.0028096348978579044,0.007458182517439127
1686445581335852000,6.07785205078125,-0.000011451592399680521,-0.010465956293046474,0.005901032127439976
1686445581345869000,6.087869140625,-0.0015912387752905488,-0.021251492202281952,0.0037651772145181894
1686445581355886000,6.097885986328125,-0.0000977380113909021,-0.023384684696793556,0.0030453247018158436
1686445581365903000,6.107903076171875,0.005230448208749294,-0.01461835764348507,0.007122357841581106
1686445581375919000,6.117919189453125,0.0037446708884090185,-0.0006998787284828722,0.01173415407538414
1686445581385936100,6.12793603515625,-0.0003046656202059239,0.008110923692584038,0.009460879489779472
1686445581395953000,6.137952880859375,0.0015395734226331115,0.014536865055561066,0.011660384014248848
1686445581405970200,6.14797021484375,-0.00015579492901451886,0.012559734284877777,0.010234261862933636
1686445581415987000,6.157987060546875,-0.0015331818722188473,0.003990214318037033,0.004001133143901825
1686445581426004000,6.16800390625,-0.004315652418881655,0.0008849684381857514,-0.0007771103992126882
1686445581436021000,6.17802099609375,-0.006363356951624155,-0.0026253440883010626,-0.003091131104156375
1686445581446038000,6.1880380859375,-0.008406533859670162,-0.0009664611425250769,-0.006043511442840099
1686445581456054000,6.198053955078125,-0.006041381042450666,0.001698830397799611,-0.0011853729374706745
1686445581466071000,6.208071044921875,-0.007418235298246145,0.0005917543894611299,-0.0013057478936389089
1686445581476088000,6.218088134765625,-0.006334328558295965,0.001055943313986063,-0.001282312092371285
1686445581486105000,6.22810498046875,-0.00714792450889945,0.0020301276817917824,0.002897785510867834
1686445581496122000,6.2381220703125,-0.006807305850088596,-0.00006897587445564568,0.0030274814926087856
1686445581506139100,6.24813916015625,-0.0003355582884978503,-0.0003350256592966616,0.002360359765589237
1686445581516156000,6.258156005859375,-0.0011470235185697675,-0.0021315941121429205,0.004572114907205105
1686445581526172200,6.268172119140625,-0.0010865697404369712,0.002779274946078658,0.0021204089280217886
1686445581536189200,6.278189208984375,-0.004368915688246489,0.011262508109211922,-0.0021116205025464296
1686445581546206000,6.2882060546875,-0.004217914305627346,0.015290805138647556,-0.001549959764815867
1686445581556223200,6.29822314453125,-0.00424241553992033,0.01056369487196207,-0.0009749832679517567
1686445581566240000,6.308239990234375,-0.0032320122700184584,0.0025571673177182674,0.0007238471880555153
1686445581576257000,6.318257080078125,-0.002773149637505412,-0.010095244273543358,-0.0003225088003091514
1686445581586274000,6.328274169921875,-0.0023302659392356873,-0.01531477365642786,0.006295712664723396
1686445581596290000,6.3382900390625,-0.00024980452144518495,-0.013778396882116795,0.0070493873208761215
1686445581606307000,6.34830712890625,-0.002520682057365775,-0.007016630377620459,0.010064618661999702
1686445581616323800,6.35832373046875,-0.0018876485992223024,-0.0009587379754520953,0.009817743673920631
1686445581626341000,6.368341064453125,-0.00253426400013268,0.0036461339332163334,0.008111190050840378
1686445581636358100,6.378358154296875,-0.0036852823104709387,0.0034551850985735655,0.010401507839560509
1686445581646375000,6.388375,0.0008367652189917862,-0.00038589202449657023,0.010062487795948982
1686445581656392200,6.39839208984375,-0.0036096484400331974,-0.004329234827309847,0.009941846132278442
1686445581666409000,6.408408935546875,0.0009779128013178706,-0.01134213712066412,0.006036320701241493
1686445581676425000,6.418425048828125,0.002394980750977993,-0.008214520290493965,0.009031311608850956
1686445581686442200,6.428442138671875,0.006760966964066029,-0.008053931407630444,0.004060788080096245
1686445581696459000,6.438458984375,0.006673881784081459,-0.004274373408406973,0.004249872639775276
1686445581706476000,6.44847607421875,-0.0002205097407568246,-0.0026224146131426096,0.0038810246624052525
1686445581716493000,6.4584931640625,-0.001353684812784195,0.0004697816038969904,0.0034621094819158316
1686445581726510000,6.468510009765625,-0.001832787413150072,-0.00019654128118418157,0.0014327806420624256
1686445581736526800,6.47852685546875,-0.0007464840309694409,0.0017331852577626705,0.0009645969257690012
1686445581746544000,6.488544189453125,-0.006905043963342905,0.0005965480813756585,-0.00344586418941617
1686445581756560100,6.49856005859375,-0.006637129932641983,-0.0012546151410788298,-0.004267449490725994
1686445581766577200,6.5085771484375,-0.008613727986812592,-0.0018410432385280728,-0.0009784454014152288
1686445581776594200,6.51859423828125,-0.010885138064622879,-0.001219727797433734,-0.003471430391073227
1686445581786611200,6.528611083984375,-0.006102100946009159,0.002918291836977005,0.0013217268278822303
1686445581796628200,6.538628173828125,-0.009212672710418701,0.004446413833647966,0.003947869874536991
1686445581806645200,6.548645263671875,-0.003935352899134159,0.009444368071854115,0.0032682311721146107
1686445581816662000,6.558662109375,-0.006359362509101629,0.009285643696784973,0.004268780816346407
1686445581826678300,6.56867822265625,-0.007003314793109894,0.01176105160266161,0.0068326061591506
1686445581836695300,6.5786953125,-0.003826696192845702,0.008257930167019367,0.006968693342059851
1686445581846712000,6.588712158203125,-0.006795321591198444,0.006059756502509117,0.004190217703580856
1686445581856729300,6.598729248046875,-0.003537210635840893,0.004918059334158897,0.0029206888284534216
1686445581866746000,6.60874609375,-0.000018908443962573074,0.005559348501265049,0.003942543640732765
1686445581876763100,6.61876318359375,-0.00210709311068058,0.005853627808392048,0.006344448775053024
1686445581886780200,6.6287802734375,-0.0031547807157039642,0.007780957501381636,0.006426474079489708
1686445581896797200,6.638797119140625,-0.007245129905641079,0.009447298012673855,0.003768372815102339
1686445581906813200,6.648813232421875,-0.0049489522352814674,0.012353339232504368,0.00415346585214138
1686445581916830000,6.658829833984375,-0.0028426581993699074,0.01218715775758028,0.0027869981713593006
1686445581926847200,6.66884716796875,-0.005739910993725061,0.009635848924517632,0.005085838492959738
1686445581936864300,6.6788642578125,-0.0038192393258213997,0.003988349810242653,0.004086886998265982
1686445581946881000,6.688881103515625,-0.008102667517960072,0.0033518546260893345,0.002183525823056698
1686445581956898300,6.698898193359375,-0.0037771612405776978,-0.001478320686146617,0.0034461303148418665
1686445581966915000,6.7089150390625,-0.0011150655336678028,-0.0024831313639879227,0.005879727192223072
1686445581976931000,6.71893115234375,-0.003369963960722089,-0.002653307281434536,0.006580937188118696
1686445581986948400,6.7289482421875,-0.0005507417372427881,-0.0020748688839375973,0.0014767227694392204
1686445581996965000,6.738965087890625,-0.005799565929919481,-0.000568052229937166,0.006709035485982895
1686445582006982100,6.748982177734375,-0.002266882685944438,-0.0013379721203818917,0.0025987126864492893
1686445582016999200,6.758999267578125,-0.004740426782518625,-0.0030218889005482197,0.0030887341126799583
1686445582027016200,6.76901611328125,-0.001743305241689086,-0.004165183752775192,-0.002808036981150508
1686445582037033000,6.779032958984375,-0.0044440170750021935,-0.0035230957437306643,-0.0016117451013997197
1686445582047050200,6.78905029296875,-0.007428621407598257,-0.0008807073463685811,-0.0037736992817372084
1686445582057066200,6.799066162109375,-0.005558283533900976,0.000556334329303354,-0.0038519962690770626
1686445582067083000,6.8090830078125,-0.005958823021501303,0.0033124396577477455,0.002299639629200101
1686445582077100300,6.819100341796875,-0.005530320107936859,0.0039012646302580833,-0.0016322514275088906
1686445582087117300,6.829117431640625,-0.003793140407651663,0.0038402783684432507,0.003691940102726221
1686445582097134000,6.839134033203125,-0.008564726449549198,0.000030892668291926384,0.003394731320440769
1686445582107151400,6.8491513671875,-0.006579872220754623,0.001654089312069118,0.00177925790194422
1686445582117168000,6.859168212890625,-0.010308830067515373,-0.0008016114588826895,0.0036972665693610907
1686445582127184100,6.86918408203125,-0.007214769721031189,-0.0015137407463043928,0.0024770060554146767
1686445582137201200,6.879201171875,-0.00618093041703105,0.0027286747936159372,-0.0006053365068510175
1686445582147218200,6.88921826171875,-0.007790278643369675,0.0012860405258834362,-0.00038482676609419286
1686445582157235200,6.899235107421875,-0.0036077843979001045,0.006800381932407618,0.002103098202496767
1686445582167252000,6.909251953125,-0.005829659756273031,0.004985437728464603,0.0010098706698045135
1686445582177269200,6.919269287109375,-0.00663526589050889,0.0015286544803529978,0.0038666436448693275
1686445582187286000,6.9292861328125,-0.005329251755028963,-0.0018407768802717328,0.001912948559038341
1686445582197303000,6.939302978515625,-0.007755657657980919,-0.003695668652653694,0.0003121224872302264
1686445582207319300,6.9493193359375,-0.006356433033943176,-0.003887682454660535,0.0006908240029588342
1686445582217336000,6.959336181640625,-0.008831574581563473,-0.007661914452910423,0.0021947110071778297
1686445582227353000,6.96935302734375,-0.013510748744010925,-0.007483482826501131,-0.002005360322073102
1686445582237370400,6.979370361328125,-0.011828962713479996,-0.00805952399969101,-0.001847967505455017
1686445582247387100,6.98938720703125,-0.008285893127322197,-0.0022357236593961716,0.0019598202779889107
1686445582257404200,6.999404052734375,-0.00512818293645978,-0.0006213154993019998,0.003922037314623594
1686445582267421200,7.009421142578125,-0.005577191710472107,-0.0010277138790115714,0.0012253203894942999
1686445582277437200,7.019437255859375,-0.007614510133862495,-0.0025598304346203804,0.0016341155860573053
1686445582287454200,7.0294541015625,-0.006431267596781254,-0.008494418114423752,0.002928145695477724
1686445582297471200,7.03947119140625,-0.006822485942393541,-0.005027781706303358,0.0011238539591431618
1686445582307488300,7.04948828125,-0.00757988914847374,-0.0067878649570047855,0.0004269047058187425
1686445582317505000,7.059505126953125,-0.004758536349982023,-0.0051923650316894054,0.0000023968450477696024
1686445582327522300,7.069522216796875,-0.006485862657427788,0.0007723167072981596,-0.00043010051012970507
1686445582337539000,7.0795390625,-0.003959587775170803,0.006829410325735807,0.001142229768447578
1686445582347555000,7.08955517578125,-0.003355582943186164,0.005588377360254526,0.001853560097515583
1686445582357572000,7.099572021484375,-0.0022767363116145134,0.005252819042652845,0.002644518855959177
1686445582367589000,7.109589111328125,-0.005319664254784584,0.00663446681573987,0.0007613977650180459
1686445582377606100,7.119606201171875,-0.0052472264505922794,0.004705273080617189,0.0020815266761928797
1686445582387623200,7.129623046875,-0.006878145970404148,0.0026881948579102755,0.002746251644566655
1686445582397640200,7.13964013671875,-0.009316270239651203,0.00018109494703821838,0.002612560987472534
1686445582407657200,7.1496572265625,-0.008927715010941029,-0.0031252196058630943,0.001942243310622871
1686445582417674000,7.159674072265625,-0.009186840616166592,-0.0037316211964935064,0.00017550231132190675
1686445582427690200,7.169690185546875,-0.008460862562060356,-0.0008378304773941636,0.0016966998809948564
1686445582437707300,7.179707275390625,-0.006238987669348717,0.003084739437326789,0.002409894485026598
1686445582447724000,7.18972412109375,-0.008117049001157284,0.004775047767907381,-0.00005299690383253619
1686445582457741300,7.1997412109375,-0.006733004003763199,0.0075633772648870945,-0.001253017340786755
1686445582467758000,7.209758056640625,-0.004904477391391993,0.0018250643042847514,0.002365685999393463
1686445582477775000,7.219775146484375,-0.004535097163170576,-0.0006436860421672463,-0.00034168356796726584
1686445582487792000,7.229792236328125,-0.004747350700199604,0.004322576802223921,-0.0012871057260781527
1686445582497809200,7.23980908203125,-0.006058957893401384,-0.0005430185701698065,0.0004966795677319169
1686445582507825200,7.2498251953125,-0.00637933611869812,0.002855974016711116,-0.0025414545089006424
1686445582517842200,7.25984228515625,-0.006792658474296331,0.00041252365917898715,-0.0015893745003268123
1686445582527859200,7.269859130859375,-0.006078665144741535,-0.0011406318517401814,-0.004763596225529909
1686445582537876200,7.279876220703125,-0.006458698306232691,-0.0033752904273569584,-0.0027110979426652193
1686445582547893200,7.289893310546875,-0.0072746905498206615,-0.004039216320961714,-0.0006617955514229834
1686445582557910300,7.29991015625,-0.008699215948581696,-0.001475657569244504,0.00029827404068782926
1686445582567927000,7.309927001953125,-0.007134874816983938,0.0011888351291418076,0.0017614146927371621
1686445582577943000,7.319943115234375,-0.006838465109467506,0.002398176584392786,0.004138818476349115
1686445582587960300,7.329960205078125,-0.006079730577766895,-0.00012623383372556418,0.0013851100811734796
1686445582597977000,7.33997705078125,-0.005338572897017002,0.00039175100391730666,0.0016626114957034588
1686445582607994000,7.349994140625,-0.005541771650314331,-0.0010820423485711217,0.00019893812714144588
1686445582618011100,7.36001123046875,-0.0038123151753097773,-0.0007803061744198203,0.00035606464371085167
1686445582628028200,7.370028076171875,-0.006356166675686836,-0.001091629732400179,0.0024762072134763002
1686445582638045200,7.380045166015625,-0.003736148588359356,-0.000012783173588104546,-0.00021385183208622038
1686445582648062200,7.390062255859375,-0.004227501805871725,0.0010663296561688185,-0.00036991306114941835
1686445582658078200,7.400078125,-0.00387356779538095,0.004495682194828987,0.003472229465842247
1686445582668095200,7.41009521484375,-0.0027624969370663166,-0.0012064119800925255,0.0012125372886657715
1686445582678112300,7.4201123046875,-0.007811051327735186,0.0010306433541700244,0.0006567355012521148
1686445582688129300,7.43012939453125,-0.008748217485845089,-0.0003789678157772869,-0.0013917679898440838
1686445582698146000,7.44014599609375,-0.008094677701592445,-0.0013851100811734796,-0.0015638081822544336
1686445582708163300,7.450163330078125,-0.010538660921156406,0.00016058860637713224,-0.0006125270738266408
1686445582718180000,7.46018017578125,-0.006066680885851383,-0.0011488876771181822,-0.0007179882377386093
1686445582728196000,7.470196044921875,-0.008298942819237709,-0.0007922904333099723,0.0012895026011392474
1686445582738213000,7.480213134765625,-0.008462194353342056,0.0011797803454101086,0.001990979304537177
1686445582748230100,7.490230224609375,-0.004907939583063126,0.000031158982892520726,0.0035838158801198006
1686445582758247200,7.5002470703125,-0.006190517917275429,-0.0013424995122477412,0.0002468750171829015
1686445582768264400,7.510264404296875,-0.004845887888222933,0.0002002697146963328,0.00256435782648623
1686445582778281500,7.520281494140625,-0.008873919025063515,-0.002835467690601945,-0.003233077470213175
1686445582788298500,7.530298583984375,-0.007558583747595549,-0.002686596941202879,-0.00024580975878052413
1686445582798315500,7.5403154296875,-0.005258677992969751,-0.0023214775137603283,-0.002844256116077304
1686445582808331500,7.55033154296875,-0.007438741624355316,-0.005026450380682945,-0.0004767058417201042
1686445582818348300,7.560348388671875,-0.005909021943807602,-0.0028181569650769234,-0.0010966897243633866
1686445582828365600,7.570365478515625,-0.005944708362221718,-0.003466370515525341,-0.0006498112925328314
1686445582838382600,7.580382568359375,-0.00848589651286602,0.00042743736412376165,-0.0007150587625801563
1686445582848399400,7.5903994140625,-0.009623332880437374,0.0019861855544149876,-0.002183525823056698
1686445582858416600,7.600416748046875,-0.011461978778243065,-0.002572879893705249,-0.002302036387845874
1686445582868433400,7.610433349609375,-0.009839314967393875,-0.00347489258274436,-0.003983023576438427
1686445582878450400,7.620450439453125,-0.010234261862933636,-0.0030900659039616585,0.000770452490542084
1686445582888466400,7.630466552734375,-0.00875221285969019,0.0009443568997085094,-0.0007941546500660479
1686445582898483500,7.6404833984375,-0.007216367404907942,0.00027510453946888447,-0.000028229507734067738
1686445582908500500,7.65050048828125,-0.007089867256581783,-0.0008117315010167658,0.0008471515611745417
1686445582918517200,7.660517333984375,-0.007964449934661388,-0.002700445242226124,-0.00032890037982724607
1686445582928534500,7.670534423828125,-0.008582036942243576,-0.0023422501981258392,0.0010697918478399515
1686445582938551600,7.680551513671875,-0.008770588785409927,-0.0006303702248260379,0.0007720504072494805
1686445582948568300,7.690568359375,-0.00523604080080986,0.0005515406373888254,-0.002659965306520462
1686445582958584600,7.70058447265625,-0.004051200579851866,0.0008788431296125054,-0.0010783139150589705
1686445582968601300,7.710601318359375,-0.008166583254933357,0.004340420011430979,0.0003350256592966616
1686445582978618400,7.720618408203125,-0.006036054342985153,0.004568652715533972,-0.00009480853623244911
1686445582988635600,7.7306357421875,-0.007217965554445982,0.005549495108425617,-0.00046072687837295234
1686445582998652400,7.74065234375,-0.006189186125993729,0.0028415927663445473,0.0013494236627593637
1686445583008669400,7.75066943359375,-0.006844590418040752,0.0009771138429641724,0.0017920411191880703
1686445583018686500,7.7606865234375,-0.010583934374153614,-0.002636263146996498,0.0009555422002449632
1686445583028703500,7.770703369140625,-0.005563609767705202,-0.005318598821759224,0.0013486248208209872
1686445583038719500,7.780719482421875,-0.011196461506187916,-0.005733252968639135,0.004448277875781059
1686445583048736500,7.790736572265625,-0.0076126460917294025,-0.004378769546747208,-0.0011739213950932026
1686445583058753500,7.80075341796875,-0.00720438314601779,-0.0018628811230883002,-0.0004652542411349714
1686445583068770300,7.810770263671875,-0.009440373629331589,0.002281530061736703,0.0004237089306116104
1686445583078787600,7.82078759765625,-0.008490157313644886,0.00509968725964427,0.00458756135776639
1686445583088804600,7.8308046875,-0.009659551084041595,0.005982258822768927,-0.000464188982732594
1686445583098821400,7.8408212890625,-0.007194796111434698,0.006493585649877787,0.0019204054260626435
1686445583108837400,7.85083740234375,-0.003983822651207447,0.005652559455484152,0.0008098672842606902
1686445583118854400,7.8608544921875,-0.009588179178535938,-0.0013488910626620054,-0.0001573928166180849
1686445583128871400,7.870871337890625,-0.010658769868314266,-0.002843457041308284,-0.0046544065698981285
1686445583138888400,7.880888427734375,-0.009934922680258751,-0.006186256650835276,-0.00014141385327093303
1686445583148905500,7.890905517578125,-0.009521067142486572,-0.009813748300075531,-0.0000673779723001644
1686445583158922500,7.900922607421875,-0.011925901286303997,-0.006477872841060162,-0.0006884271278977394
1686445583168939300,7.910939208984375,-0.009225189685821533,-0.005838980432599783,-0.0008285093936137855
1686445583178956500,7.92095654296875,-0.007467770017683506,0.0016330503858625889,-0.0008870989549905062
1686445583188972500,7.93097265625,-0.005140167195349932,0.009363408200442791,-0.002344913315027952
1686445583198989300,7.9409892578125,-0.006689594127237797,0.00815060455352068,0.0006948187365196645
1686445583209006600,7.951006591796875,-0.006036853417754173,0.005050951149314642,0.0007659250986762345
1686445583219023400,7.9610234375,-0.005614742636680603,0.0006617955514229834,0.006367351859807968
1686445583229040400,7.971040283203125,-0.007026750594377518,-0.004907939583063126,0.002276470186188817
1686445583239057700,7.9810576171875,-0.010004963725805283,-0.009124255739152431,-0.0010993528412654996
1686445583249074400,7.991074462890625,-0.010397247038781643,-0.010840397328138351,0.0011968245962634683
1686445583259091500,8.001091552734374,-0.012010590173304081,-0.007408647798001766,-0.0012519520241767168
1686445583269107500,8.011107421875,-0.013906494714319706,-0.006231264211237431,-0.0002567287301644683
1686445583279124500,8.02112451171875,-0.01594754122197628,-0.007741809356957674,-0.0009121326729655266
1686445583289141500,8.0311416015625,-0.014312893152236938,-0.006053897552192211,0.0003371562052052468
1686445583299158500,8.041158447265625,-0.010018013417720795,-0.005311941262334585,0.0031667647417634726
1686445583309175600,8.051175537109375,-0.012105398811399937,-0.007963917218148708,0.0030336068011820316
1686445583319192300,8.0611923828125,-0.01275467686355114,-0.0065652248449623585,0.00016538229829166085
1686445583329209600,8.071209716796876,-0.010143714025616646,-0.006985471583902836,-0.0014413028256967664
1686445583339225600,8.0812255859375,-0.007192132994532585,0.003323891432955861,-0.001731853699311614
1686445583349242400,8.091242431640625,-0.005881591234356165,0.006213154643774033,-0.006533266510814428
1686445583359259400,8.10125927734375,-0.004089816473424435,0.007455785758793354,-0.0005012069013901055
1686445583369276400,8.1112763671875,-0.005706089083105326,0.006866161711513996,-0.0007190534961409867
1686445583379293400,8.12129345703125,-0.005770537536591291,0.007478688843548298,0.0020061591640114784
1686445583389310500,8.131310546875,-0.005918875336647034,-0.0005672533297911286,0.003979827743023634
1686445583399327500,8.141327392578125,-0.004514058120548725,-0.0005187837523408234,0.003023220458999276
1686445583409344500,8.151344482421875,-0.004731904715299606,-0.005754558369517326,0.00529622845351696
1686445583419360500,8.161360595703124,-0.0062613580375909805,-0.005760683678090572,0.007137271575629711
1686445583429377500,8.17137744140625,-0.0062794676050543785,-0.0062368568032979965,0.001802960061468184
1686445583439394600,8.18139453125,-0.007391337305307388,-0.005161472596228123,0.005590241402387619
1686445583449411300,8.191411376953125,-0.0070467242039740086,-0.004337756894528866,0.0006980145117267966
1686445583459428600,8.2014287109375,-0.008549013175070286,0.0014325142838060856,-0.0025680861435830593
1686445583469445400,8.2114453125,-0.010629208758473396,0.006470149848610163,-0.0033787523861974478
1686445583479462400,8.22146240234375,-0.008708536624908447,0.006821953225880861,-0.002948652021586895
1686445583489479400,8.2314794921875,-0.009485114365816116,0.007240868639200926,-0.003856523660942912
1686445583499495400,8.241495361328125,-0.008697351440787315,0.00202240445651114,-0.0038988678716123104
1686445583509512400,8.251512451171875,-0.0037851508241146803,0.0029949909076094627,-0.003430151380598545
1686445583519529200,8.261529296875,-0.006995857693254948,0.004342550411820412,-0.0008492820779792964
1686445583529546500,8.27154638671875,-0.004421113524585962,0.006873618811368942,0.00004846953015658073
1686445583539563500,8.2815634765625,-0.005505020264536142,0.003999269101768732,-0.0005459480453282595
1686445583549580500,8.29158056640625,-0.006596649996936321,0.0028690234757959843,0.0009912285022437572
1686445583559597600,8.30159765625,-0.005875998642295599,-0.0014570154016837478,-0.0012958941515535116
1686445583569613600,8.311613525390625,-0.008302670903503895,-0.0062552327290177345,-0.0014599448768422008
1686445583579630300,8.32163037109375,-0.007881359197199345,-0.009123723953962326,0.00030892668291926384
1686445583589647600,8.331647705078124,-0.004874649923294783,-0.00866059958934784,0.002516687149181962
1686445583599664400,8.341664306640626,-0.008675513789057732,-0.0060118199326097965,0.0012860405258834362
1686445583609681400,8.351681396484375,-0.005632053129374981,-0.0025515747256577015,0.0023012375459074974
1686445583619698400,8.361698486328125,-0.0076158419251441956,0.0003057308786083013,0.005303418729454279
1686445583629715500,8.371715576171875,-0.006209426559507847,0.0013523531379178166,0.003322559641674161
1686445583639732500,8.381732421875,-0.006881608162075281,-0.0000655137628200464,0.0028756812680512667
1686445583649748500,8.39174853515625,-0.008897621184587479,-0.0007699198904447258,0.002122006844729185
1686445583659765500,8.401765625,-0.004150004126131535,-0.0011749867117032409,0.002834135899320245
1686445583669782500,8.411782470703125,-0.0047148605808615685,0.0024402544368058443,0.004595284350216389
1686445583679799600,8.421799560546875,-0.0034530546981841326,0.0035209653433412313,0.0035116442013531923
1686445583689816600,8.431816650390624,-0.005648031830787659,0.004503405187278986,0.004024302586913109
1686445583699833300,8.441833251953126,-0.005781722720712423,0.007193197961896658,0.004220045171678066
1686445583709850600,8.4518505859375,-0.006484797224402428,0.0025864620693027973,0.0037947380915284157
1686445583719867400,8.461867431640625,-0.006725813262164593,0.0013643373968079686,0.003510046284645796
1686445583729883400,8.47188330078125,-0.006222209427505732,-0.002129996195435524,0.004162520635873079
1686445583739900400,8.481900390625,-0.010934673249721527,-0.0014325142838060856,0.0037816886324435472
1686445583749917400,8.49191748046875,-0.00782756321132183,-7.989483492565341e-7,0.002951315138489008
1686445583759934500,8.5019345703125,-0.004704474005848169,0.0013102752855047584,0.0057652113027870655
1686445583769951200,8.511951171875,-0.0065284729935228825,0.004363589454442263,-0.00034434671397320926
1686445583779968300,8.52196826171875,-0.004491420928388834,0.005732454359531403,-0.0005190501105971634
1686445583789985300,8.5319853515625,0.0004673847579397261,0.005730856209993362,0.0020764668006449938
1686445583800001300,8.542001220703124,-0.0035920715890824795,0.006931675598025322,0.0030535804107785225
1686445583810018300,8.552018310546876,0.0004450142150744796,0.0067716194316744804,0.0008756473544053733
1686445583820035300,8.562035400390625,-0.0034964641090482473,0.003878627670928836,-0.0024951156228780746
1686445583830052400,8.57205224609375,-0.001671666163019836,0.0003355582884978503,0.0005840312223881483
1686445583840069400,8.5820693359375,-0.001612277701497078,-0.0036519928835332394,-0.0005336974863894284
1686445583850086100,8.592086181640624,-0.004116714466363192,-0.003498062025755644,0.0026399914640933275
1686445583860103400,8.602103515625,-0.006099704187363386,0.00022397184511646628,-0.0011472897604107857
1686445583870120200,8.6121201171875,-0.006798517424613237,-0.0011800467036664486,0.0035513252951204777
1686445583880136200,8.62213623046875,-0.004803277086466551,0.002341983839869499,0.0008703210623934865
1686445583890153500,8.632153564453125,-0.006914631463587284,0.007273891940712929,0.004864530172199011
1686445583900170200,8.642170166015624,-0.00794634036719799,0.013244698755443096,0.004236290231347084
1686445583910187300,8.652187255859374,-0.004247209057211876,0.014025005511939526,0.004991828929632902
1686445583920204300,8.662204345703126,-0.005019525997340679,0.011523764580488205,0.007172957994043827
1686445583930221300,8.67222119140625,-0.004288488067686558,0.009562878869473934,0.005271993577480316
1686445583940238300,8.68223828125,-0.0038392129354178905,0.005617672111839056,0.005822735372930765
1686445583950255400,8.69225537109375,-0.0028567728586494923,0.006405967753380537,0.007137804292142391
1686445583960271400,8.702271240234374,-0.004516188520938158,0.005369998048990965,0.00395825644955039
1686445583970288400,8.712288330078126,-0.003740143496543169,0.004041080828756094,0.004340153653174639
1686445583980305200,8.72230517578125,-0.004740959499031305,0.007541273254901171,0.004789428785443306
1686445583990322400,8.732322509765625,-0.0034139060880988836,0.0037771612405776978,0.004032292403280735
1686445584000339200,8.742339111328125,-0.004490622319281101,0.001672198879532516,0.003605121048167348
1686445584010356200,8.752356201171875,-0.004433630499988794,0.002797118155285716,0.004512726329267025
1686445584020373200,8.762373291015624,-0.003055711043998599,0.0006061354652047157,0.003308178624138236
1686445584030390300,8.772390380859376,-0.003602191573008895,0.003943609073758125,0.005976133514195681
1686445584040406300,8.78240625,-0.0028487835079431534,0.0002873550693038851,0.001788046327419579
1686445584050423300,8.79242333984375,-0.0037031255196779966,0.0032237565610557795,0.00010093380114994943
1686445584060440300,8.8024404296875,-0.005035771057009697,0.0024535702541470528,-0.0012351741315796971
1686445584070457300,8.812457275390624,-0.0037971350830048323,0.001356347929686308,0.0022572954185307026
1686445584080474400,8.822474365234376,-0.0038256309926509857,0.00046312372433021665,0.0013795174891129136
1686445584090491400,8.832491455078125,-0.0029494508635252714,-0.0008982842555269599,0.0005392901366576552
1686445584100508200,8.842508056640625,-0.0019568908028304577,0.0013851100811734796,0.003008306724950671
1686445584110524200,8.852524169921875,-0.004824582487344742,0.002232261700555682,0.0021638183388859034
1686445584120541400,8.86254150390625,-0.004365986213088036,0.0006002765148878098,0.004479703027755022
1686445584130558200,8.87255810546875,-0.006081328261643648,0.006450442597270012,0.004092213232070208
1686445584140575500,8.882575439453126,-0.00487172044813633,0.010743457823991776,0.004009655211120844
1686445584150592300,8.89259228515625,-0.006029130425304174,0.007622499484568834,0.004954544827342033
1686445584160609300,8.902609375,-0.0070949275977909565,0.009268066845834255,0.001421861699782312
1686445584170626300,8.912626220703125,-0.006689061876386404,0.006873618811368942,0.0012887036427855492
1686445584180643300,8.922643310546874,-0.0067780110985040665,0.004629106726497412,0.004291417542845011
1686445584190659300,8.932659423828126,-0.0033688987605273724,0.003304982790723443,0.002299905987456441
1686445584200676000,8.942676025390625,-0.000011984225238848012,0.0052363071590662,0.0030682277865707874
1686445584210693400,8.952693359375,-0.004868790972977877,0.008540491573512554,0.003881823504343629
1686445584220710400,8.96271044921875,-0.0008394283941015601,0.004671450704336166,0.003924434073269367
1686445584230727200,8.97272705078125,-0.005037901923060417,0.001121989800594747,0.004577174782752991
1686445584240744400,8.982744384765626,-0.007270163390785456,-0.003805390791967511,0.0035811527632176876
1686445584250761200,8.99276123046875,-0.009736782871186733,-0.0026407905388623476,0.00487331859767437
1686445584260778200,9.0027783203125,-0.010326406918466091,-0.0009472863748669624,0.003272492438554764
1686445584270794500,9.01279443359375,-0.007475493010133505,0.0008767126128077507,0.005681587848812342
1686445584280811300,9.022811279296874,-0.005839513149112463,0.0007360977469943464,0.003296727081760764
1686445584290828300,9.032828369140624,-0.004674912896007299,0.0008769789128564298,0.005823001731187105
1686445584300845300,9.04284521484375,-0.004054396413266659,-0.003704723436385393,0.0022913836874067783
1686445584310862300,9.0528623046875,-0.0049156625755131245,-0.0035326832439750433,0.002897519152611494
1686445584320879000,9.062879150390625,-0.0016564861871302128,-0.004217914305627346,0.00003355582884978503
1686445584330896400,9.072896484375,-0.0017837852938100696,0.00330231967382133,-0.0008921589469537139
1686445584340912400,9.082912353515624,0.00021544973424170166,0.006904244888573885,0.0012474246323108673
1686445584350929200,9.09292919921875,-0.002918025478720665,0.010951983742415905,0.0014716627774760127
1686445584360946200,9.1029462890625,-0.0010226538870483637,0.012967197224497795,0.0030399984680116177
1686445584370963500,9.11296337890625,-0.0003022687742486596,0.014002634212374687,0.006641124840825796
1686445584380980200,9.122980224609375,-0.002115615177899599,0.011011105962097645,0.0062733422964811325
1686445584390997500,9.13299755859375,0.001967010786756873,0.006642722524702549,0.012840431183576584
1686445584401014300,9.14301416015625,-0.0034855452831834555,0.0016202671686187387,0.00806032307446003
1686445584411031300,9.15303125,-0.0011267834343016148,0.00005219795639277436,0.006462426856160164
1686445584421047300,9.16304736328125,-0.0034708979073911905,0.0018556906143203378,0.011091533116996288
1686445584431064300,9.173064208984375,-0.003881557146087289,0.0018032263033092022,0.0041611893102526665
1686445584441081300,9.183081298828125,-0.0016612798208370805,0.0029973878990858793,0.0024831313639879227
1686445584451098000,9.19309814453125,-0.00552126532420516,0.006155364215373993,0.0029640982393175364
1686445584461115400,9.203115478515626,-0.0015110776294022799,0.014349112287163734,0.0014958975370973349
1686445584471132200,9.213132080078125,-0.002972354181110859,0.015802664682269096,0.003677559085190296
1686445584481149200,9.223149169921875,-0.0005866943974979222,0.01720402017235756,0.003549194661900401
1686445584491165400,9.23316552734375,-0.0018578211311250925,0.012546418234705925,0.001817607437260449
1686445584501182200,9.24318212890625,-0.0019182749092578888,0.008709335699677467,-0.0024831313639879227
1686445584511199200,9.25319921875,-0.0032953955233097076,0.001660480978898704,-0.003753725439310074
1686445584521216500,9.263216552734375,-0.003933755215257406,-0.0008974852971732616,-0.006461627781391144
1686445584531233300,9.2732333984375,-0.0009054747642949224,-0.0022149509750306606,-0.0034019220620393753
1686445584541250300,9.283250244140625,-0.0033968619536608458,0.0019022959750145674,-0.0020003002136945724
1686445584551267300,9.293267333984375,-0.004210724029690027,0.005028580781072378,0.0004993426846340299
1686445584561284400,9.303284423828124,-0.003162503708153963,0.008224107325077057,0.0021164140198379755
1686445584571300400,9.31330029296875,-0.005947105120867491,0.004638161510229111,0.0018375811632722616
1686445584581317000,9.323317138671875,-0.0031071100383996964,0.0017872473690658808,0.005131378769874573
1686445584591334400,9.33333447265625,-0.00210602767765522,0.004098072182387114,0.005960687063634396
1686445584601351200,9.34335107421875,-0.0027419906109571457,0.007574296556413174,0.00854475237429142
1686445584611368200,9.3533681640625,-0.0002985403698403388,0.00908324308693409,0.006196909584105015
1686445584621385200,9.36338525390625,-0.0030450583435595036,0.009102950803935528,0.004276504274457693
1686445584631402200,9.37340234375,-0.00011771172285079956,0.00987180508673191,0.004245345015078783
1686445584641419500,9.38341943359375,-0.006710633169859648,0.0030216225422918797,0.0062459115870296955
1686445584651435300,9.393435302734375,-0.002290052128955722,0.008046208880841732,0.003850398352369666
1686445584661452300,9.403452392578124,-0.0038013961166143417,0.0076240976341068745,0.00663420045748353
1686445584671469300,9.41346923828125,-0.0014807175612077117,0.007183344569057226,0.0032048479188233614
1686445584681486300,9.423486328125,-0.0026644926983863115,0.008349542506039143,0.00500940578058362
1686445584691503400,9.43350341796875,-0.00503896689042449,0.005828860681504011,0.0063002402894198895
1686445584701520100,9.44352001953125,-0.0034738273825496435,0.00811971165239811,0.0041183121502399445
1686445584711537400,9.453537353515625,-0.004250671248883009,0.007001183927059174,0.0006095975404605269
1686445584721554200,9.46355419921875,-0.0028003137558698654,0.006661364808678627,0.0006716492353007197
1686445584731570200,9.473570068359376,-0.006085855886340141,0.005931925028562546,0.002189384773373604
1686445584741587500,9.48358740234375,-0.0038394792936742306,0.002764361212030053,0.0017451694002375007
1686445584751604200,9.493604248046875,-0.0026823359075933695,0.005517270881682634,0.003013632958754897
1686445584761621200,9.503621337890625,-0.0029372002463787794,0.004533499013632536,0.003507383167743683
1686445584771639000,9.51363916015625,0.0005589975044131279,0.004025101661682129,0.0025603631511330605
1686445584781656000,9.523656005859374,-0.00017257283616345376,0.00035206988104619086,0.005563077051192522
1686445584791672800,9.5336728515625,0.00027856664382852614,0.0003115898580290377,0.0036424053832888603
1686445584801690000,9.543690185546875,-0.00038163099088706076,-0.0007355650886893272,0.004736964590847492
1686445584811706000,9.5537060546875,-0.0032509206794202328,0.000297475082334131,0.004011253360658884
1686445584821723000,9.563722900390625,-0.003946538548916578,0.0018516959389671683,0.000755805114749819
1686445584831740200,9.573740234375,-0.002680471632629633,0.0056922403164207935,0.0027499801944941282
1686445584841757200,9.583757080078126,-0.003052781568840146,0.00424374733120203,0.002266882685944438
1686445584851774000,9.59377392578125,-0.0032959282398223877,0.003073287894949317,0.002831739140674472
1686445584861791200,9.603791259765625,-0.007951133884489536,0.004631769843399525,0.00009267800487577915
1686445584871808000,9.61380810546875,-0.0029784792568534613,0.002129463478922844,0.002561161993071437
1686445584881825000,9.623824951171875,-0.006107693538069725,0.0020610203500837088,0.0035814191214740276
1686445584891841000,9.633841064453126,-0.0019118833588436246,0.004777178168296814,0.0028003137558698654
1686445584901858000,9.643858154296876,-0.0018690064316615462,0.0080912159755826,0.005083175376057625
1686445584911875000,9.653875,0.00001304948909819359,0.010926417075097561,0.00675271125510335
1686445584921891800,9.663891845703125,-0.0020841897930949926,0.009974070824682713,0.003180879633873701
1686445584931909000,9.6739091796875,-0.0027443873696029186,0.00863130483776331,0.005060538649559021
1686445584941926000,9.68392578125,-0.004704740364104509,0.002685531508177519,0.0025888588279485703
1686445584951943200,9.693943115234376,-0.006785201840102673,0.002213619416579604,0.004730572924017906
1686445584961959200,9.703959228515625,-0.004283161833882332,0.00261895265430212,0.00038748994120396674
1686445584971976000,9.713975830078125,-0.006256031803786755,0.00618199585005641,0.00006657902849838138
1686445584981993000,9.723992919921875,-0.007315437309443951,0.003055178327485919,0.0029108349699527025
1686445584992010200,9.73401025390625,-0.0020905814599245787,0.003388073528185487,0.004313788376748562
1686445585002027000,9.744027099609376,-0.004275438841432333,0.0029502499382942915,0.001743038883432746
1686445585012044000,9.7540439453125,-0.0031915323343127966,0.003064499469473958,0.003038400551304221
1686445585022061000,9.76406103515625,-0.003942809998989105,0.0027348001021891832,0.0015041533624753356
1686445585032078000,9.774078125,-0.0018098842119798064,0.001847701147198677,0.003346261801198125
1686445585042094000,9.784093994140624,-0.0032088428270071745,0.0013371731620281935,0.005809952039271593
1686445585052111000,9.794111083984374,-0.0038189729675650597,0.0007472829893231392,0.004059189930558205
1686445585062128000,9.804128173828126,-0.004060521721839905,-0.0015651397407054901,0.0033135050907731056
1686445585072145000,9.814144775390625,-0.0062272693030536175,0.001996305538341403,0.0010311759542673826
1686445585082162200,9.824162109375,-0.005419266410171986,0.0006325007416307926,0.00042796999332495034
1686445585092179000,9.834178955078125,-0.0030386666767299175,0.0036424053832888603,0.0012839100090786815
1686445585102196000,9.844196044921874,-0.0038575888611376286,0.002671416848897934,0.0021603561472147703
1686445585112213200,9.854213134765626,-0.005668005906045437,0.004711398389190435,0.002113218419253826
1686445585122229000,9.86422900390625,-0.0046506780199706554,0.004688494838774204,0.001702026231214404
1686445585132246000,9.87424609375,-0.0062184808775782585,0.0073106433264911175,0.0014628743520006537
1686445585142263000,9.884262939453125,-0.005221393425017595,0.004051466938108206,0.0037121803034096956
1686445585152280000,9.894280029296874,-0.003855990944430232,0.003906857222318649,0.004613926634192467
1686445585162297000,9.904297119140624,-0.0035779569298028946,0.0016644756542518735,0.0022205437999218702
1686445585172313900,9.91431396484375,-0.008228635415434837,0.0015795208746567369,0.0015864450251683593
1686445585182331100,9.9243310546875,-0.006203833501785994,-0.00007297061529243365,0.0033332123421132565
1686445585192348000,9.934347900390625,-0.007760184817016125,0.002754773711785674,0.0005004079430364072
1686445585202364000,9.944364013671875,-0.006613960489630699,0.0016117451013997197,0.00023142869758885354
1686445585212381200,9.954381103515624,-0.00561154680326581,0.005620601586997509,0.000892691605258733
1686445585222398000,9.96439794921875,-0.0059907808899879456,0.0027739484794437885,0.00404614070430398
1686445585232415000,9.9744150390625,-0.005544435232877731,0.0008471515611745417,0.0018676748732104897
1686445585242432000,9.984431884765625,-0.004342816770076752,0.0033814155030995607,-0.0011914982460439205
1686445585252449000,9.994448974609375,-0.006981476675719023,0.0003275688213761896,0.0012428972404450178
1686445585262466000,10.004466064453124,-0.005899967160075903,-0.0010122675448656082,0.001222390914335847
1686445585272483000,10.014483154296874,-0.010881143622100353,0.0002889529860112816,-0.0014919028617441654
1686445585282499000,10.0244990234375,-0.007044327445328236,-0.0015462313313037157,-0.0008199872681871057
1686445585292516000,10.03451611328125,-0.009277920238673687,-0.003608050523325801,-0.0017230651574209332
1686445585302533000,10.044533203125,-0.008830509148538113,-0.004305799026042223,-0.0033342777751386166
1686445585312550100,10.054550048828125,-0.006851247977465391,-0.004327903036028147,-0.0004213120846543461
1686445585322567000,10.06456689453125,-0.0084864292293787,-0.0031252196058630943,-0.0008889631717465818
1686445585332584200,10.074584228515626,-0.006048837676644325,-0.000734766130335629,-0.002296177437528968
1686445585342601000,10.08460107421875,-0.00777696305885911,-0.00037816885742358863,0.002153165638446808
1686445585352617000,10.094616943359375,-0.008945291861891747,-0.0031494542490690947,0.0018690064316615462
1686445585362634000,10.104634033203125,-0.007756989449262619,-0.004345479886978865,0.0012985573848709464
1686445585372651000,10.114651123046874,-0.01080045010894537,-0.005505819339305162,0.0009435579413548112
1686445585382668000,10.12466796875,-0.01287505216896534,-0.007671235594898462,0.0008037420338951051
1686445585392685000,10.13468505859375,-0.011246263049542904,-0.0013225257862359285,0.0003222425002604723
1686445585402702000,10.1447021484375,-0.011167965829372406,0.00033396040089428425,0.002357163932174444
1686445585412719000,10.154718994140625,-0.007570834364742041,0.0024170849937945604,0.005322327371686697
1686445585422736000,10.16473583984375,-0.005144428461790085,0.0021044297609478235,0.002913498319685459
1686445585432752000,10.174752197265626,-0.00993438996374607,0.00026604978484101593,0.0006205165409483016
1686445585442769200,10.18476904296875,-0.005541239399462938,-0.0014958975370973349,0.001404284848831594
1686445585452786000,10.194785888671875,-0.006632869131863117,-0.0026517093647271395,0.0008103998843580484
1686445585462803200,10.20480322265625,-0.003793406533077359,-0.001859152689576149,-0.0020120181143283844
1686445585472820000,10.214820068359375,-0.0034168355632573366,-0.000669252360239625,-0.0027747475542128086
1686445585482837000,10.2248369140625,-0.005502623505890369,-0.0007843009079806507,-0.0032525185961276293
1686445585492854000,10.23485400390625,-0.004022971261292696,-0.00020825919636990875,0.0011611381778493524
1686445585502871000,10.24487109375,-0.0009776464430615306,0.0001400822657160461,0.0014729943359270692
1686445585512887000,10.254886962890625,-0.00207673292607069,0.00318886898458004,0.0022330605424940586
1686445585522904000,10.264904052734375,-0.005252286326140165,0.0037201696541160345,0.005543369799852371
1686445585532921000,10.274921142578124,-0.0057042245753109455,0.0054855793714523315,0.006207562051713467
1686445585542938000,10.284938232421876,-0.0029318740125745535,0.004078897647559643,0.0054762582294642925
1686445585552955100,10.294955078125,-0.00774766830727458,-0.0003067961661145091,0.006058158818632364
1686445585562972200,10.30497216796875,-0.008047007024288177,0.0010961571242660284,0.0035079156514257193
1686445585572989000,10.314989013671875,-0.008718922734260559,0.0036487970501184464,0.0018306568963453174
1686445585583006200,10.325006103515625,-0.006652310024946928,0.004545216914266348,-0.0012306467397138476
1686445585593022200,10.335022216796874,-0.0054245926439762115,0.005000085104256868,0.002816559048369527
1686445585603039000,10.3450390625,-0.0037939392495900393,0.007820638827979565,-0.00005166532355360687
1686445585613056000,10.355055908203125,-0.005599029827862978,0.007149255834519863,-0.0015488944482058287
1686445585623073000,10.365072998046875,-0.0054490938782691956,0.005498628597706556,-0.005556951742619276
1686445585633090000,10.375090087890625,-0.006725014187395573,0.003944141324609518,-0.004090615548193455
1686445585643106800,10.38510693359375,-0.005287972744554281,0.003596865339204669,-0.004030960611999035
1686445585653124000,10.3951240234375,-0.006132993847131729,0.0033358754590153694,-0.003370763035491109
1686445585663141000,10.40514111328125,-0.006561762653291225,0.0031579763162881136,-0.0023102923296391964
1686445585673156900,10.415156982421875,-0.00538357999175787,0.006079197861254215,-0.0038368161767721176
1686445585683174100,10.425174072265625,-0.00706856232136488,0.0051833102479577065,-0.0005826996639370918
1686445585693191200,10.435191162109374,-0.006954845041036606,0.003882356220856309,-0.0006527407676912844
1686445585703208000,10.4452080078125,-0.003440005239099264,0.0014793860027566552,0.0035390746779739857
1686445585713225200,10.45522509765625,-0.005583849735558033,-0.0010543455136939883,0.0010831075487658381
1686445585723242000,10.465241943359375,-0.0065596322529017925,0.0012415656819939613,0.004333761986345053
1686445585733259000,10.475259033203125,-0.004452272783964872,-0.0033129723742604256,0.004406732507050037
1686445585743275000,10.48527490234375,-0.003923634998500347,-0.005049619823694229,0.0027228158432990313
1686445585753292000,10.4952919921875,-0.0049556102603673935,-0.004230963997542858,0.005849899724125862
1686445585763309000,10.50530908203125,-0.006341785658150911,-0.00210735946893692,0.0024410535115748644
1686445585773325600,10.51532568359375,-0.0070374030619859695,-0.0012199940392747521,0.001802960061468184
1686445585783342600,10.525342529296875,-0.006341519299894571,0.0021635519806295633,0.003745736088603735
1686445585793359600,10.535359619140625,-0.0054634748958051205,0.004199272487312555,0.004532966297119856
1686445585803376600,10.545376708984374,-0.003067428944632411,0.005634183529764414,0.002433063928037882
1686445585813393700,10.5553935546875,-0.005418733693659306,0.008497348055243492,0.0022003035992383957
1686445585823409700,10.56540966796875,-0.0025875272694975138,0.007297860458493233,0.0002798982313834131
1686445585833426400,10.575426513671875,-0.008724515326321125,0.004264785908162594,0.001008539111353457
1686445585843443700,10.585443603515625,-0.005215534474700689,0.0017134778900071979,-0.0009853695519268513
1686445585853460500,10.59546044921875,-0.010134659707546234,0.0027915253303945065,-0.0010673949727788568
1686445585863477500,10.6054775390625,-0.0054885088466107845,0.002252235310152173,0.0012932310346513987
1686445585873494500,10.61549462890625,-0.006855775602161884,-0.000401604687795043,-0.002668487373739481
1686445585883511600,10.625511474609375,-0.007152718026190996,-0.006922354456037283,-0.0004796353168785572
1686445585893528600,10.635528564453125,-0.008857141248881817,-0.0057039582170546055,-0.002606702037155628
1686445585903544600,10.645544677734375,-0.009869675152003765,-0.007156180217862129,-0.00250496924854815
1686445585913561600,10.6555615234375,-0.00803129468113184,-0.008078965358436108,0.0018482337472960353
1686445585923578600,10.66557861328125,-0.003290601773187518,-0.005626993253827095,0.002302036387845874
1686445585933595600,10.675595703125,-0.008896555751562119,0.0012093414552509785,0.0002860235108528286
1686445585943612700,10.68561279296875,-0.006324741058051586,0.0016852483386173844,-0.0004948153509758413
1686445585953629400,10.69562939453125,-0.00455613574013114,0.005022455472499132,0.0004852279380429536
1686445585963646700,10.705646728515624,-0.007182012777775526,0.0052320463582873344,-0.0022269352339208126
1686445585973663500,10.71566357421875,-0.00561207951977849,0.0010109359864145517,-0.0006412891671061516
1686445585983679500,10.725679443359375,-0.003139067906886339,0.00039974047103896737,0.001547030289657414
1686445585993696800,10.73569677734375,-0.005110339727252722,0.004562527406960726,0.0005837649223394692
1686445586003713500,10.745713623046875,-0.004975051153451204,0.00041545313433744013,0.005820871330797672
1686445586013730600,10.75573046875,-0.0065567027777433395,0.002275671111419797,0.006909571588039398
1686445586023747600,10.76574755859375,-0.0035366779193282127,0.0004921521758660674,0.0008077367674559355
1686445586033764600,10.7757646484375,-0.00830879621207714,0.0007233145297504961,0.0037646444980055094
1686445586043781600,10.78578173828125,-0.005008607171475887,0.002413090318441391,-0.0012596751330420375
1686445586053798700,10.795798583984375,-0.005714344792068005,0.00003941478280466981,-0.0003861583536490798
1686445586063814700,10.805814697265625,-0.008919458836317062,0.002365685999393463,-0.0014596786350011826
1686445586073831700,10.815831787109374,-0.0052363071590662,0.0023454460315406322,-0.0004524710529949516
1686445586083848400,10.825848388671876,-0.00996128749102354,0.0008199872681871057,0.000254331884207204
1686445586093865700,10.83586572265625,-0.007041397970169783,-0.0016530241118744016,-0.002043443499132991
1686445586103882500,10.845882568359375,-0.006061887368559837,-0.0014205301413312554,0.0007890945998951793
1686445586113899500,10.8558994140625,-0.004416053649038076,-0.0021550299134105444,0.0007986819837242365
1686445586123916500,10.86591650390625,-0.004032824654132128,0.001782187377102673,0.0025835325941443443
1686445586133933600,10.87593359375,-0.005035238806158304,0.0021137509029358625,-0.0005675196298398077
1686445586143949600,10.885949462890625,-0.002159823663532734,0.000988032785244286,0.0029142971616238356
1686445586153966600,10.895966552734375,-0.0009539442835375667,0.00007110639853635803,0.0027273432351648808
1686445586163983600,10.905983642578125,-0.002356631215661764,-0.004576642066240311,0.002666090615093708
1686445586174000400,10.91600048828125,-0.002538258908316493,-0.01025556679815054,0.00392869533970952
1686445586184017700,10.926017578125,-0.0062573631294071674,-0.009095493704080582,-0.0025129588320851326
1686445586194034700,10.93603466796875,-0.00752103328704834,-0.008607869036495686,0.00009960222087102011
1686445586204051500,10.946051513671875,-0.009650763124227524,-0.006900516804307699,-0.0029348034877330065
1686445586214068700,10.95606884765625,-0.010950119234621525,-0.00809361319988966,-0.0007504787645302713
1686445586224084700,10.966084716796875,-0.010055030696094036,-0.003884486621245742,-0.0018282600212842226
1686445586234101500,10.9761015625,-0.015992814674973488,0.0018338527297601104,-0.0023576964158564806
1686445586244118800,10.986118896484374,-0.011928032152354717,0.005514607764780521,-0.0033779535442590714
1686445586254135600,10.996135498046876,-0.010083792731165886,0.007866977714002132,0.00148151651956141
1686445586264152600,11.006152587890625,-0.00971707608550787,0.006056827027350664,-0.00008788431296125054
1686445586274169600,11.016169677734375,-0.005555087700486183,0.005136438645422459,0.001817607437260449
1686445586284186600,11.0261865234375,-0.006195844151079655,-0.0006519418093375862,0.004572913981974125
1686445586294203400,11.036203369140624,-0.00689039658755064,-0.0014532869681715965,0.004086620640009642
1686445586304219400,11.046219482421876,-0.003911917097866535,-0.004613393917679787,0.0008828379213809967
1686445586314236700,11.056236572265625,-0.008036887273192406,-0.0034091125708073378,0.005572398193180561
1686445586324253400,11.06625341796875,-0.0065045044757425785,-0.004802744835615158,0.002472478663548827
1686445586334270500,11.0762705078125,-0.005321794655174017,-0.004303135443478823,0.0015451660146936774
1686445586344287700,11.086287841796874,-0.008201204240322113,-0.005544967483729124,0.0011792477453127503
1686445586354304500,11.096304443359376,-0.005934854503720999,-0.0019318570848554373,-0.0021291973534971476
1686445586364321500,11.106321533203126,-0.0070304786786437035,-0.0008199872681871057,-0.0032471923623234034
1686445586374338600,11.116338623046875,-0.009767675772309303,0.0046357642859220505,-0.002728142309933901
1686445586384354600,11.1263544921875,-0.005939648021012545,0.000925182132050395,-0.0025039040483534336
1686445586394371600,11.13637158203125,-0.007555654272437096,0.002573678968474269,0.00031318774563260376
1686445586404388600,11.146388671875,-0.005922603886574507,-0.00040187101694755256,0.0008673915872350335
1686445586414405600,11.156405517578126,-0.006878678686916828,-0.004854942671954632,-0.0020764668006449938
1686445586424422400,11.16642236328125,-0.004479437135159969,-0.004599811974912882,-0.0021145499777048826
1686445586434439700,11.176439697265625,-0.0025997778866440058,-0.0029553098138421774,0.0006628608098253608
1686445586444456700,11.186456787109375,-0.006698382552713156,-0.000913197931367904,0.0009384979493916035
1686445586454473500,11.196473388671874,-0.0026935210917145014,-0.003677825443446636,-0.0011534150689840317
1686445586464489700,11.20648974609375,-0.008868060074746609,-0.002183259464800358,0.0016623451374471188
1686445586474506500,11.216506591796875,-0.008066981099545956,-0.0023989754263311625,0.0027893949300050735
1686445586484523500,11.2265234375,-0.005857622716575861,0.000029827404432580806,0.0020780644845217466
1686445586494540800,11.236540771484375,-0.007452057208865881,0.0054245926439762115,-0.0001001348573481664
1686445586504557600,11.2465576171875,-0.009642240591347218,0.004046939779073,0.0029643645975738764
1686445586514574600,11.25657470703125,-0.01245160959661007,0.002820287598297,-0.0007523429812863469
1686445586524591600,11.266591552734376,-0.008597482927143574,0.0020927118603140116,0.001612277701497078
1686445586534608600,11.276608642578125,-0.007203318178653717,0.001785383210517466,0.004714594222605228
1686445586544624600,11.286624755859375,-0.0041188448667526245,-0.0016085492679849267,0.001496430253610015
1686445586554641400,11.296641357421874,-0.00691889226436615,-0.0009097357979044318,0.0036368127912282944
1686445586564658700,11.30665869140625,-0.005118329077959061,-0.0015217302134260535,-0.0005539375124499202
1686445586574675500,11.316675537109376,-0.007322094868868589,0.00005965480886516161,-0.001222390914335847
1686445586584692500,11.3266923828125,-0.003367833560332656,0.0022413162514567375,-0.0005635248962789774
1686445586594709800,11.336709716796875,-0.0001661812566453591,0.00430233683437109,0.002529204124584794
1686445586604726500,11.3467265625,-0.0005281048361212015,0.007474428042769432,0.004140949342399836
1686445586614743600,11.35674365234375,-0.00010492854926269501,0.006558034103363752,0.003939880523830652
1686445586624759600,11.366759521484376,-0.0006854976527392864,0.011454521678388119,0.007096791639924049
1686445586634776600,11.376776611328125,-0.0013427657540887594,0.004459196701645851,0.007788947317749262
1686445586644793600,11.386793701171875,-0.0021078919526189566,0.0017235978739336133,0.008863799273967743
1686445586654810600,11.396810546875,-0.0005107942852191627,-0.0008921589469537139,0.0046845003962516785
1686445586664827600,11.40682763671875,-0.0031377363484352827,-0.006472546607255936,0.002061286708340049
1686445586674844400,11.416844482421874,-0.008670453913509846,-0.005286640953272581,0.004323641769587994
1686445586684861700,11.42686181640625,-0.006045109126716852,-0.003748399205505848,0.0010615360224619508
1686445586694878500,11.43687841796875,-0.00609411159530282,0.0030455910600721836,-0.0013057478936389089
1686445586704894500,11.44689453125,-0.004959604702889919,0.009135175496339798,0.0026762105990201235
1686445586714911700,11.456911865234375,-0.0062975771725177765,0.01570093259215355,0.002380599733442068
1686445586724928500,11.466928466796874,-0.004917260725051165,0.017907626926898956,-0.0018040252616629004
1686445586734945500,11.476945556640626,-0.0018841864075511694,0.015777630731463432,0.002029328839853406
1686445586744962800,11.486962890625,-0.003486077766865492,0.01248117070645094,0.00021225394448265433
1686445586754979600,11.4969794921875,-0.0010093380697071552,0.0046970173716545105,0.0013342436868697405
1686445586764996600,11.50699658203125,-0.003185939509421587,0.0065252771601080894,0.0010021475609391928
1686445586775013600,11.517013671875,-0.0029324067290872335,0.008037686347961426,0.000571248063351959
1686445586785029600,11.527029541015626,-0.0028565065003931522,0.004284227266907692,0.003236539661884308
1686445586795046700,11.537046630859376,-0.005170261021703482,0.004061054438352585,0.003111371072009206
1686445586805063400,11.5470634765625,-0.003721501212567091,0.0014242585748434067,0.0005475459038279951
1686445586815080700,11.557080810546875,-0.005003546830266714,0.0006383596919476986,0.0019182749092578888
1686445586825097500,11.567097412109375,-0.0017419736832380295,0.0018442390719428658,0.006886668037623167
1686445586835114500,11.577114501953124,-0.004838431254029274,0.003494866192340851,0.002965696156024933
1686445586845131500,11.587131591796876,-0.005308212712407112,0.004518585279583931,0.006253368686884642
1686445586855148500,11.5971484375,-0.0036418726667761803,0.004061054438352585,0.004178499802947044
1686445586865164500,11.60716455078125,-0.0015744607662782073,0.001493500778451562,0.005615008994936943
1686445586875181600,11.617181640625,0.00009693906031316146,-0.0024000408593565226,0.004524976946413517
1686445586885198600,11.627198486328124,-0.004503937903791666,-0.003515905234962702,0.002364886924624443
1686445586895215600,11.637215576171876,-0.0031827439088374376,0.004533499013632536,0.004518585279583931
1686445586905232600,11.647232666015626,-0.0018322548130527139,0.002294047037139535,0.00148125016130507
1686445586915249700,11.657249755859375,-0.003179814200848341,0.007770571392029524,-0.00036724991514347494
1686445586925266400,11.667266357421875,-0.003605653764680028,0.008731439709663391,0.003629622282460332
1686445586935283700,11.67728369140625,-0.005419532768428326,0.008094411343336105,0.006488792132586241
1686445586945299700,11.6872998046875,-0.0035180358681827784,0.008410795591771603,0.0012415656819939613
1686445586955316500,11.69731640625,-0.006826480850577354,0.009035573340952396,0.0017222663154825568
1686445586965333800,11.707333740234375,-0.004343083128333092,0.008319715037941933,0.004224305972456932
1686445586975350500,11.7173505859375,-0.006669087801128626,0.006040848325937986,0.004601143300533295
1686445586985367600,11.727367431640625,-0.0038059235084801912,0.0051747881807386875,0.0027571707032620907
1686445586995384600,11.737384521484374,-0.0021766014397144318,0.002273540711030364,0.002808303339406848
1686445587005401600,11.747401611328126,-0.0038509308360517025,0.005751895252615213,0.002145442645996809
1686445587015418600,11.757418701171876,-0.0019465044606477022,0.008579373359680176,0.0019438412273302674
1686445587025434400,11.767434326171875,-0.0012697952333837748,0.010553575120866299,0.006439523305743933
1686445587035451600,11.77745166015625,-0.003136138431727886,0.005889047868549824,0.0027390611357986927
1686445587045468700,11.78746875,-0.00008175904804375023,0.002229065867140889,0.001035436987876892
1686445587055485400,11.7974853515625,-0.0030453247018158436,-0.002667954657226801,0.0018524948973208666
1686445587065502700,11.807502685546876,-0.0023787354584783316,-0.004139084834605455,0.0004495415778364986
1686445587075519500,11.81751953125,-0.003929760307073593,-0.0016580841038376093,-0.0010665960144251585
1686445587085536500,11.82753662109375,-0.005801163613796234,-0.0004628573951777071,0.0014215953415259719
1686445587095553500,11.837553466796875,-0.007850199937820435,0.002086054068058729,-0.0014623417519032955
1686445587105569500,11.847569580078124,-0.007862450554966927,0.0037553233560174704,0.003014432033523917
1686445587115586600,11.857586669921876,-0.003088201628997922,0.006168147549033165,0.0021907163318246603
1686445587125603600,11.867603515625,-0.003912982530891895,0.00809201505035162,0.004047205671668053
1686445587135620600,11.87762060546875,-0.002698581200093031,0.0060019660741090775,0.0023552996572107077
1686445587145637600,11.8876376953125,-0.005658951122313738,0.007663778495043516,0.0037353497464209795
1686445587155654700,11.897654541015624,-0.004322576802223921,0.007457649800926447,0.004209658596664667
1686445587165671700,11.907671630859374,-0.0046911584213376045,0.0075782909989356995,0.006564159411936998
1686445587175688400,11.9176884765625,-0.004175570327788591,0.004707936197519302,0.0043808999471366405
1686445587185704400,11.927704345703125,-0.0007017429452389479,0.0032591766212135553,0.003025350859388709
1686445587195721700,11.9377216796875,-0.001680987305007875,0.0008759136544540524,0.0064927865751087666
1686445587205738500,11.947738525390625,-0.0028091021813452244,-0.00009161273919744417,0.0016431703697890043
1686445587215755800,11.957755859375,-0.0054754591546952724,0.000782436749432236,0.0035353463608771563
1686445587225772500,11.9677724609375,-0.003765976056456566,-0.0012796488590538502,0.001876995898783207
1686445587235789600,11.97778955078125,-0.002621349412947893,0.0010628675809130073,0.0005281048361212015
1686445587245806600,11.987806640625,-0.00430047232657671,-0.0011371697764843702,-0.002447711303830147
1686445587255823600,11.99782373046875,-0.00180908537004143,-0.002576342085376382,0.0024746092967689037
1686445587265839600,12.007839599609374,-0.004524444229900837,-0.001461010193452239,0.002628007438033819
