time,seconds_elapsed,z,y,x
1686445430235541500,0.14954150390625,-0.002466249279677868,0.0045967306941747665,-0.007134346291422844
1686445430245557500,0.1595576171875,-0.0004799226298928261,0.0003605757374316454,-0.0071960557252168655
1686445430255574500,0.169574462890625,-0.0012594298459589481,-0.005196109879761934,-0.005903357639908791
1686445430265591600,0.179591552734375,-0.0017678202129900455,-0.0015205200761556625,-0.0019320971332490444
1686445430275607600,0.189607666015625,-0.0017363950610160828,-0.004242004361003637,-0.002633573953062296
1686445430285624600,0.19962451171875,-0.0004242248833179474,0.0014864061959087849,-0.0016867980593815446
1686445430295641300,0.209641357421875,0.000045822933316230774,0.0009889276698231697,-0.0033888244070112705
1686445430305658600,0.21965869140625,-0.004657347220927477,0.0035207911860197783,-0.004662126302719116
1686445430315674600,0.229674560546875,-0.0005366383120417595,0.0017396688926964998,-0.0042908815667033195
1686445430325691400,0.23969140625,0.0010733583476394415,-0.0017317385645583272,-0.006880014203488827
1686445430335708700,0.249708740234375,0.0008885348215699196,-0.0031192456372082233,-0.0071087796241045
1686445430345725400,0.259725341796875,-0.0004190579056739807,-0.004208527505397797,-0.008648755960166454
1686445430355741400,0.269741455078125,-0.005017271731048822,-0.0024987778160721064,-0.00916860532015562
1686445430365758500,0.279758544921875,-0.00015848875045776367,-0.002983930753543973,-0.006621809676289558
1686445430375775500,0.289775390625,-0.0012554447166621685,-0.002362349070608616,-0.004057717975229025
1686445430385791500,0.29979150390625,-0.0038765310309827328,-0.002827284624800086,-0.004754377529025078
1686445430395808500,0.30980859375,-0.002480501774698496,-0.007590348366647959,-0.005772238131612539
1686445430405825500,0.319825439453125,-0.006331154145300388,-0.006828361190855503,-0.0048101297579705715
1686445430415842600,0.329842529296875,-0.004130850546061993,-0.004189701285213232,-0.008934833109378815
1686445430425858600,0.339858642578125,-0.006787995807826519,-0.0038241781294345856,-0.011367134749889374
1686445430435875600,0.34987548828125,-0.0049006137996912,-0.005163748282939196,-0.010527173988521099
1686445430445892600,0.359892578125,-0.0029870225116610527,-0.004762547090649605,-0.005481246393173933
1686445430455909400,0.369909423828125,-0.0021840794943273067,-0.009956509806215763,-0.0036804168485105038
1686445430465925400,0.37992529296875,0.0015552591066807508,-0.012542600743472576,-0.0034697148948907852
1686445430475942700,0.389942626953125,0.00745735689997673,-0.015929343178868294,-0.0014779368648305535
1686445430485959400,0.39995947265625,0.005654412321746349,-0.012638737447559834,-0.003301517106592655
1686445430495976400,0.4099765625,0.0075154295191168785,-0.012067222967743874,-0.003928957972675562
1686445430505992700,0.41999267578125,0.0026744732167571783,-0.009880047291517258,-0.0062641846016049385
1686445430516009500,0.430009521484375,0.004845748655498028,-0.008456854149699211,-0.007059404160827398
1686445430526026500,0.440026611328125,0.003088312689214945,-0.003953984938561916,-0.002661879640072584
1686445430536042500,0.45004248046875,0.004085932858288288,-0.005731911398470402,0.0011134176747873425
1686445430546059500,0.4600595703125,0.0022540786303579807,-0.01255442388355732,-0.002567481715232134
1686445430556076500,0.47007666015625,-0.001839999109506607,-0.0141525873914361,-0.004173634108155966
1686445430566093600,0.480093505859375,-0.0019193845801055431,-0.017377573996782303,-0.0015473292442038655
1686445430576109600,0.490109619140625,-0.0020160572603344917,-0.014147692359983921,-0.001299122697673738
1686445430586126600,0.500126708984375,-0.0034878039732575417,-0.0051614041440188885,-0.0002383390674367547
1686445430596143400,0.510143310546875,-0.004548807628452778,0.0029500520322471857,0.0009225328685715795
1686445430606160600,0.52016064453125,-0.003625770565122366,0.013753961771726608,0.0023572896607220173
1686445430616176600,0.5301767578125,-0.004457475151866674,0.013719074428081512,0.0015964243793860078
1686445430626194000,0.54019384765625,-0.0036830315366387367,0.010263408534228802,0.0016260080737993121
1686445430636211000,0.5502109375,-0.0020297407172620296,0.004412976559251547,-0.0010829593520611525
1686445430646227200,0.560227294921875,0.0017555509693920612,0.0017347701359540224,0.001674021827057004
1686445430656244000,0.570243896484375,0.0008383584208786488,0.0019496872555464506,0.005329210311174393
1686445430666261000,0.580260986328125,0.001186538953334093,0.005713446531444788,0.005196378566324711
1686445430676278000,0.590278076171875,-0.00013971514999866486,0.008210426196455956,0.006256050430238247
1686445430686294000,0.6002939453125,-0.0005223918706178665,0.0038947253488004208,0.0004206612939015031
1686445430696311000,0.61031103515625,-0.000892038457095623,0.0012334284838289022,-0.0017018780345097184
1686445430706328000,0.620328125,-0.0005115065723657608,-0.0031453492119908333,-0.005703313276171684
1686445430716345000,0.630344970703125,-0.00014851754531264305,-0.004836723208427429,-0.0059160999953746796
1686445430726361000,0.640361083984375,-0.0016852691769599915,-0.0025396067649126053,-0.004059650935232639
1686445430736377900,0.6503779296875,-0.0004181372933089733,0.004659184254705906,-0.000524570990819484
1686445430746395100,0.66039501953125,-0.0008234605193138123,0.004121067933738232,0.005675732623785734
1686445430756412000,0.670411865234375,0.0010609920136630535,-0.00029711658135056496,0.005746040027588606
1686445430766428000,0.680427978515625,0.0005352743901312351,-0.002702059457078576,0.0023923893459141254
1686445430776445200,0.690445068359375,-0.0011624908074736595,-0.00004608905874192715,0.0005002133548259735
1686445430786462000,0.7004619140625,-0.0006700535304844379,0.0006742465775460005,-0.0010243154829367995
1686445430796479000,0.71047900390625,0.001611476531252265,-0.0010245839366689324,0.0017264635534957051
1686445430806495000,0.720494873046875,-0.00032998668029904366,0.00006656278856098652,0.0018965088529512286
1686445430816512000,0.730511962890625,0.0011853519827127457,0.001989364856854081,-0.00017330003902316093
1686445430826529000,0.740529052734375,0.00010304339230060577,0.0057020774111151695,-0.00017383263912051916
1686445430836545000,0.750544921875,0.0008308854885399342,0.005679440684616566,0.0037205074913799763
1686445430846562000,0.76056201171875,0.0003624390810728073,0.007194994017481804,-0.0005826505366712809
1686445430856579000,0.7705791015625,-0.00007884670048952103,0.008832571096718311,0.0024419014807790518
1686445430866596000,0.78059619140625,-0.0015462175942957401,0.004123255610466003,0.0006064717890694737
1686445430876611800,0.79061181640625,-0.0036455877125263214,0.0016241450794041157,0.0021023694425821304
1686445430886629000,0.800629150390625,-0.0032562995329499245,-0.0021335361525416374,-0.0023475622292608023
1686445430896646100,0.810646240234375,-0.0031609581783413887,0.000158646609634161,0.00003596686292439699
1686445430906663000,0.820662841796875,-0.004678117576986551,-0.0007531021255999804,-0.0019832749385386705
1686445430916679200,0.83067919921875,-0.0009110760875046253,-0.00639713928103447,-0.0011521023698151112
1686445430926696000,0.840696044921875,0.004647473804652691,-0.007210202515125275,-0.0004676699754782021
1686445430936713000,0.850712890625,0.0033859345130622387,-0.012946119531989098,0.0009731001919135451
1686445430946729000,0.86072900390625,0.0029189514461904764,-0.01844930090010166,0.0010840097675099969
1686445430956746000,0.87074609375,0.003682479728013277,-0.015879616141319275,0.001821438898332417
1686445430966763000,0.880762939453125,0.006295566912740469,-0.010540938936173916,0.002660113386809826
1686445430976780000,0.890780029296875,0.006067600101232529,-0.00316478218883276,0.006459112744778395
1686445430986796000,0.900796142578125,0.008576547726988792,-0.0025067185051739216,0.005344959907233715
1686445430996813000,0.91081298828125,0.0028459583409130573,-0.003101934911683202,-0.0010620728135108948
1686445431006830000,0.920830078125,0.002475522691383958,-0.008185002021491528,-0.008885709568858147
1686445431016847000,0.93084716796875,0.002736778696998954,-0.011671878397464752,-0.005195101257413626
1686445431026863000,0.940863037109375,-0.0006463699974119663,-0.00876261480152607,-0.002815155778080225
1686445431036880100,0.950880126953125,0.0007392726838588715,-0.004241633228957653,-0.0013682603603228927
1686445431046897000,0.96089697265625,0.0018363641574978828,0.0011917219962924719,-0.00046239770017564297
1686445431056913200,0.9709130859375,0.0012645833194255829,-0.001172898686490953,-0.005764485336840153
1686445431066930200,0.98093017578125,0.0014134508091956377,-0.002292971359565854,-0.00767607893794775
1686445431076947000,0.990947021484375,-0.0012449165806174278,-0.0009464771719649434,-0.010057744570076466
1686445431086964200,1.000964111328125,0.00031849322840571404,0.004575294442474842,-0.0051147956401109695
1686445431096980000,1.01097998046875,0.003229860682040453,0.010013203136622906,-0.0038399402983486652
1686445431106997000,1.0209970703125,0.007135906722396612,0.014449173584580421,-0.0008267478551715612
1686445431117014000,1.031013916015625,0.0019086541142314672,0.01317724771797657,-0.0027167932130396366
1686445431127031000,1.041031005859375,0.002200006740167737,0.008355542086064816,-0.004138678312301636
1686445431137047000,1.051047119140625,0.0033177353907376528,0.000612135510891676,-0.004864655900746584
1686445431147064000,1.06106396484375,0.0035700846929103136,-0.0029516764916479588,-0.0003779981634579599
1686445431157081000,1.0710810546875,0.002902430249378085,-0.004458758980035782,-0.0017303513595834374
1686445431167097000,1.08109716796875,0.0015090375673025846,0.0015441589057445526,-0.00037914543645456433
1686445431177114000,1.091114013671875,0.004810292273759842,0.0019295183010399342,0.004065670073032379
1686445431187131000,1.101130859375,-0.0006552687846124172,-0.003053193213418126,0.00039471639320254326
1686445431197148200,1.111148193359375,0.0052878414280712605,-0.0075973449274897575,-0.003592834807932377
1686445431207164200,1.1211640625,0.0018017636612057686,-0.014444864355027676,0.0027369665913283825
1686445431217181000,1.131180908203125,0.002428139094263315,-0.01955254189670086,0.00415190402418375
1686445431227198200,1.1411982421875,0.000794281717389822,-0.017880449071526527,0.0007354019908234477
1686445431237215000,1.151215087890625,0.0013964222744107246,-0.009043549187481403,-0.0014169649221003056
1686445431247231000,1.16123095703125,0.002404840663075447,-0.0045209405943751335,0.003101652953773737
1686445431257248000,1.171248046875,0.0010516883339732885,0.002155604539439082,0.004174374509602785
1686445431267265000,1.18126513671875,0.004274211823940277,0.005177300423383713,0.004032287746667862
1686445431277282000,1.191281982421875,0.00023153284564614296,0.007834069430828094,0.004436822608113289
1686445431287298000,1.201298095703125,0.0012884384486824274,0.009797651320695877,0.0028508277609944344
1686445431297315000,1.211315185546875,0.0021033657249063253,0.013681605458259583,0.00408733356744051
1686445431307332000,1.22133203125,-0.0012482409365475178,0.010344713926315308,-0.0035566026344895363
1686445431317348000,1.23134814453125,-0.00015155132859945297,0.005487907212227583,-0.006152652204036713
1686445431327364900,1.24136474609375,-0.00454334169626236,-0.002990261185914278,-0.0035879849456250668
1686445431337382100,1.251382080078125,-0.002541443333029747,-0.003943140618503094,-0.00395630020648241
1686445431347399000,1.26139892578125,-0.003910327795892954,-0.005322554148733616,-0.004432317800819874
1686445431357415000,1.271414794921875,-0.006836609449237585,-0.005823760759085417,-0.00919378362596035
1686445431367432200,1.28143212890625,-0.0029298956505954266,-0.002033366123214364,-0.0013486976968124509
1686445431377449000,1.291448974609375,0.0008065197616815567,-0.0014695748686790466,0.0039025230798870325
1686445431387466000,1.301466064453125,0.0003922749310731888,0.0034480346366763115,0.009231296367943287
1686445431397482000,1.31148193359375,0.001708142925053835,0.0111102145165205,0.007352436427026987
1686445431407499000,1.3214990234375,0.0021068057976663113,0.0121112409979105,0.0098961116746068
1686445431417516000,1.33151611328125,0.006759881041944027,0.009266452863812447,0.00941381324082613
1686445431427532000,1.341531982421875,0.0016745782922953367,0.0072708940133452415,0.0017686544451862574
1686445431437549000,1.351549072265625,0.0006271572783589363,-0.003536746371537447,-0.00031926389783620834
1686445431447566000,1.361566162109375,-0.0020276010036468506,-0.0071785906329751015,0.0020930590108036995
1686445431457582800,1.371582763671875,-0.002247578464448452,-0.0057607232592999935,0.008573860861361027
1686445431467599000,1.38159912109375,-0.0009601875208318233,-0.003366379300132394,0.009691967628896236
1686445431477616000,1.3916162109375,-0.00022089388221502304,-0.0025714256335049868,0.011957252398133278
1686445431487633000,1.4016328125,-0.0008102646097540855,-0.0002579393330961466,0.010629776865243912
1686445431497650200,1.411650146484375,0.0005183862522244453,0.00019160239025950432,0.008960241451859474
1686445431507666200,1.421666259765625,-0.005069604609161615,-0.0012292228639125824,0.00764940120279789
1686445431517683000,1.431682861328125,-0.002483142539858818,0.005021216347813606,0.009468606673181057
1686445431527700000,1.441699951171875,-0.0017276196740567684,0.00987562257796526,0.00989163015037775
1686445431537716200,1.45171630859375,-0.006734895054250956,0.015525784343481064,0.016338611021637917
1686445431547733000,1.46173291015625,-0.0024590552784502506,0.020778311416506767,0.025005990639328957
1686445431557750000,1.47175,-0.003089691512286663,0.01910371519625187,0.027754371985793114
1686445431567767000,1.48176708984375,0.0018149330280721188,0.008157088421285152,0.033678870648145676
1686445431577783000,1.491782958984375,0.007449649274349213,-0.0037850586231797934,0.031511325389146805
1686445431587800000,1.501800048828125,0.006642691791057587,-0.01132521778345108,0.01665448397397995
1686445431597816800,1.51181689453125,0.0026058724615722895,-0.012607529759407043,0.004533639643341303
1686445431607834000,1.521834228515625,0.0030005625449121,-0.01033254899084568,-0.0043227714486420155
1686445431617850000,1.53185009765625,0.0030767288990318775,-0.006013966631144285,-0.00809700321406126
1686445431627866600,1.54186669921875,0.0016684590373188257,-0.0010342795867472887,-0.0018157395534217358
1686445431637883600,1.551883544921875,0.0012631260324269533,0.006833231076598167,-0.0029387944377958775
1686445431647900700,1.561900634765625,-0.0051312618888914585,0.007806163281202316,-0.005421492271125317
1686445431657916700,1.571916748046875,-0.00089656887575984,0.00671799574047327,-0.003463270142674446
1686445431667933400,1.581933349609375,-0.0020836512558162212,0.0019603946711868048,-0.0017040208913385868
1686445431677950700,1.59195068359375,-0.001086297444999218,0.0021502783056348562,0.0021351920440793037
1686445431687966500,1.601966552734375,-0.002218298614025116,0.0016468563117086887,0.0026119553949683905
1686445431697983500,1.6119833984375,-0.0011218753643333912,0.002314510755240917,0.006209885701537132
1686445431708000800,1.622000732421875,-0.0031064506620168686,0.004151082597672939,0.00979441124945879
1686445431718017500,1.632017578125,-0.0038673160597682,0.00403390359133482,0.012491926550865173
1686445431728033500,1.642033447265625,-0.005526324734091759,0.005985602270811796,0.01694214530289173
1686445431738050600,1.652050537109375,0.00013582222163677216,0.009685531258583069,0.020623698830604553
1686445431748067600,1.662067626953125,0.0008323648944497108,0.011713394895195961,0.025688955560326576
1686445431758084600,1.672084716796875,0.00024993158876895905,0.012594101950526237,0.020911511033773422
1686445431768100600,1.6821005859375,0.0008792364969849586,0.010186870582401752,0.01589811034500599
1686445431778117600,1.69211767578125,0.001286699902266264,0.00872665923088789,0.005090202670544386
1686445431788134700,1.702134765625,-0.001381787471473217,0.009910168126225471,-0.0020286929793655872
1686445431798150700,1.712150634765625,-0.0025189570151269436,0.00661929976195097,-0.006281761452555656
1686445431808167700,1.722167724609375,-0.0023268484510481358,0.004043827764689922,-0.009886219166219234
1686445431818184700,1.732184814453125,0.0013616299256682396,-0.0013999396469444036,-0.004725012928247452
1686445431828201500,1.742201416015625,-0.0010635429061949253,-0.008537495508790016,0.001534905401058495
1686445431838217500,1.752217529296875,0.0030331979505717754,-0.014661966823041439,0.005364797543734312
1686445431848234800,1.76223486328125,0.0039063310250639915,-0.013787942007184029,0.007426892872899771
1686445431858251500,1.77225146484375,0.0026053765323013067,-0.016880137845873833,0.007441007997840643
1686445431868268500,1.7822685546875,0.0059877121821045876,-0.016783228144049644,0.005077685695141554
1686445431878284800,1.792284912109375,0.003275016089901328,-0.017609339207410812,-0.0016217619413509965
1686445431888301600,1.802301513671875,0.0033288022968918085,-0.017373759299516678,-0.005162633489817381
1686445431898318600,1.812318603515625,0.00023420900106430054,-0.01001784112304449,-0.012495115399360657
1686445431908334600,1.82233447265625,0.002089250832796097,-0.0026699374429881573,-0.009471884928643703
1686445431918351600,1.8323515625,0.0033718291670084,0.0024657021276652813,-0.003890697844326496
1686445431928368600,1.84236865234375,0.0006755073554813862,0.005028274841606617,0.0007111445302143693
1686445431938385400,1.852385498046875,-0.0018387832678854465,0.007322588004171848,-0.002086772583425045
1686445431948401700,1.862401611328125,-0.006792797707021236,0.0072382185608148575,0.0010224905563518405
1686445431958418700,1.872418701171875,-0.0011713975109159946,0.006249386817216873,0.0008941263658925891
1686445431968435500,1.882435546875,-0.0057754674926400185,0.0018769565504044294,0.00017398502677679062
1686445431978452700,1.89245263671875,-0.006937671452760696,0.003284436883404851,-0.005309996195137501
1686445431988468700,1.90246875,-0.004613651428371668,0.000859124818816781,0.0017870949814096093
1686445431998485500,1.912485595703125,-0.0010775062255561352,-0.0036701131612062454,0.006310474127531052
1686445432008502500,1.92250244140625,-0.0002116006799042225,-0.00963093712925911,0.009684999473392963
1686445432018518800,1.932518798828125,-0.0011005639098584652,-0.015986304730176926,0.006248456425964832
1686445432028535600,1.94253564453125,0.0004090443253517151,-0.015892215073108673,0.00638231448829174
1686445432038552600,1.952552490234375,0.0029150787740945816,-0.01229295413941145,0.006356747820973396
1686445432048569600,1.962569580078125,0.004440251272171736,-0.011961608193814754,0.006502561271190643
1686445432058585600,1.972585693359375,0.005707383621484041,-0.017453579232096672,0.002430055057629943
1686445432068602600,1.9826025390625,0.01113998144865036,-0.023653414100408554,0.002502910327166319
1686445432078619400,1.992619384765625,0.019523080438375473,-0.02880316786468029,0.002984942402690649
1686445432088636700,2.00263671875,0.016071097925305367,-0.027837611734867096,0.0007395859574899077
1686445432098652700,2.012652587890625,0.008071760646998882,-0.033251017332077026,-0.008489065803587437
1686445432108669400,2.02266943359375,0.004848257638514042,-0.026530055329203606,-0.012842711061239243
1686445432118686700,2.032686767578125,0.004912706092000008,-0.01337430626153946,-0.011363324709236622
1686445432128702700,2.04270263671875,0.0026728317607194185,-0.0019527336116880178,-0.005505151115357876
1686445432138719500,2.052719482421875,-0.0000201566144824028,0.0006478431168943644,-0.0032366702798753977
1686445432148736500,2.062736572265625,-0.0014293491840362549,-0.0036348074208945036,-0.005812474992126226
1686445432158753500,2.07275341796875,-0.006536227185279131,-0.003112827893346548,-0.0020214649848639965
1686445432168769500,2.08276953125,-0.005672002676874399,-0.003958854824304581,-0.0011987525504082441
1686445432178786600,2.09278662109375,-0.004906343761831522,0.006086855195462704,-0.008202600292861462
1686445432188803600,2.102803466796875,-0.0041791838593780994,0.014345341362059116,-0.0017420465592294931
1686445432198820600,2.112820556640625,-0.0005871127359569073,0.026464320719242096,0.007718566805124283
1686445432208836600,2.122836669921875,-0.00042040180414915085,0.03113982081413269,0.011193482205271721
1686445432218853400,2.132853271484375,0.0008611110970377922,0.024839047342538834,0.0022250209003686905
1686445432228870700,2.14287060546875,0.0008532460778951645,0.01569974236190319,-0.0015809781616553664
1686445432238886700,2.15288671875,-0.001666903030127287,0.0026752862613648176,-0.00016790488734841347
1686445432248903400,2.1629033203125,0.001291109248995781,-0.0025795488618314266,0.0003452594392001629
1686445432258920700,2.172920654296875,-0.001105735544115305,-0.0035747720394283533,0.0011503329733386636
1686445432268937500,2.1829375,-0.0023579741828143597,-0.001064639538526535,0.00019734387751668692
1686445432278953500,2.192953369140625,-0.0017419848591089249,0.0008309984114021063,-0.000546210678294301
1686445432288970500,2.202970458984375,-0.00002561509609222412,0.0014872450847178698,-0.0007930985884740949
1686445432298987500,2.212987548828125,0.00003617024049162865,-0.000641685794107616,-0.0015603553038090467
1686445432309004500,2.223004638671875,-0.00018936814740300179,-0.0016618811059743166,0.0010956735350191593
1686445432319020500,2.2330205078125,0.00043008336797356606,-0.002520484384149313,0.000016028061509132385
1686445432329037600,2.24303759765625,0.002159664873033762,-0.004169382154941559,-0.002133751753717661
1686445432339054600,2.2530546875,-0.00046860892325639725,-0.0034644436091184616,-0.0007901870412752032
1686445432349070600,2.263070556640625,0.0025881642941385508,0.0007564527913928032,0.0033601063769310713
1686445432359087400,2.27308740234375,-0.000839057844132185,0.0013767029158771038,-0.0006114658899605274
1686445432369104600,2.283104736328125,0.0018765870481729507,-0.001061203540302813,-0.0022579687647521496
1686445432379121700,2.29312158203125,0.0019612754695117474,-0.0026511107571423054,0.00321695813909173
1686445432389137400,2.303137451171875,0.00016746856272220612,-0.0021525488700717688,-0.004100235179066658
1686445432399154700,2.31315478515625,0.00040289200842380524,-0.003028728999197483,-0.004559896886348724
1686445432409171500,2.32317138671875,-0.0015371907502412796,-0.0014949538744986057,-0.004421886522322893
1686445432419188500,2.3331884765625,0.00030039064586162567,-0.0013458167668431997,-0.003910559695214033
1686445432429204500,2.34320458984375,-0.0016346345655620098,-0.0020243856124579906,-0.005057805217802525
1686445432439221500,2.353221435546875,-0.0029832590371370316,-0.0015950840897858143,-0.0001711712684482336
1686445432449238500,2.363238525390625,0.0008073276840150356,0.0027777429204434156,-0.0011647409992292523
1686445432459254500,2.373254638671875,-0.0016049635596573353,0.004079762846231461,0.0004086545668542385
1686445432469271600,2.383271484375,0.0004387432709336281,0.0036430563777685165,0.00012212095316499472
1686445432479288600,2.39328857421875,-0.001445443369448185,0.0026065544225275517,-0.0012699132785201073
1686445432489305600,2.4033056640625,-0.00013145944103598595,-0.0020544612780213356,-0.00042741833021864295
1686445432499321300,2.4133212890625,0.0014587140176445246,-0.0025511407293379307,0.0006381123093888164
1686445432509338600,2.423338623046875,0.0003777765668928623,0.0005997591651976109,-0.001643444993533194
1686445432519355600,2.433355712890625,0.002202308038249612,-0.002732387976720929,0.004108450375497341
1686445432529372700,2.44337255859375,-0.0016969749704003334,-0.00036348169669508934,0.000541135435923934
1686445432539388700,2.453388671875,0.0016325090546160936,-0.0016543158562853932,0.0003230225993320346
1686445432549405700,2.46340576171875,0.0014712344855070114,-0.000918941805139184,-0.00014008639845997095
1686445432559422500,2.47342236328125,0.00025922991335392,-0.0054513756185770035,-0.001723069348372519
1686445432569438700,2.483438720703125,0.0042295013554394245,-0.005306227132678032,0.0015976662980392575
1686445432579455500,2.49345556640625,-0.00006884057074785233,-0.0009690033039078116,0.0011129708727821708
1686445432589472500,2.503472412109375,-0.0019630398601293564,-0.005706851836293936,-0.0008683623163960874
1686445432599489800,2.51348974609375,-0.00312657468020916,-0.0009099659509956837,-0.00017540785484015942
1686445432609505500,2.523505615234375,-0.0013397159054875374,-0.00458131730556488,0.002137068659067154
1686445432619522600,2.5335224609375,-0.0022739525884389877,-0.0014491737820208073,0.006580286659300327
1686445432629539800,2.543539794921875,-0.001490056049078703,0.0031895991414785385,0.005211855284869671
1686445432639556900,2.553556884765625,-0.001409362070262432,0.010652042925357819,0.002984121209010482
1686445432649572900,2.56357275390625,-0.0036523928865790367,0.010881051421165466,-0.001048960955813527
1686445432659590000,2.57358984375,-0.0018390468321740627,0.007984597235918045,0.0007806307403370738
1686445432669606700,2.583606689453125,-0.0018137884326279163,0.006232121028006077,-0.0022127318661659956
1686445432679623000,2.593622802734375,-0.0018579969182610512,0.004492544569075108,-0.0014617204433307052
1686445432689639700,2.6036396484375,-0.001424381509423256,0.004257824271917343,-0.002737227128818631
1686445432699656700,2.61365673828125,-0.0015269131399691105,0.0033155977725982666,0.000211424776352942
1686445432709674000,2.623674072265625,-0.0001535569317638874,0.003008902072906494,-0.003413134254515171
1686445432719689700,2.633689697265625,-0.0010521071963012218,0.0006687825080007315,-0.0037425674963742495
1686445432729706800,2.643706787109375,-0.0016590035520493984,0.0009855893440544605,-0.0004074214957654476
1686445432739723800,2.653723876953125,0.003438020357862115,0.000737649155780673,0.0024605365470051765
1686445432749740800,2.66374072265625,0.0023345716763287783,-0.0027384134009480476,0.008771383203566074
1686445432759756800,2.6737568359375,0.0032592210918664932,-0.004616741091012955,0.0075034527108073235
1686445432769773800,2.68377392578125,0.005477121099829674,-0.0066386619582772255,0.003426814917474985
1686445432779790800,2.693790771484375,0.001112466212362051,-0.008298876695334911,-0.0067632379941642284
1686445432789806800,2.703806884765625,0.00013339705765247345,-0.00814945437014103,-0.007894707843661308
1686445432799824000,2.713823974609375,-0.0033071404322981834,-0.00911724753677845,-0.00672984030097723
1686445432809840600,2.723840576171875,-0.002602579537779093,-0.007032891735434532,-0.008174501359462738
1686445432819858000,2.73385791015625,-0.0038553299382328987,-0.006231812760233879,-0.00630496209487319
1686445432829874000,2.7438740234375,-0.003561075311154127,-0.005010109860450029,-0.008078807033598423
1686445432839890700,2.753890625,-0.00003371806815266609,-0.009083680808544159,-0.006142955739051104
1686445432849908000,2.763907958984375,-0.0059522781521081924,-0.00702450517565012,-0.003641876857727766
1686445432859924700,2.7739248046875,-0.004259839653968811,-0.001912567182444036,-0.0019145505502820015
1686445432869940700,2.783940673828125,-0.0009774933569133282,0.0029983019921928644,-0.0010426316875964403
1686445432879957800,2.793957763671875,-0.006041494198143482,0.007998652756214142,0.002863160567358136
1686445432889974800,2.803974853515625,-0.0018434319645166397,0.010501941666007042,0.0005142003064975142
1686445432899990800,2.81399072265625,0.0014711383264511824,0.011332049034535885,-0.0020365752279758453
1686445432910007800,2.8240078125,0.0019667884334921837,0.00399898923933506,-0.0006511841784231365
1686445432920024800,2.83402490234375,0.00015796953812241554,0.0007360847666859627,0.005499386228621006
1686445432930041900,2.844041748046875,0.0013880711048841476,-0.002674681367352605,0.003688260680064559
1686445432940057900,2.854057861328125,0.0016109775751829147,-0.0021732081659138203,0.007769555784761906
1686445432950074600,2.86407470703125,0.0013391973916441202,-0.005358802154660225,0.002664442639797926
1686445432960092000,2.874091796875,0.0016151010058820248,-0.008239543996751308,-0.004454453010112047
1686445432970108700,2.884108642578125,-0.0009306087158620358,-0.01221521571278572,-0.00545478193089366
1686445432980124700,2.894124755859375,-0.006002599373459816,-0.009530482813715935,-0.010008787736296654
1686445432990142000,2.904141845703125,-0.004588345065712929,-0.00803349819034338,-0.009180018678307533
1686445433000158700,2.91415869140625,-0.0067407116293907166,-0.0011689341627061367,-0.005480888299643993
1686445433010174700,2.9241748046875,-0.008431421592831612,0.003151804441586137,-0.0037187959533184767
1686445433020191700,2.934191650390625,-0.0033849976025521755,0.001556038623675704,-0.007586504798382521
1686445433030208800,2.944208740234375,-0.0046608722768723965,0.00033685239031910896,-0.00042134226532652974
1686445433040225800,2.954225830078125,-0.001309816725552082,-0.005894678179174662,0.00440803449600935
1686445433050241800,2.96424169921875,0.000649572815746069,-0.008541572839021683,0.01131371222436428
1686445433060258800,2.9742587890625,0.0001491648145020008,-0.009354902431368828,0.007837754674255848
1686445433070275800,2.98427587890625,0.0014837021008133888,-0.006519109942018986,-0.0010819064918905497
1686445433080292600,2.994292724609375,-0.0005512195639312267,-0.006665583699941635,-0.005393297877162695
1686445433090308900,3.004308837890625,0.00049166614189744,-0.0013678653631359339,-0.003770567011088133
1686445433100326000,3.014325927734375,0.0005931328050792217,0.004925716668367386,-0.0017447005957365036
1686445433110342700,3.0243427734375,-0.000028467737138271332,0.006278918124735355,-0.00026384752709418535
1686445433120358700,3.034358642578125,0.001059965929016471,0.006053082644939423,0.00408882275223732
1686445433130376000,3.0443759765625,-0.0008371379226446152,0.00390660110861063,0.006863981019705534
1686445433140392700,3.054392822265625,0.0005828598514199257,0.0008447649888694286,0.01221400499343872
1686445433150409700,3.06440966796875,0.001710179029032588,-0.003068004036322236,0.014227066189050674
1686445433160426000,3.074426025390625,0.0008545052260160446,-0.005833164323121309,0.010174534283578396
1686445433170442800,3.08444287109375,-0.0006572366692125797,-0.00627740565687418,0.0023018191568553448
1686445433180459800,3.094459716796875,-0.0007989169098436832,-0.004154067486524582,-0.001630338141694665
1686445433190476800,3.104476806640625,0.0005868636071681976,-0.000442498829215765,-0.007131264545023441
1686445433200492800,3.114492919921875,0.002149872947484255,0.0010970744770020247,-0.0022757891565561295
1686445433210509800,3.124509765625,0.0004804525524377823,0.0021471816580742598,-0.0005005337297916412
1686445433220526600,3.134526611328125,0.001095376443117857,0.0015716725029051304,-0.003724290058016777
1686445433230542800,3.14454296875,-0.0008191335946321487,-0.00006520561873912811,-0.0023762027267366648
1686445433240559900,3.154559814453125,0.0005233660340309143,-0.0011443184921517968,-0.004192212130874395
1686445433250576600,3.16457666015625,-0.003225843422114849,-0.0008572846418246627,-0.0016251022461801767
1686445433260594000,3.174593994140625,-0.0009706784039735794,-0.0015238737687468529,-0.002310067182406783
1686445433270610000,3.18460986328125,-0.0012848395854234695,0.002866736613214016,0.0001260795397683978
1686445433280626700,3.194626708984375,-0.0036728959530591965,0.008225549943745136,-0.0008403815445490181
1686445433290643700,3.204643798828125,-0.0046265400014817715,0.011268485337495804,-0.00432455912232399
1686445433300660700,3.21466064453125,-0.0022677788510918617,0.013023508712649345,-0.002403354737907648
1686445433310676700,3.2246767578125,-0.0020862738601863384,0.008567322976887226,-0.0033617718145251274
1686445433320693800,3.23469384765625,-0.0014958507381379604,0.0012383039575070143,-0.003480282612144947
1686445433330710800,3.244710693359375,-0.003762473352253437,-0.002631695941090584,-0.0035327021032571793
1686445433340726800,3.254726806640625,-0.0006716088391840458,-0.0025483390782028437,-0.003820057027041912
1686445433350743800,3.264743896484375,0.002035892801359296,-0.002256163861602545,0.002730664797127247
1686445433360760600,3.274760498046875,0.003247098531574011,-0.0002321614883840084,0.004851339850574732
1686445433370777900,3.28477783203125,0.003561843652278185,-0.003408683929592371,0.005687848664820194
1686445433380793900,3.2947939453125,0.0005319654010236263,-0.007768811192363501,0.00623539462685585
1686445433390810600,3.304810546875,0.005256177857518196,-0.007676071487367153,0.0076336124911904335
1686445433400828000,3.314827880859375,0.0004009692929685116,-0.006268058437854052,0.005170720629394054
1686445433410845000,3.324844970703125,0.0035637482069432735,-0.002542453818023205,-0.0003657926572486758
1686445433420860700,3.334860595703125,0.0009224251843988895,0.005554887466132641,-0.00003582704812288284
1686445433430877700,3.344877685546875,-0.001607202459126711,0.011224085465073586,-0.0011694966815412045
1686445433440894700,3.354894775390625,0.002127082319930196,0.01305900327861309,0.004138982389122248
1686445433450910700,3.36491064453125,0.0007461206987500191,0.0047445399686694145,0.00971962045878172
1686445433460927700,3.374927734375,-0.0008296715095639229,-0.0011258659651502967,0.005672947503626347
1686445433470944800,3.38494482421875,-0.00392336817458272,-0.00643193069845438,0.0005701736081391573
1686445433480961800,3.3949619140625,-0.0014612763188779354,-0.009610413573682308,-0.0013797929277643561
1686445433490977800,3.404977783203125,0.00010951096192002296,-0.01021637674421072,-0.0010462200734764338
1686445433500994600,3.41499462890625,0.0003646416589617729,-0.0052722180262207985,-0.0025357259437441826
1686445433511011800,3.42501171875,-0.0015079788863658905,0.003006294835358858,-0.005099805071949959
1686445433521028900,3.43502880859375,0.0005863308906555176,0.005688630975782871,-0.00597944762557745
1686445433531044600,3.445044677734375,0.0006629209965467453,0.008435498923063278,-0.007884995080530643
1686445433541062000,3.455061767578125,-0.0005133976228535175,0.00907439086586237,-0.007062877528369427
1686445433551079000,3.465078857421875,-0.0016098804771900177,0.0037464045453816652,-0.003973978105932474
1686445433561094700,3.4750947265625,-0.00032543810084462166,-0.0007117268396541476,-0.000769662787206471
1686445433571111700,3.485111572265625,0.000920949038118124,0.0035220144782215357,0.0014160744613036513
1686445433581129000,3.49512890625,-0.00257711298763752,0.0027350501623004675,0.0023734807036817074
1686445433591145700,3.505145751953125,-0.0018812320195138454,0.0005289399996399879,0.002722910139709711
1686445433601161700,3.51516162109375,-0.001949674915522337,0.00321846641600132,-0.002583970781415701
1686445433611178800,3.5251787109375,-0.0015023648738861084,0.000747401500120759,0.0010267967591062188
1686445433621195800,3.53519580078125,-0.001891186460852623,-0.002539738081395626,0.00043850450310856104
1686445433631212800,3.545212890625,-0.0014345762319862843,-0.0006026072660461068,0.0006635190220549703
1686445433641228800,3.555228759765625,-0.002894787583500147,0.0007625292055308819,0.004628966096788645
1686445433651245600,3.56524560546875,0.0010859780013561249,0.003838529111817479,0.007678422145545483
1686445433661262800,3.575262939453125,0.0011685360223054886,0.004081942141056061,0.004753738641738892
1686445433671278600,3.585278564453125,0.0010254336521029472,0.00048476364463567734,0.0017915222560986876
1686445433681295600,3.595295654296875,0.0017487481236457825,0.0002448128070682287,0.0023161652497947216
1686445433691312600,3.605312744140625,0.0010214978829026222,-0.0009416878456249833,0.0010229854378849268
1686445433701329700,3.61532958984375,0.001785825239494443,0.0006761825643479824,0.0025897230952978134
1686445433711345700,3.625345703125,0.0048297797329723835,0.0014988631010055542,0.0007921186042949557
1686445433721362700,3.63536279296875,0.002578343264758587,0.0036011626943945885,0.001993204466998577
1686445433731379700,3.645379638671875,0.0022291303612291813,0.003252637106925249,-0.00017455522902309895
1686445433741396700,3.655396728515625,-0.00029847584664821625,-0.0003519513411447406,-0.0026931066531687975
1686445433751412700,3.665412841796875,-0.0029710475355386734,-0.0021524354815483093,-0.0015930538065731525
1686445433761429500,3.675429443359375,0.00045058224350214005,-0.002041381550952792,-0.002136072376742959
1686445433771446800,3.68544677734375,-0.0009739813394844532,-0.004545147530734539,-0.003991375677287579
1686445433781462800,3.695462890625,-0.002401702105998993,-0.004558995831757784,-0.0038739300798624754
1686445433791479600,3.7054794921875,-0.0029067164286971092,-0.00012811855413019657,-0.0001497491030022502
1686445433801496800,3.715496826171875,-0.0016198772937059402,0.00705123133957386,-0.005094972904771566
1686445433811513600,3.725513671875,-0.0001455969177186489,0.011263720691204071,-0.0005785246612504125
1686445433821529600,3.735529541015625,-0.0015964871272444725,0.013399843126535416,0.004843937698751688
1686445433831546600,3.745546630859375,0.0016002703923732042,0.008338550105690956,0.00403352128341794
1686445433841563600,3.755563720703125,-0.0009635547176003456,-0.0014088850002735853,0.0019282922148704529
1686445433851580700,3.76558056640625,-0.00005970615893602371,-0.0065711564384400845,0.001405513845384121
1686445433861596700,3.7755966796875,-0.0037708207964897156,-0.013100961223244667,-0.004800982773303986
1686445433871613700,3.78561376953125,-0.001930795144289732,-0.00877922959625721,-0.00559805054217577
1686445433881630700,3.795630615234375,0.0006197141483426094,-0.000887483824044466,-0.004566874820739031
1686445433891646700,3.805646728515625,0.0007968866266310215,0.00576266273856163,0.005498890765011311
1686445433901663500,3.81566357421875,0.001452290453016758,0.01069377176463604,0.004634961485862732
1686445433911680800,3.8256806640625,0.0043149408884346485,0.014283844269812107,0.005589895881712437
1686445433921697500,3.835697509765625,0.0013585658743977547,0.010070989839732647,0.0044202352873981
1686445433931713500,3.845713623046875,0.004177389666438103,0.0044829389080405235,0.0039632972329854965
1686445433941730800,3.855730712890625,-0.0006101746112108231,-0.002108384855091572,0.0019001465989276767
1686445433951747600,3.86574755859375,-0.0008201021701097488,-0.0070828283205628395,-0.0013281225692480803
1686445433961764600,3.8757646484375,0.000036636367440223694,-0.012839251197874546,-0.003964385949075222
1686445433971780900,3.88578076171875,-0.004854109138250351,-0.012546829879283905,-0.004308425821363926
1686445433981797600,3.895797607421875,-0.0024844282306730747,-0.006708115339279175,-0.00006973883137106895
1686445433991814700,3.905814697265625,-0.0049431659281253815,-0.0010420287726446986,-0.0018670165445655584
1686445434001830700,3.91583056640625,0.001161864260211587,0.0003707781434059143,0.006109417416155338
1686445434011847700,3.92584765625,0.0008738581091165543,0.00022382056340575218,0.007954591885209084
1686445434021864700,3.93586474609375,0.00038889655843377113,0.0015450147911906242,0.011465170420706272
1686445434031881500,3.945881591796875,0.001960732275620103,-0.00016769045032560825,0.007395183201879263
1686445434041897700,3.955897705078125,-0.000877398531883955,-0.0020633284002542496,0.0026784585788846016
1686445434051914800,3.965914794921875,-0.0016813171096146107,-0.001668085576966405,-0.005963734816759825
1686445434061931500,3.975931640625,0.0013267232570797205,0.0016824372578412294,-0.004051318857818842
1686445434071948800,3.98594873046875,0.0015318396035581827,0.009783372282981873,-0.002422605874016881
1686445434081964800,3.99596484375,0.0023006941191852093,0.009545285254716873,-0.0012191233690828085
1686445434091981600,4.005981689453125,-0.0012849755585193634,0.006396866403520107,-0.0017429967410862446
1686445434101998600,4.01599853515625,0.002093777060508728,0.002852997975423932,0.003191308118402958
1686445434112015600,4.026015625,-0.0010572909377515316,-0.0015482776798307896,0.0024572659749537706
1686445434122031600,4.036031494140625,-0.0002607395872473717,-0.011113020591437817,0.003980860114097595
1686445434132048600,4.046048583984375,0.002001758897677064,-0.012836985290050507,-0.001214862335473299
1686445434142065700,4.056065673828125,-0.0037932791747152805,-0.011763199232518673,-0.006123068276792765
1686445434152081700,4.06608154296875,-0.0015110587701201439,-0.008988822810351849,-0.015779735520482063
1686445434162098700,4.0760986328125,-0.00311188492923975,-0.0071219466626644135,-0.02003599889576435
1686445434172115500,4.086115478515625,-0.004286527168005705,-0.0034674752969294786,-0.026303160935640335
1686445434182132700,4.0961328125,-0.00458666542544961,0.0013770810328423977,-0.031061964109539986
1686445434192148700,4.106148681640625,-0.0071587711572647095,0.008269229903817177,-0.03021836094558239
1686445434202165500,4.11616552734375,-0.004918786697089672,0.017944494262337685,-0.028815940022468567
1686445434212182800,4.126182861328125,-0.00324564753100276,0.024599069729447365,-0.02460354194045067
1686445434222199600,4.136199462890625,-0.004119963850826025,0.027977555990219116,-0.018858836963772774
1686445434232215600,4.146215576171875,0.0007667890749871731,0.03203964605927467,-0.018291080370545387
1686445434242232600,4.156232666015625,-0.00009714020416140556,0.027714671567082405,-0.012147434055805206
1686445434252249600,4.16624951171875,-0.0009533236734569073,0.019031068310141563,-0.005578109063208103
1686445434262265600,4.176265625,0.001537530915811658,0.009580041281878948,0.004554153420031071
1686445434272282600,4.18628271484375,-0.0040716188959777355,0.00196366710588336,0.013056028634309769
1686445434282299600,4.196299560546875,0.0006930422969162464,-0.004960818216204643,0.01498575508594513
1686445434292316700,4.206316650390625,0.0006668022833764553,-0.01132537517696619,0.018196385353803635
1686445434302332700,4.216332763671875,-0.0008647819049656391,-0.008651294745504856,0.014295388013124466
1686445434312349400,4.226349365234375,0.002128761727362871,-0.00945719052106142,0.00811553094536066
1686445434322366700,4.23636669921875,-0.0011037830263376236,-0.006741832010447979,0.002239000052213669
1686445434332383700,4.2463837890625,0.0026997183449566364,-0.0019977884367108345,0.0017494263593107462
1686445434342399500,4.2563994140625,0.0021913207601755857,0.001984169939532876,0.0027507750783115625
1686445434352416800,4.266416748046875,0.0041021667420864105,0.0038300661835819483,0.0037204944528639317
1686445434362433800,4.276433837890625,0.000570282805711031,0.0067899031564593315,0.006324267014861107
1686445434372449500,4.286449462890625,0.0028652416076511145,0.005564126186072826,0.0014935723738744855
1686445434382466600,4.296466552734375,0.003948615398257971,0.005489291623234749,0.003266438841819763
1686445434392483600,4.306483642578125,0.0028830613009631634,-0.00020178337581455708,0.0025629934389144182
1686445434402500600,4.31650048828125,0.0036865370348095894,0.0006861144211143255,0.0038679426070302725
1686445434412516600,4.3265166015625,-0.0008731684647500515,-0.00168182875495404,-0.0032661736477166414
1686445434422533600,4.33653369140625,-0.0008835550397634506,0.0013714854139834642,0.0022343192249536514
1686445434432550700,4.346550537109375,-0.0018637333996593952,0.0004428674001246691,0.0002823667600750923
1686445434442567700,4.356567626953125,-0.0016165920533239841,0.006348692812025547,0.0037423456087708473
1686445434452583400,4.36658349609375,0.00025109248235821724,0.005813772790133953,0.0014823192032054067
1686445434462600700,4.3766005859375,-0.00450131855905056,0.005294988863170147,0.007406254298985004
1686445434472617700,4.38661767578125,-0.0018822341226041317,0.00968443788588047,0.005137652158737183
1686445434482633500,4.396633544921875,0.0015218181069940329,0.007580806501209736,0.0014478425728157163
1686445434492650800,4.406650634765625,-0.0015871720388531685,0.004647064954042435,0.003424288472160697
1686445434502667800,4.416667724609375,0.0026168939657509327,0.0017359636258333921,0.0004681795835494995
1686445434512684500,4.4266845703125,0.00303569994866848,0.0003781558480113745,0.004461019765585661
1686445434522700500,4.436700439453125,0.0019001280888915062,-0.004838710650801659,0.00019596738275140524
1686445434532717800,4.4467177734375,0.0034155859611928463,-0.007620677817612886,0.002952839946374297
1686445434542734600,4.456734619140625,0.0026800211053341627,-0.005333289038389921,0.002280658110976219
1686445434552751900,4.466751953125,0.0028086667880415916,-0.0028165988624095917,0.0036616609431803226
1686445434562768000,4.476767822265625,0.0017242275644093752,0.00332331913523376,0.0025673680938780308
1686445434572784600,4.48678466796875,0.0008919746614992619,0.0068301670253276825,0.0017831798177212477
1686445434582801700,4.4968017578125,-0.0019490853883326054,0.004451164975762367,0.0038742937613278627
1686445434592818700,4.506818603515625,0.0008217818103730679,0.002673793351277709,0.004627429414540529
1686445434602834700,4.516834716796875,-0.0012493585236370564,0.0035433152224868536,0.0014143253210932016
1686445434612851700,4.526851806640625,-0.0014287037774920464,0.0012511105742305517,0.006309754215180874
1686445434622868700,4.53686865234375,0.0020605698227882385,0.0016236866358667612,0.0024103540927171707
1686445434632884500,4.546884521484375,-0.0017396234907209873,0.0016052320133894682,-0.0028663340490311384
1686445434642901500,4.556901611328125,-0.0006594453006982803,0.001655299449339509,-0.0016146483831107616
1686445434652918500,4.56691845703125,0.0002163429744541645,0.005121804773807526,-0.0035046166740357876
1686445434662935600,4.576935546875,0.0018877428956329823,0.008468599058687687,0.0010131696471944451
1686445434672951600,4.58695166015625,-0.00013598473742604256,0.008331820368766785,0.0005140260327607393
1686445434682968600,4.596968505859375,-0.000319743063300848,0.010269536636769772,0.005115169566124678
1686445434692985600,4.606985595703125,0.0030021376442164183,0.01094142347574234,0.0037247007712721825
1686445434703002400,4.61700244140625,0.001085727009922266,0.010603467933833599,0.004447216633707285
1686445434713018400,4.627018310546875,-0.0008926163427531719,0.005800959654152393,-0.0007414511637762189
1686445434723035600,4.63703564453125,0.0011835838668048382,0.0003822261933237314,-0.0016264196019619703
1686445434733052400,4.647052490234375,-0.0013815760612487793,-0.007395483553409576,-0.002323878463357687
1686445434743068400,4.657068359375,0.00041951984167099,-0.012997709214687347,-0.00355212832801044
1686445434753085700,4.667085693359375,-0.0018371217884123325,-0.010226506739854813,0.0022761477157473564
1686445434763102500,4.6771025390625,0.0004912801086902618,-0.00563388504087925,0.0010439030593261123
1686445434773119500,4.687119384765625,-0.001315937377512455,-0.00426161102950573,0.003061490599066019
1686445434783135700,4.6971357421875,0.001733381999656558,0.001465517096221447,0.0028273984789848328
1686445434793152500,4.707152587890625,0.0037045516073703766,0.0023225562181323767,0.0034318524412810802
1686445434803169500,4.71716943359375,0.00134019716642797,0.0036922201979905367,0.0013521899236366153
1686445434813186600,4.7271865234375,0.0025328630581498146,0.0005885381251573563,-0.0006232591113075614
1686445434823202600,4.73720263671875,-0.0006197872571647167,-0.00016247318126261234,-0.0038012091536074877
1686445434833219600,4.747219482421875,0.0005598724819719791,0.002231791615486145,-0.002232821425423026
1686445434843236400,4.757236328125,0.003195070428773761,0.0006043338216841221,0.0007800126913934946
1686445434853252600,4.767252685546875,-0.0023330533877015114,0.005882564932107925,-0.003574702888727188
1686445434863269600,4.77726953125,-0.00016364268958568573,0.004775754176080227,-0.0037549990229308605
1686445434873286400,4.787286376953125,-0.0019582025706768036,0.003417456988245249,-0.00021213642321527004
1686445434883303700,4.7973037109375,-0.0008692359551787376,-0.0020934222266077995,-0.0022060452029109
1686445434893319700,4.807319580078125,0.0009969626553356647,-0.0060120755806565285,-0.00025651243049651384
1686445434903336400,4.81733642578125,-0.002969549037516117,-0.010113609954714775,0.0005072822095826268
1686445434913353500,4.827353515625,-0.001308003906160593,-0.009796720929443836,0.000302340486086905
1686445434923370500,4.83737060546875,0.0010651391930878162,-0.008020391687750816,0.0007300440920516849
1686445434933386500,4.847386474609375,-0.00023734616115689278,0.001803310588002205,-0.0007592999027110636
1686445434943403500,4.857403564453125,-0.0007547982968389988,0.005136522930115461,0.004406966269016266
1686445434953420500,4.867420654296875,-0.002063191030174494,0.00328981620259583,-0.00025076663587242365
1686445434963437600,4.8774375,0.001858047442510724,0.003668784396722913,0.0010829443344846368
1686445434973453600,4.88745361328125,0.0021851344499737024,0.001369996229186654,-0.0034737014211714268
1686445434983470300,4.89747021484375,0.0003688586875796318,-0.004148872569203377,-0.0038494737818837166
1686445434993487600,4.907487548828125,-0.0009412099607288837,-0.0015436459798365831,-0.0011757713509723544
1686445435003503600,4.917503662109375,-0.0018741153180599213,-0.002391330199316144,-0.0015360970282927155
1686445435013520400,4.927520263671875,0.0003134366124868393,0.00019114906899631023,-0.0032203581649810076
1686445435023537700,4.93753759765625,-0.0005563516169786453,0.001942177303135395,-0.0018206005915999413
1686445435033554400,4.947554443359375,0.0015848118346184492,0.00060680927708745,-0.0010584660340100527
1686445435043570400,4.9575703125,0.00018452201038599014,0.000591629184782505,-0.0010161217069253325
1686445435053587500,4.96758740234375,-0.0011160378344357014,0.0013632294721901417,-0.0017811950528994203
1686445435063604500,4.9776044921875,-0.0030068824999034405,-0.0015750359743833542,-0.00023922475520521402
1686445435073621500,4.98762158203125,-0.0030543720349669456,-0.005649087019264698,-0.00006423215381801128
1686445435083637500,4.997637451171875,-0.0032471856102347374,-0.007033398374915123,0.0013549664290621877
1686445435093654500,5.007654541015625,-0.0019044214859604836,-0.002481040544807911,0.002400121185928583
1686445435103671600,5.017671630859375,-0.004192875698208809,-0.0010418682359158993,0.0001348365331068635
1686445435113687600,5.0276875,-0.001487506553530693,-0.0018191472627222538,-0.0024532154202461243
1686445435123704300,5.037704345703125,-0.000708265695720911,-0.0030860130209475756,-0.0001093671889975667
1686445435133721600,5.0477216796875,-0.00159434974193573,-0.001748748472891748,0.0003353619249537587
1686445435143738600,5.057738525390625,0.0005987631157040596,-0.006212739273905754,0.0011835787445306778
1686445435153754400,5.06775439453125,-0.001108112744987011,-0.005980118177831173,-0.0033958465792238712
1686445435163771600,5.077771728515625,0.00027753040194511414,-0.004297266714274883,-0.0020083398558199406
1686445435173788700,5.08778857421875,-0.003954865969717503,0.0008250009268522263,0.00294682988896966
1686445435183805400,5.097805419921875,0.0003163116052746773,0.002105981344357133,0.003671476151794195
1686445435193821400,5.107821533203125,0.0037550278939306736,0.004952242597937584,0.002089674584567547
1686445435203838500,5.11783837890625,0.0002838638611137867,0.0025593929458409548,0.0034119337797164917
1686445435213855500,5.12785546875,0.0023096799850463867,-0.0013970258878543973,-0.0003224948886781931
1686445435223871500,5.13787158203125,-0.002207573503255844,-0.006161155179142952,0.0023071104660630226
1686445435233888500,5.147888427734375,0.00006585614755749702,-0.007980043068528175,-0.0008874833583831787
1686445435243905500,5.157905517578125,-0.000023093074560165405,0.0004624433349817991,0.0009423746960237622
1686445435253922600,5.167922607421875,0.0006612343713641167,0.0016107948031276464,0.0013038795441389084
1686445435263938300,5.177938232421875,-0.00022186990827322006,0.00744684599339962,0.002198169007897377
1686445435273955600,5.18795556640625,-0.00008674105629324913,0.007539392448961735,0.0005859672091901302
1686445435283972600,5.19797265625,0.00120089715346694,0.007955910637974739,0.0016759989084675908
1686445435293989400,5.2079892578125,-0.0003880173899233341,0.006285253446549177,0.0007469139527529478
1686445435304005600,5.218005615234375,0.0008245198987424374,0.003675621934235096,-0.0009710912127047777
1686445435314022700,5.228022705078125,0.0007860013283789158,0.0021317126229405403,-0.0036310721188783646
1686445435324039400,5.238039306640625,-0.0038484311662614346,0.0009399480186402798,-0.0016552726738154888
1686445435334056700,5.248056640625,-0.0017348057590425014,0.0014374307356774807,-0.0067490567453205585
1686445435344072700,5.25807275390625,-0.004337513353675604,0.002109612338244915,-0.0043442221358418465
1686445435354089500,5.26808935546875,-0.0013472381979227066,0.0026721730828285217,-0.0054976362735033035
1686445435364106800,5.278106689453125,-0.0013168780133128166,0.002137144096195698,-0.009336316026747227
1686445435374122500,5.28812255859375,-0.001865518745034933,-0.0007240474224090576,-0.005120067857205868
1686445435384139500,5.298139404296875,0.0004173428751528263,-0.00013575516641139984,-0.004634573590010405
1686445435394156500,5.308156494140625,0.002286170609295368,-0.00043282960541546345,-0.003195058088749647
1686445435404173600,5.318173583984375,-0.0005415738560259342,0.0010822426993399858,0.001649231999181211
1686445435414189600,5.328189453125,0.0004936042241752148,0.0010888625402003527,0.002276339568197727
1686445435424206600,5.33820654296875,-0.0026249573566019535,-0.0004168886225670576,-0.000655268260743469
1686445435434223600,5.3482236328125,-0.0018329578451812267,0.0005062408745288849,-0.0005379206850193441
1686445435444240600,5.35824072265625,-0.004039120394736528,-0.0006788657046854496,-0.0023427449632436037
1686445435454256600,5.368256591796875,-0.0015061390586197376,-0.0007792571559548378,-0.0011868991423398256
1686445435464273400,5.3782734375,-0.0010968116112053394,-0.0017031077295541763,-0.005617067683488131
1686445435474290700,5.388290771484375,-0.002266868017613888,-0.0025958034675568342,-0.0034970762208104134
1686445435484306700,5.398306640625,-0.0018700570799410343,0.003441049950197339,0.0001067133853211999
1686445435494323500,5.408323486328125,0.0007594134658575058,0.006670407019555569,0.002385085681453347
1686445435504340700,5.4183408203125,-0.00016443710774183273,0.009031831286847591,0.0014700235333293676
1686445435514357500,5.428357421875,0.0023574302904307842,0.01133815199136734,0.0033597941510379314
1686445435524373500,5.43837353515625,-0.0012918994762003422,0.009933601133525372,0.0011967745376750827
1686445435534390500,5.448390625,0.0016779620200395584,0.004599851556122303,-0.00039043830474838614
1686445435544407600,5.458407470703125,0.0015938060823827982,0.001128154806792736,-0.0010735391406342387
1686445435554424600,5.468424560546875,0.0000791642814874649,-0.0038480793591588736,-0.004030946642160416
1686445435564440600,5.478440673828125,-0.0014074118807911873,-0.005144772119820118,-0.0008197067072615027
1686445435574457600,5.48845751953125,-0.0011925874277949333,-0.002895195269957185,-0.0018563258927315474
1686445435584474600,5.498474609375,0.0002577700652182102,-0.0007950264262035489,-0.00006268697325140238
1686445435594490600,5.50849072265625,0.0010558152571320534,0.0032329000532627106,0.0013865592190995812
1686445435604507400,5.51850732421875,-0.00102544529363513,0.00460016680881381,-0.0023945970460772514
1686445435614524700,5.528524658203125,0.0012226472608745098,0.00625814963132143,-0.003431790741160512
1686445435624541400,5.53854150390625,-0.0015220064669847488,0.0027281290385872126,-0.004047247115522623
1686445435634557200,5.54855712890625,0.0010435697622597218,0.0009777306113392115,-0.004439256154000759
1686445435644574200,5.55857421875,0.0019509089179337025,-0.0035112937912344933,-0.001997669693082571
1686445435654591000,5.568591064453125,-0.0012058233842253685,-0.00644667400047183,-0.006966582033783197
1686445435664608300,5.578608154296875,0.0003268257714807987,-0.003824792103841901,-0.006268034689128399
1686445435674624300,5.588624267578125,-0.004037719219923019,-0.0048234546557068825,-0.007803355343639851
1686445435684641000,5.59864111328125,-0.00006827758625149727,-0.003256716998293996,-0.005031004548072815
1686445435694658300,5.608658203125,-0.0011803265661001205,-0.00048378133215010166,-0.0007078723283484578
1686445435704675000,5.618675048828125,-0.001895918045192957,0.00012102257460355759,-0.0021824645809829235
1686445435714691000,5.628691162109375,0.000050109345465898514,0.0017776393797248602,-0.0002717218594625592
1686445435724708400,5.638708251953125,-0.00475343456491828,0.0033054950181394815,-0.0004038146580569446
1686445435734725000,5.64872509765625,0.0007897424511611462,0.003677013562992215,-0.004932215437293053
1686445435744741000,5.6587412109375,-0.002123223152011633,0.006191037595272064,0.0003040917217731476
1686445435754758100,5.668758056640625,-0.00228328350931406,0.004998549818992615,0.0009989244863390923
1686445435764775200,5.678775146484375,0.000612371601164341,0.004812394734472036,0.002274845028296113
1686445435774792200,5.688792236328125,-0.0004806448705494404,0.002576888306066394,0.0030976254492998123
1686445435784808200,5.69880810546875,0.0011998098343610764,0.0007435681764036417,0.006866530980914831
1686445435794825200,5.7088251953125,0.0027056860271841288,-0.0025990516878664494,-0.000647517095785588
1686445435804842200,5.71884228515625,-0.0008608191274106503,-0.004323448520153761,0.0023235054686665535
1686445435814859300,5.728859375,0.0010135043412446976,-0.004819538909941912,-0.003344059456139803
1686445435824875000,5.738875,-0.00285500381141901,-0.0019893976859748363,-0.003101179376244545
1686445435834892300,5.748892333984375,0.002196623245254159,-0.001748802955262363,-0.008830084465444088
1686445435844909300,5.758909423828125,-0.0009839902631938457,-0.0027227208483964205,-0.007651370018720627
1686445435854926000,5.768926025390625,0.0006874199025332928,-0.002822093665599823,-0.005673243198543787
1686445435864942300,5.7789423828125,0.001978786662220955,-0.0017855914775282145,-0.0032508319709450006
1686445435874959000,5.788958984375,-0.00114160543307662,-0.005326548591256142,-0.005485597997903824
1686445435884976000,5.79897607421875,-0.0035725384950637817,-0.005492996424436569,-0.00591516587883234
1686445435894992100,5.8089921875,-0.0029216697439551353,-0.004227728582918644,-0.006527160294353962
1686445435905009200,5.819009033203125,-0.001663858536630869,-0.005105240270495415,-0.004394767340272665
1686445435915026200,5.829026123046875,-0.002877363469451666,-0.002798889996483922,-0.001302015851251781
1686445435925043200,5.839043212890625,-0.002305049914866686,0.002483489690348506,-0.0015470266807824373
1686445435935059200,5.84905908203125,0.00016742059960961342,0.0053667244501411915,0.0009678069036453962
1686445435945076200,5.859076171875,-0.0013316730037331581,0.007070881314575672,-0.0015656581381335855
1686445435955093200,5.86909326171875,-0.00023596640676259995,0.0077905552461743355,0.0004417684394866228
1686445435965110300,5.8791103515625,0.0035734190605580807,0.010576222091913223,0.005696718115359545
1686445435975126300,5.889126220703125,0.00041289161890745163,0.007271156180649996,0.007717737928032875
1686445435985143300,5.899143310546875,0.0031008198857307434,0.0038239601999521255,0.0036260574124753475
1686445435995160000,5.90916015625,-0.0011032181791961193,0.001029058825224638,-0.0005288006504997611
1686445436005176300,5.91917626953125,-0.0012962976470589638,-0.004564911127090454,-0.0015605093212798238
1686445436015193300,5.929193359375,-0.0011242134496569633,-0.009531364776194096,-0.006263903342187405
1686445436025210000,5.939210205078125,-0.0012890626676380634,-0.013200667686760426,-0.0036918227560818195
1686445436035227400,5.949227294921875,-0.0008597909472882748,-0.01261277124285698,-0.00545760290697217
1686445436045243100,5.9592431640625,0.0010816538706421852,-0.010379711166024208,-0.006473066285252571
1686445436055260200,5.96926025390625,0.00032296590507030487,-0.006030215881764889,-0.004903225228190422
1686445436065277200,5.979277099609375,0.0011770417913794518,-0.005538064055144787,-0.001591584412381053
1686445436075294200,5.989294189453125,0.00039692223072052,0.0009585637599229813,-0.0024959109723567963
1686445436085310200,5.999310302734375,0.004321889020502567,-0.0002140258438885212,-0.0016277204267680645
1686445436095327200,6.0093271484375,0.0025150219444185495,-0.0028169816359877586,0.0012992019765079021
1686445436105344300,6.01934423828125,0.002031924668699503,-0.002983429003506899,-0.0015160255134105682
1686445436115360300,6.0293603515625,0.0019004994537681341,-0.003361624199897051,0.0006540396716445684
1686445436125377300,6.039377197265625,-0.001094757579267025,-0.003923817537724972,-0.0034954315051436424
1686445436135394000,6.04939404296875,-0.0008302787318825722,-0.003837417345494032,-0.0035451508592814207
1686445436145411300,6.059411376953125,-0.005261246580630541,-0.0009689265862107277,-0.006576094776391983
1686445436155427300,6.06942724609375,-0.002083832398056984,0.0017547404859215021,-0.00658965390175581
1686445436165444000,6.079444091796875,-0.005307589191943407,0.0073029035702347755,-0.00564582971855998
1686445436175461400,6.08946142578125,-0.004225867334753275,0.011720806360244751,-0.00014738168101757765
1686445436185478100,6.09947802734375,-0.004540119785815477,0.015298496931791306,-0.0005047779413871467
1686445436195494100,6.109494140625,-0.0045350221917033195,0.00981985405087471,0.00094560906291008
1686445436205511200,6.11951123046875,-0.005958748050034046,0.0033635518047958612,0.001716327853500843
1686445436215528200,6.129528076171875,-0.0015805112197995186,0.00038533890619874,0.006560085341334343
1686445436225545200,6.139545166015625,-0.0006577256135642529,-0.010478227399289608,0.008695141412317753
1686445436235561200,6.149561279296875,0.0023259413428604603,-0.014647327363491058,0.007078771013766527
1686445436245578200,6.159578125,0.001851099543273449,-0.01760183833539486,0.002890950068831444
1686445436255595300,6.16959521484375,-0.0004407837986946106,-0.01497116032987833,-0.005998910870403051
1686445436265611300,6.179611328125,0.004010424017906189,-0.009660284034907818,-0.009792583994567394
1686445436275628000,6.1896279296875,-0.002300083637237549,-0.0030255811288952827,-0.008891134522855282
1686445436285645300,6.199645263671875,0.0006232680752873421,0.00236119469627738,-0.005838353652507067
1686445436295662000,6.209662109375,0.0007126345299184322,0.002480481518432498,-0.004537656903266907
1686445436305678000,6.219677978515625,0.0017347559332847595,0.0006530205719172955,-0.0008816695190034807
1686445436315695400,6.2296953125,0.0006873086094856262,0.0019613192416727543,-0.0002820097142830491
1686445436325712100,6.239712158203125,0.000721396878361702,-0.0007846661610528827,0.000997905503027141
1686445436335729200,6.249729248046875,0.0032466198317706585,0.00011500599794089794,0.0026162166614085436
1686445436345745200,6.2597451171875,-0.004263494163751602,-0.004333005286753178,0.0020295220892876387
1686445436355762200,6.26976220703125,-0.0003574332222342491,-0.005789807066321373,0.0010015192674472928
1686445436365779200,6.279779296875,-0.0028344392776489258,-0.003946633078157902,0.0002680846955627203
1686445436375795200,6.289795166015625,-0.0032661347649991512,-0.00435521500185132,0.001110153621993959
1686445436385812200,6.299812255859375,0.003090830985456705,0.00008480693213641644,-0.0001926646800711751
1686445436395829200,6.309829345703125,-0.0005662217736244202,0.004589011427015066,-0.0006062535685487092
1686445436405846000,6.319845947265625,-0.000622148159891367,0.008548599667847157,-0.00029306579381227493
1686445436415862000,6.329862060546875,0.0009082094766199589,0.009115233086049557,0.0017357923788949847
1686445436425879300,6.33987939453125,-0.00072457455098629,0.009483815170824528,-0.0007779654115438461
1686445436435896000,6.34989599609375,0.0032508457079529762,0.008039232343435287,-0.0016328911297023296
1686445436445913300,6.359913330078125,-0.0030997279100120068,0.004894039127975702,-0.001250194851309061
1686445436455929300,6.369929443359375,-0.0006188335828483105,0.006277426145970821,-0.003844155464321375
1686445436465946000,6.379946044921875,-0.001012715045362711,0.005251842550933361,-0.0036657238379120827
1686445436475963100,6.389963134765625,-0.0007985909469425678,0.0040828762575984,0.0011660036398097873
1686445436485980200,6.399980224609375,0.002688285894691944,0.0012676483020186424,0.0011865099659189582
1686445436495996200,6.40999609375,-0.0017766482196748257,-0.0016880102921277285,0.0005851155146956444
1686445436506013200,6.42001318359375,-0.0013947510160505772,-0.0003364561125636101,0.004304219968616962
1686445436516030200,6.4300302734375,-0.0008363858796656132,-0.000301322084851563,0.0064506228081882
1686445436526046200,6.440046142578125,0.000738075003027916,-0.0020161315333098173,0.00351661816239357
1686445436536063200,6.450063232421875,0.0006919568404555321,-0.003133124904707074,0.0024149217642843723
1686445436546080000,6.460080078125,0.0013473608996719122,-0.003937133122235537,0.0050847409293055534
1686445436556097300,6.47009716796875,0.0013159278314560652,-0.0038776402361691,0.005283192731440067
1686445436566113300,6.48011328125,0.0012956876307725906,-0.004628385417163372,0.003514321753755212
1686445436576130000,6.490130126953125,0.0015072666574269533,-0.002031140960752964,-0.0008512058993801475
1686445436586147300,6.500147216796875,0.0009405459277331829,0.006180716212838888,-0.005652352701872587
1686445436596164400,6.510164306640625,-0.0011132382787764072,0.004770158790051937,-0.008002894930541515
1686445436606180000,6.52018017578125,-0.0009563779458403587,0.006058330647647381,-0.006107522640377283
1686445436616197000,6.530197021484375,-0.0027460320852696896,0.006962630897760391,-0.007621195167303085
1686445436626214100,6.540214111328125,-0.00006396230310201645,0.005206276196986437,-0.008558627218008041
1686445436636230400,6.55023046875,-0.0013837069272994995,0.004251768812537193,-0.004801468923687935
1686445436646247700,6.56024755859375,-0.0013339058496057987,0.0007371949031949043,-0.0065564922988414764
1686445436656264400,6.570264404296875,0.0005565369501709938,-0.005160083062946796,-0.004298253450542688
1686445436666281500,6.580281494140625,-0.001313800923526287,-0.007362783420830965,-0.010436839424073696
1686445436676297500,6.59029736328125,-0.00019088899716734886,-0.0077248429879546165,-0.0050794328562915325
1686445436686314500,6.600314453125,-0.0026074410416185856,-0.005266212858259678,-0.00039306830149143934
1686445436696331500,6.61033154296875,-0.000016808509826660156,-0.0003874237881973386,-0.003183417022228241
1686445436706348500,6.6203486328125,0.0062179178930819035,0.005296294577419758,0.0019841804169118404
1686445436716364500,6.630364501953125,-0.0005417368374764919,0.0027266594115644693,0.0014026828575879335
1686445436726381600,6.640381591796875,0.00045774737372994423,0.0031743368599563837,-0.006132997572422028
1686445436736398300,6.6503984375,0.0008144662715494633,0.002522045746445656,-0.008001523092389107
1686445436746415600,6.66041552734375,-0.002933667041361332,-0.0007962532108649611,-0.012439681217074394
1686445436756431600,6.670431640625,-0.00027235038578510284,-0.0016325339674949646,-0.008180360309779644
1686445436766448400,6.680448486328125,-0.0011823521926999092,0.004033873789012432,-0.007024015765637159
1686445436776465700,6.690465576171875,-0.00012865522876381874,0.013079543597996235,-0.0021088765934109688
1686445436786481700,6.700481689453125,-0.00029670074582099915,0.01591288112103939,0.0028374125249683857
1686445436796498400,6.71049853515625,-0.0006726430729031563,0.016781143844127655,0.010424355044960976
1686445436806515500,6.720515380859375,-0.0008004750125110149,0.013155781663954258,0.011122103780508041
1686445436816532700,6.73053271484375,-0.0023238989524543285,0.0031779103446751833,0.008838312700390816
1686445436826548500,6.740548583984375,0.0010149059817194939,-0.006765001453459263,0.003945553675293922
1686445436836565500,6.7505654296875,0.0010376274585723877,-0.012758749537169933,-0.006647768430411816
1686445436846582500,6.76058251953125,-0.0038474085740745068,-0.012659946456551552,-0.010878998786211014
1686445436856599600,6.770599609375,-0.002968117129057646,-0.007627865299582481,-0.01906282640993595
1686445436866615600,6.780615478515625,-0.004054421093314886,-0.0032112791668623686,-0.021431174129247665
1686445436876632600,6.790632568359375,-0.003403967246413231,0.00990811362862587,-0.026805397123098373
1686445436886649600,6.800649658203125,-0.0008515939116477966,0.017280541360378265,-0.026935093104839325
1686445436896665600,6.81066552734375,-0.003937799483537674,0.02231127955019474,-0.016634374856948853
1686445436906682400,6.820682373046875,-0.0018104668706655502,0.021962670609354973,-0.011327759362757206
1686445436916699600,6.83069970703125,-0.0012473296374082565,0.018035922199487686,-0.003970990423113108
1686445436926716700,6.840716552734375,-0.0016009975224733353,0.013629191555082798,-0.004401889629662037
1686445436936732400,6.850732421875,0.002189977327361703,0.00492091104388237,0.003505533328279853
1686445436946749400,6.86074951171875,0.0011172560043632984,0.001722987275570631,0.012610082514584064
1686445436956766700,6.8707666015625,0.002437127521261573,-0.007643689401447773,0.01853080280125141
1686445436966783500,6.880783447265625,-0.0010484177619218826,-0.013901052996516228,0.01677524670958519
1686445436976799500,6.890799560546875,0.004014506004750729,-0.010841129347682,0.018287520855665207
1686445436986816800,6.900816650390625,-0.0004188581369817257,-0.005790977738797665,0.017073119059205055
1686445436996833500,6.91083349609375,0.0016981866210699081,-0.0018521924503147602,0.006947748828679323
1686445437006850600,6.9208505859375,0.0005985675379633904,-0.003543565981090069,0.003776989411562681
1686445437016866600,6.930866455078125,0.0012969933450222015,-0.0036951785441488028,0.004478032700717449
1686445437026883600,6.940883544921875,0.00024504493921995163,0.0012183536309748888,0.003568562911823392
1686445437036900600,6.950900634765625,-0.0016301092691719532,0.003563628066331148,-0.0008554669911973178
1686445437046916600,6.96091650390625,0.00033876579254865646,0.010786119848489761,0.0013978336937725544
1686445437056933600,6.97093359375,0.0008792472071945667,0.010394672863185406,0.0010576586937531829
1686445437066950700,6.98095068359375,0.00004621036350727081,0.007923525758087635,0.0008576553082093596
1686445437076967400,6.990967529296875,0.0016338524874299765,0.006983042694628239,0.005993069149553776
1686445437086983400,7.0009833984375,-0.00037070875987410545,0.0038969710003584623,0.009103108197450638
1686445437097000700,7.011000732421875,0.001719735562801361,0.00127560761757195,0.01063217967748642
1686445437107017500,7.021017578125,0.0007072016596794128,-0.0013547965791076422,0.008906984701752663
1686445437117034500,7.031034423828125,0.0009885253384709358,-0.003284706734120846,0.00946843158453703
1686445437127050800,7.04105078125,-0.0002224138006567955,-0.006421377882361412,0.00458392733708024
1686445437137067500,7.051067626953125,-0.0003545801155269146,-0.00678804237395525,0.0019945590756833553
1686445437147084500,7.06108447265625,0.0008118846453726292,-0.003370940685272217,0.000751661485992372
1686445437157101600,7.0711015625,0.0009300638921558857,-0.0007876743329688907,0.00156658876221627
1686445437167117600,7.08111767578125,0.0036102691665291786,0.00500390212982893,0.0022289170883595943
1686445437177134600,7.091134521484375,0.0037975353188812733,0.008100814186036587,0.00829596258699894
1686445437187151400,7.1011513671875,-0.00046272343024611473,0.005828871391713619,0.0029667112976312637
1686445437197167600,7.111167724609375,-0.0012319451197981834,0.0027184560894966125,0.0005576849216595292
1686445437207184600,7.1211845703125,-0.00587490014731884,-0.0011202243622392416,0.003626178950071335
1686445437217201400,7.131201416015625,0.00011067558079957962,-0.002147222636267543,0.002107592998072505
1686445437227218700,7.14121875,-0.004518165253102779,-0.007621616590768099,0.0027222505304962397
1686445437237234700,7.151234619140625,-0.00164021085947752,-0.005358592607080936,0.001173963537439704
1686445437247251500,7.16125146484375,-0.0010351408272981644,-0.005208657123148441,0.004810243844985962
1686445437257268500,7.1712685546875,0.00006516557186841965,-0.0017287794034928083,0.005693864542990923
1686445437267285500,7.181285400390625,0.001206862973049283,-0.007004767656326294,0.004367610439658165
1686445437277301500,7.191301513671875,0.0005999156273901463,-0.005098532885313034,0.0024797869846224785
1686445437287318500,7.201318603515625,0.0019189792219549417,-0.0010585177224129438,0.002596965990960598
1686445437297335600,7.21133544921875,0.0035506843123584986,0.005024884361773729,0.0009767914889380336
1686445437307351600,7.2213515625,0.0010920539498329163,0.00971151515841484,0.004389898385852575
1686445437317368600,7.23136865234375,0.0008763675577938557,0.005819365382194519,0.0045249806717038155
1686445437327385300,7.24138525390625,0.0019959602504968643,0.003825722960755229,0.003526827786117792
1686445437337402600,7.251402587890625,0.0007300162687897682,0.0023622342851012945,0.004745969548821449
1686445437347418600,7.261418701171875,0.002997963922098279,-0.003481007646769285,0.007015249226242304
1686445437357435400,7.271435302734375,0.0021088451612740755,-0.003331264015287161,0.005126819014549255
1686445437367452700,7.28145263671875,0.0008534309454262257,-0.005781105719506741,0.004632003605365753
1686445437377469400,7.291469482421875,0.001755348639562726,-0.0071369921788573265,0.0006424576276913285
1686445437387485400,7.3014853515625,-0.00024894624948501587,-0.004015500657260418,-0.0016435999423265457
1686445437397502500,7.31150244140625,-0.0029476983472704887,0.0007369806990027428,-0.00531463697552681
1686445437407519500,7.32151953125,-0.00045018643140792847,0.0077514806762337685,-0.00226265424862504
1686445437417536500,7.33153662109375,-0.0008166260085999966,0.007414167281240225,0.00029284507036209106
1686445437427552500,7.341552490234375,-0.002844889648258686,0.008110051974654198,0.0038369796238839626
1686445437437569500,7.351569580078125,0.0017289770767092705,0.010176589712500572,0.005835400428622961
1686445437447586600,7.361586669921875,0.0004402734339237213,0.007358965463936329,0.0027035227976739407
1686445437457602600,7.3716025390625,-0.0012942524626851082,0.003743882058188319,-0.00022961455397307873
1686445437467619300,7.381619384765625,0.0028333805967122316,-0.0026937772054225206,-0.0008011288591660559
1686445437477636600,7.39163671875,-0.00048400089144706726,-0.0028834249824285507,-0.002497592009603977
1686445437487653400,7.4016533203125,0.0003727376461029053,-0.0017374666640534997,-0.002484808675944805
1686445437497669400,7.41166943359375,0.0011637031566351652,0.000752217834815383,-0.001240626210346818
1686445437507686700,7.421686767578125,-0.0009146276861429214,0.003474767552688718,-0.005312866065651178
1686445437517703400,7.431703369140625,-0.000003422144800424576,0.005438770167529583,-0.0049356636591255665
1686445437527720400,7.441720458984375,-0.0028492757119238377,0.007445195689797401,-0.0014581078430637717
1686445437537736700,7.45173681640625,0.00027181999757885933,0.005612329579889774,0.0005886303260922432
1686445437547753500,7.46175341796875,-0.0007617524825036526,0.0010561933740973473,0.0029292823746800423
1686445437557770500,7.4717705078125,-0.0012832023203372955,-0.003216263372451067,0.003811077680438757
1686445437567786500,7.481786376953125,-0.0002962350845336914,-0.0037395746912807226,0.0008517735404893756
1686445437577803500,7.491803466796875,-0.0024600629694759846,-0.0036880183033645153,0.00004090997390449047
1686445437587820500,7.501820556640625,0.0012473235838115215,-0.0018152834381908178,0.00008192274253815413
1686445437597837600,7.511837646484375,-0.0008508716709911823,-0.0003304982092231512,0.00162444484885782
1686445437607853600,7.521853515625,0.00023410003632307053,0.00433429516851902,0.0018034091917797923
1686445437617870600,7.53187060546875,0.001598340691998601,0.006622466258704662,0.005930398590862751
1686445437627887400,7.541887451171875,0.00186305888928473,0.00513269379734993,0.007353858090937138
1686445437637904100,7.551904052734375,0.002863191068172455,0.0038522682152688503,0.0093070138245821
1686445437647920000,7.561920166015625,0.0019161710515618324,0.0033526592887938023,0.008642023429274559
1686445437657937200,7.571937255859375,0.0004702256992459297,0.0012335600331425667,0.0031569828279316425
1686445437667954000,7.581953857421875,0.0001482493244111538,-0.0019763479940593243,-0.001664137584157288
1686445437677971200,7.59197119140625,-0.002448477316647768,0.0006803388241678476,-0.0005738922045566142
1686445437687987200,7.6019873046875,-0.000586128793656826,0.00001348322257399559,0.0017254810081794858
1686445437698004000,7.61200390625,-0.00271947355940938,0.004923840519040823,-0.0016785762272775173
1686445437708021200,7.622021240234375,0.0010843193158507347,0.009525517001748085,0.0016189499292522669
1686445437718037200,7.632037353515625,0.000996716320514679,0.00975860096514225,0.0037978547625243664
1686445437728054000,7.642053955078125,0.0021392125636339188,0.008548194542527199,0.002495568711310625
1686445437738071000,7.652071044921875,0.0014216480776667595,0.0069349901750683784,-0.00212904904037714
1686445437748088000,7.662088134765625,-0.0007466976530849934,-0.000059270067140460014,-0.004269165452569723
1686445437758104000,7.67210400390625,-0.0004995758645236492,-0.004414821043610573,-0.0050890156999230385
1686445437768121000,7.68212109375,-0.00001727743074297905,-0.006808736361563206,-0.007803309243172407
1686445437778138000,7.69213818359375,-0.0010897093452513218,-0.002777877263724804,-0.0020481115207076073
1686445437788155100,7.702155029296875,0.0021215302404016256,-0.0023943819105625153,-0.00036952109076082706
1686445437798171100,7.712171142578125,-0.00037837307900190353,0.003795763710513711,0.003286154940724373
1686445437808188000,7.72218798828125,-0.001058544497936964,0.006349468603730202,0.00035215041134506464
1686445437818205200,7.732205078125,-0.0015437002293765545,0.010368149727582932,0.005118644796311855
1686445437828221200,7.74222119140625,-0.0009098676964640617,0.008026165887713432,0.006117063574492931
1686445437838238000,7.752238037109375,0.00023581413552165031,0.0037328843027353287,0.0023846435360610485
1686445437848255200,7.762255126953125,-0.0037408177740871906,0.002301967702805996,-0.0010881185298785567
1686445437858272000,7.77227197265625,-0.000913732685148716,0.005160417407751083,-0.0030160797759890556
1686445437868288000,7.7822880859375,-0.003450126852840185,0.002238130895420909,-0.0068062907084822655
1686445437878305300,7.79230517578125,-0.0035396460443735123,0.0050237663090229034,-0.0003132671117782593
1686445437888322000,7.802322021484375,-0.0019236397929489613,0.007981207221746445,0.005116651766002178
1686445437898339000,7.812339111328125,0.00035065924748778343,0.005653128493577242,0.007505680900067091
1686445437908355000,7.82235498046875,0.0030937152914702892,0.004564427770674229,0.00832460355013609
1686445437918372000,7.8323720703125,-7.636845111846924e-8,-0.00022765493486076593,0.008522442542016506
1686445437928389000,7.84238916015625,0.0032753455452620983,-0.0008817273192107677,0.004269107710570097
1686445437938405000,7.852405029296875,0.004102198872715235,0.002713819034397602,0.0061927372589707375
1686445437948422100,7.862422119140625,0.0030952575616538525,0.005442760419100523,0.004100824240595102
1686445437958439200,7.872439208984375,0.00217873090878129,0.011198215186595917,0.00866671372205019
1686445437968456000,7.8824560546875,0.0017257272265851498,0.009135331027209759,0.004883426707237959
1686445437978472000,7.892471923828125,0.003200882114470005,0.005045630969107151,0.006687528919428587
1686445437988489200,7.9024892578125,0.0010197530500590801,-0.0012913609389215708,0.0015604114159941673
1686445437998506000,7.912506103515625,-0.0005176831036806107,-0.005085404962301254,-0.004966776352375746
1686445438008523000,7.92252294921875,-0.0012026485055685043,-0.005966911092400551,-0.0048088510520756245
1686445438018539300,7.932539306640625,-0.003178075421601534,-0.004590997472405434,0.00036305037792772055
1686445438028556000,7.94255615234375,0.000846759881824255,-0.002181102754548192,-0.0007410962134599686
1686445438038573000,7.952572998046875,0.0004310924559831619,0.005174553953111172,0.001415414153598249
1686445438048590000,7.962590087890625,0.0012809073086827993,0.010949885472655296,-0.0018024834571406245
1686445438058606000,7.972606201171875,0.0017187085468322039,0.010681224055588245,-0.0011510509066283703
1686445438068623000,7.982623046875,-0.0003090221434831619,0.011427707970142365,0.003720669774338603
1686445438078639900,7.992639892578125,0.0007909201085567474,0.007918251678347588,0.0000885574845597148
1686445438088657200,8.0026572265625,-0.003724469803273678,0.004441495053470135,-0.004152260255068541
1686445438098673200,8.012673095703125,-0.008008686825633049,0.004367301240563393,-0.008195007219910622
1686445438108690000,8.02268994140625,-0.00921536609530449,-0.001657567685469985,-0.0018556189024820924
1686445438118707200,8.032707275390624,-0.0006705131381750107,-0.0049937451258301735,0.010874910280108452
1686445438128723200,8.04272314453125,0.0016536274924874306,-0.01325060985982418,0.01116865873336792
1686445438138740000,8.052739990234375,-0.0015413486398756504,-0.007920287549495697,0.00009857909753918648
1686445438148757000,8.062757080078125,0.0015505815390497446,0.0007815912831574678,-0.0030258414335548878
1686445438158774000,8.07277392578125,0.0020913351327180862,0.006274919956922531,0.001758405938744545
1686445438168790000,8.0827900390625,0.006508187390863895,0.009377769194543362,0.012657392770051956
1686445438178807000,8.09280712890625,0.008733382448554039,0.0038281381130218506,0.009887363761663437
1686445438188824000,8.102823974609375,0.003180425614118576,-0.005127273499965668,0.004608445800840855
1686445438198841000,8.112841064453125,0.004113732371479273,-0.00972285121679306,-0.0010293445084244013
1686445438208857000,8.122857177734375,-0.0004594479687511921,-0.017567191272974014,-0.005871237255632877
1686445438218873900,8.132873779296874,0.0011690594255924225,-0.016827689483761787,-0.0030372736509889364
1686445438228891100,8.14289111328125,0.0011240518651902676,-0.01052824780344963,-0.007479426451027393
1686445438238908200,8.152908203125,-0.0014323280192911625,-0.007329636253416538,-0.008236757479608059
1686445438248924000,8.162923828125,-0.0021428591571748257,-0.004188437480479479,-0.012148141860961914
1686445438258941200,8.172941162109375,-0.0030734422616660595,-0.0005325137171894312,-0.009952351450920105
1686445438268958200,8.182958251953124,-0.004938187543302774,0.007855644449591637,-0.006003416143357754
1686445438278974000,8.192973876953126,-0.002381164114922285,0.005525562912225723,-0.0005905946018174291
1686445438288991000,8.202990966796875,-0.0020176428370177746,0.0028187260031700134,-0.0043027750216424465
1686445438299008300,8.21300830078125,-0.0012534377165138721,-0.0007626108126714826,-0.003429470583796501
1686445438309025000,8.22302490234375,0.00011462811380624771,-0.001727474038489163,0.0006832490907981992
1686445438319041000,8.233041015625,0.002335404511541128,0.00018147146329283714,-0.00030029250774532557
1686445438329058000,8.24305810546875,0.0031154444441199303,0.0033106855116784573,-0.0027045942842960358
1686445438339075000,8.253074951171875,-0.0027455096133053303,0.005098225548863411,-0.001840519835241139
1686445438349092000,8.263092041015625,-0.0009641209617257118,-0.0033703604713082314,-0.0033015301451087
1686445438359108000,8.273108154296875,-0.0017337282188236713,-0.00828862190246582,-0.0030528451316058636
1686445438369125000,8.283125,-0.005012611858546734,-0.014458633959293365,-0.007761580403894186
1686445438379142100,8.29314208984375,0.00007412489503622055,-0.015163552947342396,-0.006481825839728117
1686445438389158000,8.303157958984375,-0.0009112446568906307,-0.007990594953298569,-0.002996546681970358
1686445438399175200,8.313175048828125,0.000963894184678793,0.0024313146714121103,0.0029110971372574568
1686445438409192200,8.323192138671875,-0.001196462195366621,0.0074782706797122955,0.0060091521590948105
1686445438419209000,8.333208984375,-0.00033080996945500374,0.005717520602047443,0.007172878831624985
1686445438429225000,8.343224853515625,0.0003996952436864376,0.002662341808900237,0.007113490253686905
1686445438439242200,8.3532421875,-0.0017750496044754982,-0.003760032821446657,0.007850167341530323
1686445438449259000,8.363259033203125,0.0013320604339241982,-0.007106561213731766,0.004948120564222336
1686445438459276000,8.373276123046875,-0.001868001651018858,-0.012093226425349712,0.003129760967567563
1686445438469292300,8.383292236328124,0.0005653286352753639,-0.009807967580854893,-0.004063436761498451
1686445438479309000,8.39330908203125,0.002748727099969983,-0.005060695111751556,-0.008136377669870853
1686445438489326000,8.403326171875,0.0005305800586938858,-0.0001061498187482357,-0.007675384171307087
1686445438499342000,8.413342041015625,0.0034266177099198103,0.00649925647303462,-0.007394713815301657
1686445438509359000,8.423359130859374,-0.0008903662674129009,0.006412704009562731,-0.0055909547954797745
1686445438519376100,8.433376220703124,0.000594631303101778,0.003880309872329235,-0.004849116317927837
1686445438529393200,8.44339306640625,-0.00013507483527064323,0.003371912520378828,-0.0029167267493903637
1686445438539409200,8.4534091796875,-0.0008764853700995445,0.0024534452240914106,0.0020140227861702442
1686445438549426200,8.46342626953125,-0.0018695779144763947,-0.0010693843942135572,0.0003436882980167866
1686445438559443000,8.47344287109375,-0.0013149864971637726,-0.004389630630612373,-0.0007498574559576809
1686445438569460200,8.483460205078124,-0.0026899767108261585,-0.009160417132079601,0.0011678849114105105
1686445438579476200,8.493476318359376,-0.0018148352392017841,-0.008436456322669983,-0.00048612250247970223
1686445438589493000,8.503492919921875,-0.00036793993785977364,-0.0035903025418519974,0.000561565044336021
1686445438599510300,8.51351025390625,0.00035349372774362564,0.001653457758948207,-0.000561375345569104
1686445438609527000,8.523527099609375,-0.00023826071992516518,0.005778161343187094,-0.003765424247831106
1686445438619543000,8.53354296875,-0.0006171073764562607,0.011645554564893246,-0.0014381397049874067
1686445438629560000,8.54356005859375,-0.0006852839142084122,0.009837535209953785,-0.0003853921080008149
1686445438639577600,8.55357763671875,-0.00013294443488121033,0.009224209003150463,-0.00021628139074891806
1686445438649594600,8.5635947265625,0.0004518856294453144,0.008380519226193428,-0.0011957919923588634
1686445438659610600,8.573610595703125,-0.0005149994976818562,0.0019956626929342747,-0.0019984478130936623
1686445438669627400,8.58362744140625,-0.0006811805069446564,0.0006044271867722273,-0.004458942450582981
1686445438679644700,8.593644775390626,-0.0007883124053478241,-0.002323301974684,-0.004772137384861708
1686445438689660700,8.60366064453125,-0.0017212177626788616,-0.0019075823947787285,-0.0032597281970083714
1686445438699677400,8.613677490234375,-0.000592467375099659,-0.0002210363745689392,-0.0021461760625243187
1686445438709694700,8.62369482421875,-0.0025610760785639286,0.0030173673294484615,-0.0005749111296609044
1686445438719711500,8.63371142578125,0.0009087664075195789,0.004268363118171692,-0.0008724556537345052
1686445438729727500,8.6437275390625,0.0011050417087972164,0.002855822676792741,-0.0017078893724828959
1686445438739744500,8.65374462890625,-0.0015742359682917595,0.007709778379648924,-0.0013710979837924242
1686445438749761500,8.663761474609375,-0.0021843663416802883,0.003498255740851164,-0.000056561664678156376
1686445438759778600,8.673778564453125,-0.0027501434087753296,-0.0013299724087119102,-0.002932456787675619
1686445438769794600,8.683794677734374,0.0004501771181821823,-0.005040820688009262,-0.001515654963441193
1686445438779811600,8.6938115234375,-0.0016291290521621704,-0.0071710096672177315,-0.0047774771228432655
1686445438789828600,8.70382861328125,-0.003677366767078638,-0.0058844368904829025,-0.007068328559398651
1686445438799844600,8.7138447265625,0.004116264171898365,-0.0021159278694540262,-0.002375231124460697
1686445438809861400,8.723861328125,0.0029758985619992018,0.002345931949093938,-0.00167002622038126
1686445438819878700,8.733878662109374,0.0010068374685943127,0.006990056484937668,0.0003979649627581239
1686445438829895400,8.7438955078125,0.0027315004263073206,0.010894251056015491,0.0005095513770356774
1686445438839911400,8.753911376953125,0.00005214568227529526,0.01055949181318283,0.0010682825231924653
1686445438849928700,8.7639287109375,0.002030075527727604,0.005482441280037165,0.0017567096510902047
1686445438859945500,8.773945556640625,-0.002652549184858799,-0.0003371502971276641,0.0006613282021135092
1686445438869962500,8.78396240234375,-0.000519889872521162,-0.001033034292049706,0.001226717373356223
1686445438879978500,8.793978515625,-0.0015277671627700329,-0.004235507920384407,0.001106082578189671
1686445438889995500,8.80399560546875,-0.0024747871793806553,-0.004771868232637644,-0.0002848864533007145
1686445438900012500,8.814012451171875,-0.001864191610366106,-0.0011298489989712834,-0.00003797386307269335
1686445438910029600,8.824029541015625,-0.0016854936257004738,0.002946118824183941,-0.00006860028952360153
1686445438920045600,8.834045654296874,0.00024479394778609276,0.00346208899281919,-0.00021606183145195246
1686445438930062600,8.8440625,0.0015239103231579065,0.0033779332879930735,-0.0028544554952532053
1686445438940079400,8.854079345703125,-0.0010593459010124207,0.00258851470425725,-0.0009946763748303056
1686445438950096600,8.8640966796875,-0.0011570840142667294,-0.000847495743073523,-0.0019337069243192673
1686445438960112600,8.874112548828125,0.00016315048560500145,-0.00269646686501801,-0.004278562963008881
1686445438970129400,8.88412939453125,0.0009184228256344795,-0.00007218797691166401,-0.003213830990716815
1686445438980146700,8.894146728515626,-0.002501329407095909,-0.0019506732933223248,-0.006303698290139437
1686445438990162700,8.90416259765625,-0.0006003649905323982,0.0004933096934109926,-0.0048168557696044445
1686445439000179500,8.914179443359375,-0.0005227793008089066,0.0016276775859296322,-0.0023139785043895245
1686445439010196500,8.924196533203125,-0.0036786249838769436,0.0003333813510835171,0.0022019436582922935
1686445439020213500,8.934213623046874,-0.0007735383696854115,-0.0028905237559229136,0.004329174291342497
1686445439030229500,8.9442294921875,-0.0015117665752768517,-0.0029142259154468775,0.0006292444886639714
1686445439040246500,8.95424658203125,-0.0029478943906724453,-0.004105977714061737,-0.0028911603149026632
1686445439050263600,8.964263671875,-0.0012810220941901207,-0.005655404645949602,-0.00022959720809012651
1686445439060280600,8.974280517578125,-0.0032019298523664474,-0.006189870648086071,-0.004766529891639948
1686445439070296600,8.984296630859374,-0.0012809918262064457,0.0019080035854130983,-0.004906878340989351
1686445439080313300,8.994313232421876,-0.003632135223597288,0.0026393402367830276,-0.004219065885990858
1686445439090330600,9.00433056640625,-0.0014004064723849297,0.005563491489738226,-0.002061372622847557
1686445439100347400,9.014347412109375,-0.000013999175280332565,0.010812089778482914,-0.001754476223140955
1686445439110363400,9.02436328125,-0.00174398859962821,0.005490028765052557,0.003371043363586068
1686445439120380700,9.034380615234374,0.003658134490251541,0.003625413402915001,0.00573532423004508
1686445439130397400,9.0443974609375,0.0013257379177957773,-0.002819170244038105,0.0064202891662716866
1686445439140413400,9.054413330078125,0.0014044854324311018,-0.007300919853150845,0.002640515100210905
1686445439150430500,9.064430419921875,0.0029539125971496105,-0.011169428005814552,0.0024753990583121777
1686445439160447500,9.074447509765625,-0.003452286124229431,-0.013001598417758942,0.00046875851694494486
1686445439170464500,9.084464599609374,0.000800782348960638,-0.010169326327741146,-0.00696705374866724
1686445439180480500,9.09448046875,-0.005843739956617355,-0.005133080296218395,-0.005169326439499855
1686445439190497500,9.10449755859375,-0.0018343511037528515,-0.002566325943917036,-0.005467067938297987
1686445439200514600,9.1145146484375,-0.0008185445331037045,0.003302481956779957,0.00016312114894390106
1686445439210531600,9.124531494140625,-0.002332285512238741,0.0037514911964535713,-0.004892623983323574
1686445439220547300,9.13454736328125,0.001123590860515833,0.002289900789037347,-0.0008120019338093698
1686445439230564600,9.144564697265626,0.0018101539462804794,-0.0011911168694496155,-0.0009222568478435278
1686445439240581600,9.15458154296875,0.0005479366518557072,-0.005254683084785938,-0.002707719337195158
1686445439250598400,9.164598388671875,-0.0006049457006156445,-0.006415022537112236,-0.0021468575578182936
1686445439260614700,9.17461474609375,-0.0033700643107295036,-0.005347010679543018,-0.0023726429790258408
1686445439270631400,9.18463134765625,-0.00012340489774942398,-0.0032100901007652283,-0.005186272785067558
1686445439280648400,9.1946484375,-0.0013305451720952988,-0.0001767757348716259,-0.0034750699996948242
1686445439290664400,9.20466455078125,-0.0004461091011762619,0.00455299811437726,-0.0018050018697977066
1686445439300681500,9.214681396484375,0.0005882261320948601,0.00476850476115942,-0.004215788096189499
1686445439310698500,9.224698486328125,-0.000986234750598669,0.005214584060013294,-0.004166785627603531
1686445439320715500,9.234715576171874,-0.0020940727554261684,0.004970293492078781,-0.006620790343731642
1686445439330731500,9.2447314453125,-0.0032703904435038567,0.005027818027883768,-0.002309665083885193
1686445439340748500,9.25474853515625,-0.0014703664928674698,0.005658983252942562,0.002170686610043049
1686445439350765600,9.264765625,0.00028039561584591866,0.0011654312256723642,0.0008625417249277234
1686445439360782600,9.274782470703125,-0.0024397745728492737,-0.0005349928978830576,-0.0017546622548252344
1686445439370798600,9.284798583984376,0.003117710119113326,-0.003833051770925522,-0.0034287255257368088
1686445439380815600,9.294815673828126,-0.0011486704461276531,-0.005757054314017296,-0.004518033936619759
1686445439390832400,9.304832275390625,-0.0004754234105348587,-0.008081727661192417,0.00227409228682518
1686445439400849700,9.314849609375,-0.0010350761003792286,-0.00552092120051384,0.002589210867881775
1686445439410865700,9.32486572265625,-0.0026550767943263054,-0.003949656151235104,-0.00019086315296590328
1686445439420882400,9.33488232421875,0.0007282895967364311,-0.0040720682591199875,-0.003281376324594021
1686445439430899700,9.344899658203126,-0.0008096862584352493,-0.0014003850519657135,-0.00348777137696743
1686445439440915700,9.354915771484375,0.00017635757103562355,0.004251052625477314,-0.0024037733674049377
1686445439450932500,9.364932373046875,0.005302942357957363,0.003606035141274333,-0.002454639645293355
1686445439460949500,9.374949462890624,0.002558075124397874,-0.0014539185212925076,0.0010988392168655992
1686445439470966500,9.384966552734374,0.0003846692852675915,-0.004796718247234821,0.0014362618094310164
1686445439480982500,9.394982421875,-0.0021581221371889114,-0.008442000485956669,0.0023593364749103785
1686445439490999600,9.40499951171875,-0.0037331157363951206,-0.008038531988859177,-0.0008029009331949055
1686445439501016600,9.4150166015625,-0.00604046368971467,-0.00845829863101244,-0.0034972443245351315
1686445439511033600,9.42503369140625,-0.005077730398625135,-0.0045341309159994125,-0.0019853676203638315
1686445439521049600,9.435049560546876,-0.005002760794013739,-0.004106719512492418,-0.0003101177280768752
1686445439531066400,9.44506640625,-0.003664522897452116,0.001671541016548872,0.003598869778215885
1686445439541083600,9.455083740234375,-0.00043356558308005333,0.0039832741022109985,0.005987923126667738
1686445439551100400,9.465100341796875,-0.0017920443788170815,0.00669943168759346,0.003823039121925831
1686445439561116400,9.475116455078124,0.0004027923569083214,0.0028723340947180986,-0.00011478632222861052
1686445439571133700,9.4851337890625,0.001406537601724267,-0.0019892663694918156,-0.0027832738123834133
1686445439581150500,9.495150390625,0.0018519465811550617,-0.004077105782926083,-0.0028353040106594563
1686445439591166500,9.50516650390625,0.0029289289377629757,-0.0015324556734412909,0.00040203460957854986
1686445439601183700,9.515183837890625,0.0054306951351463795,-0.0005083654541522264,0.003987228497862816
1686445439611200500,9.525200439453124,0.002118255477398634,-0.0033528879284858704,0.0032484675757586956
1686445439621217500,9.535217529296874,0.0025262751150876284,-0.004086955450475216,0.007344781421124935
1686445439631233500,9.545233642578125,-0.0005350285209715366,-0.0047215865924954414,0.005119177512824535
1686445439641250300,9.555250244140625,-0.00004367902874946594,0.00037069572135806084,0.0015359168173745275
1686445439651267600,9.565267578125,-0.002498314715921879,0.0005414043553173542,0.004149809014052153
1686445439661284400,9.575284423828125,-0.0011710459366440773,0.00368067086674273,0.002444649115204811
1686445439671300400,9.58530029296875,-0.001482369378209114,0.002078246558085084,0.003782621119171381
1686445439681317400,9.5953173828125,-0.002272221725434065,-0.0026491715107113123,-0.003224148415029049
1686445439691334400,9.60533447265625,0.0012061328161507845,0.00010027596727013588,-0.0025799297727644444
1686445439701351400,9.615351318359375,-0.0000997600145637989,-0.002028471790254116,0.0004080849466845393
1686445439711367400,9.625367431640624,-0.0016846074722707272,0.001987042371183634,0.004648902453482151
1686445439721384400,9.635384521484376,0.0024917356204241514,0.0063115814700722694,-0.0004820440663024783
1686445439731401500,9.6454013671875,-0.0008156439289450645,0.005132866092026234,0.0008796303300186992
1686445439741417500,9.65541748046875,0.00192664610221982,0.005680209957063198,-0.0007104892283678055
1686445439751434200,9.665434326171875,0.0001841397024691105,-0.0015433483058586717,0.0016192439943552017
1686445439761451500,9.675451416015624,-0.00013452023267745972,0.0011154678650200367,-0.0019571662414819
1686445439771468300,9.68546826171875,-0.0008863308466970921,-0.0004523349925875664,-0.0038205801974982023
1686445439781484300,9.695484375,-0.002551867626607418,0.005473945289850235,-0.0063719116151332855
1686445439791501600,9.70550146484375,-0.0008298675529658794,0.005363957025110722,-0.0019199055386707187
1686445439801518300,9.715518310546875,0.0003621806390583515,0.007073177956044674,-0.00036207237280905247
1686445439811535400,9.725535400390624,0.002547570737078786,0.006728032603859901,0.0010398157173767686
1686445439821551400,9.73555126953125,0.00343199260532856,0.003974799998104572,0.0033536627888679504
1686445439831568400,9.745568359375,-0.00033451616764068604,-0.0022548665292561054,0.003485489170998335
1686445439841585400,9.75558544921875,0.0013781592715531588,-0.004945405758917332,0.005464773625135422
1686445439851602400,9.7656025390625,0.00021915137767791748,-0.008916445076465607,0.008645652793347836
1686445439861618400,9.775618408203124,0.000999468844383955,-0.007383420597761869,0.0038407081738114357
1686445439871635500,9.785635498046876,0.0010580583475530148,-0.0035553928464651108,0.0029035420157015324
1686445439881652500,9.795652587890626,0.001087096519768238,-0.0016985279507935047,0.0011628306237980723
1686445439891669500,9.80566943359375,0.00028947973623871803,0.003989185206592083,-0.0015176410088315606
1686445439901685500,9.815685546875,0.000566825270652771,0.007948314771056175,0.0020446209236979485
1686445439911702300,9.825702392578124,-0.0006393203511834145,0.004721095785498619,0.0012906799092888832
1686445439921719300,9.83571923828125,0.0034178663045167923,0.0048282332718372345,0.002302849665284157
1686445439931735600,9.845735595703125,0.00017653312534093857,0.0075241513550281525,0.007092278450727463
1686445439941752300,9.85575244140625,0.0014906865544617176,0.0059001874178647995,0.007478731218725443
1686445439951769300,9.865769287109375,0.0004355423152446747,0.0010963769163936377,0.006730382796376944
1686445439961786600,9.87578662109375,0.00113340700045228,-0.0005534827942028642,0.004734315909445286
1686445439971802400,9.88580224609375,-0.0011814124882221222,-0.0017894557677209377,0.0025691657792776823
1686445439981819400,9.8958193359375,-0.0018515544943511486,-0.0010862372582778335,0.003200978972017765
1686445439991836400,9.90583642578125,0.00002384372055530548,-0.00054614816326648,-0.00037111900746822357
1686445440001853400,9.915853515625,-0.00026994338259100914,0.004263617098331451,-0.0008347653201781213
1686445440011869400,9.925869384765624,-0.0007927222177386284,0.004399704281240702,-0.002157557290047407
1686445440021886500,9.935886474609376,0.0022608584258705378,0.00632889848202467,0.003354653250426054
1686445440031903500,9.945903564453126,0.0027093347162008286,0.0055424668826162815,0.0034278901293873787
1686445440041919500,9.95591943359375,0.004119057208299637,0.002664408413693309,0.00658879429101944
1686445440051936500,9.9659365234375,0.0004995553754270077,0.0022383027244359255,-0.0006605968810617924
1686445440061953300,9.975953369140624,0.002231112215667963,0.0017823497764766216,0.00046059617307037115
1686445440071970600,9.985970458984376,-0.002576958853751421,-0.000394518137909472,0.002273410093039274
1686445440081986300,9.995986328125,0.0013607204891741276,-0.0040915654972195625,0.0006716451607644558
1686445440092003300,10.00600341796875,0.0015956114511936903,-0.005887335166335106,-0.00006285472773015499
1686445440102020600,10.0160205078125,-0.00046245986595749855,-0.00782501045614481,0.0028069601394236088
1686445440112037400,10.026037353515624,0.00162785523571074,-0.004553849808871746,-0.0004785819328390062
1686445440122053400,10.036053466796876,-0.001235281117260456,0.0010340891312807798,-0.0026263375766575336
1686445440132070400,10.0460703125,0.0011503787245601416,0.009006261825561523,0.0012195332674309611
1686445440142087400,10.05608740234375,-0.00028647249564528465,0.012788482941687107,0.005408419296145439
1686445440152104400,10.0661044921875,-0.0013802326284348965,0.013774917460978031,0.001995312049984932
1686445440162120400,10.076120361328124,0.001458558952435851,0.010253900662064552,0.006282978691160679
1686445440172137500,10.086137451171876,-0.0002839472144842148,0.004479900933802128,0.002520198468118906
1686445440182154500,10.096154541015625,0.0006841206923127174,-0.0009927637875080109,0.0038389195688068867
1686445440192171300,10.106171142578125,0.00003910297527909279,-0.0007133982144296169,0.0033741979859769344
1686445440202187300,10.116187255859375,0.001227891305461526,-0.007306642830371857,0.0060052271001040936
1686445440212204500,10.12620458984375,0.0010039196349680424,-0.00048735260497778654,0.006579138804227114
1686445440222221300,10.13622119140625,0.0030151393730193377,0.0029755497816950083,0.00782348494976759
1686445440232238300,10.14623828125,0.0032055554911494255,0.0071524521335959435,0.006490040570497513
1686445440242254600,10.156254638671875,0.002709625754505396,0.00814400427043438,0.0037064100615680218
1686445440252271400,10.166271240234375,-0.0006875023245811462,0.009465731680393219,-0.0008348122937604785
1686445440262288400,10.176288330078124,0.002977950731292367,0.006278355605900288,0.0014677101280540228
1686445440272304400,10.186304443359376,0.002115086652338505,0.0004399076569825411,0.0012802237179130316
1686445440282321400,10.1963212890625,0.0016369926743209362,-0.003308247309178114,0.0015209803823381662
1686445440292338400,10.20633837890625,0.0010015624575316906,-0.0008698570309206843,0.002496229950338602
1686445440302355500,10.21635546875,0.0013701226562261581,0.00131738162599504,-0.0012273176107555628
1686445440312371500,10.226371337890624,-0.0019215443171560764,0.0025381746236234903,0.000007057562470436096
1686445440322388500,10.236388427734376,0.0033915117383003235,0.002591177821159363,-0.00016883015632629395
1686445440332405200,10.2464052734375,-0.0019068471156060696,0.003342189360409975,-0.0018325068522244692
1686445440342422500,10.256422607421875,0.0002845805138349533,0.004460534546524286,-0.0012636046158149838
1686445440352438500,10.2664384765625,-0.0003212885931134224,0.0049124727956950665,0.0006789050530642271
1686445440362455300,10.276455322265624,-0.001645662821829319,0.005421338602900505,0.0017015058547258377
1686445440372472600,10.28647265625,-0.0016933334991335869,0.003026890568435192,0.0011406440753489733
1686445440382489300,10.2964892578125,-0.0011712322011590004,0.002127500716596842,0.0026392117142677307
1686445440392505300,10.30650537109375,-0.0018143854103982449,0.003644703421741724,0.0007313230307772756
1686445440402522400,10.3165224609375,0.0008628629148006439,0.001632497413083911,0.0009882196318358183
1686445440412539400,10.326539306640624,-0.0007235822267830372,0.002458876231685281,0.003364291973412037
1686445440422556400,10.336556396484376,-0.0005476451478898525,0.002757034730166197,0.0055466750636696815
1686445440432572400,10.346572509765625,-0.0010046432726085186,0.001927460078150034,0.0026108059100806713
1686445440442589400,10.35658935546875,0.0016903495416045189,0.0052522923797369,0.000976113835349679
1686445440452606500,10.3666064453125,0.0035039621870964766,0.00585150346159935,-0.0015123437624424696
1686445440462622500,10.37662255859375,-0.0013874066062271595,0.0021535209380090237,0.003183127846568823
1686445440472639200,10.38663916015625,0.00030423328280448914,0.004665947053581476,0.0019559431821107864
1686445440482656500,10.396656494140625,-0.00030252663418650627,-0.00033419474493712187,0.0009293871698901057
1686445440492673300,10.40667333984375,0.001017069909721613,-0.002194945467635989,-0.0018701277440413833
1686445440502689300,10.416689208984375,-0.001036978792399168,-0.004506062716245651,0.0018014274537563324
1686445440512706600,10.42670654296875,-0.001302496064454317,-0.009105075150728226,0.000244277180172503
1686445440522723300,10.436723388671876,-0.00027139484882354736,-0.006169363856315613,0.00037843105383217335
1686445440532740400,10.446740234375,-0.0015366626903414726,-0.005044977180659771,0.0054730577394366264
1686445440542756400,10.45675634765625,-0.0020010601729154587,-0.0037873592227697372,0.0030586549546569586
1686445440552773400,10.4667734375,0.00029351934790611267,-0.002371090231463313,0.0004053473239764571
1686445440562790400,10.476790283203124,0.0000852351076900959,-0.0009541786275804043,0.005311618559062481
1686445440572807400,10.486807373046876,0.0005102758295834064,-0.0010596398497000337,0.004813607316464186
1686445440582823400,10.496823486328125,0.0010573412291705608,-0.0039118072018027306,0.0087294215336442
1686445440592840400,10.50684033203125,0.0005215131677687168,-0.005120615940541029,0.003869152395054698
1686445440602857500,10.516857421875,-0.0005746055394411087,-0.0033515561372041702,0.00137679826002568
1686445440612873200,10.526873291015624,-0.0008020396344363689,-0.0017408763524144888,0.0023539122194051743
1686445440622890500,10.536890380859376,0.0013862757477909327,0.0039038173854351044,0.0034083016216754913
1686445440632907300,10.5469072265625,-0.0021559945307672024,0.006948876194655895,0.0016444901702925563
1686445440642924300,10.55692431640625,0.001567159779369831,0.002846767893061042,-0.0012820498086512089
1686445440652940300,10.566940185546875,0.002222563838586211,0.007727542892098427,-0.0016820566961541772
1686445440662957300,10.576957275390624,0.0009999368339776993,0.006638208404183388,-0.003956555388867855
1686445440672974300,10.586974365234376,0.00042336247861385345,0.003617118811234832,-0.0027850307524204254
1686445440682991400,10.596991455078125,-0.0022400361485779285,-0.0014977821847423911,0.00008594070095568895
1686445440693007000,10.607007080078125,0.000003144610673189163,-0.004762817639857531,0.002412744564935565
1686445440703024400,10.6170244140625,0.001764617394655943,-0.004516454413533211,0.007058358751237392
1686445440713041400,10.62704150390625,-0.0001477985642850399,-0.006007825024425983,0.009824051521718502
1686445440723058200,10.63705810546875,0.0018738233484327793,-0.004879756830632687,0.007697110529989004
1686445440733074200,10.64707421875,-0.00020717084407806396,-0.0040573724545538425,0.00014944549184292555
1686445440743091500,10.657091552734375,-0.000033212825655937195,-0.0015042521990835667,0.00016939605120569468
1686445440753108200,10.667108154296875,-0.0028130197897553444,0.00572729529812932,-0.00359418336302042
1686445440763125200,10.677125244140624,0.00023721018806099892,0.008754772134125233,-0.006256428547203541
1686445440773141500,10.6871416015625,0.0007485370151698589,0.011401954106986523,-0.010351837612688541
1686445440783158300,10.697158203125,-0.0013927919790148735,0.009322771802544594,-0.0065733687952160835
1686445440793175300,10.70717529296875,-0.0001046210527420044,0.005524305161088705,-0.002359448466449976
1686445440803192300,10.7171923828125,-0.0009748204611241817,0.003725235816091299,-0.004035422578454018
1686445440813208300,10.727208251953124,-0.0003172862343490124,-0.001630647573620081,-0.0007794419070705771
1686445440823225300,10.737225341796876,-0.002737011294811964,-0.004004511050879955,-0.002054661512374878
1686445440833242000,10.7472421875,-0.002160170581191778,-0.0063560823909938335,0.0012503215111792088
1686445440843258400,10.75725830078125,0.000405837781727314,-0.003286633174866438,0.0030347099527716637
1686445440853275400,10.767275390625,-0.0006461110897362232,0.008698390796780586,0.0031012888066470623
1686445440863292200,10.777292236328124,0.0013082032091915607,0.01012370828539133,0.003102207323536277
1686445440873309400,10.787309326171876,-0.0007299142889678478,0.00984887033700943,0.0029046006966382265
1686445440883325400,10.797325439453125,-0.000012479722499847412,0.00796910747885704,0.0028683338314294815
1686445440893342200,10.80734228515625,0.0007925936952233315,0.005145890172570944,0.0009418029803782701
1686445440903359200,10.817359130859375,-0.0015581436455249786,-0.0008917042287066579,0.00035075261257588863
1686445440913376300,10.827376220703124,0.0019005036447197199,-0.008827125653624535,0.00028923351783305407
1686445440923392300,10.837392333984376,-0.0019647646695375443,-0.006857153959572315,-0.0018436643294990063
1686445440933409300,10.8474091796875,0.0004824139177799225,-0.005908535793423653,-0.004788055084645748
1686445440943426300,10.85742626953125,0.0016356019768863916,-0.0011299211764708161,0.0023308871313929558
1686445440953443300,10.867443359375,-0.0006374060176312923,0.0053008138202130795,0.000430988147854805
1686445440963459300,10.877459228515624,0.0013842037878930569,0.010819787159562111,0.00028429494705051184
1686445440973476000,10.88747607421875,-0.0006834743544459343,0.012789194472134113,0.001861418946646154
1686445440983493400,10.897493408203125,-0.001944985706359148,0.011654111556708813,-0.0010070593561977148
1686445440993510100,10.90751025390625,-0.00006239721551537514,0.00970947090536356,0.0036113946698606014
1686445441003526100,10.917526123046875,-0.000003107357770204544,0.002501355716958642,-0.00035180768463760614
1686445441013543400,10.92754345703125,0.0033327683340758085,-0.005031128879636526,0.0021196056623011827
1686445441023560200,10.937560302734376,-0.0008083293214440346,-0.0061033545061945915,0.0019441930344328284
1686445441033576200,10.947576171875,-0.0004450744017958641,-0.007573419250547886,-0.004636211786419153
1686445441043593200,10.95759326171875,0.0004205508157610893,-0.000986967352218926,-0.0028880154713988304
1686445441053610200,10.9676103515625,-0.0008383253589272499,0.0014713965356349945,-0.002184141892939806
1686445441063627300,10.977627197265624,-0.0005626925267279148,0.0027813890483230352,-0.002588254399597645
1686445441073643300,10.987643310546876,0.00009271129965782166,0.00561605766415596,-0.00044893723679706454
1686445441083660300,10.997660400390625,-0.001066715456545353,0.00775536522269249,0.0037825251929461956
1686445441093677300,11.00767724609375,0.0002829749137163162,0.010029172524809837,0.0011976613895967603
1686445441103694000,11.017694091796875,-0.0013807849027216434,0.009810474701225758,0.002145723206922412
1686445441113710300,11.02771044921875,-0.0005424218252301216,0.007015220820903778,-0.0026900446973741055
1686445441123727400,11.037727294921876,-0.0026952619664371014,0.0035139943938702345,-0.004284983966499567
1686445441133744000,11.047744140625,-0.002811376005411148,0.00010328413918614388,-0.004271402023732662
1686445441143761400,11.057761474609375,-0.0015296372584998608,-0.0015897885896265507,-0.005296613089740276
1686445441153777400,11.06777734375,-0.002065998036414385,-0.0009908437496051192,-0.0011498047970235348
1686445441163794200,11.077794189453124,-0.0004028612747788429,-0.0027187629602849483,0.0004762619500979781
1686445441173811200,11.087811279296876,-0.0038785524666309357,-0.0001232463400810957,-0.00013812934048473835
1686445441183828500,11.097828369140625,-0.00032032560557127,0.0013651465997099876,0.00009316066280007362
1686445441193844200,11.10784423828125,0.0016099337954074144,0.005221670493483543,0.0041422308422625065
1686445441203861200,11.117861328125,-0.0008305073715746403,0.00657260324805975,0.0039865002036094666
1686445441213878300,11.127878173828124,-0.00021638255566358566,0.001631374703720212,-0.0027587544173002243
1686445441223895300,11.137895263671876,-0.0015083365142345428,-0.0013565360568463802,-0.005789626389741898
1686445441233911300,11.147911376953125,-0.0018058111891150475,-0.008011242374777794,-0.0036540376022458076
1686445441243928300,11.15792822265625,-0.0011779204942286015,-0.009826282039284706,-0.010392648167908192
1686445441253945300,11.1679453125,-0.002137457486242056,-0.008940247818827629,-0.003874561283737421
1686445441263961300,11.17796142578125,0.00110935652628541,-0.003766873851418495,-0.0011110517662018538
1686445441273978000,11.18797802734375,0.0013045663945376873,-0.0026430198922753334,-0.0019390285015106201
1686445441283995400,11.197995361328125,0.0009100530296564102,0.0005986581090837717,0.0006382802966982126
1686445441294012400,11.208012451171875,0.0015840993728488684,0.003695115679875016,0.004746738821268082
1686445441304028200,11.218028076171874,-0.0013727121986448765,0.005585609935224056,0.0002560653956606984
1686445441314045200,11.228045166015624,-0.0004898742772638798,0.006051929667592049,0.004075038246810436
1686445441324062500,11.2380625,-0.0025528110563755035,-0.0010065706446766853,-0.0012716952478513122
1686445441334079200,11.248079345703125,-0.0016489340923726559,-0.00455576553940773,-0.005623300559818745
1686445441344095200,11.25809521484375,0.0001585753634572029,-0.010050973854959011,-0.0041106161661446095
1686445441354112500,11.268112548828125,0.0005210316739976406,-0.009731660597026348,-0.0008019049419090152
1686445441364129300,11.27812939453125,-0.0013468810357153416,-0.004156359471380711,-0.0013128438731655478
1686445441374146300,11.288146240234376,-0.0021927012130618095,0.002342552412301302,-0.000022808671928942204
1686445441384162300,11.298162353515625,-0.00025690533220767975,0.0035635028034448624,-0.004610034637153149
1686445441394179300,11.308179443359375,-0.002893967553973198,0.002972015179693699,-0.00008772069122642279
1686445441404196400,11.3181962890625,-0.0008836770430207253,0.002404139842838049,-0.0017047252040356398
1686445441414212400,11.32821240234375,0.0005496363155543804,0.0024888282641768456,-0.00028765725437551737
1686445441424229400,11.3382294921875,-0.0019713877700269222,-0.0035699354484677315,-0.0014205861371010542
1686445441434246400,11.348246337890625,-0.0012619215995073318,-0.003643172327429056,-0.0035790782421827316
1686445441444263200,11.35826318359375,0.0006364919245243073,-0.00460818549618125,-0.002249729121103883
1686445441454279200,11.368279052734374,-0.00045007793232798576,-0.004583152011036873,-0.0030912880320101976
1686445441464296400,11.37829638671875,-0.000055610667914152145,-0.007310481276363134,-0.0038611814379692078
1686445441474313200,11.388313232421876,-0.004329451359808445,-0.002857942134141922,-0.0032182945869863033
1686445441484330200,11.398330322265625,-0.0006453366950154305,-0.006002070382237434,-0.007020756136626005
1686445441494346500,11.408346435546875,-0.0024525579065084457,-0.0023567350581288338,-0.006542718503624201
1686445441504363300,11.41836328125,-0.0020479843951761723,-0.0031461482867598534,-0.00162841088604182
1686445441514380300,11.42838037109375,0.0019030815456062555,-0.0009389204205945134,-0.0033858309034258127
1686445441524397300,11.438397216796876,-0.002327736932784319,0.00003411457873880863,0.0008168531348928809
1686445441534413300,11.448413330078125,-0.0009098700247704983,-0.0005347365513443947,0.002342844381928444
1686445441544430300,11.458430419921875,0.0002753389999270439,0.0009093442931771278,0.0014286601217463613
1686445441554447000,11.468447021484375,-0.0014165672473609447,0.0015900481957942247,0.0008353077573701739
1686445441564464400,11.47846435546875,0.0006429939530789852,0.000646218890324235,-0.0038330969400703907
1686445441574480400,11.48848046875,-0.0005184104666113853,-0.0018070850055664778,-0.0038570654578506947
1686445441584497200,11.4984970703125,0.0021722561214119196,-0.003718456719070673,-0.004305004142224789
1686445441594514400,11.508514404296875,0.00031416863203048706,-0.0038364348001778126,-0.0070360759273171425
1686445441604530400,11.518530517578125,0.00024208007380366325,-0.0032836194150149822,-0.0069046891294419765
1686445441614547200,11.528547119140624,0.0026461156085133553,-0.000041487161070108414,-0.0026545501314103603
1686445441624564200,11.538564208984376,-0.0027951854281127453,-0.0032958919182419777,-0.0013301544822752476
1686445441634581200,11.548581298828125,-0.0008718506433069706,-0.007263469509780407,-0.0024604001082479954
1686445441644597200,11.55859716796875,-0.0021897684782743454,-0.005235988646745682,-0.00012283131945878267
1686445441654614500,11.568614501953125,-0.00442922068759799,-0.006768638268113136,0.0004542756360024214
1686445441664631300,11.57863134765625,-0.0014726025983691216,-0.004350826609879732,0.007623751647770405
1686445441674648600,11.588648681640626,-0.0021005761809647083,-0.004543639719486237,0.004147794097661972
1686445441684664600,11.59866455078125,-0.002888875547796488,-0.0019965197425335646,0.0004516125191003084
1686445441694681300,11.608681396484375,-0.0038079326041042805,-0.0024974604602903128,-3.259629011154175e-7
1686445441704698400,11.618698486328125,-0.0018494580872356892,-0.0003263411344960332,0.00015007168985903263
1686445441714715400,11.62871533203125,0.0009260885417461395,-0.0012461970327422023,0.0011484908172860742
1686445441724731400,11.6387314453125,0.0012852968648076057,-0.0021350367460399866,-0.0023367423564195633
1686445441734748400,11.64874853515625,0.0006594541482627392,-0.004576888866722584,-0.006721637211740017
1686445441744765400,11.658765380859375,0.0025341734290122986,-0.00339424517005682,-0.009167889133095741
1686445441754782500,11.668782470703125,0.0005064425058662891,0.00047905626706779003,-0.003886841470375657
1686445441764798500,11.678798583984374,0.0017680495511740446,0.003416991326957941,-0.0022996515035629272
1686445441774815200,11.688815185546876,-0.000622936524450779,0.005243121180683374,0.00541685800999403
1686445441784832500,11.69883251953125,0.0011285245418548584,0.0021658302284777164,0.004597595427185297
1686445441794848500,11.7088486328125,0.0004179934039711952,-0.00284490711055696,0.004353383556008339
1686445441804865300,11.718865234375,-0.001356273889541626,-0.003894522786140442,0.003153948811814189
1686445441814882600,11.728882568359374,0.002209964906796813,-0.004711580462753773,-0.0012583762872964144
1686445441824899300,11.7388994140625,-0.0023225881159305573,-0.006748456507921219,-0.0041278633289039135
1686445441834915300,11.748915283203125,-0.00215827114880085,-0.0031750272028148174,-0.00503893056884408
1686445441844932400,11.758932373046875,-0.0042650699615478516,0.0003841579891741276,-0.0018776855431497097
1686445441854949400,11.768949462890625,-0.0009771310724318027,0.0028664907440543175,-0.0038223257288336754
