"Time (s)","Acceleration x (m/s^2)","Acceleration y (m/s^2)","Acceleration z (m/s^2)"
4.038595100E-2,-1.206879973E0,-6.184549332E0,-3.538386583E0
4.291121100E-2,-1.098903775E0,-6.148357868E0,-3.694219112E0
4.543918000E-2,-9.672985673E-1,-6.194120407E0,-3.821038723E0
4.796157600E-2,-8.641080856E-1,-6.165406704E0,-3.996013880E0
5.048678400E-2,-7.492526174E-1,-6.088537216E0,-4.103690624E0
5.301204400E-2,-7.325028181E-1,-6.062216282E0,-4.204488277E0
5.553725300E-2,-6.942176819E-1,-6.019145489E0,-4.249952316E0
5.806240900E-2,-6.535396576E-1,-5.983253002E0,-4.295415878E0
6.058761700E-2,-6.583253145E-1,-5.906682491E0,-4.343272209E0
6.311282600E-2,-7.061817646E-1,-5.880062580E0,-4.328915119E0
6.564084700E-2,-8.066803217E-1,-5.863312721E0,-4.264308929E0
6.816324200E-2,-8.353942037E-1,-5.860919952E0,-4.218845367E0
7.068845100E-2,-9.601200819E-1,-5.856134415E0,-4.173381805E0
7.321397200E-2,-1.086939692E0,-5.865705490E0,-4.101297855E0
7.573949200E-2,-1.199701428E0,-5.923432350E0,-4.055834293E0
7.826506500E-2,-1.295414329E0,-6.009573936E0,-3.866502285E0
7.995522200E-2,-1.343270779E0,-6.098108292E0,-3.775574923E0
8.331454400E-2,-1.415354609E0,-6.215655804E0,-3.564707518E0
8.584532600E-2,-1.463211060E0,-6.347260952E0,-3.329911709E0
8.837053400E-2,-1.479960799E0,-6.507879257E0,-3.049652576E0
9.089298200E-2,-1.499103427E0,-6.608377934E0,-2.728715181E0
9.341813800E-2,-1.479960799E0,-6.778567314E0,-2.388635159E0
9.594339900E-2,-1.463211060E0,-6.948457718E0,-2.043769598E0
9.850808600E-2,-1.422533035E0,-7.077969551E0,-1.600499272E0
1.009938150E-1,-1.333699465E0,-7.264908791E0,-1.265205026E0
1.035585030E-1,-1.245165110E0,-7.449155807E0,-1.030409217E0
1.060442320E-1,-1.202094316E0,-7.621738434E0,-8.626125455E-1
1.085694400E-1,-1.137488008E0,-7.767999649E0,-7.525427341E-1
1.111239190E-1,-1.003190875E0,-7.911569118E0,-6.711867452E-1
1.136784510E-1,-8.258228898E-1,-8.079365730E0,-6.062814593E-1
1.162329300E-1,-7.181459069E-1,-8.151150703E0,-5.105685592E-1
1.187097010E-1,-6.367899179E-1,-8.249256134E0,-4.411766827E-1
1.212349610E-1,-5.575276613E-1,-8.256434441E0,-4.866403043E-1
1.237601690E-1,-5.359922647E-1,-8.244470596E0,-4.722833633E-1
1.263572010E-1,-6.152545214E-1,-8.065009117E0,-7.573283911E-1
1.287710550E-1,-3.804588020E-1,-8.024031639E0,-8.865407705E-1
1.313356900E-1,-1.671984792E-1,-8.244470596E0,-5.249254704E-1
1.338609510E-1,-5.922235921E-2,-8.330910683E0,-2.638086975E-1
1.363861070E-1,-5.682953820E-2,-8.328517914E0,-2.997010350E-1
1.389113150E-1,-1.432702541E-1,-8.287541389E0,-3.909274042E-1
1.414713150E-1,-3.275175989E-1,-8.208578110E0,-5.033900738E-1
1.440312630E-1,-5.670989752E-1,-8.203792572E0,-6.903293133E-1
1.465494920E-1,-8.282157183E-1,-8.076972961E0,-8.362914920E-1
1.490122010E-1,-1.096511006E0,-7.997710705E0,-1.035194874E0
1.515374090E-1,-1.513460279E0,-7.849355698E0,-1.246062398E0
1.541167320E-1,-1.805683732E0,-7.765606880E0,-1.303490162E0
1.565877740E-1,-1.927717686E0,-7.775177956E0,-1.087836981E0
1.591130340E-1,-2.040479422E0,-7.784749508E0,-8.123632669E-1
1.616382420E-1,-2.136192322E0,-7.777570724E0,-5.679962635E-1
1.641634510E-1,-2.136192322E0,-7.695915699E0,-3.619144261E-1
1.666886590E-1,-1.999801517E0,-7.686344624E0,-2.662015259E-1
1.692138150E-1,-1.841576099E0,-7.763214111E0,-2.614158690E-1
1.717390240E-1,-1.683649778E0,-7.803892136E0,-3.475574851E-1
1.742642320E-1,-1.477568030E0,-7.892426491E0,-5.608177781E-1
1.769078260E-1,-1.297807217E0,-8.009675026E0,-7.740781307E-1
1.794330860E-1,-1.098903775E0,-8.146365166E0,-9.849455953E-1
1.819582420E-1,-8.739784956E-1,-8.237292290E0,-1.236491084E0
1.844835030E-1,-6.367899179E-1,-8.371588707E0,-1.514357686E0
1.870087110E-1,-4.857429862E-1,-8.488837242E0,-1.732403636E0
1.895339190E-1,-2.006980032E-1,-8.582456589E0,-2.019841433E0
1.920590760E-1,1.058823988E-1,-8.620741844E0,-2.379063845E0
1.945843360E-1,4.459623098E-1,-8.673383713E0,-2.824727058E0
1.971094920E-1,7.310073376E-1,-8.742775917E0,-3.195913792E0
1.996347010E-1,1.073779106E0,-8.757132530E0,-3.615255833E0
2.021599090E-1,1.433001637E0,-8.836395264E0,-4.051048756E0
2.046851170E-1,1.713261008E0,-8.910572052E0,-4.388735771E0
2.072103260E-1,2.012662888E0,-8.968000412E0,-4.681258202E0
2.097750130E-1,2.158924341E0,-9.003892899E0,-4.853541851E0
2.122607420E-1,2.230708838E0,-9.066105843E0,-4.896612644E0
2.147859510E-1,2.312064886E0,-9.233902931E0,-4.652245522E0
2.173111590E-1,2.369791746E0,-9.372985840E0,-4.144668102E0
2.198363670E-1,2.221137524E0,-9.308079720E0,-3.579064369E0
2.223615760E-1,1.804188251E0,-9.073284149E0,-3.282055378E0
2.248867840E-1,1.330110312E0,-8.920144081E0,-2.985046148E0
2.274119920E-1,8.748757839E-1,-8.764310837E0,-2.711965322E0
2.299372010E-1,5.778666735E-1,-8.673383713E0,-2.513062000E0
2.324624090E-1,3.837489188E-1,-8.539086342E0,-2.434098721E0
2.349876170E-1,1.824527234E-1,-8.426624298E0,-2.489133835E0
2.375128260E-1,7.477571070E-2,-8.270791054E0,-2.585145712E0
2.400380340E-1,-1.794616925E-3,-8.146365166E0,-2.654537678E0
2.425632420E-1,-5.443671346E-2,-8.016853333E0,-2.798406124E0
2.450884510E-1,-2.333002165E-2,-7.885247707E0,-2.987439156E0
2.476136590E-1,3.409772366E-2,-7.731808186E0,-3.176771164E0
2.501388670E-1,1.752742529E-1,-7.561917782E0,-3.375674486E0
2.526640760E-1,3.646063507E-1,-7.394121170E0,-3.543172121E0
2.551892840E-1,5.228317380E-1,-7.216753006E0,-3.677469254E0
2.577144920E-1,6.903293133E-1,-7.094718933E0,-3.818645954E0
2.602791800E-1,8.341978192E-1,-6.965506554E0,-3.861716747E0
2.627649090E-1,9.634101987E-1,-6.828816891E0,-3.919443607E0
2.652901170E-1,1.016351461E0,-6.689733982E0,-3.864109516E0
2.678153260E-1,9.873384237E-1,-6.582056999E0,-3.818645954E0
2.703405340E-1,8.533403873E-1,-6.503093719E0,-3.801896095E0
2.728657420E-1,7.166503668E-1,-6.428916454E0,-3.888336897E0
2.753909510E-1,5.802595019E-1,-6.387938976E0,-3.993621111E0
2.779161590E-1,3.837489188E-1,-6.409474373E0,-4.161417484E0
2.804413670E-1,1.417747438E-1,-6.546164513E0,-4.403092861E0
2.829665760E-1,-5.443671346E-2,-6.857530594E0,-4.625924587E0
2.854917840E-1,-2.964109182E-1,-7.236194611E0,-4.887041092E0
2.880169920E-1,-5.503492355E-1,-7.722237110E0,-5.085944653E0
2.905422010E-1,-8.497511148E-1,-8.287541389E0,-5.299204826E0
2.930674090E-1,-1.194915771E0,-8.860322952E0,-5.522036552E0
2.955926170E-1,-1.546959877E0,-9.487840652E0,-5.778367519E0
2.981178260E-1,-1.858325839E0,-1.012732315E1,-6.130411625E0
3.006430340E-1,-2.088335991E0,-1.071206856E1,-6.520740986E0
3.031682420E-1,-2.351845503E0,-1.123878860E1,-6.861119747E0
3.057329300E-1,-2.507678032E0,-1.177567863E1,-7.179664135E0
3.082186590E-1,-2.660818815E0,-1.229522038E1,-7.308876991E0
3.107438670E-1,-2.773580551E0,-1.279352570E1,-7.282555580E0
3.132690760E-1,-2.807080030E0,-1.323200989E1,-7.189235687E0
3.157942840E-1,-2.819044113E0,-1.361037540E1,-7.002296448E0
3.183194920E-1,-2.833401203E0,-1.390259838E1,-6.698108673E0
3.208447010E-1,-2.819044113E0,-1.408714485E1,-6.341279030E0
3.233699090E-1,-2.816651344E0,-1.418285847E1,-5.929115295E0
3.258951170E-1,-2.785544634E0,-1.416850090E1,-5.548357487E0
3.284203260E-1,-2.699103832E0,-1.420708561E1,-5.265705109E0
3.309455340E-1,-2.560320139E0,-1.416371536E1,-5.169693470E0
3.334707420E-1,-2.486142635E0,-1.402732468E1,-5.253741264E0
3.359959510E-1,-2.411666155E0,-1.387388515E1,-5.541179180E0
3.385211590E-1,-2.416451693E0,-1.373988628E1,-6.070590973E0
3.410463670E-1,-2.486142635E0,-1.358405399E1,-6.722036839E0
3.435715760E-1,-2.593819857E0,-1.338036537E1,-7.304090977E0
3.460967840E-1,-2.823829889E0,-1.326311684E1,-7.888837337E0
3.486219920E-1,-3.082553864E0,-1.318176079E1,-8.226524353E0
3.511472010E-1,-3.348456144E0,-1.303549957E1,-8.420641899E0
3.536724090E-1,-3.547359467E0,-1.295175076E1,-8.521140099E0
3.561976170E-1,-3.793820381E0,-1.293500137E1,-8.434998512E0
3.587228260E-1,-3.978366852E0,-1.288953781E1,-8.276773453E0
3.612875130E-1,-4.098307133E0,-1.291585827E1,-7.896015644E0
3.637732420E-1,-4.086342812E0,-1.293260860E1,-7.471887589E0
3.662984510E-1,-4.098307133E0,-1.291585827E1,-6.885047913E0
3.688236590E-1,-4.040580273E0,-1.284885979E1,-6.415456772E0
3.713488670E-1,-3.956831455E0,-1.279831123E1,-5.998507500E0
3.738740760E-1,-3.818047523E0,-1.271695518E1,-5.636891842E0
3.763992840E-1,-3.724428415E0,-1.268584824E1,-5.430809975E0
3.789244920E-1,-3.671786308E0,-1.263799191E1,-5.311169147E0
3.814497010E-1,-3.667000771E0,-1.268584824E1,-5.248955727E0
3.839749090E-1,-3.772284985E0,-1.270977688E1,-5.394917965E0
3.865001170E-1,-3.889832258E0,-1.284377480E1,-5.572285652E0
3.890253260E-1,-4.016652107E0,-1.298285770E1,-5.969793320E0
3.915505340E-1,-4.138985157E0,-1.322004604E1,-6.305386543E0
3.940757420E-1,-4.294518471E0,-1.348834133E1,-6.539883614E0
3.966009510E-1,-4.416851521E0,-1.374228001E1,-6.841977119E0
3.991261590E-1,-4.462315083E0,-1.396511078E1,-7.031010151E0
4.016513670E-1,-4.488636017E0,-1.411825180E1,-7.191628456E0
4.041765760E-1,-4.435994148E0,-1.422144222E1,-7.263412952E0
4.067017840E-1,-4.261018753E0,-1.434586906E1,-7.385746002E0
4.092269400E-1,-3.880260944E0,-1.437458324E1,-7.502994537E0
4.117522010E-1,-3.348456144E0,-1.430758381E1,-7.618149281E0
4.142774090E-1,-2.632104874E0,-1.414696598E1,-7.579565048E0
4.168026170E-1,-1.843968987E0,-1.387867069E1,-7.462316513E0
4.193277740E-1,-1.077368379E0,-1.358883953E1,-7.131807804E0
4.218529820E-1,-4.546363056E-1,-1.318176079E1,-6.702894211E0
4.243782420E-1,8.673982322E-2,-1.271456242E1,-6.252445698E0
4.269033990E-1,4.674977362E-1,-1.224018478E1,-5.895616055E0
4.294286070E-1,6.687939167E-1,-1.170598793E1,-5.667998791E0
4.319538670E-1,6.640082598E-1,-1.110239792E1,-5.536393166E0
4.344790760E-1,5.611169338E-1,-1.054427242E1,-5.474180222E0
4.370042840E-1,2.210369855E-1,-1.008185863E1,-5.512465000E0
4.395689190E-1,-2.270190418E-1,-9.602696419E0,-5.622535229E0
4.420546490E-1,-7.588238716E-1,-9.207581520E0,-5.795117378E0
4.445799090E-1,-1.427318692E0,-8.831310272E0,-5.991328716E0
4.471050650E-1,-2.143370867E0,-8.452944756E0,-6.123233318E0
4.496302740E-1,-2.898007393E0,-8.127222061E0,-6.230910301E0
4.521554820E-1,-3.611965895E0,-7.784749508E0,-6.197410583E0
4.546806900E-1,-4.400101662E0,-7.449155807E0,-6.120840549E0
4.572058990E-1,-5.087440014E0,-7.087540627E0,-5.972186089E0
4.597311070E-1,-5.674279690E0,-6.804888725E0,-5.708676815E0
4.622563150E-1,-6.218048573E0,-6.550950050E0,-5.325525761E0
4.647815240E-1,-6.620641232E0,-6.294619083E0,-4.983053207E0
4.673067320E-1,-6.915257454E0,-6.093322754E0,-4.678865433E0
4.698319400E-1,-7.111767769E0,-5.959324837E0,-4.530211449E0
4.723571490E-1,-7.250551701E0,-5.810670853E0,-4.441677094E0
4.748823570E-1,-7.250551701E0,-5.695815086E0,-4.625924587E0
4.774075650E-1,-7.291229725E0,-5.624030590E0,-4.834399223E0
4.799327740E-1,-7.276872635E0,-5.487340450E0,-5.131408215E0
4.824579820E-1,-7.267301559E0,-5.449055195E0,-5.505286694E0
4.849831900E-1,-7.214659214E0,-5.513661385E0,-5.766403675E0
4.875083990E-1,-7.154839039E0,-5.575874805E0,-6.005685806E0
4.900336070E-1,-7.035197735E0,-5.719743252E0,-6.281458378E0
4.925588150E-1,-6.898507595E0,-5.916254044E0,-6.451348782E0
4.950840240E-1,-6.725925446E0,-6.163013935E0,-6.681358814E0
4.976092320E-1,-6.412166595E0,-6.452844620E0,-6.753143787E0
5.001344400E-1,-6.117550373E0,-6.759424686E0,-6.803392887E0
5.026596490E-1,-5.822933674E0,-7.073183537E0,-6.769893646E0
5.051848570E-1,-5.494818211E0,-7.353443146E0,-6.671787739E0
5.077100650E-1,-5.245665550E0,-7.588238716E0,-6.559325218E0
5.102352740E-1,-5.008476734E0,-7.760521889E0,-6.350850582E0
5.127604820E-1,-4.742574692E0,-7.858926773E0,-6.147161484E0
5.152856900E-1,-4.491028786E0,-8.004889488E0,-5.886044502E0
5.178108990E-1,-4.263411522E0,-8.108079910E0,-5.608178139E0
5.203361070E-1,-4.031008720E0,-8.172685623E0,-5.335097313E0
5.228613150E-1,-3.793820381E0,-8.194221497E0,-5.121836662E0
5.253865240E-1,-3.578466177E0,-8.249256134E0,-4.882255554E0
5.279117320E-1,-3.372384310E0,-8.256434441E0,-4.686044216E0
5.304369400E-1,-3.175873756E0,-8.234899521E0,-4.530211449E0
5.329621490E-1,-3.008077145E0,-8.146365166E0,-4.376771927E0
5.354873050E-1,-2.816651344E0,-8.110472679E0,-4.266701698E0
5.380125130E-1,-2.656033039E0,-8.016853333E0,-4.173381805E0
5.405377740E-1,-2.600998163E0,-7.882854939E0,-4.175774574E0
5.430629300E-1,-2.569891453E0,-7.676773071E0,-4.122833252E0
5.455881900E-1,-2.550748825E0,-7.480262756E0,-4.182952881E0
5.481133470E-1,-2.615355253E0,-7.221538544E0,-4.226023674E0
5.506385550E-1,-2.639283419E0,-7.006184578E0,-4.230809689E0
5.531638150E-1,-2.696711063E0,-6.730710983E0,-4.235595226E0
5.556889720E-1,-2.807080030E0,-6.500700951E0,-4.254737854E0
5.582141800E-1,-2.866900682E0,-6.285048008E0,-4.264308929E0
5.607393880E-1,-2.974577665E0,-6.004788399E0,-4.276273251E0
5.632645970E-1,-3.046661377E0,-5.801099300E0,-4.254737854E0
5.657898050E-1,-3.116053343E0,-5.633601665E0,-4.216452599E0
5.683150130E-1,-3.245265722E0,-5.403591633E0,-4.214059830E0
5.708402220E-1,-3.367598772E0,-5.192724228E0,-4.159024715E0
5.733654300E-1,-3.432204962E0,-5.003392220E0,-4.122833252E0
5.758906380E-1,-3.468097210E0,-4.857429981E0,-4.082155228E0
5.784158470E-1,-3.561716557E0,-4.689633369E0,-4.012763500E0
5.809410550E-1,-3.585644722E0,-4.584349155E0,-3.993621111E0
5.834662630E-1,-3.583251953E0,-4.433301926E0,-4.003192425E0
5.859914720E-1,-3.611965895E0,-4.304089546E0,-3.986442566E0
5.885166800E-1,-3.583251953E0,-4.184149265E0,-3.964907169E0
5.910418880E-1,-3.583251953E0,-4.033401489E0,-3.912265062E0
5.935670970E-1,-3.564109325E0,-3.913461447E0,-3.900300980E0
5.960923050E-1,-3.542274714E0,-3.784249067E0,-3.844966888E0
5.986175130E-1,-3.470490217E0,-3.685844183E0,-3.837788343E0
6.011427220E-1,-3.432204962E0,-3.597309828E0,-3.749253988E0
6.036679300E-1,-3.360420227E0,-3.489632607E0,-3.689433336E0
6.061931380E-1,-3.281457186E0,-3.458226919E0,-3.627219915E0
6.087183470E-1,-3.228515863E0,-3.388834953E0,-3.564707518E0
6.112830340E-1,-3.159124136E0,-3.329014540E0,-3.514458179E0
6.137687630E-1,-3.118446112E0,-3.297907829E0,-3.461816072E0
6.162939720E-1,-3.053839922E0,-3.240479946E0,-3.464209080E0
6.188191800E-1,-2.998505831E0,-3.247658491E0,-3.480958700E0
6.213443880E-1,-3.022733212E0,-3.235694408E0,-3.490530014E0
6.238695970E-1,-3.041875839E0,-3.173182011E0,-3.547957659E0
6.263948050E-1,-2.972184896E0,-3.170789003E0,-3.615255833E0
6.289200130E-1,-2.945863724E0,-3.254837036E0,-3.679862022E0
6.314452220E-1,-2.909971476E0,-3.240479946E0,-3.701397419E0
6.339704300E-1,-2.857329369E0,-3.262015581E0,-3.761218071E0
6.364956380E-1,-2.799901485E0,-3.317050457E0,-3.847359657E0
6.390603260E-1,-2.727817774E0,-3.398406267E0,-3.907479286E0
6.415460550E-1,-2.557927370E0,-3.441477060E0,-3.921836376E0
6.440712630E-1,-2.454736948E0,-3.506382465E0,-3.969692707E0
6.465964720E-1,-2.361416817E0,-3.563810110E0,-3.967299938E0
6.491216280E-1,-2.251347065E0,-3.623630762E0,-3.948157310E0
6.516470440E-1,-2.145763636E0,-3.738486290E0,-4.005585194E0
6.541725130E-1,-2.016551256E0,-3.853640795E0,-4.010370731E0
6.566979300E-1,-1.858325839E0,-3.973282099E0,-4.022335052E0
6.592233470E-1,-1.741077542E0,-4.059722900E0,-4.055834293E0
6.617488150E-1,-1.601994753E0,-4.222434521E0,-4.012763500E0
6.642742320E-1,-1.484746456E0,-4.335196495E0,-3.950550079E0
6.667996490E-1,-1.333699465E0,-4.481158733E0,-3.945764542E0
6.693251170E-1,-1.178166032E0,-4.672883511E0,-3.902693748E0
6.718505340E-1,-1.096511006E0,-4.819144726E0,-3.866502285E0
6.743759510E-1,-9.601200819E-1,-4.929214478E0,-3.818645954E0
6.769014190E-1,-8.210372925E-1,-5.113760948E0,-3.766003847E0
6.794241280E-1,-6.822535396E-1,-5.271687508E0,-3.694219112E0
6.819495440E-1,-5.766702294E-1,-5.441876888E0,-3.634398460E0
6.844750130E-1,-4.187439680E-1,-5.585446358E0,-3.516851187E0
6.870004300E-1,-3.251247704E-1,-5.731707573E0,-3.433102369E0
6.895258470E-1,-2.246262282E-1,-5.909075737E0,-3.387638569E0
6.920513150E-1,-1.169492081E-1,-6.047859192E0,-3.298804998E0
6.945767320E-1,-3.050848842E-2,-6.148357868E0,-3.313162088E0
6.971021490E-1,7.956135273E-2,-6.328118801E0,-3.262912750E0
6.996276170E-1,1.872383654E-1,-6.481558323E0,-3.294019461E0
7.021530340E-1,2.976073027E-1,-6.558128834E0,-3.286840916E0
7.046784510E-1,4.316053987E-1,-6.672984123E0,-3.298804998E0
7.072039190E-1,5.635097623E-1,-6.824030876E0,-3.279662609E0
7.097661070E-1,6.903293133E-1,-6.931707859E0,-3.274876833E0
7.122915240E-1,8.054839373E-1,-6.999006271E0,-3.308376312E0
7.148169400E-1,9.179465771E-1,-7.094718933E0,-3.270091295E0
7.173424090E-1,1.066600680E0,-7.166503906E0,-3.267698526E0
7.198678260E-1,1.152742267E0,-7.204789162E0,-3.322733402E0
7.223932420E-1,1.253240824E0,-7.267301559E0,-3.325126171E0
7.249187110E-1,1.327717423E0,-7.396513939E0,-3.378067255E0
7.274441280E-1,1.389930844E0,-7.487441063E0,-3.368496180E0
7.299695440E-1,1.444965720E0,-7.470691204E0,-3.329911709E0
7.324950130E-1,1.442572951E0,-7.585845947E0,-3.234198809E0
7.350204300E-1,1.454537034E0,-7.664809227E0,-3.171985626E0
7.375458470E-1,1.454537034E0,-7.686344624E0,-3.112164974E0
7.400291280E-1,1.399502158E0,-7.719843864E0,-3.064009428E0
7.425545440E-1,1.334895968E0,-7.681559086E0,-2.951546669E0
7.450800130E-1,1.299003601E0,-7.674380302E0,-2.867797852E0
7.476054300E-1,1.167099237E0,-7.657630444E0,-2.747857809E0
7.501308470E-1,1.016351461E0,-7.676773071E0,-2.592324257E0
7.526563150E-1,8.629116416E-1,-7.643273830E0,-2.520240545E0
7.551817320E-1,7.214360237E-1,-7.612166882E0,-2.469991207E0
7.577071490E-1,5.156532526E-1,-7.526025295E0,-2.398206472E0
7.602326170E-1,3.765704632E-1,-7.398906708E0,-2.369492531E0
7.627580340E-1,1.298106313E-1,-7.336693287E0,-2.350350142E0
7.652834510E-1,-1.097707376E-1,-7.197610378E0,-2.288136721E0
7.678089190E-1,-2.222333997E-1,-7.087540627E0,-2.180160522E0
7.703316280E-1,-3.541377485E-1,-6.965506554E0,-2.082054853E0
7.728570440E-1,-5.383850932E-1,-6.859923363E0,-2.015055656E0
7.753825130E-1,-7.325028181E-1,-6.761817455E0,-1.947757602E0
7.779079300E-1,-8.907282352E-1,-6.687341213E0,-1.940579176E0
7.804333470E-1,-1.106082320E0,-6.617949009E0,-1.923829436E0
7.829588150E-1,-1.245165110E0,-6.543771744E0,-1.978864312E0
7.854842320E-1,-1.302592874E0,-6.491129398E0,-2.024626970E0
7.880096490E-1,-1.386341572E0,-6.433701992E0,-1.844866276E0
7.905351170E-1,-1.503889084E0,-6.332904339E0,-1.555035591E0
7.930605340E-1,-1.645065546E0,-6.289833546E0,-1.262812138E0
7.955859510E-1,-1.817647934E0,-6.227620125E0,-1.178764224E0
7.981114190E-1,-1.968694806E0,-6.263512135E0,-1.164407372E0
8.006341280E-1,-2.114656925E0,-6.342475414E0,-1.222134113E0
8.031595440E-1,-2.280060768E0,-6.426523209E0,-1.301097274E0
8.056850130E-1,-2.394916296E0,-6.538986206E0,-1.413560033E0
8.082104300E-1,-2.461915493E0,-6.653841496E0,-1.571785331E0
8.107358470E-1,-2.483749866E0,-6.809674263E0,-1.662712693E0
8.132613150E-1,-2.440380096E0,-6.982256413E0,-1.777867198E0
8.157867320E-1,-2.337488651E0,-7.161718369E0,-1.952543259E0
8.183121490E-1,-2.157727718E0,-7.343871593E0,-2.127518415E0
8.208376170E-1,-2.011765718E0,-7.557132244E0,-2.314457655E0
8.233630340E-1,-1.829612017E0,-7.784749508E0,-2.501097918E0
8.258884510E-1,-1.674078584E0,-7.968996525E0,-2.726322412E0
8.284139190E-1,-1.575673699E0,-8.172685623E0,-2.886940479E0
8.309366280E-1,-1.496710539E0,-8.338089943E0,-3.121736288E0
8.334620440E-1,-1.383948803E0,-8.553443909E0,-3.313162088E0
8.359875130E-1,-1.360020518E0,-8.737990379E0,-3.507279873E0
8.385129300E-1,-1.444068432E0,-8.831310272E0,-3.706183195E0
8.410383470E-1,-1.546959877E0,-8.898608208E0,-3.811467409E0
8.435638150E-1,-1.674078584E0,-8.977571487E0,-3.960121393E0
8.460892320E-1,-1.832004786E0,-9.001500130E0,-4.067798615E0
8.486146490E-1,-2.042872429E0,-9.015856743E0,-4.218845367E0
8.511401170E-1,-2.210669041E0,-9.025427818E0,-4.261916161E0
8.536655340E-1,-2.421237469E0,-8.960822105E0,-4.333701134E0
8.561909510E-1,-2.759223700E0,-8.934500694E0,-4.456034184E0
8.587164190E-1,-2.993720293E0,-8.944071770E0,-4.465605259E0
8.612786070E-1,-3.216551781E0,-8.860322952E0,-4.456034184E0
8.638040240E-1,-3.552145243E0,-8.766703606E0,-4.408177376E0
8.663294400E-1,-3.865904093E0,-8.711668968E0,-4.333701134E0
8.688549090E-1,-4.078865528E0,-8.625527382E0,-4.233202457E0
8.713803260E-1,-4.371387959E0,-8.572885513E0,-4.101297855E0
8.739057420E-1,-4.627718925E0,-8.486444473E0,-3.936193228E0
8.764312110E-1,-4.929513931E0,-8.357232094E0,-3.785146236E0
8.789566280E-1,-5.157131195E0,-8.309375763E0,-3.612863064E0
8.814820440E-1,-5.401198864E0,-8.306982994E0,-3.397209883E0
8.840075130E-1,-5.545067310E0,-8.309375763E0,-3.179163933E0
8.865329300E-1,-5.659923077E0,-8.215756416E0,-3.064009428E0
8.890583470E-1,-5.734399319E0,-8.177471161E0,-2.944368362E0
8.915416280E-1,-5.710471153E0,-8.153543472E0,-2.834298372E0
8.940670440E-1,-5.628816128E0,-8.167900085E0,-2.704786777E0
8.965925130E-1,-5.487639427E0,-8.179863930E0,-2.697608471E0
8.991179300E-1,-5.391627789E0,-8.234899521E0,-2.702394009E0
9.016433470E-1,-5.341378212E0,-8.263612747E0,-2.678465843E0
9.041688150E-1,-5.295914650E0,-8.289934158E0,-2.762214661E0
9.066942320E-1,-5.185844898E0,-8.289934158E0,-2.846262455E0
9.092196490E-1,-5.030012131E0,-8.362017632E0,-2.975475073E0
9.117451170E-1,-4.948656559E0,-8.395517349E0,-3.124129057E0
9.142705340E-1,-4.845465660E0,-8.436195374E0,-3.315554857E0
9.167959510E-1,-4.733003139E0,-8.503194809E0,-3.509672642E0
9.193214190E-1,-4.529314041E0,-8.668598175E0,-3.655933857E0
9.218441280E-1,-4.364209175E0,-8.879466057E0,-3.804288864E0
9.243695440E-1,-4.244269371E0,-9.063713074E0,-3.917050600E0
9.268950130E-1,-4.112663746E0,-9.312865257E0,-4.043870449E0
9.294204300E-1,-4.016652107E0,-9.612267494E0,-4.060619831E0
9.319458470E-1,-3.973581076E0,-9.897313118E0,-4.144668102E0
9.344713150E-1,-4.028615952E0,-1.018265629E1,-4.324129581E0
9.369967320E-1,-4.134199142E0,-1.050598717E1,-4.508676052E0
9.395221490E-1,-4.280161381E0,-1.077906799E1,-4.846363068E0
9.420476170E-1,-4.464707851E0,-1.105693436E1,-5.502893925E0
9.445730340E-1,-4.668396950E0,-1.128933716E1,-6.422635078E0
9.470984510E-1,-4.783252239E0,-1.145683479E1,-7.086344242E0
9.496239190E-1,-4.795216560E0,-1.150708389E1,-7.637291908E0
9.521466280E-1,-4.711467743E0,-1.151934719E1,-8.015656471E0
9.546720440E-1,-4.500600338E0,-1.154566860E1,-8.243273735E0
9.571975130E-1,-4.208376884E0,-1.166530991E1,-8.271987915E0
9.597229300E-1,-3.856332779E0,-1.185942745E1,-8.157132149E0
9.622483470E-1,-3.508775234E0,-1.209900856E1,-8.120941162E0
9.647738150E-1,-3.037090063E0,-1.238644600E1,-8.068299294E0
9.672992320E-1,-2.543570518E0,-1.275763321E1,-7.958229065E0
9.698246490E-1,-1.992623091E0,-1.322722435E1,-7.646862984E0
9.723501170E-1,-1.420140266E0,-1.378056431E1,-7.031010151E0
9.748755340E-1,-9.505487680E-1,-1.436740494E1,-6.149554253E0
9.774009510E-1,-6.320042610E-1,-1.496142292E1,-5.033302307E0
9.799264190E-1,-4.737788737E-1,-1.540708637E1,-3.811467409E0
9.824491280E-1,-4.498506486E-1,-1.575912952E1,-2.505883455E0
9.849745440E-1,-3.421736360E-1,-1.613300896E1,-1.087836981E0
9.875000130E-1,-2.676970363E-1,-1.662174225E1,2.775674164E-1
9.900254300E-1,-2.485544533E-1,-1.704078484E1,1.719542146E0
9.925508470E-1,-1.384846121E-1,-1.737368774E1,3.065804005E0
9.950763150E-1,-6.400800496E-2,-1.769252968E1,4.093521118E0
9.976017320E-1,-1.097707376E-1,-1.781934929E1,4.615755081E0
1.000127149E0,-2.509472668E-1,-1.777388573E1,4.505684853E0
1.002652617E0,-2.940180898E-1,-1.772842216E1,4.112663746E0
1.005178034E0,-4.666004181E-1,-1.786960030E1,3.317349434E0
1.007703451E0,-1.072582722E0,-1.826979828E1,2.124527454E0
1.010228919E0,-1.915753603E0,-1.887338829E1,9.050851464E-1
1.012751576E0,-2.886043310E0,-1.973091698E1,-3.786641955E-1
1.015276992E0,-3.980759621E0,-2.077299118E1,-1.540678620E0
1.017802461E0,-5.183452129E0,-2.194936180E1,-2.740679264E0
1.020327878E0,-6.829115868E0,-2.323550415E1,-4.331307888E0
1.022853294E0,-9.138189316E0,-2.455305290E1,-6.865905285E0
1.025378763E0,-1.251117229E1,-2.580120850E1,-1.197547913E1
1.027904180E0,-1.572114372E1,-2.656063080E1,-1.907318878E1
1.030429597E0,-1.447538090E1,-2.647658348E1,-1.810080528E1
1.032955065E0,-9.528818130E0,-2.554966354E1,-1.560210133E1
1.035480482E0,-4.795216560E0,-2.367398834E1,-1.439492226E1
1.038005899E0,-1.283450246E0,-2.143909264E1,-1.073928738E1
1.040531367E0,1.698904037E0,-1.903639984E1,-6.295815468E0
1.043054128E0,4.101597309E0,-1.667677689E1,-2.331207514E0
1.045579544E0,6.001199245E0,-1.449691582E1,1.089631557E0
1.048105013E0,7.517650604E0,-1.251326561E1,3.969094515E0
1.050630430E0,8.487641335E0,-1.080299568E1,5.820840359E0
1.053155847E0,8.871090889E0,-9.305686951E0,6.294918060E0
1.055681315E0,8.859127045E0,-8.151150703E0,5.722435474E0
1.058206732E0,8.605188370E0,-7.307979584E0,4.682754040E0
1.060732149E0,8.193024635E0,-6.617949009E0,3.489931822E0
1.063257617E0,7.771588802E0,-6.083751678E0,2.313859463E0
1.065783034E0,7.347461224E0,-5.695815086E0,1.317248821E0
1.068308451E0,6.868298531E0,-5.374877930E0,4.091726840E-1
1.070833919E0,6.437291145E0,-5.214259624E0,-3.643072546E-1
1.073356628E0,6.154638767E0,-5.178367138E0,-1.011266708E0
1.075882044E0,5.792724609E0,-5.288437366E0,-1.681855202E0
1.078407513E0,5.541179180E0,-5.496912003E0,-2.371885538E0
1.080932930E0,5.153242588E0,-5.863312721E0,-3.011367321E0
1.083458347E0,4.717150688E0,-6.364010811E0,-3.399602890E0
1.085983815E0,4.063312054E0,-6.941279411E0,-3.540779352E0
1.088509232E0,3.153141975E0,-7.631309509E0,-3.425923824E0
1.091034649E0,2.154138565E0,-8.409873962E0,-3.155235767E0
1.093560117E0,1.564906001E0,-9.296115875E0,-2.977867842E0
1.096085534E0,1.327717423E0,-1.020419216E1,-2.827120066E0
1.098610951E0,1.188634634E0,-1.116700459E1,-2.700001240E0
1.101136419E0,1.037886858E0,-1.219950676E1,-2.661715984E0
1.103659128E0,8.772686124E-1,-1.337557983E1,-2.680858612E0
1.106184544E0,7.695915699E-1,-1.472931862E1,-2.671287298E0
1.108710013E0,5.587241054E-1,-1.616890144E1,-2.752643347E0
1.111235430E0,1.657029688E-1,-1.758216095E1,-2.831905603E0
1.113760847E0,-2.748754919E-1,-1.889970970E1,-2.793321371E0
1.116286315E0,-8.811569214E-1,-2.002553177E1,-2.822334290E0
1.118811732E0,-1.393520117E0,-2.089053726E1,-2.819941521E0
1.121337149E0,-1.918146491E0,-2.147259140E1,-2.692822695E0
1.123862617E0,-2.229811668E0,-2.170978165E1,-2.448455811E0
1.126388034E0,-2.213061810E0,-2.156351852E1,-2.079662085E0
1.128913451E0,-1.925324917E0,-2.103889275E1,-1.722533226E0
1.131438919E0,-1.362413406E0,-2.016700745E1,-1.420738459E0
1.133961628E0,-5.862415433E-1,-1.896670914E1,-1.246062398E0
1.136487044E0,5.084748194E-2,-1.754626846E1,-1.018445134E0
1.139012513E0,4.773681164E-1,-1.611147308E1,-7.860422134E-1
1.141537930E0,5.778666735E-1,-1.481785297E1,-5.273182988E-1
1.144063347E0,4.411766827E-1,-1.372552967E1,-2.135594189E-1
1.146588815E0,1.495514158E-2,-1.271216965E1,5.473581702E-2
1.149114232E0,-4.570291340E-1,-1.187856960E1,3.254238665E-1
1.151639649E0,-1.041476011E0,-1.112632656E1,4.645066857E-1
1.154165117E0,-1.530210137E0,-1.049641609E1,3.804588020E-1
1.156690534E0,-1.978266120E0,-9.907182693E0,1.483550072E-1
1.159215951E0,-2.299203396E0,-9.365508080E0,-1.633101404E-1
1.161741419E0,-2.579462767E0,-8.893822670E0,-5.392823815E-1
1.164303659E0,-2.768795013E0,-8.431409836E0,-9.418748021E-1
1.166829076E0,-2.900400162E0,-8.069794655E0,-1.269990563E0
1.169354440E0,-3.025125980E0,-7.746165276E0,-1.550249934E0
1.171879857E0,-3.104089260E0,-7.475477219E0,-1.768295884E0
1.174405274E0,-3.139981508E0,-7.223931789E0,-1.923829436E0
1.176930690E0,-3.183052301E0,-6.979863644E0,-2.046162367E0
1.179456107E0,-3.171088219E0,-6.778567314E0,-2.201695919E0
1.181981524E0,-3.137588739E0,-6.601199627E0,-2.324028969E0
1.184506888E0,-3.075375319E0,-6.402296066E0,-2.434098721E0
1.187032305E0,-3.017947674E0,-6.239583969E0,-2.561217546E0
1.189557722E0,-2.929114103E0,-6.126822472E0,-2.611466885E0
1.192083138E0,-2.838186741E0,-5.980860233E0,-2.676073074E0
1.194566732E0,-2.725425005E0,-5.904289722E0,-2.707179785E0
1.197092149E0,-2.531606436E0,-5.889933109E0,-2.704786777E0
1.199617565E0,-2.390130758E0,-5.899504185E0,-2.673680305E0
1.202142982E0,-2.220240355E0,-5.937789440E0,-2.630609512E0
1.204668347E0,-2.138585329E0,-6.078966141E0,-2.644966364E0
1.207193763E0,-2.011765718E0,-6.201299191E0,-2.592324257E0
1.209719180E0,-1.855933070E0,-6.344868183E0,-2.537289381E0
1.212244597E0,-1.736291885E0,-6.536593437E0,-2.465205431E0
1.214770013E0,-1.676471353E0,-6.677769661E0,-2.434098721E0
1.217295430E0,-1.599601984E0,-6.761817455E0,-2.419741869E0
1.219820794E0,-1.554138303E0,-6.888637066E0,-2.376671076E0
1.222346211E0,-1.491924882E0,-6.982256413E0,-2.352742910E0
1.224869180E0,-1.467996716E0,-7.025327206E0,-2.393420935E0
1.227394597E0,-1.446461320E0,-7.094718933E0,-2.448455811E0
1.229920013E0,-1.424925923E0,-7.109076023E0,-2.505883455E0
1.232445430E0,-1.456032634E0,-7.116254330E0,-2.616252422E0
1.234970794E0,-1.482353687E0,-7.104290485E0,-2.704786777E0
1.237496211E0,-1.472782373E0,-7.140182972E0,-2.807977438E0
1.240021628E0,-1.527817249E0,-7.130611420E0,-2.951546669E0
1.242547044E0,-1.544566989E0,-7.128218651E0,-3.078665495E0
1.245072461E0,-1.635494232E0,-7.135396957E0,-3.234198809E0
1.247597878E0,-1.649851203E0,-7.166503906E0,-3.392424345E0
1.250123242E0,-1.681257010E0,-7.197610378E0,-3.428316593E0
1.252648659E0,-1.659422517E0,-7.279265404E0,-3.454637766E0
1.255171732E0,-1.707578063E0,-7.360621452E0,-3.435495138E0
1.257697149E0,-1.652244091E0,-7.453941822E0,-3.375674486E0
1.260222565E0,-1.613958836E0,-7.619345665E0,-3.294019461E0
1.262747982E0,-1.618744493E0,-7.834998608E0,-3.169592619E0
1.265273347E0,-1.542174220E0,-8.057829857E0,-3.095415115E0
1.267798763E0,-1.475175142E0,-8.326125145E0,-3.011367321E0
1.270324180E0,-1.374377489E0,-8.680562019E0,-2.891726255E0
1.272849597E0,-1.257129192E0,-8.968000412E0,-2.793321371E0
1.275375013E0,-1.094118118E0,-9.384949684E0,-2.597109795E0
1.277900430E0,-8.521439433E-1,-9.741779327E0,-2.429313183E0
1.280425794E0,-6.272186637E-1,-1.006271648E1,-2.328814745E0
1.282951211E0,-4.450650215E-1,-1.030947590E1,-2.213660002E0
1.285474232E0,-1.911267042E-1,-1.045095158E1,-2.127518415E0
1.287999649E0,8.195417374E-2,-1.055862904E1,-2.074876308E0
1.290525065E0,3.574278951E-1,-1.056820011E1,-2.031805515E0
1.293050482E0,6.209374666E-1,-1.056820011E1,-2.010270119E0
1.295575847E0,8.724829555E-1,-1.053709316E1,-1.995913148E0
1.298101263E0,1.116850019E0,-1.041236782E1,-2.055733681E0
1.300626680E0,1.303789258E0,-1.031665516E1,-2.115554333E0
1.303152097E0,1.480858088E0,-1.018026352E1,-2.276172638E0
1.305677513E0,1.588834286E0,-1.002682400E1,-2.493919373E0
1.308202930E0,1.674975872E0,-9.849455833E0,-2.817548752E0
1.310728294E0,1.703689694E0,-9.653244972E0,-3.212663412E0
1.313253711E0,1.617548108E0,-9.399306297E0,-3.641577005E0
1.315776732E0,1.579262972E0,-9.126225471E0,-3.945764542E0
1.318302149E0,1.473679662E0,-8.834002495E0,-4.211667061E0
1.320827565E0,1.291825175E0,-8.457730293E0,-4.475176334E0
1.323352982E0,1.083350420E0,-8.139185905E0,-4.760221481E0
1.325878347E0,8.437690735E-1,-7.794320583E0,-5.030909538E0
1.328403763E0,5.706881881E-1,-7.477869987E0,-5.292026520E0
1.330929180E0,3.000001311E-1,-7.207181931E0,-5.538786411E0
1.333454597E0,-6.580262445E-3,-6.975078106E0,-5.651248932E0
1.335980013E0,-3.011965454E-1,-6.771389008E0,-5.764010429E0
1.338505430E0,-5.503492355E-1,-6.584449768E0,-5.773581982E0
1.341030794E0,-7.875377536E-1,-6.409474373E0,-5.785545826E0
1.343556211E0,-1.094118118E0,-6.218048573E0,-5.768796444E0
1.346079232E0,-1.398305774E0,-6.088537216E0,-5.720640659E0
1.348604649E0,-1.717149377E0,-5.909075737E0,-5.730212212E0
1.351130065E0,-2.042872429E0,-5.729314804E0,-5.636891842E0
1.353655482E0,-2.306381941E0,-5.614160061E0,-5.519643784E0
1.356180847E0,-2.610569477E0,-5.444269657E0,-5.378168106E0
1.358706263E0,-2.938685417E0,-5.264508724E0,-5.152943611E0
1.361231680E0,-3.228515863E0,-5.132903576E0,-4.956732273E0
1.363757097E0,-3.441776276E0,-5.027320385E0,-4.731507778E0
1.366282513E0,-3.619144201E0,-4.948357105E0,-4.477569580E0
1.368807930E0,-3.789034605E0,-4.991427898E0,-4.199702740E0
1.371333294E0,-3.906582117E0,-5.187938690E0,-3.924229145E0
1.373858711E0,-4.050151348E0,-5.441876888E0,-3.722932816E0
1.376381732E0,-4.246662140E0,-5.602196217E0,-3.629612923E0
1.378907149E0,-4.450351238E0,-5.829813480E0,-3.339782238E0
1.381432565E0,-4.507778645E0,-6.145965099E0,-3.032902718E0
1.383957982E0,-4.459922314E0,-6.462415695E0,-2.745464802E0
1.386483347E0,-4.424029827E0,-6.749853611E0,-2.517847538E0
1.389008763E0,-4.196412563E0,-7.070790768E0,-2.278565407E0
1.391534180E0,-3.935296059E0,-7.353443146E0,-2.055733681E0
1.394059597E0,-3.537489176E0,-7.655237675E0,-1.799402595E0
1.396585013E0,-3.111267567E0,-7.921140194E0,-1.509572029E0
1.399110430E0,-2.720639229E0,-8.076972961E0,-1.322632670E0
1.401635794E0,-2.373380899E0,-8.103293419E0,-1.234098315E0
1.404161211E0,-1.686042666E0,-8.268398285E0,-1.044766188E0
1.406684232E0,-9.792626500E-1,-8.436195374E0,-7.740781307E-1
1.409209649E0,-3.732803464E-1,-8.493622780E0,-5.775675774E-1
1.411735065E0,1.417747438E-1,-8.479266167E0,-3.933202326E-1
1.414260482E0,6.089733839E-1,-8.467302322E0,-2.901297510E-1
1.416785847E0,8.868398666E-1,-8.486444473E0,-2.422732860E-1
1.419311263E0,1.205384374E0,-8.484051704E0,-1.079761237E-1
1.421836680E0,1.540977836E0,-8.455337524E0,9.062815458E-2
1.424362097E0,1.789831281E0,-8.388339043E0,1.507478207E-1
1.426887513E0,1.847558141E0,-8.311768532E0,2.225325108E-1
1.429412930E0,1.857129455E0,-8.251648903E0,2.584248483E-1
1.431938294E0,1.814058661E0,-8.158329010E0,3.684946895E-1
1.434463711E0,1.782652855E0,-8.127222061E0,4.501497746E-1
1.436986732E0,1.629512191E0,-8.007282257E0,6.104688644E-1
1.439512149E0,1.428215981E0,-7.961818218E0,7.710871100E-1
1.442037565E0,1.179063320E0,-7.978568077E0,1.027418256E0
1.444562982E0,8.461619020E-1,-8.055437088E0,1.492223978E0
1.447088347E0,5.419743061E-1,-8.146365166E0,1.928016901E0
1.449613763E0,2.377867550E-1,-8.266005516E0,2.071885347E0
1.452139180E0,1.393819153E-1,-8.467302322E0,2.126920223E0
1.454664597E0,6.999006122E-2,-8.680562019E0,2.184347868E0
1.457190013E0,-1.193420291E-1,-8.836395264E0,2.258525372E0
1.459715430E0,-3.804588020E-1,-8.932107925E0,2.241775751E0
1.462240794E0,-6.248258352E-1,-9.030213356E0,2.112563372E0
1.464766211E0,-8.688937426E-1,-9.142974854E0,1.918445587E0
1.467289232E0,-1.029511929E0,-9.281759262E0,1.614257932E0
1.469814649E0,-1.053440213E0,-9.360722542E0,1.262213945E0
1.472340065E0,-1.012762189E0,-9.499805450E0,9.580263495E-1
1.474865482E0,-9.361918569E-1,-9.552447319E0,6.487540603E-1
1.477390847E0,-7.899305820E-1,-9.573982239E0,2.488535494E-1
1.479916263E0,-6.391827464E-1,-9.578767776E0,-2.279163599E-1
1.482441680E0,-4.785645306E-1,-9.559625626E0,-7.453642488E-1
1.484967097E0,-3.203391433E-1,-9.502198219E0,-1.439880967E0
1.487492513E0,-1.193420291E-1,-9.423234940E0,-2.153839588E0
1.490017930E0,1.298106313E-1,-9.387342453E0,-2.882154942E0
1.492543294E0,4.435695112E-1,-9.360722542E0,-3.608077526E0
1.495068711E0,6.759724021E-1,-9.406484604E0,-4.249952316E0
1.497591732E0,8.413762450E-1,-9.437591553E0,-4.860720158E0
1.500117149E0,1.047458172E0,-9.518947601E0,-5.449952602E0
1.502642565E0,1.188634634E0,-9.583553314E0,-5.986543179E0
1.505167982E0,1.262812138E0,-9.772886276E0,-6.460920334E0
1.507693347E0,1.262812138E0,-9.988538742E0,-6.935297489E0
1.510218763E0,1.205384374E0,-1.021615601E1,-7.205985546E0
1.512744180E0,1.054636598E0,-1.045813084E1,-7.419245720E0
1.515269597E0,9.011968374E-1,-1.076471043E1,-7.435995579E0
1.517795013E0,7.070791125E-1,-1.099472141E1,-7.091129780E0
1.520320430E0,4.701896608E-1,-1.108804131E1,-6.391528606E0
1.522845794E0,2.712862790E-1,-1.114786148E1,-5.476572990E0
1.525371211E0,1.369891018E-1,-1.116700459E1,-4.319344044E0
1.527894284E0,4.606183618E-2,-1.103539848E1,-3.193521023E0
1.530419701E0,1.010967568E-1,-1.081735325E1,-2.168196440E0
1.532945117E0,1.800599098E-1,-1.050837994E1,-1.427916884E0
1.535470534E0,2.377867550E-1,-1.019701385E1,-9.394819736E-1
1.537995899E0,2.162513435E-1,-9.890133858E0,-6.687939167E-1
1.540521315E0,1.202393398E-1,-9.650852203E0,-5.440680385E-1
1.543046732E0,-2.333002165E-2,-9.437591553E0,-5.919244885E-1
1.545572149E0,-2.006980032E-1,-9.207581520E0,-7.453642488E-1
1.548097565E0,-3.131606579E-1,-8.872286797E0,-9.152546525E-1
1.550622982E0,-4.354937077E-1,-8.543871880E0,-1.140479088E0
1.553148347E0,-5.551348329E-1,-8.292326927E0,-1.420738459E0
1.555673763E0,-5.599204898E-1,-8.004889488E0,-1.626820326E0
1.558196784E0,-5.766702294E-1,-7.755736351E0,-1.866401672E0
1.560722201E0,-6.367899179E-1,-7.502097130E0,-2.189731836E0
1.563247617E0,-6.894320250E-1,-7.341478825E0,-2.611466885E0
1.565773034E0,-7.396813035E-1,-7.264908791E0,-3.061616659E0
1.568298399E0,-7.492526174E-1,-7.264908791E0,-3.485744476E0
1.570823815E0,-7.779664397E-1,-7.286444187E0,-3.890729666E0
1.573349232E0,-7.588238716E-1,-7.339086056E0,-4.086941242E0
1.575874649E0,-6.990033388E-1,-7.425227642E0,-4.170989037E0
1.578400065E0,-6.822535396E-1,-7.494918823E0,-4.264308929E0
1.580925482E0,-6.056832075E-1,-7.542775154E0,-4.288237095E0
1.583450847E0,-5.431707501E-1,-7.518846989E0,-4.247559071E0
1.585976263E0,-5.623133183E-1,-7.492226601E0,-4.211667061E0
1.588499232E0,-6.224330068E-1,-7.482655525E0,-4.122833252E0
1.591024649E0,-7.253243923E-1,-7.413263798E0,-3.979264021E0
1.593550065E0,-8.763712645E-1,-7.427620411E0,-3.706183195E0
1.596075482E0,-9.529415965E-1,-7.434799194E0,-3.409173965E0
1.598600847E0,-1.036690354E0,-7.446763039E0,-3.023331404E0
1.601126263E0,-1.125224829E0,-7.374978542E0,-2.609073877E0
1.603651680E0,-1.211665511E0,-7.372585773E0,-2.058126688E0
1.606177097E0,-1.348056436E0,-7.331907749E0,-1.564606905E0
1.608702513E0,-1.470389485E0,-7.305586815E0,-1.190728426E0
1.611227930E0,-1.606780410E0,-7.219145775E0,-7.932206988E-1
1.613753294E0,-1.788933992E0,-7.140182972E0,-6.640082598E-1
1.616278711E0,-2.026122570E0,-7.101897717E0,-8.027920127E-1
1.618801784E0,-2.392523527E0,-7.092326164E0,-1.198205948E0
1.621327201E0,-2.842972517E0,-7.154539585E0,-1.780260086E0
1.623852617E0,-3.252444267E0,-7.231409073E0,-2.424527645E0
1.626378034E0,-3.664607763E0,-7.367800236E0,-3.143271685E0
1.628903399E0,-3.952045679E0,-7.583453178E0,-3.849752426E0
1.631428815E0,-4.179663181E0,-7.796713352E0,-4.381557465E0
1.633954232E0,-4.263411522E0,-8.112865448E0,-4.841577530E0
1.636479649E0,-4.296911240E0,-8.366803169E0,-5.131408215E0
1.639005065E0,-4.227519512E0,-8.642276764E0,-5.188836098E0
1.641530482E0,-4.153341770E0,-8.821739197E0,-5.102694511E0
1.644055847E0,-4.107878208E0,-9.032606125E0,-5.002195835E0
1.646581263E0,-4.115056515E0,-9.209974289E0,-4.757828712E0
1.649104232E0,-4.059722900E0,-9.308079720E0,-4.585246563E0
1.651629649E0,-3.932903051E0,-9.483055115E0,-4.601995945E0
1.654155065E0,-3.781856298E0,-9.646066666E0,-4.757828712E0
1.656680482E0,-3.559323788E0,-9.911968231E0,-5.176871777E0
1.659205847E0,-3.262015581E0,-1.026879883E1,-5.780760288E0
1.661731263E0,-3.013161898E0,-1.065673447E1,-6.501598358E0
1.664256680E0,-2.780759096E0,-1.115025425E1,-7.227520943E0
1.666782097E0,-2.660818815E0,-1.167009544E1,-7.905586720E0
1.669307513E0,-2.555534601E0,-1.218754292E1,-8.454141617E0
1.671832930E0,-2.541177750E0,-1.281984615E1,-8.868398666E0
1.674358294E0,-2.560320139E0,-1.349073410E1,-9.122337341E0
1.676883711E0,-2.629712105E0,-1.426451302E1,-9.309276581E0
1.679406784E0,-2.732603550E0,-1.499043560E1,-9.481559753E0
1.681931888E0,-2.759223700E0,-1.563230991E1,-9.553643227E0
1.684456992E0,-2.684746981E0,-1.632951927E1,-9.256634712E0
1.686982044E0,-2.486142635E0,-1.713919067E1,-8.492426872E0
1.689507149E0,-2.280060768E0,-1.803021812E1,-7.668398380E0
1.692032253E0,-2.284846544E0,-1.879681778E1,-6.944868565E0
1.694557357E0,-2.533999205E0,-1.952962112E1,-6.192625046E0
1.697082461E0,-2.948256493E0,-2.011197281E1,-5.380560875E0
1.699607513E0,-3.391526937E0,-2.050948143E1,-4.537389755E0
1.702132617E0,-3.796213150E0,-2.087348938E1,-3.926621914E0
1.704657722E0,-4.124628067E0,-2.119951057E1,-3.473780155E0
1.707182826E0,-4.502993107E0,-2.138615227E1,-3.155235767E0
1.709748711E0,-4.804787636E0,-2.145823479E1,-2.941975355E0
1.712273763E0,-5.089832783E0,-2.138375854E1,-2.812762976E0
1.714798867E0,-5.398806095E0,-2.112024879E1,-2.757428885E0
1.717323972E0,-5.624030590E0,-2.071317101E1,-2.719143867E0
1.719849076E0,-5.688935757E0,-2.021247292E1,-2.714358091E0
1.722374180E0,-5.722435474E0,-1.963281059E1,-2.812762976E0
1.724899232E0,-5.535496235E0,-1.907707787E1,-3.042474031E0
1.727424336E0,-5.193023205E0,-1.837508392E1,-3.320340633E0
1.729949440E0,-4.740181446E0,-1.767578125E1,-3.689433336E0
1.732474544E0,-4.313661098E0,-1.693550110E1,-4.027120590E0
1.734999649E0,-3.841975927E0,-1.618325806E1,-4.182952881E0
1.737524701E0,-3.401098251E0,-1.542622852E1,-4.340879440E0
1.740011784E0,-2.972184896E0,-1.472692585E1,-4.424927235E0
1.742536888E0,-2.579462767E0,-1.411346626E1,-4.376771927E0
1.745061992E0,-2.296810627E0,-1.354337597E1,-4.283451557E0
1.747587044E0,-2.073979139E0,-1.299721432E1,-4.139882088E0
1.750112149E0,-1.891825438E0,-1.243908882E1,-3.859323740E0
1.752637253E0,-1.757827282E0,-1.191924763E1,-3.552743435E0
1.755162357E0,-1.700399637E0,-1.142812061E1,-3.157628536E0
1.757687461E0,-1.712363720E0,-1.086760235E1,-2.872583628E0
1.760212513E0,-1.786541224E0,-1.030469036E1,-2.719143867E0
1.762737617E0,-1.947159410E0,-9.713065147E0,-2.690429926E0
1.765262722E0,-2.220240355E0,-9.087641716E0,-2.726322412E0
1.767787826E0,-2.481357098E0,-8.462516785E0,-2.877369165E0
1.770314232E0,-2.778366089E0,-7.820641518E0,-2.937189817E0
1.772839336E0,-3.010469913E0,-7.204789162E0,-3.093022346E0
1.775364440E0,-3.235694408E0,-6.687341213E0,-3.238984585E0
1.777889492E0,-3.439383507E0,-6.167799473E0,-3.385245800E0
1.780414597E0,-3.628715515E0,-5.669494152E0,-3.547957659E0
1.782939701E0,-3.849154234E0,-5.298008442E0,-3.691826344E0
1.785464805E0,-4.110270977E0,-5.022534847E0,-3.907479286E0
1.787989909E0,-4.347160339E0,-4.833501816E0,-4.216452599E0
1.790514961E0,-4.627718925E0,-4.833501816E0,-4.570889473E0
1.793040065E0,-4.862215519E0,-4.823930264E0,-4.922933578E0
1.795565169E0,-5.101797104E0,-4.924428940E0,-5.311169147E0
1.798090274E0,-5.315057278E0,-5.113760948E0,-5.572285652E0
1.800616732E0,-5.432604790E0,-5.432305813E0,-5.838188171E0
1.803141836E0,-5.516353607E0,-5.810670853E0,-5.965007782E0
1.805666940E0,-5.490032673E0,-6.227620125E0,-6.022734642E0
1.808191992E0,-5.444568634E0,-6.629913330E0,-6.005685806E0
1.810717097E0,-5.315057278E0,-7.109076023E0,-6.013163090E0
1.813242201E0,-5.125725269E0,-7.485048294E0,-5.974578857E0
1.815767305E0,-4.852644444E0,-7.873283863E0,-5.886044502E0
1.818292409E0,-4.495814800E0,-8.182256699E0,-5.665606022E0
1.820817461E0,-4.205984116E0,-8.393124580E0,-5.397310734E0
1.823342565E0,-3.892225027E0,-8.515158653E0,-5.162514687E0
1.825867669E0,-3.664607763E0,-8.637491226E0,-4.954339504E0
1.828392774E0,-3.472882986E0,-8.635098457E0,-4.760221481E0
1.830919232E0,-3.286242723E0,-8.659027100E0,-4.520640373E0
1.833444336E0,-3.151945591E0,-8.639883995E0,-4.230809689E0
1.835969440E0,-3.039483070E0,-8.637491226E0,-4.003192425E0
1.838494492E0,-2.981756210E0,-8.572885513E0,-3.770789385E0
1.841019597E0,-2.898007393E0,-8.510373116E0,-3.610470295E0
1.843544701E0,-2.909971476E0,-8.460124016E0,-3.437887907E0
1.846069805E0,-2.945863724E0,-8.328517914E0,-3.262912750E0
1.848594909E0,-2.919542789E0,-8.179863930E0,-3.069094181E0
1.851119961E0,-2.814258575E0,-8.096115112E0,-2.882154942E0
1.853645065E0,-2.703889608E0,-8.000102997E0,-2.594717026E0
1.856170169E0,-2.703889608E0,-7.890033722E0,-2.412563324E0
1.858695274E0,-2.701496840E0,-7.796713352E0,-2.302493572E0
1.861261211E0,-2.711068153E0,-7.652844906E0,-2.110768557E0
1.863786263E0,-2.819044113E0,-7.444370270E0,-2.022234201E0
1.866311367E0,-2.931506872E0,-7.255337238E0,-1.904686809E0
1.868836472E0,-3.017947674E0,-7.073183537E0,-1.758724689E0
1.871361576E0,-3.096910715E0,-6.936493874E0,-1.739582062E0
1.873886680E0,-3.228515863E0,-6.780960083E0,-1.667498231E0
1.876411732E0,-3.381955624E0,-6.634698868E0,-1.662712693E0
1.878936836E0,-3.515953779E0,-6.512664795E0,-1.715354681E0
1.881461940E0,-3.745963812E0,-6.359225273E0,-1.758724689E0
1.883987044E0,-3.875475407E0,-6.246762753E0,-1.780260086E0
1.886512149E0,-3.987937927E0,-6.117250919E0,-1.792224169E0
1.889037201E0,-4.069293976E0,-5.937789440E0,-1.794616938E0
1.891524232E0,-4.172484398E0,-5.822634697E0,-1.775474429E0
1.894049336E0,-4.186841488E0,-5.748457432E0,-1.737189293E0
1.896574440E0,-4.146163464E0,-5.556732178E0,-1.751546144E0
1.899099492E0,-4.134199142E0,-5.389235020E0,-1.775474429E0
1.901624597E0,-4.078865528E0,-5.219045162E0,-1.883151412E0
1.904149701E0,-4.081557274E0,-5.056034088E0,-2.065304995E0
1.906674805E0,-4.066901207E0,-4.883750916E0,-2.220838547E0
1.909199909E0,-4.016652107E0,-4.742275238E0,-2.429313183E0
1.911724961E0,-3.952045679E0,-4.586741924E0,-2.673680305E0
1.914250065E0,-3.925724745E0,-4.409373760E0,-2.848655462E0
1.916775169E0,-3.875475407E0,-4.243969917E0,-3.081058264E0
1.919300274E0,-3.825226068E0,-4.059722900E0,-3.294019461E0
1.921826732E0,-3.741178274E0,-3.848855257E0,-3.490530014E0
1.924351836E0,-3.662214994E0,-3.649951935E0,-3.694219112E0
1.926876940E0,-3.525525093E0,-3.492025614E0,-3.960121393E0
1.929401992E0,-3.389134169E0,-3.379263878E0,-4.144668102E0
1.931927097E0,-3.276372433E0,-3.201895714E0,-4.312165737E0
1.934452201E0,-3.125624657E0,-3.087040424E0,-4.424927235E0
1.936977305E0,-2.967399120E0,-2.938386202E0,-4.611567497E0
1.939502409E0,-2.809472799E0,-2.871387243E0,-4.774578571E0
1.942027461E0,-2.641676188E0,-2.770888567E0,-4.899005413E0
1.944552617E0,-2.459522486E0,-2.679961443E0,-4.995017052E0
1.947077669E0,-2.270489693E0,-2.617448807E0,-5.119443893E0
1.949602774E0,-2.117049932E0,-2.569592476E0,-5.200799942E0
1.952129232E0,-1.887039781E0,-2.576770782E0,-5.176871777E0
1.954654336E0,-1.657029629E0,-2.536092997E0,-5.181657314E0
1.957179440E0,-1.451246977E0,-2.634198666E0,-5.174479008E0
1.959704492E0,-1.233201027E0,-2.696711063E0,-5.112265587E0
1.962229597E0,-1.019940615E0,-2.768495798E0,-5.088337421E0
1.964754701E0,-8.186444640E-1,-2.766103029E0,-5.088337421E0
1.967279805E0,-6.846463680E-1,-2.859423161E0,-5.026124001E0
1.969804909E0,-5.742774606E-1,-2.933600664E0,-4.932504654E0
1.972329961E0,-4.642075896E-1,-2.928814888E0,-4.808077812E0
1.974855065E0,-3.203391433E-1,-2.943171740E0,-4.688436985E0
1.977380169E0,-1.624128371E-1,-2.996113062E0,-4.537389755E0
1.979905274E0,-7.148557901E-2,-3.065505028E0,-4.355236530E0
1.982431732E0,6.041877344E-2,-3.166003466E0,-4.209274292E0
1.984956836E0,1.369891018E-1,-3.281157970E0,-4.065405846E0
1.987481940E0,2.521436810E-1,-3.376870871E0,-3.897907972E0
1.990006992E0,3.598206937E-1,-3.477369547E0,-3.758825302E0
1.992532097E0,4.531407952E-1,-3.606881142E0,-3.583850145E0
1.995057201E0,5.228317380E-1,-3.704986811E0,-3.468994617E0
1.997582305E0,5.563312769E-1,-3.872783422E0,-3.354139090E0
2.000107409E0,5.994020700E-1,-4.076472282E0,-3.224627733E0
2.002632461E0,5.970092416E-1,-4.243969917E0,-3.056830883E0
2.005157565E0,6.209374666E-1,-4.406980991E0,-2.915654421E0
2.007682669E0,5.467599630E-1,-4.603491783E0,-2.769393206E0
2.010207774E0,4.603192508E-1,-4.766203403E0,-2.735893488E0
2.012734232E0,3.741776347E-1,-5.027320385E0,-2.623430967E0
2.015259336E0,3.023929596E-1,-5.204688549E0,-2.532503605E0
2.017784440E0,1.824527234E-1,-5.432305813E0,-2.438884497E0
2.020309492E0,4.606183618E-2,-5.707779408E0,-2.376671076E0
2.022834597E0,-6.909275055E-2,-5.961717606E0,-2.355135679E0
2.025359701E0,-1.839482337E-1,-6.167799473E0,-2.319243431E0
2.027884805E0,-2.844468057E-1,-6.421438694E0,-2.312064886E0
2.030409909E0,-3.684946895E-1,-6.670591354E0,-2.328814745E0
2.032934961E0,-5.312066078E-1,-6.926922321E0,-2.362314224E0
2.035460065E0,-6.655037999E-1,-7.171289444E0,-2.472383976E0
2.037985169E0,-8.210372925E-1,-7.441977501E0,-2.532503605E0
2.040510274E0,-1.089332461E0,-7.660023689E0,-2.644966364E0
2.043036732E0,-1.295414329E0,-7.945068359E0,-2.745464802E0
2.045561836E0,-1.491924882E0,-8.282755852E0,-2.836691141E0
2.048086940E0,-1.618744493E0,-8.603992462E0,-2.987439156E0
2.050611992E0,-1.757827282E0,-8.845966339E0,-3.140878916E0
2.053137097E0,-1.867897153E0,-9.058927536E0,-3.227020502E0
2.055662201E0,-2.018944025E0,-9.300901413E0,-3.356531858E0
2.058187305E0,-2.117049932E0,-9.569196701E0,-3.418745279E0
2.060712409E0,-2.152942181E0,-9.823135376E0,-3.473780155E0
2.063237461E0,-2.213061810E0,-1.008664513E1,-3.504886866E0
2.065762565E0,-2.191227436E0,-1.023769188E1,-3.538386583E0
2.068287669E0,-2.126621008E0,-1.035972595E1,-3.555136204E0
2.070812774E0,-2.102692842E0,-1.043898773E1,-3.574278831E0
2.073339232E0,-2.040479422E0,-1.045334530E1,-3.571886063E0
2.075864336E0,-1.983051777E0,-1.038126087E1,-3.564707518E0
2.078389440E0,-1.920539260E0,-1.024726295E1,-3.516851187E0
2.080914492E0,-1.772184253E0,-1.004835987E1,-3.473780155E0
2.083439597E0,-1.666600943E0,-9.803992271E0,-3.421138287E0
2.085964701E0,-1.484746456E0,-9.490233421E0,-3.356531858E0
2.088489805E0,-1.319342613E0,-9.178867340E0,-3.380460262E0
2.091014909E0,-1.142273664E0,-8.812167168E0,-3.449851990E0
2.093539961E0,-1.003190875E0,-8.464909554E0,-3.466601849E0
2.096065065E0,-8.907282352E-1,-8.091329575E0,-3.581457376E0
2.098590169E0,-7.396813035E-1,-7.808677673E0,-3.634398460E0
2.101115274E0,-6.056832075E-1,-7.420442104E0,-3.653541088E0
2.103641732E0,-5.551348329E-1,-7.070790768E0,-3.535993576E0
2.106166836E0,-5.623133183E-1,-6.850352287E0,-3.334996462E0
2.108691940E0,-5.790630579E-1,-6.617949009E0,-3.160021305E0
2.111216992E0,-5.814558864E-1,-6.495915413E0,-2.989831924E0
2.113742097E0,-6.607181430E-1,-6.414260387E0,-2.865405083E0
2.116267201E0,-7.636095285E-1,-6.301797390E0,-2.848655462E0
2.118792305E0,-7.971090674E-1,-6.308976173E0,-2.714358091E0
2.121317409E0,-8.593224287E-1,-6.371189594E0,-2.618645191E0
2.123842461E0,-1.084546804E0,-6.378367901E0,-2.566003084E0
2.126367565E0,-1.321735382E0,-6.371189594E0,-2.594717026E0
2.128892669E0,-1.686042666E0,-6.304190159E0,-2.616252422E0
2.131417774E0,-1.992623091E0,-6.294619083E0,-2.534896374E0
2.133944232E0,-2.191227436E0,-6.323332787E0,-2.529811859E0
2.136469336E0,-2.296810627E0,-6.457630157E0,-2.510669231E0
2.138994440E0,-2.397309303E0,-6.596413612E0,-2.429313183E0
2.141519492E0,-2.459522486E0,-6.759424686E0,-2.436491728E0
2.144044597E0,-2.493321180E0,-6.941279411E0,-2.443670034E0
2.146569701E0,-2.620140791E0,-7.087540627E0,-2.472383976E0
2.149094805E0,-2.780759096E0,-7.291229725E0,-2.534896374E0
2.151619909E0,-2.950649500E0,-7.497311592E0,-2.568396091E0
2.154144961E0,-3.166302681E0,-7.643273830E0,-2.659323215E0
2.156670065E0,-3.425026417E0,-7.834998608E0,-2.783750057E0
2.159195169E0,-3.633501291E0,-8.055437088E0,-2.822334290E0
2.161720274E0,-3.834797382E0,-8.270791054E0,-2.884547710E0
2.164246732E0,-4.062115669E0,-8.445766449E0,-2.925225735E0
2.166771836E0,-4.275375843E0,-8.642276764E0,-2.987439156E0
2.169296940E0,-4.491028786E0,-8.903393745E0,-2.975475073E0
2.171821992E0,-4.716253281E0,-9.099904060E0,-2.982653379E0
2.174347097E0,-4.831109047E0,-9.293723106E0,-3.001796007E0
2.176872201E0,-4.982155800E0,-9.502198219E0,-2.968296528E0
2.179397305E0,-5.075475693E0,-9.631410599E0,-2.961117983E0
2.181922409E0,-5.228915691E0,-9.815957069E0,-2.918047190E0
2.184447461E0,-5.293521881E0,-9.827920914E0,-2.920439959E0
2.186972565E0,-5.319842815E0,-9.820742607E0,-2.913261652E0
2.189497669E0,-5.372485161E0,-9.770493507E0,-2.874976397E0
2.192022774E0,-5.355735302E0,-9.662816048E0,-2.846262455E0
2.194549232E0,-5.291129112E0,-9.506983757E0,-2.798406124E0
2.197074440E0,-5.161916733E0,-9.360722542E0,-2.738286495E0
2.199599597E0,-5.085047245E0,-9.128618240E0,-2.668894529E0
2.202124805E0,-4.941477776E0,-8.917751312E0,-2.652144909E0
2.204649961E0,-4.807180882E0,-8.680562019E0,-2.582752943E0
2.207175169E0,-4.661218643E0,-8.426624298E0,-2.549253464E0
2.209700326E0,-4.522135735E0,-8.160721779E0,-2.542074919E0
2.212225534E0,-4.380959034E0,-7.933104515E0,-2.505883455E0
2.214750742E0,-4.222733974E0,-7.695915699E0,-2.513062000E0
2.217275899E0,-4.098307133E0,-7.494918823E0,-2.508276224E0
2.219801107E0,-3.980759621E0,-7.274479866E0,-2.570788860E0
2.222326263E0,-3.911367655E0,-7.054041386E0,-2.623430967E0
2.224851732E0,-3.789034605E0,-6.886244297E0,-2.680858612E0
2.227376940E0,-3.729214191E0,-6.766603470E0,-2.795714140E0
2.229902097E0,-3.812962770E0,-6.637091637E0,-2.894119024E0
2.232427305E0,-3.916153431E0,-6.536593437E0,-2.970689297E0
2.234952461E0,-4.023830414E0,-6.493522644E0,-3.064009428E0
2.237477669E0,-4.196412563E0,-6.613163471E0,-3.205485106E0
2.240002826E0,-4.366602421E0,-6.850352287E0,-3.325126171E0
2.242528034E0,-4.483850479E0,-7.185646534E0,-3.461816072E0
2.245053242E0,-4.663611412E0,-7.578667641E0,-3.586242914E0
2.247578399E0,-4.833501816E0,-7.995317936E0,-3.725325823E0
2.250103607E0,-4.986941338E0,-8.457730293E0,-3.929014683E0
2.252628763E0,-5.190630436E0,-8.977571487E0,-4.134797573E0
2.255154232E0,-5.271986485E0,-9.559625626E0,-4.333701134E0
2.257679440E0,-5.343770981E0,-1.009860897E1,-4.566103935E0
2.260204597E0,-5.274379253E0,-1.066152000E1,-4.896612644E0
2.262729805E0,-5.032404900E0,-1.120289612E1,-5.222634315E0
2.265254961E0,-4.752145767E0,-1.177567863E1,-5.498108387E0
2.267780169E0,-4.306482315E0,-1.236969662E1,-5.706283569E0
2.270305326E0,-3.798605919E0,-1.292542934E1,-5.723033428E0
2.272830534E0,-3.161516905E0,-1.347877026E1,-5.639284611E0
2.275355742E0,-2.524427891E0,-1.397707558E1,-5.490929604E0
2.277880899E0,-1.899003863E0,-1.435544014E1,-5.339882851E0
2.280406107E0,-1.324128270E0,-1.476042557E1,-5.167300701E0
2.282931263E0,-8.763712645E-1,-1.518425465E1,-4.954339504E0
2.285456732E0,-4.737788737E-1,-1.559641838E1,-4.721936226E0
2.287981940E0,-1.719841212E-1,-1.603699684E1,-4.448855400E0
2.290507097E0,-5.443671346E-2,-1.659302902E1,-4.029513359E0
2.293032305E0,-5.682953820E-2,-1.722054672E1,-3.682255030E0
2.295557461E0,-1.480558962E-1,-1.784567070E1,-3.433102369E0
2.298082669E0,-3.107678294E-1,-1.849023819E1,-3.253341436E0
2.300607826E0,-4.785645306E-1,-1.922064781E1,-3.085843801E0
2.303133034E0,-6.870391965E-1,-1.982214355E1,-2.963510752E0
2.305658242E0,-7.995018363E-1,-2.029382706E1,-2.946761131E0
2.308183399E0,-9.672985673E-1,-2.058605194E1,-2.977867842E0
2.310708607E0,-1.118046403E0,-2.070359802E1,-2.973082066E0
2.313233763E0,-1.110867858E0,-2.037069702E1,-2.963510752E0
2.315759232E0,-8.955138922E-1,-1.956341934E1,-2.925225735E0
2.318284440E0,-7.277171612E-1,-1.848066711E1,-2.851048231E0
2.320809597E0,-6.774678826E-1,-1.728993797E1,-2.872583628E0
2.323334805E0,-7.564310431E-1,-1.615933037E1,-2.918047190E0
2.325859961E0,-1.055832982E0,-1.508854103E1,-2.982653379E0
2.328385169E0,-1.654636860E0,-1.408714485E1,-3.109772205E0
2.330910326E0,-2.486142635E0,-1.319611740E1,-3.354139090E0
2.333435534E0,-3.513561010E0,-1.252044487E1,-3.818645954E0
2.335960742E0,-4.701896667E0,-1.213729382E1,-4.441677094E0
2.338485899E0,-6.029015541E0,-1.200778198E1,-5.090730190E0
2.341011107E0,-7.332206726E0,-1.211815071E1,-5.921936989E0
2.343536263E0,-8.654540062E0,-1.236969662E1,-6.686144829E0
2.346061732E0,-9.524032593E0,-1.280070400E1,-6.681358814E0
2.348586940E0,-9.504889488E0,-1.325354576E1,-5.948257923E0
2.351112097E0,-8.719146729E0,-1.373270798E1,-5.514857769E0
2.353637305E0,-7.332206726E0,-1.411346626E1,-5.967400551E0
2.356162461E0,-5.176273346E0,-1.451605892E1,-7.148557663E0
2.358687669E0,-2.615355253E0,-1.479631805E1,-8.722436905E0
2.361212826E0,-1.360917836E-1,-1.514357662E1,-1.017876816E1
2.363738034E0,2.043769598E0,-1.543340683E1,-1.072492981E1
2.366263242E0,3.893122435E0,-1.551237011E1,-1.009501934E1
2.368788399E0,5.366502762E0,-1.540708637E1,-8.765507698E0
2.371313607E0,6.578467846E0,-1.505264950E1,-7.296912670E0
2.373838763E0,7.778767109E0,-1.473889065E1,-6.080162525E0
2.376364232E0,8.801698685E0,-1.443679619E1,-5.167300701E0
2.378889440E0,9.448359489E0,-1.418794250E1,-4.422534466E0
2.381414597E0,9.778867722E0,-1.409671593E1,-3.893122435E0
2.383939805E0,9.726225853E0,-1.396750355E1,-3.315554857E0
2.386464961E0,9.280562401E0,-1.390499115E1,-2.704786777E0
2.388990169E0,8.691329956E0,-1.382363510E1,-2.089233160E0
2.391515326E0,8.049455643E0,-1.377338600E1,-1.483250976E0
2.394040534E0,7.299604416E0,-1.377577877E1,-8.075776696E-1
2.396565742E0,6.504290104E0,-1.389781284E1,-2.422732860E-1
2.399090899E0,5.680262089E0,-1.402014637E1,3.852444589E-1
2.401616107E0,4.805984497E0,-1.428604889E1,9.098708034E-1
2.404141263E0,3.909872293E0,-1.450409412E1,1.326820135E0
2.406666732E0,3.042773008E0,-1.468116379E1,1.607079506E0
2.409191940E0,2.134995937E0,-1.482981777E1,1.803590059E0
2.411717097E0,1.214955688E0,-1.494706535E1,1.841875196E0
2.414242305E0,3.933202326E-1,-1.493510151E1,1.875374794E0
2.416767461E0,-2.892324328E-1,-1.487767410E1,1.794018745E0
2.419292669E0,-8.835497499E-1,-1.481785297E1,1.678864241E0
2.421817826E0,-1.376770377E0,-1.468594933E1,1.544866085E0
2.424343034E0,-1.702792406E0,-1.448495197E1,1.338784218E0
2.426868242E0,-1.858325839E0,-1.423579884E1,1.080060363E0
2.429393399E0,-1.901396751E0,-1.388824177E1,7.926225066E-1
2.431918607E0,-1.903789520E0,-1.353380489E1,4.956133962E-1
2.434443763E0,-1.803290963E0,-1.317936802E1,1.866401732E-1
2.436969232E0,-1.645065546E0,-1.281266785E1,-1.031904742E-1
2.439494440E0,-1.448854089E0,-1.240080357E1,-4.507479668E-1
2.442019597E0,-1.252343535E0,-1.198624706E1,-7.381857634E-1
2.444544805E0,-1.168594718E0,-1.161266708E1,-1.109372377E0
2.447069961E0,-1.139880896E0,-1.123400307E1,-1.492822170E0
2.449595169E0,-1.185344458E0,-1.087238789E1,-1.868794441E0
2.452120326E0,-1.314556956E0,-1.058255768E1,-2.194517374E0
2.454645534E0,-1.465603828E0,-1.028794098E1,-2.505883455E0
2.457170742E0,-1.741077542E0,-9.990931511E0,-2.860619545E0
2.459695899E0,-2.018944025E0,-9.710672379E0,-3.227020502E0
2.462221107E0,-2.272882462E0,-9.509376526E0,-3.632005692E0
2.464746263E0,-2.488535643E0,-9.365508080E0,-3.948157310E0
2.467271732E0,-2.723032236E0,-9.281759262E0,-4.293023109E0
2.469796940E0,-2.967399120E0,-9.248259544E0,-4.606781960E0
2.472322097E0,-3.202194929E0,-9.284152031E0,-4.784149647E0
2.474847305E0,-3.444169044E0,-9.348757744E0,-4.848755836E0
2.477372461E0,-3.621536970E0,-9.406484604E0,-4.889433861E0
2.479897669E0,-3.745963812E0,-9.461520195E0,-4.848755836E0
2.482422826E0,-3.805784464E0,-9.518947601E0,-4.676472664E0
2.484948034E0,-3.853940010E0,-9.538089752E0,-4.479962349E0
2.487473242E0,-3.846761465E0,-9.542876244E0,-4.235595226E0
2.489998399E0,-3.745963812E0,-9.514162064E0,-4.003192425E0
2.492523607E0,-3.681357622E0,-9.459127426E0,-3.742075443E0
2.495048763E0,-3.611965895E0,-9.389735222E0,-3.507279873E0
2.497574232E0,-3.552145243E0,-9.260223389E0,-3.274876833E0
2.500099440E0,-3.494418383E0,-9.202795982E0,-3.088236809E0
2.502624597E0,-3.446561813E0,-9.082855225E0,-2.913261652E0
2.505149805E0,-3.393919706E0,-8.901000977E0,-2.824727058E0
2.507674961E0,-3.305385351E0,-8.752346992E0,-2.764607430E0
2.510200169E0,-3.226123095E0,-8.630312920E0,-2.635395050E0
2.512725326E0,-3.144767046E0,-8.531908035E0,-2.601895571E0
2.515250534E0,-3.046661377E0,-8.390731812E0,-2.556432009E0
2.517775742E0,-2.967399120E0,-8.222934723E0,-2.594717026E0
2.520300899E0,-2.857329369E0,-8.115258217E0,-2.623430967E0
2.522826107E0,-2.835793972E0,-7.997710705E0,-2.649751902E0
2.525351263E0,-2.831008196E0,-7.921140194E0,-2.728715181E0
2.527876784E0,-2.833401203E0,-7.825427532E0,-2.817548752E0
2.530401992E0,-2.792723179E0,-7.811070442E0,-2.848655462E0
2.532927149E0,-2.802294493E0,-7.775177956E0,-2.910868645E0
2.535452357E0,-2.754437923E0,-7.765606880E0,-2.937189817E0
2.537977513E0,-2.708675146E0,-7.782356739E0,-2.992224693E0
2.540502722E0,-2.691925526E0,-7.818248749E0,-2.968296528E0
2.543027878E0,-2.648854733E0,-7.834998608E0,-2.922832966E0
2.545553086E0,-2.529213428E0,-7.858926773E0,-2.992224693E0
2.548078294E0,-2.459522486E0,-7.909176350E0,-2.997010469E0
2.550603451E0,-2.385344982E0,-8.009675026E0,-3.064009428E0
2.553128659E0,-2.301596165E0,-8.055437088E0,-3.145664454E0
2.555653815E0,-2.244168520E0,-8.057829857E0,-3.255734205E0
2.558179284E0,-2.184048891E0,-8.108079910E0,-3.349353552E0
2.560704492E0,-2.097907305E0,-8.124829292E0,-3.528815269E0
2.563229649E0,-2.030908108E0,-8.122436523E0,-3.670290947E0
2.565754857E0,-1.925324917E0,-8.160721779E0,-3.813860178E0
2.568280013E0,-1.899003863E0,-8.184649467E0,-3.950550079E0
2.570805222E0,-1.841576099E0,-8.218149185E0,-4.082155228E0
2.573330378E0,-1.745863199E0,-8.206185341E0,-4.245166302E0
2.575855586E0,-1.762612939E0,-8.220541954E0,-4.364807606E0
2.578380794E0,-1.733899117E0,-8.237292290E0,-4.484747887E0
2.580905951E0,-1.705185294E0,-8.196614265E0,-4.578067780E0
2.583431159E0,-1.674078584E0,-8.182256699E0,-4.640281200E0
2.585956315E0,-1.652244091E0,-8.105687141E0,-4.702793598E0
2.588481784E0,-1.702792406E0,-8.050651550E0,-4.776971340E0
2.591006992E0,-1.736291885E0,-7.971389771E0,-4.822434902E0
2.593532149E0,-1.800898194E0,-7.846962929E0,-4.860720158E0
2.596057357E0,-1.870290041E0,-7.700701237E0,-4.918148041E0
2.598582513E0,-1.915753603E0,-7.470691204E0,-4.944767952E0
2.601107722E0,-1.951945066E0,-7.274479866E0,-4.910969257E0
2.603632878E0,-1.978266120E0,-6.996613503E0,-4.894219398E0
2.606158086E0,-2.050050735E0,-6.783353329E0,-4.915754795E0
2.608683294E0,-2.107478619E0,-6.572485447E0,-4.966303349E0
2.611208451E0,-2.169692039E0,-6.337689877E0,-4.999803066E0
2.613733659E0,-2.191227436E0,-6.165406704E0,-5.097908497E0
2.616258815E0,-2.246561289E0,-6.035895348E0,-5.150550842E0
2.618784284E0,-2.306381941E0,-5.911468506E0,-5.085944653E0
2.621309492E0,-2.356631279E0,-5.798706532E0,-4.983053207E0
2.623834649E0,-2.370988131E0,-5.679065228E0,-4.903790951E0
2.626359857E0,-2.351845503E0,-5.657529831E0,-4.726722240E0
2.628885013E0,-2.277667999E0,-5.606981754E0,-4.489533424E0
2.631410222E0,-2.145763636E0,-5.592624664E0,-4.283451557E0
2.633935378E0,-1.942373753E0,-5.633601665E0,-4.065405846E0
2.636460586E0,-1.745863199E0,-5.657529831E0,-3.830610037E0
2.638985794E0,-1.503889084E0,-5.724529266E0,-3.689433336E0
2.641510951E0,-1.295414329E0,-5.779563904E0,-3.622434378E0
2.644036159E0,-1.034297585E0,-5.836991787E0,-3.579064369E0
2.646561315E0,-8.210372925E-1,-5.913861275E0,-3.588635683E0
2.649086784E0,-6.415755749E-1,-5.983253002E0,-3.615255833E0
2.651611992E0,-4.929214716E-1,-6.038288116E0,-3.706183195E0
2.654137149E0,-3.493520916E-1,-6.062216282E0,-3.766003847E0
2.656662357E0,-1.983051747E-1,-6.098108292E0,-3.785146236E0
2.659187513E0,-8.105687052E-2,-6.095715523E0,-3.835395575E0
2.661712722E0,2.452643216E-2,-6.090929985E0,-3.833002806E0
2.664237878E0,1.106680483E-1,-6.098108292E0,-3.813860178E0
2.666763086E0,2.018944174E-1,-6.119643688E0,-3.732504129E0
2.669288294E0,3.239283562E-1,-6.148357868E0,-3.641577005E0
2.671813451E0,4.124628007E-1,-6.206084728E0,-3.521636724E0
2.674338659E0,4.651049078E-1,-6.227620125E0,-3.397209883E0
2.676863815E0,5.252245665E-1,-6.289833546E0,-3.282055378E0
2.679389284E0,5.611169338E-1,-6.380760670E0,-3.116950512E0
2.681914492E0,6.305087805E-1,-6.433701992E0,-2.920439959E0
2.684439649E0,6.903293133E-1,-6.570092678E0,-2.587538481E0
2.686964857E0,7.839485407E-1,-6.699604511E0,-2.158625126E0
2.689490013E0,8.844470978E-1,-6.812067032E0,-1.590927958E0
2.692015222E0,1.054636598E0,-6.924529552E0,-8.769695163E-1
2.694540378E0,1.145563841E0,-6.996613503E0,-1.800599098E-1
2.697065586E0,1.219741344E0,-6.994220734E0,4.597210586E-1
2.699590794E0,1.272682548E0,-7.046862602E0,9.747761488E-1
2.702115951E0,1.198205948E0,-7.054041386E0,1.384247899E0
2.704641159E0,1.076171994E0,-6.982256413E0,1.709970832E0
2.707166315E0,9.490532875E-1,-6.919744015E0,1.975873351E0
2.709691784E0,6.975077987E-1,-6.773781776E0,2.198704958E0
2.712216992E0,4.316053987E-1,-6.704390049E0,2.376072884E0
2.714742201E0,6.999006122E-2,-6.594020844E0,2.457428932E0
2.717267409E0,-3.780659735E-1,-6.452844620E0,2.431107759E0
2.719792617E0,-8.835497499E-1,-6.409474373E0,2.313859463E0
2.722317826E0,-1.542174220E0,-6.373582363E0,2.052742720E0
2.724843034E0,-2.208276272E0,-6.375975132E0,1.738684773E0
2.727368190E0,-2.883650303E0,-6.467201233E0,1.429711580E0
2.729893399E0,-3.539881945E0,-6.584449768E0,1.137488008E0
2.732418607E0,-4.016652107E0,-6.761817455E0,8.117650747E-1
2.734943815E0,-4.320839405E0,-7.063612461E0,5.913262963E-1
2.737469024E0,-4.450351238E0,-7.386942387E0,4.166502357E-1
2.739994336E0,-4.282554150E0,-7.691130161E0,1.962114573E-1
2.742519544E0,-3.873082638E0,-7.971389771E0,3.320041299E-2
2.745044753E0,-3.338884830E0,-8.210970879E0,-1.250249892E-1
2.747569961E0,-2.838186741E0,-8.369195938E0,-3.427718580E-1
2.750095169E0,-2.370988131E0,-8.476873398E0,-6.373881102E-1
2.752620378E0,-1.956730723E0,-8.476873398E0,-9.346963167E-1
2.755145586E0,-1.570888042E0,-8.445766449E0,-1.286740422E0
2.757670742E0,-1.314556956E0,-8.390731812E0,-1.655534148E0
2.760195951E0,-1.053440213E0,-8.352446556E0,-1.938186288E0
2.762721159E0,-8.545367718E-1,-8.261219978E0,-2.266601324E0
2.765246367E0,-7.564310431E-1,-8.146365166E0,-2.503490686E0
2.767771576E0,-7.253243923E-1,-8.002495766E0,-2.726322412E0
2.770296784E0,-7.875377536E-1,-7.851748466E0,-2.934797049E0
2.772821992E0,-9.122636318E-1,-7.724629879E0,-3.114557743E0
2.775347201E0,-1.098903775E0,-7.554739475E0,-3.229413271E0
2.777872409E0,-1.355234981E0,-7.434799194E0,-3.397209883E0
2.780397617E0,-1.601994753E0,-7.257730007E0,-3.547957659E0
2.782922826E0,-1.843968987E0,-7.097112179E0,-3.643969774E0
2.785448034E0,-2.081157446E0,-6.922136784E0,-3.627219915E0
2.787973190E0,-2.335095882E0,-6.761817455E0,-3.677469254E0
2.790498399E0,-2.567498684E0,-6.637091637E0,-3.667897940E0
2.793023607E0,-2.711068153E0,-6.546164513E0,-3.703790426E0
2.795548815E0,-2.797508717E0,-6.500700951E0,-3.701397419E0
2.798074024E0,-2.869293451E0,-6.483951092E0,-3.742075443E0
2.800599284E0,-2.907578707E0,-6.419045925E0,-3.715754509E0
2.803124492E0,-2.883650303E0,-6.474380016E0,-3.620041609E0
2.805649701E0,-2.727817774E0,-6.620342255E0,-3.392424345E0
2.808174909E0,-2.531606436E0,-6.819245338E0,-3.030509949E0
2.810700117E0,-2.265703917E0,-7.008577347E0,-2.795714140E0
2.813225326E0,-1.971087694E0,-7.166503906E0,-2.733500719E0
2.815750534E0,-1.702792406E0,-7.317550659E0,-2.704786777E0
2.818275690E0,-1.393520117E0,-7.408477783E0,-2.745464802E0
2.820800899E0,-1.053440213E0,-7.545167923E0,-2.853441000E0
2.823326107E0,-7.564310431E-1,-7.703094482E0,-2.963510752E0
2.825851315E0,-4.785645306E-1,-7.799106121E0,-3.059223652E0
2.828376524E0,-2.102692872E-1,-7.911569118E0,-3.222234726E0
2.830901836E0,2.691925503E-2,-7.985746384E0,-3.243770123E0
2.833427044E0,3.143570721E-1,-8.057829857E0,-3.200699329E0
2.835952253E0,5.682953596E-1,-8.115258217E0,-3.167199850E0
2.838477461E0,8.150551915E-1,-8.143971443E0,-3.040081263E0
2.841002669E0,9.610173702E-1,-8.127222061E0,-2.968296528E0
2.843527878E0,9.849455953E-1,-8.194221497E0,-2.889333248E0
2.846053086E0,9.921240807E-1,-8.354839325E0,-2.896511793E0
2.848578242E0,8.318049908E-1,-8.488837242E0,-3.040081263E0
2.851103451E0,5.826523304E-1,-8.603992462E0,-3.227020502E0
2.853628659E0,3.358924687E-1,-8.807381630E0,-3.497708559E0
2.856153867E0,5.383851007E-3,-9.046963692E0,-3.758825302E0
2.858679076E0,-3.323032558E-1,-9.363115311E0,-3.938585997E0
2.861243815E0,-6.056832075E-1,-9.758528709E0,-4.139882088E0
2.863769024E0,-8.688937426E-1,-1.017787075E1,-4.240380764E0
2.866294180E0,-1.147059321E0,-1.063041401E1,-4.216452599E0
2.868819388E0,-1.427318692E0,-1.109282684E1,-4.130012035E0
2.871344597E0,-1.664208174E0,-1.162223911E1,-4.053441525E0
2.873869805E0,-1.810469389E0,-1.217557907E1,-4.122833252E0
2.876395013E0,-1.956730723E0,-1.275763321E1,-4.326522350E0
2.878920222E0,-2.160120726E0,-1.335404396E1,-4.729115009E0
2.881445430E0,-2.282453775E0,-1.404407406E1,-5.287240505E0
2.883970638E0,-2.332702875E0,-1.468116379E1,-5.874080658E0
2.886495847E0,-2.351845503E0,-1.528265953E1,-6.386742592E0
2.889021055E0,-2.308774710E0,-1.591017723E1,-6.803392887E0
2.891506836E0,-2.308774710E0,-1.651137352E1,-7.117451191E0
2.894032044E0,-2.320738792E0,-1.694507217E1,-7.196413994E0
2.896557253E0,-2.378166676E0,-1.726122475E1,-7.117451191E0
2.899082461E0,-2.473879576E0,-1.736650848E1,-6.966403961E0
2.901607669E0,-2.656033039E0,-1.734497261E1,-6.734001160E0
2.904132878E0,-2.919542789E0,-1.711256981E1,-6.329315186E0
2.906658086E0,-3.195016384E0,-1.676291847E1,-5.972186089E0
2.909183242E0,-3.420240879E0,-1.635105515E1,-5.689534187E0
2.911708451E0,-3.678964853E0,-1.587907028E1,-5.474180222E0
2.914233659E0,-3.932903051E0,-1.542622852E1,-5.373382568E0
2.916758867E0,-4.186841488E0,-1.502632809E1,-5.349453926E0
2.919284076E0,-4.452744007E0,-1.465244961E1,-5.442774296E0
2.921809336E0,-4.697110653E0,-1.434586906E1,-5.526822090E0
2.924334544E0,-4.965405941E0,-1.411585903E1,-5.658427238E0
2.926859753E0,-5.120939732E0,-1.396511078E1,-5.854938030E0
2.929384961E0,-5.372485161E0,-1.377817154E1,-6.096911907E0
2.931910169E0,-5.621637821E0,-1.367767334E1,-6.336493492E0
2.934435378E0,-5.906682491E0,-1.356251907E1,-6.482455730E0
2.936960586E0,-6.230311871E0,-1.342612743E1,-6.503991127E0
2.939485742E0,-6.419344902E0,-1.330140209E1,-6.432206154E0
2.942010951E0,-6.474380016E0,-1.324876022E1,-6.202196121E0
2.944536159E0,-6.563213348E0,-1.317697525E1,-5.967400551E0
2.947061367E0,-6.613462448E0,-1.308335590E1,-5.790331841E0
2.949586576E0,-6.587141514E0,-1.295414352E1,-5.538786411E0
2.952111836E0,-6.496214390E0,-1.284377480E1,-5.382953644E0
2.954637044E0,-6.433701992E0,-1.272652626E1,-5.327918530E0
2.957162253E0,-6.433701992E0,-1.260927773E1,-5.430809975E0
2.959687461E0,-6.551249504E0,-1.245105267E1,-5.766403675E0
2.962212669E0,-6.637391090E0,-1.224257755E1,-6.187839508E0
2.964737878E0,-6.656533718E0,-1.209183025E1,-6.470491409E0
2.967263086E0,-6.572784901E0,-1.204636669E1,-6.681358814E0
2.969788242E0,-6.508178711E0,-1.208943748E1,-6.791429043E0
2.972313451E0,-6.431309223E0,-1.228086281E1,-6.700501442E0
2.974838659E0,-6.316453457E0,-1.256830120E1,-6.480062962E0
2.977363867E0,-6.076872349E0,-1.285603809E1,-6.262016773E0
2.979889076E0,-5.801398277E0,-1.317697525E1,-6.010770321E0
2.982414336E0,-5.609673500E0,-1.352423382E1,-5.871687889E0
2.984939544E0,-5.398806095E0,-1.387627792E1,-5.759224892E0
2.987464753E0,-5.149653435E0,-1.413978767E1,-5.574678421E0
2.989989909E0,-4.986941338E0,-1.430040550E1,-5.356632710E0
2.992515169E0,-4.977370262E0,-1.422144222E1,-5.232205868E0
2.995079857E0,-4.888835907E0,-1.411825180E1,-5.018945694E0
2.997605065E0,-4.723432064E0,-1.397229004E1,-4.668995380E0
3.000130222E0,-4.591527462E0,-1.365613747E1,-4.379164696E0
3.002655430E0,-4.464707851E0,-1.316979694E1,-4.000799656E0
3.005180638E0,-4.277768612E0,-1.269541931E1,-3.632005692E0
3.007705847E0,-4.054936886E0,-1.228804111E1,-3.533600807E0
3.010231055E0,-3.805784464E0,-1.181874943E1,-3.363710403E0
3.012756263E0,-3.588037491E0,-1.121486092E1,-3.195913792E0
3.015281472E0,-3.410669565E0,-1.057298565E1,-3.040081263E0
3.017806680E0,-3.336492062E0,-9.988538742E0,-2.855833769E0
3.020331888E0,-3.230908871E0,-9.406484604E0,-2.630609512E0
3.022817722E0,-3.199802160E0,-8.795417786E0,-2.448455811E0
3.025342930E0,-3.175873756E0,-8.306982994E0,-2.297708035E0
3.027868138E0,-3.216551781E0,-7.854141235E0,-2.184946060E0
3.030393347E0,-3.305385351E0,-7.465905666E0,-2.194517374E0
3.032918555E0,-3.451347589E0,-7.106683254E0,-2.285743713E0
3.035443763E0,-3.616751432E0,-6.824030876E0,-2.345564365E0
3.037968972E0,-3.834797382E0,-6.615556240E0,-2.426920414E0
3.040494128E0,-3.961616993E0,-6.500700951E0,-2.491526604E0
3.043019336E0,-4.066901207E0,-6.527021885E0,-2.467598438E0
3.045544544E0,-4.196412563E0,-6.603592396E0,-2.434098721E0
3.048069753E0,-4.244269371E0,-6.718746662E0,-2.467598438E0
3.050594961E0,-4.342374802E0,-6.800102711E0,-2.510669231E0
3.053120222E0,-4.308875561E0,-6.946064949E0,-2.587538481E0
3.055645430E0,-4.205984116E0,-7.085147858E0,-2.735893488E0
3.058170638E0,-4.009473324E0,-7.166503906E0,-2.944368362E0
3.060695847E0,-3.777070522E0,-7.176074982E0,-3.217449188E0
3.063221055E0,-3.585644722E0,-7.173682213E0,-3.471387386E0
3.065746263E0,-3.336492062E0,-7.156932354E0,-3.761218071E0
3.068271472E0,-3.068196774E0,-7.144968510E0,-3.996013880E0
3.070796628E0,-2.909971476E0,-7.030112743E0,-4.194917202E0
3.073321836E0,-2.747259617E0,-6.874280453E0,-4.439284325E0
3.075847044E0,-2.641676188E0,-6.677769661E0,-4.585246563E0
3.078372253E0,-2.622533560E0,-6.512664795E0,-4.666602135E0
3.080897461E0,-2.639283419E0,-6.297011852E0,-4.738686085E0
3.083462201E0,-2.672782898E0,-6.002395630E0,-4.714757919E0
3.085987409E0,-2.720639229E0,-5.779563904E0,-4.633102894E0
3.088512565E0,-2.840579510E0,-5.513661385E0,-4.609174728E0
3.091037774E0,-2.957827806E0,-5.290830135E0,-4.554139614E0
3.093562982E0,-3.082553864E0,-5.015356064E0,-4.499104977E0
3.096088190E0,-3.190230846E0,-4.742275238E0,-4.422534466E0
3.098613399E0,-3.319742203E0,-4.521836758E0,-4.364807606E0
3.101138607E0,-3.372384310E0,-4.301696777E0,-4.293023109E0
3.103663815E0,-3.417848110E0,-4.184149265E0,-4.230809689E0
3.106189024E0,-3.535096407E0,-4.026223183E0,-4.120440483E0
3.108714232E0,-3.585644722E0,-3.908675671E0,-4.051048756E0
3.111239440E0,-3.626322746E0,-3.824927092E0,-3.967299938E0
3.113725222E0,-3.698107481E0,-3.798605919E0,-3.881158352E0
3.116250430E0,-3.781856298E0,-3.805784464E0,-3.844966888E0
3.118775638E0,-3.849154234E0,-3.875176191E0,-3.794717550E0
3.121300847E0,-3.894618034E0,-3.970889091E0,-3.708575964E0
3.123826055E0,-3.999902248E0,-4.086043835E0,-3.722932816E0
3.126351263E0,-4.112663746E0,-4.176970959E0,-3.699004650E0
3.128876472E0,-4.172484398E0,-4.241577148E0,-3.684647799E0
3.131401628E0,-4.213162422E0,-4.308875561E0,-3.677469254E0
3.133926836E0,-4.205984116E0,-4.361517429E0,-3.653541088E0
3.136452044E0,-4.194019794E0,-4.428516388E0,-3.641577005E0
3.138977253E0,-4.203591347E0,-4.447659016E0,-3.658326626E0
3.141502461E0,-4.170091629E0,-4.529015064E0,-3.663112402E0
3.144027722E0,-4.091128349E0,-4.533800602E0,-3.620041609E0
3.146552930E0,-4.038187504E0,-4.584349155E0,-3.579064369E0
3.149078138E0,-3.980759621E0,-4.663312435E0,-3.579064369E0
3.151603347E0,-3.920938969E0,-4.708775997E0,-3.507279873E0
3.154128555E0,-3.839582920E0,-4.806881428E0,-3.418745279E0
3.156653763E0,-3.731606960E0,-4.852644444E0,-3.315554857E0
3.159178972E0,-3.602394581E0,-4.924428940E0,-3.224627733E0
3.161704128E0,-3.463311672E0,-5.036891460E0,-3.176771164E0
3.164229336E0,-3.341277838E0,-5.156831741E0,-3.119343519E0
3.166754544E0,-3.183052301E0,-5.219045162E0,-3.006581545E0
3.169279753E0,-3.056232691E0,-5.377270699E0,-2.985046148E0
3.171804961E0,-2.938685417E0,-5.422734261E0,-2.939582586E0
3.174330222E0,-2.831008196E0,-5.511268616E0,-2.941975355E0
3.176855430E0,-2.744866610E0,-5.609374523E0,-2.956332445E0
3.179380638E0,-2.670390129E0,-5.635994434E0,-3.004188776E0
3.181905847E0,-2.670390129E0,-5.714957714E0,-3.119343519E0
3.184431055E0,-2.567498684E0,-5.758028507E0,-3.267698526E0
3.186956263E0,-2.493321180E0,-5.825027466E0,-3.392424345E0
3.189481472E0,-2.428415775E0,-5.877669811E0,-3.562314749E0
3.192006628E0,-2.385344982E0,-5.916254044E0,-3.763610840E0
3.194531836E0,-2.359024048E0,-5.952146530E0,-3.926621914E0
3.197057044E0,-2.320738792E0,-6.019145489E0,-4.151846409E0
3.199582253E0,-2.292025089E0,-6.052644730E0,-4.381557465E0
3.202107461E0,-2.232204437E0,-6.076572895E0,-4.561318398E0
3.204632722E0,-2.133799553E0,-6.124429703E0,-4.693222523E0
3.207157930E0,-2.085943222E0,-6.241976738E0,-4.839184761E0
3.209683138E0,-1.995015860E0,-6.313761711E0,-5.002195835E0
3.212208347E0,-1.836790442E0,-6.416653156E0,-5.133800983E0
3.214733555E0,-1.707578063E0,-6.519843578E0,-5.234598637E0
3.217258763E0,-1.554138303E0,-6.689733982E0,-5.306383133E0
3.219783972E0,-1.309771299E0,-6.881458759E0,-5.361418247E0
3.222309128E0,-1.108475089E0,-7.058826923E0,-5.411667347E0
3.224834336E0,-8.787640929E-1,-7.207181931E0,-5.488536835E0
3.227359544E0,-6.224330068E-1,-7.418049335E0,-5.466702461E0
3.229884753E0,-4.474578202E-1,-7.626523972E0,-5.490929604E0
3.232409961E0,-2.318046987E-1,-7.791927814E0,-5.502893925E0
3.234935274E0,-5.682953820E-2,-7.973782539E0,-5.483751297E0
3.237460482E0,8.913264424E-2,-8.160721779E0,-5.392524719E0
3.239985690E0,2.784647346E-1,-8.277970314E0,-5.234598637E0
3.242510899E0,3.981058598E-1,-8.445766449E0,-5.102694511E0
3.245036107E0,4.989035130E-1,-8.563014984E0,-4.920540810E0
3.247561315E0,5.371887088E-1,-8.584849358E0,-4.726722240E0
3.250086524E0,5.156532526E-1,-8.620741844E0,-4.470390797E0
3.252611680E0,4.701896608E-1,-8.651848793E0,-4.252345085E0
3.255136888E0,3.741776347E-1,-8.580063820E0,-4.015156269E0
3.257662097E0,2.066800594E-1,-8.496015549E0,-3.830610037E0
3.260187305E0,4.606183618E-2,-8.357232094E0,-3.593421459E0
3.262712513E0,-1.384846121E-1,-8.208578110E0,-3.378067255E0
3.265237774E0,-2.748754919E-1,-8.048258781E0,-3.069094181E0
3.267762982E0,-4.689932466E-1,-7.825427532E0,-2.740679264E0
3.270288190E0,-6.005984545E-1,-7.561917782E0,-2.453241348E0
3.272813399E0,-8.114659786E-1,-7.374978542E0,-2.177767754E0
3.275338607E0,-9.792626500E-1,-7.116254330E0,-1.983649969E0
3.277863815E0,-1.166201949E0,-6.907779694E0,-1.909472466E0
3.280389024E0,-1.367199063E0,-6.672984123E0,-1.871187329E0
3.282914180E0,-1.580459356E0,-6.474380016E0,-1.935793519E0
3.285439388E0,-1.887039781E0,-6.287440777E0,-2.072483540E0
3.287964597E0,-2.167299032E0,-6.129215240E0,-2.235195398E0
3.290489805E0,-2.390130758E0,-6.002395630E0,-2.338385820E0
3.293015013E0,-2.579462767E0,-5.856134415E0,-2.419741869E0
3.295540274E0,-2.768795013E0,-5.774778366E0,-2.316850424E0
3.298065482E0,-3.058625460E0,-5.719743252E0,-2.096411705E0
3.300590690E0,-3.238087177E0,-5.688636780E0,-1.883151412E0
3.303115899E0,-3.444169044E0,-5.691029549E0,-1.648355722E0
3.305641107E0,-3.616751432E0,-5.722136021E0,-1.415952802E0
3.308166315E0,-3.760320902E0,-5.722136021E0,-1.226919770E0
3.310691524E0,-3.959224224E0,-5.765207291E0,-1.166800141E0
3.313216680E0,-4.117449760E0,-5.832206249E0,-1.073480010E0
3.315741888E0,-4.246662140E0,-5.930611134E0,-1.011266708E0
3.318267097E0,-4.380959034E0,-6.038288116E0,-9.969097376E-1
3.320792305E0,-4.536492825E0,-6.155835152E0,-9.777671695E-1
3.323317513E0,-4.709074974E0,-6.253941059E0,-9.032905698E-1
3.325842774E0,-4.819144726E0,-6.359225273E0,-8.650053740E-1
3.328367982E0,-4.924727917E0,-6.438487530E0,-7.692924738E-1
3.330893190E0,-4.972584724E0,-6.560521603E0,-7.812566161E-1
3.333418399E0,-5.044369221E0,-6.632306099E0,-6.975077987E-1
3.335943607E0,-4.994120121E0,-6.658627033E0,-6.206383705E-1
3.338468815E0,-4.804787636E0,-6.797709942E0,-5.871388316E-1
3.340994024E0,-4.661218643E0,-6.824030876E0,-6.158527136E-1
3.343519180E0,-4.517350197E0,-6.857530594E0,-5.991029739E-1
3.346044388E0,-4.323232174E0,-6.888637066E0,-6.110670567E-1
3.348569597E0,-4.088735580E0,-6.898208618E0,-6.278168559E-1
3.351094805E0,-3.868296862E0,-6.943672180E0,-6.397809386E-1
3.353620013E0,-3.614358664E0,-6.953243732E0,-6.855437160E-1
3.356145326E0,-3.367598772E0,-7.027719975E0,-7.166503668E-1
3.358670534E0,-3.159124136E0,-6.999006271E0,-7.525427341E-1
3.361195742E0,-3.092125177E0,-6.902994156E0,-8.315058947E-1
3.363720951E0,-2.931506872E0,-6.881458759E0,-9.490532875E-1
3.366246159E0,-2.723032236E0,-6.895815849E0,-1.025623560E0
3.368771367E0,-2.505285263E0,-6.919744015E0,-1.071087241E0
3.371296576E0,-2.339881420E0,-6.917351246E0,-1.229312658E0
3.373821732E0,-2.184048891E0,-6.857530594E0,-1.313061476E0
3.376346940E0,-1.983051777E0,-6.869494915E0,-1.500000715E0
3.378872149E0,-1.822433591E0,-6.910172462E0,-1.576570988E0
3.381397357E0,-1.625923038E0,-6.955636501E0,-1.653141379E0
3.383922565E0,-1.508674622E0,-6.989434719E0,-1.708176255E0
3.386447826E0,-1.388734460E0,-7.013363361E0,-1.777867198E0
3.388973034E0,-1.321735382E0,-7.054041386E0,-1.866401672E0
3.391498242E0,-1.304985642E0,-7.094718933E0,-2.010270119E0
3.394023451E0,-1.278664589E0,-7.144968510E0,-2.091626167E0
3.396548659E0,-1.249950767E0,-7.243373394E0,-2.235195398E0
3.399073867E0,-1.273878932E0,-7.300800800E0,-2.340778828E0
3.401599076E0,-1.261914849E0,-7.370193005E0,-2.577967405E0
3.404124232E0,-1.326521039E0,-7.516454220E0,-2.728715181E0
3.406649440E0,-1.304985642E0,-7.609774113E0,-2.810370207E0
3.409174649E0,-1.249950767E0,-7.729415417E0,-2.987439156E0
3.411699857E0,-1.259521961E0,-7.897212029E0,-3.100200891E0
3.414225065E0,-1.276271820E0,-8.024031639E0,-3.191128016E0
3.416750326E0,-1.348056436E0,-8.177471161E0,-3.317947626E0
3.419275534E0,-1.379163146E0,-8.352446556E0,-3.504886866E0
3.421800742E0,-1.352842093E0,-8.510373116E0,-3.663112402E0
3.424325951E0,-1.403091431E0,-8.670990944E0,-3.801896095E0
3.426851159E0,-1.551745534E0,-8.834002495E0,-4.000799656E0
3.429376367E0,-1.628315806E0,-8.977571487E0,-4.206881523E0
3.431901576E0,-1.757827282E0,-9.140582085E0,-4.360022068E0
3.434426732E0,-1.942373753E0,-9.269794464E0,-4.556532383E0
3.436951940E0,-2.107478619E0,-9.365508080E0,-4.729115009E0
3.439477149E0,-2.311167479E0,-9.423234940E0,-4.908576488E0
3.442002357E0,-2.543570518E0,-9.459127426E0,-5.083551884E0
3.444527565E0,-2.706282377E0,-9.492626190E0,-5.148158073E0
3.447052826E0,-2.933899641E0,-9.540482521E0,-5.241776943E0
3.449578034E0,-3.221337557E0,-9.509376526E0,-5.313561916E0
3.452103242E0,-3.492025614E0,-9.550054550E0,-5.363811016E0
3.454628451E0,-3.837190151E0,-9.626625061E0,-5.323132992E0
3.457153659E0,-4.265804768E0,-9.655637741E0,-5.423631668E0
3.459678867E0,-4.711467743E0,-9.588339806E0,-5.565107346E0
3.462204076E0,-5.300700188E0,-9.487840652E0,-5.823831081E0
3.464729232E0,-5.933003902E0,-9.392127991E0,-6.190232277E0
3.467254440E0,-6.680461884E0,-9.281759262E0,-6.573681831E0
3.469779649E0,-7.365706444E0,-9.181260109E0,-7.014260292E0
3.472304857E0,-7.875975609E0,-9.195617676E0,-7.438388348E0
3.474830065E0,-8.141878128E0,-9.298508644E0,-7.788039684E0
3.477355378E0,-8.199305534E0,-9.461520195E0,-8.128119469E0
3.479880586E0,-8.053044319E0,-9.605089188E0,-8.152346611E0
3.482405794E0,-7.753642559E0,-9.713065147E0,-7.730611801E0
3.484931003E0,-7.147660255E0,-9.689137459E0,-6.839584351E0
3.487456211E0,-6.189334869E0,-9.545269012E0,-5.572285652E0
3.489981419E0,-4.951049328E0,-9.372985840E0,-4.209274292E0
3.492506628E0,-3.496811152E0,-9.255437851E0,-2.800798893E0
3.495031784E0,-1.985444546E0,-9.238688469E0,-1.411167145E0
3.497556992E0,-5.766702294E-1,-9.358329773E0,-1.127617657E-1
3.500082201E0,7.480561733E-1,-9.617053032E0,1.238285661E0
3.502607409E0,1.818844318E0,-9.981360435E0,2.670689106E0
3.505132617E0,2.582752943E0,-1.039083195E1,3.959523201E0
3.507657878E0,3.191427231E0,-1.087478065E1,4.855336189E0
3.510182930E0,3.478864908E0,-1.136830044E1,5.190630436E0
3.512707982E0,3.358924866E0,-1.195753288E1,4.994419098E0
3.515233034E0,2.951845884E0,-1.260449219E1,4.397708893E0
3.517758086E0,2.237887383E0,-1.331575871E1,3.676871061E0
3.520283138E0,1.320538998E0,-1.412303734E1,2.828914642E0
3.522808190E0,4.124628007E-1,-1.503350639E1,1.705185294E0
3.525333242E0,-4.689932466E-1,-1.604178238E1,3.254238665E-1
3.527858294E0,-1.288235903E0,-1.727558136E1,-1.171585798E0
3.530383347E0,-2.164906263E0,-1.880878258E1,-3.032902718E0
3.532908399E0,-3.206980467E0,-2.089053726E1,-5.287240505E0
3.535433451E0,-4.514957428E0,-2.365963173E1,-7.716254711E0
3.537960378E0,-6.373881340E0,-2.707807922E1,-1.017876816E1
3.540485430E0,-9.092725754E0,-3.088206863E1,-1.268435287E1
3.543010482E0,-1.256381416E1,-3.419014359E1,-1.499851131E1
3.545535534E0,-1.634148407E1,-3.630779266E1,-1.685504341E1
3.548060586E0,-2.010479546E1,-3.764448547E1,-1.929123497E1
3.550585638E0,-2.307040024E1,-3.840151215E1,-2.357917404E1
3.553110690E0,-2.230888367E1,-3.828905106E1,-2.479861641E1
3.555635742E0,-1.661217117E1,-3.609453201E1,-2.095125580E1
3.558160794E0,-9.171988487E0,-3.170609665E1,-1.654846191E1
3.560685847E0,-2.718246460E0,-2.676432037E1,-1.129262733E1
3.563210899E0,1.823629975E0,-2.238994026E1,-5.435595512E0
3.565735951E0,4.837090969E0,-1.873460579E1,-5.273182988E-1
3.568262930E0,6.820441723E0,-1.562752438E1,2.977269650E0
3.570787982E0,8.344071388E0,-1.300917816E1,5.434997559E0
3.573313034E0,9.376574516E0,-1.066391277E1,6.829115868E0
3.575838086E0,9.975378036E0,-8.809774399E0,6.865307331E0
3.578363138E0,9.896415710E0,-7.389335632E0,5.940481186E0
3.580888190E0,9.376574516E0,-6.375975132E0,4.414458752E0
3.583413242E0,8.710473061E0,-5.645565987E0,2.802294493E0
3.585938294E0,8.059026718E0,-5.168796062E0,1.448854089E0
3.588463347E0,7.532007694E0,-4.847858906E0,3.708875179E-1
3.590988399E0,7.112665176E0,-4.615455627E0,-4.627120793E-1
3.593513451E0,6.952346325E0,-4.430909157E0,-1.214955688E0
3.596038503E0,6.791728020E0,-4.325624943E0,-1.931007862E0
3.598565430E0,6.583253384E0,-4.337589264E0,-2.721536636E0
3.601090482E0,6.528218269E0,-4.385445595E0,-3.682255030E0
3.603615534E0,6.485147476E0,-4.536193371E0,-4.542175770E0
3.606140586E0,6.420541286E0,-4.890929699E0,-4.762614250E0
3.608665638E0,6.279065609E0,-5.520840168E0,-4.479962349E0
3.611190690E0,6.010770321E0,-6.479165554E0,-3.833002806E0
3.613715742E0,5.668297768E0,-7.664809227E0,-2.949153900E0
3.616240794E0,5.318646431E0,-8.879466057E0,-2.010270119E0
3.618765847E0,4.942375183E0,-1.000289631E1,-1.255633712E0
3.621290899E0,4.556831837E0,-1.109282684E1,-7.381857634E-1
3.623815951E0,4.111168385E0,-1.214925766E1,-6.254240274E-1
3.626341003E0,3.382853031E0,-1.307857037E1,-7.405785918E-1
3.628867930E0,2.417648077E0,-1.392921925E1,-9.251250625E-1
3.631392982E0,1.413859129E0,-1.475085449E1,-1.284347534E0
3.633918034E0,6.759724021E-1,-1.546690655E1,-1.653141379E0
3.636443086E0,1.369891018E-1,-1.601546097E1,-1.746760488E0
3.638968138E0,-2.413759828E-1,-1.658555031E1,-1.712961912E0
3.641493190E0,-5.623133183E-1,-1.712961960E1,-1.492822170E0
3.644018242E0,-7.588238716E-1,-1.756062698E1,-1.121336460E0
3.646543294E0,-9.218349457E-1,-1.776431465E1,-6.592226624E-1
3.649068347E0,-9.457631707E-1,-1.783849335E1,-2.255235314E-1
3.651593399E0,-8.715856671E-1,-1.768535233E1,2.919243574E-1
3.654118451E0,-7.037889361E-1,-1.735693741E1,8.117650747E-1
3.656643503E0,-4.498506486E-1,-1.681077576E1,1.333998680E0
3.659170482E0,-1.600200087E-1,-1.612104416E1,1.745863199E0
3.661695534E0,2.452643216E-2,-1.533051586E1,2.114956141E0
3.664220586E0,8.673982322E-2,-1.444397449E1,2.395215511E0
3.666745638E0,5.982056609E-4,-1.367528057E1,2.373680115E0
3.669270690E0,-1.384846121E-1,-1.292782211E1,2.098206282E0
3.671795742E0,-3.493520916E-1,-1.220429325E1,1.645364642E0
3.674320794E0,-5.503492355E-1,-1.160070324E1,9.795617461E-1
3.676845847E0,-7.253243923E-1,-1.106650543E1,3.828516304E-1
3.679370899E0,-8.066803217E-1,-1.053470039E1,-1.031904742E-1
3.681895951E0,-8.688937426E-1,-1.000768185E1,-4.818546474E-1
3.684421003E0,-9.505487680E-1,-9.480662346E0,-6.951149702E-1
3.686946055E0,-9.888339639E-1,-9.001500130E0,-9.251250625E-1
3.689472982E0,-1.132403374E0,-8.608778000E0,-1.188335538E0
3.691998034E0,-1.312164068E0,-8.275577545E0,-1.401595831E0
3.694523086E0,-1.451246977E0,-7.976175308E0,-1.636391640E0
3.697048138E0,-1.609173179E0,-7.750950813E0,-1.897508383E0
3.699573190E0,-1.834397674E0,-7.526025295E0,-2.122732878E0
3.702098242E0,-2.045265198E0,-7.319943428E0,-2.343171597E0
3.704623294E0,-2.268096685E0,-7.243373394E0,-2.546860695E0
3.707148347E0,-2.421237469E0,-7.166503906E0,-2.704786777E0
3.709673399E0,-2.565105915E0,-7.101897717E0,-2.817548752E0
3.712198451E0,-2.687139750E0,-7.111468792E0,-2.915654421E0
3.714723503E0,-2.780759096E0,-7.135396957E0,-2.968296528E0
3.717248555E0,-2.797508717E0,-7.255337238E0,-2.980260611E0
3.719775482E0,-2.720639229E0,-7.379764080E0,-3.013760090E0
3.722300534E0,-2.579462767E0,-7.530810833E0,-3.124129057E0
3.724825586E0,-2.433201551E0,-7.698308468E0,-3.227020502E0
3.727350638E0,-2.375773668E0,-7.825427532E0,-3.447459221E0
3.729875690E0,-2.397309303E0,-7.937890053E0,-3.706183195E0
3.732400742E0,-2.382952213E0,-8.069794655E0,-3.924229145E0
3.734925794E0,-2.414058924E0,-8.103293419E0,-4.122833252E0
3.737450847E0,-2.397309303E0,-8.177471161E0,-4.230809689E0
3.739975899E0,-2.373380899E0,-8.225327492E0,-4.312165737E0
3.742500951E0,-2.421237469E0,-8.232506752E0,-4.405784607E0
3.745026003E0,-2.505285263E0,-8.244470596E0,-4.355236530E0
3.747551055E0,-2.589034081E0,-8.256434441E0,-4.269094467E0
3.750078034E0,-2.684746981E0,-8.309375763E0,-4.154239178E0
3.752603086E0,-2.773580551E0,-8.383553505E0,-4.051048756E0
3.755128138E0,-2.883650303E0,-8.457730293E0,-3.940979004E0
3.757653190E0,-2.914757013E0,-8.484051704E0,-3.806681633E0
3.760178242E0,-2.950649500E0,-8.496015549E0,-3.665505171E0
3.762703294E0,-2.988934517E0,-8.548658371E0,-3.540779352E0
3.765228347E0,-3.022733212E0,-8.613563538E0,-3.425923824E0
3.767753399E0,-3.051447153E0,-8.663812637E0,-3.284448147E0
3.770278451E0,-3.092125177E0,-8.706883430E0,-3.138485909E0
3.772803503E0,-3.135195971E0,-8.766703606E0,-2.982653379E0
3.775328555E0,-3.113660574E0,-8.754739761E0,-2.781357288E0
3.777853607E0,-3.087339401E0,-8.831310272E0,-2.566003084E0
3.780380534E0,-3.025125980E0,-8.845966339E0,-2.295315027E0
3.782905586E0,-2.991327524E0,-8.828917503E0,-2.120339870E0
3.785430638E0,-2.955435038E0,-8.809774399E0,-2.007877350E0
3.787955690E0,-2.926721096E0,-8.821739197E0,-1.859223247E0
3.790480742E0,-2.792723179E0,-8.834002495E0,-1.710569143E0
3.793005794E0,-2.624926329E0,-8.783453941E0,-1.571785331E0
3.795530847E0,-2.414058924E0,-8.785846710E0,-1.389631748E0
3.798055899E0,-2.176870346E0,-8.778668404E0,-1.281954765E0
3.800580951E0,-1.860718727E0,-8.711668968E0,-1.142871857E0
3.803106003E0,-1.506281853E0,-8.642276764E0,-1.016052365E0
3.805631055E0,-1.120439172E0,-8.503194809E0,-9.104689956E-1
3.808156107E0,-7.325028181E-1,-8.357232094E0,-9.299107194E-1
3.810683086E0,-4.354937077E-1,-8.266005516E0,-9.323035479E-1
3.813208138E0,-1.480558962E-1,-8.167900085E0,-1.013659477E0
3.815733190E0,1.465603858E-1,-8.026424408E0,-1.250848055E0
3.818258242E0,4.459623098E-1,-7.856534004E0,-1.593320727E0
3.820783294E0,6.592226624E-1,-7.712665558E0,-1.966900229E0
3.823308347E0,8.270193338E-1,-7.477869987E0,-2.371885538E0
3.825833399E0,1.009172916E0,-7.216753006E0,-2.726322412E0
3.828358451E0,1.064207911E0,-6.999006271E0,-3.085843801E0
3.830883503E0,1.126421213E0,-6.740282059E0,-3.569493294E0
3.833408555E0,1.162313581E0,-6.527021885E0,-3.993621111E0
3.835933607E0,1.191027522E0,-6.313761711E0,-4.405784607E0
3.838458659E0,1.167099237E0,-6.105287075E0,-4.879862785E0
3.840985586E0,1.114457130E0,-5.887240887E0,-5.308775902E0
3.843510638E0,1.059422255E0,-5.688636780E0,-5.725426197E0
3.846035690E0,1.004387259E0,-5.487340450E0,-6.132804394E0
3.848560742E0,8.844470978E-1,-5.333900928E0,-6.487241268E0
3.851085794E0,7.911269665E-1,-5.195116997E0,-6.825227261E0
3.853610847E0,6.999006271E-1,-5.113760948E0,-7.040581703E0
3.856135899E0,5.635097623E-1,-5.060820103E0,-7.203592777E0
3.858660951E0,4.531407952E-1,-4.998606682E0,-7.335197926E0
3.861186003E0,2.425723970E-1,-4.957928658E0,-7.419245720E0
3.863711055E0,4.845465720E-2,-5.032105923E0,-7.467102051E0
3.866236107E0,-2.437688112E-1,-5.022534847E0,-7.524529934E0
3.868761159E0,-5.599204898E-1,-5.082355499E0,-7.488637447E0
3.871327617E0,-9.672985673E-1,-5.113760948E0,-7.388139248E0
3.873852669E0,-1.460818172E0,-5.152046204E0,-7.184450150E0
3.876377722E0,-1.971087694E0,-5.216652393E0,-6.961618423E0
3.878902774E0,-2.500499725E0,-5.219045162E0,-6.597609997E0
3.881427826E0,-3.013161898E0,-5.266901970E0,-6.173482418E0
3.883952878E0,-3.527917862E0,-5.269294739E0,-5.723033428E0
3.886477930E0,-3.904189348E0,-5.259723186E0,-5.244169712E0
3.889002982E0,-4.194019794E0,-5.242973328E0,-4.762614250E0
3.891528034E0,-4.474279404E0,-5.168796062E0,-4.252345085E0
3.894053086E0,-4.687539577E0,-5.173581600E0,-3.730111361E0
3.896578138E0,-4.747360229E0,-5.123332500E0,-3.207877874E0
3.899103190E0,-4.730610371E0,-5.128118038E0,-2.656930447E0
3.901590638E0,-4.620540619E0,-5.175974369E0,-2.115554333E0
3.904115742E0,-4.419244289E0,-5.168796062E0,-1.598106384E0
3.906640742E0,-4.054936886E0,-5.132903576E0,-1.071087241E0
3.909165794E0,-3.647858143E0,-5.142475128E0,-6.640082598E-1
3.911690847E0,-3.254837036E0,-5.199902534E0,-3.595215976E-1
3.914215899E0,-2.984148979E0,-5.274080276E0,-1.609173268E-1
3.916740951E0,-2.615355253E0,-5.286044121E0,-4.576273263E-2
3.919266003E0,-2.198405743E0,-5.329114914E0,-2.991028305E-4
3.921791055E0,-1.709970832E0,-5.520840168E0,-6.011966988E-2
3.924316107E0,-1.257129192E0,-5.815456390E0,-1.513460279E-1
3.926841159E0,-9.050851464E-1,-6.227620125E0,-2.691925503E-3
3.929366211E0,-7.420741320E-1,-6.615556240E0,2.249253243E-1
3.931893138E0,-7.325028181E-1,-7.063612461E0,4.453641176E-1
3.934418190E0,-8.377870321E-1,-7.463512897E0,5.315057039E-1
3.936943242E0,-9.744769931E-1,-7.782356739E0,6.391827464E-1
3.939468294E0,-1.199701428E0,-8.067401886E0,7.639086246E-1
3.941993347E0,-1.242772222E0,-8.445766449E0,1.446461320E0
3.944518399E0,-1.247557878E0,-9.023035049E0,2.517249346E0
3.947043451E0,-1.115653515E0,-9.535696983E0,3.063411236E0
3.949568503E0,-8.641080856E-1,-9.861420631E0,3.068196774E0
3.952093555E0,-6.367899179E-1,-1.002682400E1,3.037090063E0
3.954618607E0,-4.187439680E-1,-1.010578728E1,2.879163742E0
3.957143659E0,-1.695913076E-1,-1.008664513E1,2.505285263E0
3.959668711E0,-1.375873014E-2,-9.981360435E0,1.992623091E0
3.962195690E0,1.944168359E-1,-9.825528145E0,1.400997639E0
3.964720742E0,4.387838542E-1,-9.705886841E0,7.854440212E-1
3.967245794E0,6.544370055E-1,-9.641280174E0,3.397808075E-1
3.969770847E0,8.988040090E-1,-9.597910881E0,1.645065658E-2
3.972295899E0,1.191027522E0,-9.593125343E0,-2.374876440E-1
3.974820951E0,1.411466241E0,-9.619445801E0,-5.273182988E-1
3.977346003E0,1.538285851E0,-9.641280174E0,-8.362914920E-1
3.979871055E0,1.663011789E0,-9.653244972E0,-1.085444212E0
3.982396107E0,1.686939955E0,-9.658030510E0,-1.372882009E0
3.984921159E0,1.653440475E0,-9.686744690E0,-1.705783486E0
3.987446211E0,1.634297848E0,-9.643673897E0,-1.923829436E0
3.989971263E0,1.526321769E0,-9.655637741E0,-2.163410664E0
3.992498190E0,1.366002679E0,-9.629017830E0,-2.376671076E0
3.995023242E0,1.234098315E0,-9.578767776E0,-2.575574398E0
3.997548294E0,1.135992527E0,-9.490233421E0,-2.824727058E0
4.000073347E0,1.040279627E0,-9.437591553E0,-3.037688255E0
4.002598399E0,9.969097376E-1,-9.329615593E0,-3.270091295E0
4.005123451E0,1.016351461E0,-9.284152031E0,-3.574278831E0
4.007648503E0,1.040279627E0,-9.257830620E0,-3.833002806E0
4.010173555E0,9.921240807E-1,-9.260223389E0,-4.051048756E0
4.012698607E0,9.466604590E-1,-9.279366493E0,-4.108476639E0
4.015223659E0,9.227322340E-1,-9.243474007E0,-4.063013077E0
4.017748711E0,8.485547304E-1,-9.253045082E0,-3.929014683E0
4.020273763E0,7.118647099E-1,-9.202795982E0,-3.603291750E0
4.022800742E0,6.281159520E-1,-9.135796547E0,-3.143271685E0
4.025325899E0,4.893322289E-1,-9.030213356E0,-2.659323215E0
4.027851107E0,3.622135222E-1,-8.903393745E0,-2.149053812E0
4.030376263E0,2.593221664E-1,-8.757132530E0,-1.806581140E0
4.032901472E0,1.369891018E-1,-8.620741844E0,-1.696212173E0
4.035426628E0,-4.187439568E-3,-8.488837242E0,-1.626820326E0
4.037951836E0,-1.624128371E-1,-8.280363083E0,-1.710569143E0
4.040476992E0,-2.940180898E-1,-8.201399803E0,-1.825723648E0
4.043002201E0,-4.187439680E-1,-8.048258781E0,-1.942971945E0
4.045527357E0,-5.024927258E-1,-7.997710705E0,-2.086840391E0
4.048052513E0,-5.862415433E-1,-7.997710705E0,-2.105983019E0
4.050577722E0,-6.320042610E-1,-7.961818218E0,-2.082054853E0
4.053103242E0,-6.511468887E-1,-7.935497284E0,-1.902294040E0
4.055628399E0,-6.678966284E-1,-7.959425449E0,-1.708176255E0
4.058153607E0,-7.037889361E-1,-7.923532963E0,-1.483250976E0
4.060678763E0,-7.181459069E-1,-7.882854939E0,-1.241276741E0
4.063203972E0,-6.990033388E-1,-7.825427532E0,-1.080658555E0
4.065729128E0,-7.013961077E-1,-7.755736351E0,-9.873384237E-1
4.068254336E0,-6.607181430E-1,-7.686344624E0,-9.275178909E-1
4.070779492E0,-6.367899179E-1,-7.645666599E0,-9.610173702E-1
4.073304701E0,-5.766702294E-1,-7.648059368E0,-1.123729348E0
4.075829857E0,-5.479564071E-1,-7.700701237E0,-1.375274777E0
4.078355013E0,-5.838487148E-1,-7.784749508E0,-1.780260086E0
4.080880222E0,-6.702894568E-1,-7.897212029E0,-2.379063845E0
4.083405794E0,-8.090731502E-1,-8.033902168E0,-3.073879719E0
4.085930951E0,-9.481559992E-1,-8.184649467E0,-3.917050600E0
4.088456159E0,-1.106082320E0,-8.397910118E0,-4.860720158E0
4.090981315E0,-1.199701428E0,-8.663812637E0,-5.907579899E0
4.093506524E0,-1.293021560E0,-9.034998894E0,-6.961618423E0
4.096031680E0,-1.348056436E0,-9.502198219E0,-7.797610760E0
4.098556888E0,-1.367199063E0,-1.001486015E1,-8.384450912E0
4.101082044E0,-1.506281853E0,-1.049162960E1,-8.499605179E0
4.103607253E0,-1.698006749E0,-1.099472141E1,-8.176275253E0
4.106132409E0,-1.934896231E0,-1.130608654E1,-7.689933777E0
4.108657565E0,-2.121835470E0,-1.167248821E1,-7.021439075E0
4.111182774E0,-2.213061810E0,-1.200538921E1,-6.417849541E0
4.113708294E0,-2.320738792E0,-1.227847004E1,-5.998507500E0
4.116233451E0,-2.289632082E0,-1.260209942E1,-5.811867237E0
4.118758659E0,-2.263311148E0,-1.292064381E1,-5.900401592E0
4.121283815E0,-2.241775751E0,-1.326072407E1,-6.286244392E0
4.123809024E0,-2.287239313E0,-1.358883953E1,-6.659823418E0
4.126334180E0,-2.433201551E0,-1.393879032E1,-7.033402920E0
4.128859388E0,-2.641676188E0,-1.428126240E1,-7.261020184E0
4.131384544E0,-3.013161898E0,-1.454237938E1,-7.450352192E0
4.133909753E0,-3.410669565E0,-1.483460331E1,-7.491030216E0
4.136434909E0,-3.798605919E0,-1.512682629E1,-7.428816795E0
4.138960065E0,-4.253840446E0,-1.539033604E1,-7.162914753E0
4.141485274E0,-4.713860512E0,-1.562034607E1,-6.810571671E0
4.144010847E0,-5.111368179E0,-1.590778446E1,-6.429813385E0
4.146536003E0,-5.528317451E0,-1.613061523E1,-6.108876228E0
4.149061211E0,-5.971588135E0,-1.631007767E1,-5.804688454E0
4.151586367E0,-6.273382664E0,-1.644437408E1,-5.524429321E0
4.154111576E0,-6.563213348E0,-1.648026657E1,-5.284847736E0
4.156636732E0,-6.936792850E0,-1.640608978E1,-5.085944653E0
4.159161940E0,-7.257730007E0,-1.621436501E1,-4.937290192E0
4.161687097E0,-7.466204643E0,-1.592931938E1,-4.820042133E0
4.164212305E0,-7.655537128E0,-1.550279903E1,-4.810471058E0
4.166737461E0,-7.784749508E0,-1.497338676E1,-4.729115009E0
4.169262617E0,-7.823034763E0,-1.436740494E1,-4.741078854E0
4.171787826E0,-7.744071484E0,-1.378295708E1,-4.707579613E0
4.174313347E0,-7.610073090E0,-1.322722435E1,-4.681258202E0
4.176838503E0,-7.516454220E0,-1.270738411E1,-4.803292274E0
4.179363711E0,-7.382455826E0,-1.224257755E1,-5.081159115E0
4.181888867E0,-7.233801842E0,-1.191446209E1,-5.591428280E0
4.184414076E0,-7.126124859E0,-1.167248821E1,-6.281458378E0
4.186939232E0,-7.068696976E0,-1.152413273E1,-7.064509869E0
4.189464440E0,-6.970292568E0,-1.142094231E1,-7.802396297E0
4.191989597E0,-6.910471916E0,-1.145444202E1,-8.420641899E0
4.194514805E0,-6.953542709E0,-1.157677460E1,-8.940183640E0
4.197039961E0,-7.003791809E0,-1.183549881E1,-9.237491608E0
4.199565117E0,-7.022934437E0,-1.208704472E1,-9.493823051E0
4.202090326E0,-7.073482990E0,-1.236969662E1,-9.539286613E0
4.204615847E0,-7.164410114E0,-1.262842083E1,-9.424132347E0
4.207141003E0,-7.233801842E0,-1.286321640E1,-9.129515648E0
4.209666211E0,-7.231409073E0,-1.309771252E1,-8.732007980E0
4.212191367E0,-7.142874718E0,-1.325354576E1,-8.166703224E0
4.214716576E0,-6.917650223E0,-1.339502144E1,-7.371389389E0
4.217241732E0,-6.479165554E0,-1.348116302E1,-6.472884178E0
4.219766940E0,-5.897111416E0,-1.346441269E1,-5.505286694E0
4.222292097E0,-5.041976452E0,-1.343809223E1,-4.518247128E0
4.224817305E0,-4.095914364E0,-1.333490181E1,-3.634398460E0
4.227342461E0,-2.948256493E0,-1.319372463E1,-2.841476917E0
4.229867617E0,-2.023729801E0,-1.296132183E1,-2.144268274E0
4.232392826E0,-1.293021560E0,-1.260449219E1,-1.528714538E0
4.234918399E0,-6.176473498E-1,-1.225214958E1,-9.993025661E-1
4.237443555E0,-4.965107143E-2,-1.189531994E1,-7.429714203E-1
4.239968763E0,3.143570721E-1,-1.146401310E1,-7.429714203E-1
4.242493919E0,5.491527915E-1,-1.097049332E1,-8.793623447E-1
4.245019128E0,6.735795736E-1,-1.041476059E1,-1.394417405E0
4.247544284E0,6.041877270E-1,-9.849455833E0,-2.053340912E0
4.250069492E0,3.478565812E-1,-9.308079720E0,-2.810370207E0
4.252594649E0,-2.811566554E-2,-8.740383148E0,-3.531208038E0
4.255119857E0,-3.541377485E-1,-8.134400368E0,-4.082155228E0
4.257645013E0,-6.391827464E-1,-7.612166882E0,-4.578067780E0
4.260170169E0,-9.481559992E-1,-7.144968510E0,-4.951946259E0
4.262695378E0,-1.266700506E0,-6.699604511E0,-5.196014404E0
4.265220899E0,-1.633101463E0,-6.325725555E0,-5.301597595E0
4.267746055E0,-1.901396751E0,-5.952146530E0,-5.349453926E0
4.270271263E0,-2.244168520E0,-5.647958755E0,-5.311169147E0
4.272796419E0,-2.596212626E0,-5.470590591E0,-5.248955727E0
4.275321628E0,-2.907578707E0,-5.370092392E0,-5.109872818E0
4.277846784E0,-3.163909674E0,-5.336293697E0,-5.064409256E0
4.280371992E0,-3.365206003E0,-5.506483078E0,-4.987838745E0
4.282897149E0,-3.508775234E0,-5.810670853E0,-4.855934620E0
4.285422357E0,-3.652643681E0,-6.155835152E0,-4.753043175E0
4.287947513E0,-3.837190151E0,-6.488736629E0,-4.714757919E0
4.290472669E0,-4.009473324E0,-6.809674263E0,-4.709972382E0
4.292997878E0,-4.069293976E0,-7.197610378E0,-4.729115009E0
4.295523451E0,-4.081557274E0,-7.604988575E0,-4.765007019E0
4.298048607E0,-4.134199142E0,-7.957032681E0,-4.772185802E0
4.300573815E0,-4.225126743E0,-8.227720261E0,-4.753043175E0
4.303098972E0,-4.256233215E0,-8.450551987E0,-4.743471622E0
4.305624180E0,-4.275375843E0,-8.670990944E0,-4.654638290E0
4.308149336E0,-4.217947960E0,-8.773882866E0,-4.551746845E0
4.310674544E0,-4.198805332E0,-8.812167168E0,-4.369593143E0
4.313199701E0,-4.167698860E0,-8.754739761E0,-4.226023674E0
4.315724909E0,-4.016652107E0,-8.704490662E0,-4.108476639E0
4.318250065E0,-3.779463291E0,-8.603992462E0,-3.929014683E0
4.320775222E0,-3.561716557E0,-8.433802605E0,-3.785146236E0
4.323300430E0,-3.307778120E0,-8.210970879E0,-3.605684519E0
4.325825951E0,-3.084946632E0,-7.976175308E0,-3.449851990E0
4.328351107E0,-2.797508717E0,-7.755736351E0,-3.339782238E0
4.330876315E0,-2.557927370E0,-7.480262756E0,-3.217449188E0
4.333401472E0,-2.414058924E0,-7.195217609E0,-3.008974552E0
4.335926680E0,-2.323131800E0,-6.895815849E0,-2.920439959E0
4.338451836E0,-2.239382982E0,-6.620342255E0,-2.790928602E0
4.340977044E0,-2.306381941E0,-6.270690918E0,-2.647359133E0
4.343502201E0,-2.344667196E0,-5.925825119E0,-2.501097918E0
4.346027409E0,-2.437987089E0,-5.590231895E0,-2.431705952E0
4.348552565E0,-2.562713146E0,-5.250152111E0,-2.379063845E0
4.351077722E0,-2.699103832E0,-4.898108006E0,-2.371885538E0
4.353602930E0,-2.862114906E0,-4.505086899E0,-2.393420935E0
4.356128451E0,-2.976970434E0,-4.224827290E0,-2.402992249E0
4.358653607E0,-3.068196774E0,-3.908675671E0,-2.443670034E0
4.361178815E0,-3.187838078E0,-3.566203117E0,-2.489133835E0
4.363703972E0,-3.295814037E0,-3.293122053E0,-2.551646233E0
4.366229180E0,-3.386741400E0,-3.015255690E0,-2.580360174E0
4.368754336E0,-3.458526134E0,-2.758924484E0,-2.711965322E0
4.371279544E0,-3.549752474E0,-2.619841576E0,-2.795714140E0
4.373804701E0,-3.621536970E0,-2.368296146E0,-2.889333248E0
4.376329909E0,-3.702893019E0,-2.243869543E0,-3.001796007E0
4.378855065E0,-3.762713671E0,-2.143370867E0,-3.095415115E0
4.381380222E0,-3.800998688E0,-2.033001900E0,-3.215056419E0
4.383905430E0,-3.861118555E0,-1.982752681E0,-3.296412230E0
4.386431003E0,-3.925724745E0,-1.913360834E0,-3.447459221E0
4.388956159E0,-3.932903051E0,-1.846062660E0,-3.535993576E0
4.391481367E0,-4.011866093E0,-1.779063582E0,-3.646362543E0
4.394006524E0,-3.983152390E0,-1.783849239E0,-3.727718592E0
4.396531732E0,-4.004687786E0,-1.791027784E0,-3.900300980E0
4.399056888E0,-4.004687786E0,-1.786242127E0,-4.067798615E0
4.401582097E0,-3.964009762E0,-1.810170293E0,-4.170989037E0
4.404107253E0,-3.904189348E0,-1.853241086E0,-4.302594185E0
4.406632461E0,-3.815654755E0,-1.925324917E0,-4.395914078E0
4.409157617E0,-3.690928936E0,-1.997109652E0,-4.491926193E0
4.411682774E0,-3.482454300E0,-2.090429783E0,-4.549354076E0
4.414207982E0,-3.305385351E0,-2.212762833E0,-4.666602135E0
4.416733503E0,-3.120838881E0,-2.301297188E0,-4.743471622E0
4.419258659E0,-2.895614386E0,-2.373081923E0,-4.822434902E0
4.421783867E0,-2.665604353E0,-2.502593279E0,-4.927719116E0
4.424309024E0,-2.466701031E0,-2.583949327E0,-4.997410297E0
4.426834232E0,-2.215454578E0,-2.672483683E0,-5.016552448E0
4.429359388E0,-1.959123492E0,-2.806781054E0,-5.090730190E0
4.431884597E0,-1.738684773E0,-2.924029350E0,-5.030909538E0
4.434409753E0,-1.621137381E0,-3.103790045E0,-5.050052166E0
4.436934961E0,-1.487139225E0,-3.281157970E0,-5.016552448E0
4.439460117E0,-1.383948803E0,-3.434298754E0,-5.038087845E0
4.441985274E0,-1.276271820E0,-3.647558928E0,-4.966303349E0
4.444510482E0,-1.161416292E0,-3.882354736E0,-4.990231514E0
4.447036055E0,-1.043868899E0,-4.105186462E0,-4.882255554E0
4.449561211E0,-9.960124493E-1,-4.433301926E0,-4.817649364E0
4.452086419E0,-8.955138922E-1,-4.787738800E0,-4.695615292E0
4.454611576E0,-7.995018363E-1,-5.092225552E0,-4.590032101E0
4.457136784E0,-7.348956466E-1,-5.367699623E0,-4.434498787E0
4.459661940E0,-6.846463680E-1,-5.679065228E0,-4.237987995E0
4.462187149E0,-6.200401783E-1,-5.937789440E0,-4.094119549E0
4.464712305E0,-5.575276613E-1,-6.292226315E0,-3.960121393E0
4.467237513E0,-5.647061467E-1,-6.634698868E0,-3.792324781E0
4.469762669E0,-5.144568682E-1,-6.905386925E0,-3.689433336E0
4.472287826E0,-4.785645306E-1,-7.207181931E0,-3.591028690E0
4.474813034E0,-4.426721931E-1,-7.578667641E0,-3.507279873E0
4.477338607E0,-4.331009090E-1,-7.875676632E0,-3.425923824E0
4.479863763E0,-4.666004181E-1,-8.132007599E0,-3.409173965E0
4.482388972E0,-5.048855543E-1,-8.400302887E0,-3.473780155E0
4.484914128E0,-5.694918036E-1,-8.627920151E0,-3.555136204E0
4.487439336E0,-6.296114326E-1,-8.903393745E0,-3.564707518E0
4.489964492E0,-7.109674215E-1,-9.107083321E0,-3.641577005E0
4.492489701E0,-7.396813035E-1,-9.334401131E0,-3.495315790E0
4.495014857E0,-6.726822853E-1,-9.550054550E0,-3.334996462E0
4.497540065E0,-7.301099896E-1,-9.662816048E0,-3.258127213E0
4.500065222E0,-8.955138922E-1,-9.765707016E0,-3.241377354E0
4.502590378E0,-1.031904817E0,-9.796813965E0,-3.157628536E0
4.505115586E0,-1.103689432E0,-9.792028427E0,-3.085843801E0
4.507641107E0,-1.187737346E0,-9.729815483E0,-3.069094181E0
4.510166263E0,-1.283450246E0,-9.677172661E0,-3.008974552E0
4.512691472E0,-1.412961721E0,-9.595518112E0,-2.870190859E0
4.515216628E0,-1.537388563E0,-9.451948166E0,-2.728715181E0
4.517741836E0,-1.640279889E0,-9.281759262E0,-2.601895571E0
4.520266992E0,-1.707578063E0,-9.097212791E0,-2.424527645E0
4.522792201E0,-1.745863199E0,-8.927322388E0,-2.271386862E0
4.525317357E0,-1.784148335E0,-8.709276199E0,-2.172981977E0
4.527842565E0,-1.791326880E0,-8.515158653E0,-2.120339870E0
4.530367722E0,-1.820040703E0,-8.254041672E0,-2.005484581E0
4.532892878E0,-1.855933070E0,-8.021638870E0,-1.897508383E0
4.535418086E0,-1.786541224E0,-7.746165276E0,-1.804188251E0
4.537943659E0,-1.724327803E0,-7.521239758E0,-1.720140338E0
4.540468867E0,-1.649851203E0,-7.250551701E0,-1.653141379E0
4.542994076E0,-1.563709617E0,-7.006184578E0,-1.593320727E0
4.545519284E0,-1.398305774E0,-6.802495480E0,-1.523928881E0
4.548044492E0,-1.240379453E0,-6.570092678E0,-1.528714538E0
4.550569701E0,-1.125224829E0,-6.364010811E0,-1.602892041E0
4.553094909E0,-1.130010486E0,-6.102894306E0,-1.708176255E0
4.555620117E0,-1.192523003E0,-5.848955631E0,-1.907079697E0
4.558145274E0,-1.249950767E0,-5.741278648E0,-2.153839588E0
4.560670482E0,-1.319342613E0,-5.679065228E0,-2.369492531E0
4.563195690E0,-1.364806175E0,-5.691029549E0,-2.671287298E0
4.565720899E0,-1.475175142E0,-5.738885880E0,-3.023331404E0
4.568246159E0,-1.599601984E0,-5.872884274E0,-3.337389469E0
4.570771367E0,-1.693221092E0,-6.045466423E0,-3.557528973E0
4.573296576E0,-1.772184253E0,-6.265905380E0,-3.761218071E0
4.575821784E0,-1.860718727E0,-6.534200668E0,-3.938585997E0
4.578346992E0,-1.899003863E0,-6.838387966E0,-4.147060871E0
4.580872201E0,-2.052443504E0,-7.087540627E0,-4.233202457E0
4.583397409E0,-2.248954296E0,-7.365406990E0,-4.386343002E0
4.585922617E0,-2.629712105E0,-7.576274872E0,-4.530211449E0
4.588447774E0,-2.890828848E0,-7.767999649E0,-4.578067780E0
4.590972982E0,-3.072982550E0,-8.007282257E0,-4.587639332E0
4.593498190E0,-3.211766243E0,-8.294719696E0,-4.616353035E0
4.596023399E0,-3.353241920E0,-8.529515266E0,-4.599603176E0
4.598548711E0,-3.513561010E0,-8.749954224E0,-4.635495663E0
4.601073919E0,-3.657429457E0,-8.963214874E0,-4.616353035E0
4.603599128E0,-3.786641836E0,-9.178867340E0,-4.649852753E0
4.606124336E0,-3.868296862E0,-9.322437286E0,-4.649852753E0
4.608649544E0,-3.944867134E0,-9.404091835E0,-4.628317356E0
4.611174753E0,-3.978366852E0,-9.518947601E0,-4.563711166E0
4.613699961E0,-4.016652107E0,-9.573982239E0,-4.482355118E0
4.616225169E0,-4.014258862E0,-9.523733139E0,-4.420141697E0
4.618750326E0,-3.992723703E0,-9.406484604E0,-4.328915119E0
4.621275534E0,-3.920938969E0,-9.281759262E0,-4.276273251E0
4.623800742E0,-3.750749588E0,-9.092427254E0,-4.240380764E0
4.626325951E0,-3.702893019E0,-8.879466057E0,-4.283451557E0
4.628851263E0,-3.609572887E0,-8.699705124E0,-4.331307888E0
4.631376472E0,-3.511168242E0,-8.512765884E0,-4.367200375E0
4.633901680E0,-3.460918903E0,-8.270791054E0,-4.432105541E0
4.636426888E0,-3.410669565E0,-8.088936806E0,-4.494318962E0
4.638952097E0,-3.362813234E0,-7.928318501E0,-4.606781960E0
4.641477305E0,-3.417848110E0,-7.750950813E0,-4.709972382E0
4.644002513E0,-3.429812193E0,-7.655237675E0,-4.731507778E0
4.646527722E0,-3.477668524E0,-7.559525013E0,-4.757828712E0
4.649052878E0,-3.520739317E0,-7.554739475E0,-4.815256596E0
4.651578086E0,-3.568894863E0,-7.511668682E0,-4.793721199E0
4.654103294E0,-3.741178274E0,-7.502097130E0,-4.906183720E0
4.656628503E0,-3.954438448E0,-7.559525013E0,-4.980660439E0
4.659153763E0,-4.256233215E0,-7.662416458E0,-5.107480049E0
4.661678972E0,-4.538885593E0,-7.851748466E0,-5.258526802E0
4.664204180E0,-4.788038254E0,-8.004889488E0,-5.414060116E0
4.666729388E0,-5.123332500E0,-8.203792572E0,-5.514857769E0
4.669254597E0,-5.564209938E0,-8.493622780E0,-5.464309692E0
4.671779805E0,-5.923432350E0,-8.828917503E0,-5.356632710E0
4.674305013E0,-6.251847267E0,-9.214759827E0,-5.160121918E0
4.676830222E0,-6.546463490E0,-9.605089188E0,-5.030909538E0
4.679355378E0,-6.678069115E0,-1.001007462E1,-4.882255554E0
4.681880586E0,-6.757331371E0,-1.037647533E1,-4.800899506E0
4.684405794E0,-6.757331371E0,-1.075274658E1,-4.741078854E0
4.686931003E0,-6.697211266E0,-1.107368374E1,-4.750650406E0
4.689456315E0,-6.572784901E0,-1.137787151E1,-4.753043175E0
4.691981524E0,-6.326025009E0,-1.160548878E1,-4.745864391E0
4.694506732E0,-5.944967747E0,-1.182832050E1,-4.774578571E0
4.697031940E0,-5.492425442E0,-1.204875946E1,-4.649852753E0
4.699557149E0,-4.919942379E0,-1.235773277E1,-4.513461590E0
4.702082357E0,-4.234697819E0,-1.280070400E1,-4.285844326E0
4.704607565E0,-3.436990738E0,-1.314347553E1,-4.091726780E0
4.707132774E0,-2.586641312E0,-1.345244884E1,-3.703790426E0
4.709657930E0,-1.741077542E0,-1.371835136E1,-3.061616659E0
4.712183138E0,-8.811569214E-1,-1.392443275E1,-2.259123564E0
4.714708347E0,8.913264424E-2,-1.416371536E1,-1.171585798E0
4.717233555E0,1.152742267E0,-1.430519104E1,-1.274178028E-1
4.719758867E0,2.022234201E0,-1.430758381E1,7.016952634E-1
4.722284076E0,2.901596546E0,-1.432672691E1,1.367498159E0
4.724809284E0,3.615255833E0,-1.428604889E1,1.853839397E0
4.727334492E0,4.159024715E0,-1.423340607E1,2.191526413E0
4.729859701E0,4.666901588E0,-1.409910965E1,2.606082916E0
4.732384909E0,5.162814140E0,-1.384038544E1,3.128316402E0
4.734910117E0,5.490929604E0,-1.345244884E1,3.451646566E0
4.737435326E0,5.761617661E0,-1.299960709E1,3.602394581E0
4.739960482E0,5.895915031E0,-1.237926769E1,3.760619879E0
4.742485690E0,5.807081223E0,-1.155045414E1,3.798905134E0
4.745010899E0,5.500501156E0,-1.056341457E1,3.521038532E0
4.747536107E0,5.165206909E0,-9.514162064E0,2.893520832E0
4.750061419E0,4.695615292E0,-8.462516785E0,1.947159410E0
4.752586628E0,3.953242064E0,-7.731808186E0,1.060917735E0
4.755111836E0,2.899203777E0,-7.336693287E0,3.684946895E-1
4.757637044E0,1.509572029E0,-7.422834873E0,-3.667000830E-1
4.760162253E0,-3.972085714E-1,-8.189435959E0,-1.248455167E0
4.762687461E0,-2.658426046E0,-9.684351921E0,-2.458027124E0
4.765212669E0,-4.970191956E0,-1.189771271E1,-4.288237095E0
4.767737878E0,-7.480561733E0,-1.499761391E1,-7.486244678E0
4.770263034E0,-1.144038391E1,-1.914886284E1,-1.104586792E1
4.772788242E0,-1.558684635E1,-2.392074966E1,-1.204247856E1
4.775313451E0,-1.728784370E1,-2.826611519E1,-9.843474388E0
4.777838659E0,-1.686850166E1,-3.126521873E1,-7.658827305E0
4.780363919E0,-1.491865063E1,-3.288934708E1,-6.825227261E0
4.782889128E0,-1.155045414E1,-3.348366547E1,-7.450352192E0
4.785414336E0,-6.764509678E0,-3.266681290E1,-9.793225288E0
4.787939544E0,-1.214058399E0,-3.047468948E1,-1.273729420E1
4.790464753E0,3.490829229E0,-2.732723045E1,-1.320658684E1
4.792989961E0,6.559325218E0,-2.365245438E1,-1.052841949E1
4.795515169E0,8.190631866E0,-1.970220184E1,-6.928118706E0
4.798040378E0,8.765806198E0,-1.603221130E1,-3.849752426E0
4.800565534E0,8.866305351E0,-1.306421375E1,-1.732403636E0
4.803090742E0,8.612366676E0,-1.081974602E1,-5.225326419E-1
4.805615951E0,7.900801182E0,-9.135796547E0,-5.772684515E-2
4.808141159E0,6.985845566E0,-7.846962929E0,1.097707376E-1
4.810666472E0,6.044270039E0,-6.902994156E0,-4.576273263E-2
4.813191680E0,5.201098919E0,-6.194120407E0,-3.933202326E-1
4.815716888E0,4.408177376E0,-5.712564945E0,-9.251250625E-1
4.818242097E0,3.605684519E0,-5.408377171E0,-1.531107426E0
4.820767305E0,2.810370207E0,-5.247759342E0,-2.172981977E0
4.823292513E0,2.108675003E0,-5.245366573E0,-2.697608471E0
4.825817722E0,1.476072431E0,-5.384449005E0,-3.090629578E0
4.828342930E0,9.394819736E-1,-5.702993870E0,-3.253341436E0
4.830868086E0,3.813561201E-1,-6.215655804E0,-3.229413271E0
4.833393294E0,-4.043870270E-1,-7.044469833E0,-3.030509949E0
4.835918503E0,-1.336092353E0,-7.966603756E0,-2.867797852E0
4.838443711E0,-2.186441660E0,-8.910572052E0,-2.927618504E0
4.840968972E0,-2.644068956E0,-9.878170013E0,-2.975475073E0
4.843494180E0,-2.682354212E0,-1.090349483E1,-2.977867842E0
4.846019388E0,-2.586641312E0,-1.188814068E1,-2.886940479E0
4.848544597E0,-2.380559444E0,-1.283420372E1,-2.719143867E0
4.851069805E0,-1.999801517E0,-1.376860046E1,-2.412563324E0
4.853595013E0,-1.570888042E0,-1.460937881E1,-1.921436548E0
4.856120222E0,-1.067797065E0,-1.536880112E1,-1.334596872E0
4.858645430E0,-4.618147612E-1,-1.599631882E1,-6.831508875E-1
4.861170586E0,1.106680483E-1,-1.639651871E1,-5.084747914E-3
4.863695794E0,7.142575383E-1,-1.666002846E1,6.200401783E-1
4.866221003E0,1.425823212E0,-1.665045547E1,1.029811025E0
4.868746211E0,2.209173441E0,-1.640608978E1,1.223928809E0
4.871311003E0,2.990130901E0,-1.589103413E1,1.226321578E0
4.873836211E0,3.675076485E0,-1.518425465E1,9.098708034E-1
4.876361367E0,4.221537113E0,-1.433629799E1,4.812564552E-1
4.878886576E0,4.575973988E0,-1.346680546E1,2.602194622E-2
4.881411784E0,4.719543457E0,-1.266431332E1,-4.100699723E-1
4.883936992E0,4.731507778E0,-1.197667599E1,-7.645068169E-1
4.886462201E0,4.587938309E0,-1.144726372E1,-1.008873820E0
4.888987409E0,4.202095509E0,-1.099232769E1,-1.200598717E0
4.891512617E0,3.591327667E0,-1.065434170E1,-1.265205026E0
4.894037826E0,2.807977438E0,-1.042433167E1,-1.284347534E0
4.896563034E0,1.945663929E0,-1.034776115E1,-1.377667665E0
4.899088242E0,1.150349498E0,-1.033819008E1,-1.478465319E0
4.901574076E0,3.861417472E-1,-1.044855881E1,-1.638784409E0
4.904099284E0,-3.661018610E-1,-1.061366367E1,-1.909472466E0
4.906624492E0,-1.101296663E0,-1.080778122E1,-2.172981977E0
4.909149701E0,-1.843968987E0,-1.105454159E1,-2.455634356E0
4.911674909E0,-2.529213428E0,-1.129890823E1,-2.752643347E0
4.914200117E0,-3.099303484E0,-1.152173996E1,-2.951546669E0
4.916725326E0,-3.573680639E0,-1.176820087E1,-3.150450230E0
4.919250534E0,-3.803391695E0,-1.196471119E1,-3.260519981E0
4.921775690E0,-3.856332779E0,-1.208465195E1,-3.339782238E0
4.924300899E0,-3.796213150E0,-1.210618687E1,-3.342175007E0
4.926826107E0,-3.607180119E0,-1.206072330E1,-3.305983543E0
4.929351315E0,-3.307778120E0,-1.186899853E1,-3.368496180E0
4.931876628E0,-2.893221617E0,-1.158156109E1,-3.418745279E0
4.934401836E0,-2.502892494E0,-1.116461182E1,-3.464209080E0
4.936927044E0,-2.148156643E0,-1.056341457E1,-3.468994617E0
4.939452253E0,-1.918146491E0,-9.890133858E0,-3.418745279E0
4.941977461E0,-1.781755567E0,-9.224330902E0,-3.272484064E0
4.944502669E0,-1.705185294E0,-8.517551422E0,-3.104986429E0
4.947027878E0,-1.628315806E0,-7.882854939E0,-2.980260611E0
4.949553086E0,-1.640279889E0,-7.343871593E0,-2.958725214E0
4.952078242E0,-1.594816327E0,-6.900601387E0,-2.975475073E0
4.954603451E0,-1.546959877E0,-6.471987247E0,-2.994617462E0
4.957128659E0,-1.527817249E0,-6.076572895E0,-3.037688255E0
4.959653867E0,-1.539781332E0,-5.750850201E0,-3.085843801E0
4.962179180E0,-1.575673699E0,-5.456233978E0,-3.183949709E0
4.964704388E0,-1.618744493E0,-5.192724228E0,-3.217449188E0
4.967229597E0,-1.637887120E0,-4.917250633E0,-3.317947626E0
4.969754805E0,-1.659422517E0,-4.732704163E0,-3.409173965E0
4.972280013E0,-1.652244091E0,-4.627419949E0,-3.514458179E0
4.974805222E0,-1.599601984E0,-4.517050743E0,-3.629612923E0
4.977330430E0,-1.556531072E0,-4.435695171E0,-3.785146236E0
4.979855638E0,-1.460818172E0,-4.375874519E0,-3.948157310E0
4.982380794E0,-1.326521039E0,-4.373481750E0,-4.082155228E0
4.984906003E0,-1.156630635E0,-4.399802685E0,-4.187738895E0
4.987431211E0,-9.457631707E-1,-4.462016106E0,-4.249952316E0
4.989956419E0,-7.085745931E-1,-4.572384834E0,-4.209274292E0
4.992481680E0,-4.905286431E-1,-4.648955345E0,-4.168596268E0
4.995006888E0,-3.251247704E-1,-4.739882469E0,-3.996013880E0
4.997532097E0,-1.217348501E-1,-4.898108006E0,-3.756432533E0
5.000057305E0,2.991028363E-3,-5.044070244E0,-3.543172121E0
5.002582513E0,1.226321608E-1,-5.257330418E0,-3.294019461E0
5.005107722E0,2.330010980E-1,-5.499304771E0,-2.965903759E0
5.007632930E0,2.976073027E-1,-5.702993870E0,-2.625823736E0
5.010158138E0,3.861417472E-1,-5.913861275E0,-2.206481695E0
5.012683294E0,5.395814776E-1,-6.150750637E0,-1.828116536E0
5.015208503E0,6.113662124E-1,-6.438487530E0,-1.401595831E0
5.017733711E0,6.257231236E-1,-6.629913330E0,-9.873384237E-1
5.020258919E0,6.711867452E-1,-6.809674263E0,-5.847460628E-1
5.022784232E0,6.544370055E-1,-6.977470875E0,-2.638086975E-1
5.025309440E0,5.874379873E-1,-7.123433113E0,9.780662507E-2
5.027834649E0,5.443671346E-1,-7.200003147E0,4.692923427E-1
5.030359857E0,3.837489188E-1,-7.291229725E0,7.399803996E-1
5.032885065E0,2.641077936E-1,-7.394121170E0,9.580263495E-1
5.035410274E0,1.106680483E-1,-7.430013180E0,1.025025368E0
5.037935482E0,-6.909275055E-2,-7.514061451E0,1.044167995E0
5.040460690E0,-1.959123611E-1,-7.578667641E0,1.068096161E0
5.042985847E0,-3.131606579E-1,-7.712665558E0,1.034596682E0
5.045511055E0,-3.852444589E-1,-7.873283863E0,8.739784956E-1
5.048036263E0,-4.354937077E-1,-8.057829857E0,5.530411601E-1
5.050561472E0,-4.689932466E-1,-8.246863365E0,2.392822653E-1
5.053086784E0,-5.216353536E-1,-8.405088425E0,-1.776670814E-1
5.055611992E0,-5.048855543E-1,-8.592027664E0,-6.592226624E-1
5.058137201E0,-4.953143001E-1,-8.702097893E0,-1.195813060E0
5.060662409E0,-4.450650215E-1,-8.790632248E0,-1.698604941E0
5.063187617E0,-3.972085714E-1,-8.845966339E0,-2.180160522E0
5.065712826E0,-3.275175989E-1,-8.845966339E0,-2.661715984E0
5.068238034E0,-2.533400953E-1,-8.807381630E0,-3.124129057E0
5.070763242E0,-2.437688112E-1,-8.702097893E0,-3.547957659E0
5.073288451E0,-2.796611488E-1,-8.551051140E0,-3.849752426E0
5.075813659E0,-4.091726840E-1,-8.412266731E0,-4.077369690E0
5.078338867E0,-5.910272002E-1,-8.227720261E0,-4.261916161E0
5.080864076E0,-8.449655175E-1,-8.053044319E0,-4.285844326E0
5.083389336E0,-1.230808139E0,-7.873283863E0,-4.293023109E0
5.085914544E0,-1.594816327E0,-7.765606880E0,-4.235595226E0
5.088439753E0,-1.983051777E0,-7.640881062E0,-4.101297855E0
5.090964961E0,-2.387737989E0,-7.585845947E0,-3.895515203E0
5.093490169E0,-2.737389088E0,-7.566703320E0,-3.675076485E0
5.096015378E0,-3.041875839E0,-7.571488857E0,-3.435495138E0
5.098540586E0,-3.336492062E0,-7.633702278E0,-3.248555899E0
5.101065794E0,-3.518346548E0,-7.710272789E0,-3.001796007E0
5.103591003E0,-3.741178274E0,-7.806284904E0,-2.776571512E0
5.106116211E0,-3.925724745E0,-7.861319542E0,-2.676073074E0
5.108641419E0,-4.052544117E0,-7.921140194E0,-2.644966364E0
5.111166628E0,-4.107878208E0,-7.949853897E0,-2.668894529E0
5.113691888E0,-4.146163464E0,-7.997710705E0,-2.829512835E0
5.116217097E0,-4.134199142E0,-8.057829857E0,-3.126521826E0
5.118742305E0,-4.011866093E0,-8.000102997E0,-3.406781197E0
5.121267513E0,-3.781856298E0,-7.928318501E0,-3.653541088E0
5.123792722E0,-3.480061531E0,-7.796713352E0,-3.777967930E0
5.126317930E0,-3.056232691E0,-7.638488293E0,-3.672683716E0
5.128843138E0,-2.562713146E0,-7.425227642E0,-3.418745279E0
5.131368347E0,-2.006979942E0,-7.248158932E0,-2.961117983E0
5.133893555E0,-1.403091431E0,-7.133004189E0,-2.367099762E0
5.136418763E0,-7.731808424E-1,-7.097112179E0,-1.727617979E0
5.138943972E0,-1.528415531E-1,-7.109076023E0,-1.118943691E0
5.141469180E0,4.339981973E-1,-7.113861561E0,-6.421737671E-1
5.143994388E0,9.251250625E-1,-7.137789726E0,-3.523431420E-1
5.146519597E0,1.322931767E0,-7.164111137E0,-2.590230405E-1
5.149044805E0,1.593619823E0,-7.130611420E0,-3.140579760E-1
