time,seconds_elapsed,z,y,x
1686445309350533000,0.140533203125,-0.00780705688521266,0.0003014698449987918,0.004995291121304035
1686445309360550100,0.150550048828125,-0.005883188918232918,-0.0034357442054897547,0.0019920445047318935
1686445309370566100,0.160566162109375,-0.007774832658469677,-0.005227252375334501,-0.0023225427139550447
1686445309380583200,0.170583251953125,-0.0023928501177579165,-0.0028639633674174547,-0.0016495619202032685
1686445309390600200,0.18060009765625,-0.0027366643771529198,-0.0005648564547300339,0.0018519621808081865
1686445309400616200,0.1906162109375,-0.0012221246724948287,0.00259418529458344,0.003995274193584919
1686445309410633200,0.20063330078125,0.002692455891519785,0.004683434963226318,0.006134058814495802
1686445309420650200,0.210650146484375,0.00019973708549514413,0.005592904519289732,0.00484269205480814
1686445309430666200,0.220666259765625,0.0004892227007076144,0.0009462211164645851,0.0021166803780943155
1686445309440683000,0.23068310546875,-0.004366252571344376,-0.001107076066546142,-0.004033357370644808
1686445309450699300,0.24069921875,-0.0023989754263311625,-0.004472779110074043,-0.0003259709046687931
1686445309460716300,0.25071630859375,-0.0037819549906998873,-0.004991296678781509,0.001439971150830388
1686445309470733000,0.260733154296875,-0.007100253831595182,-0.005860552191734314,0.006884271278977394
1686445309480749000,0.2707490234375,-0.009492038749158382,-0.0028873991686850786,0.00373002327978611
1686445309490766300,0.280766357421875,-0.008027832955121994,-0.0012796488590538502,0.0019768644124269485
1686445309500782300,0.2907822265625,-0.010935205966234207,0.0034437335561960936,-0.0020785972010344267
1686445309510799600,0.300799560546875,-0.010704043321311474,0.011553059332072735,-0.007470433134585619
1686445309520816600,0.310816650390625,-0.009412942454218864,0.011743474751710892,-0.007430219557136297
1686445309530832600,0.32083251953125,-0.007933290675282478,0.01565166376531124,-0.009228652343153954
1686445309540849700,0.330849609375,-0.005938583053648472,0.012330436147749424,-0.0027542412281036377
1686445309550865700,0.34086572265625,-0.004859469830989838,0.011952267028391361,-0.002912699244916439
1686445309560882700,0.350882568359375,-0.0041404166258871555,0.010676613077521324,-0.0046996804885566235
1686445309570899700,0.360899658203125,-0.007818774320185184,0.00794287770986557,-0.0038453382439911366
1686445309580915700,0.370915771484375,-0.0073050507344305515,0.009691243059933186,-0.001657018787227571
1686445309590932500,0.380932373046875,-0.007330084685236216,0.007504521403461695,-0.004859203472733498
1686445309600949800,0.39094970703125,-0.00421418622136116,0.0073133064433932304,0.001136370818130672
1686445309610965800,0.4009658203125,-0.0018817896489053965,0.00392709719017148,-0.0022210762836039066
1686445309620982500,0.410982421875,-0.0012325108982622623,0.0024429175537079573,-0.004740426782518625
1686445309630998500,0.42099853515625,0.002567020943388343,-0.0011531487107276917,-0.007720503956079483
1686445309641015800,0.431015869140625,0.0023968450259417295,-0.004199538845568895,-0.006517554167658091
1686445309651032600,0.441032470703125,0.0008191883680410683,-0.004307929426431656,-0.00660384027287364
1686445309661048600,0.451048583984375,0.0037526602391153574,-0.0040948763489723206,-0.005013134330511093
1686445309671065600,0.461065673828125,0.0032408006954938173,-0.0014335796004161239,-0.00253453035838902
1686445309681081900,0.471081787109375,0.0020367854740470648,0.0009323726990260184,-0.0013693973887711763
1686445309691098600,0.4810986328125,0.0005273058777675033,0.005786782596260309,-0.0010122675448656082
1686445309701115600,0.49111572265625,-0.002686863299459219,0.006144711747765541,-0.0005259743193164468
1686445309711131600,0.501131591796875,-0.0023931164760142565,0.005541239399462938,0.0022266688756644726
1686445309721148700,0.511148681640625,0.0002287655370309949,0.005912217777222395,0.00038242992013692856
1686445309731165700,0.521165771484375,-0.0046730488538742065,-0.00015419702685903758,0.0020122844725847244
1686445309741181700,0.531181640625,-0.002883404493331909,0.0022951122373342514,-0.001660214620642364
1686445309751198700,0.54119873046875,-0.00666296249255538,0.009853430092334747,-0.000523577444255352
1686445309761214700,0.551214599609375,-0.003064233111217618,0.014109959825873375,0.0035148400347679853
1686445309771231700,0.561231689453125,-0.0038045919500291348,0.023020897060632706,0.0030858046375215054
1686445309781248500,0.57124853515625,-0.0041302964091300964,0.025859028100967407,0.00842730700969696
1686445309791264800,0.5812646484375,-0.006642988882958889,0.025649437680840492,0.0027569043450057507
1686445309801281800,0.59128173828125,-0.0070765516720712185,0.021282652392983437,0.009554889053106308
1686445309811297500,0.601297607421875,-0.004726844374090433,0.009974337182939053,0.008974852971732616
1686445309821314600,0.611314453125,-0.003686347510665655,0.007555920630693436,0.007219829596579075
1686445309831331800,0.621331787109375,-0.005449360236525536,0.004898352082818747,0.008899219334125519
1686445309841347600,0.63134765625,-0.0008375641773454845,0.000886566296685487,0.010979946702718735
1686445309851364600,0.641364501953125,-0.0004599279200192541,0.0004724447790067643,0.009946640580892563
1686445309861382000,0.6513818359375,0.0017504957504570484,0.0037121803034096956,0.007168697193264961
1686445309871397600,0.661397705078125,0.0004950816510245204,0.005389705300331116,0.0035547874867916107
1686445309881414700,0.67141455078125,-0.001933721243403852,0.0018735338235273957,0.004742557182908058
1686445309891430700,0.6814306640625,-0.004311391618102789,-0.000007723167072981596,0.0029915287159383297
1686445309901447700,0.69144775390625,-0.006190517917275429,-0.002686596941202879,0.0013856426812708378
1686445309911464700,0.701464599609375,-0.006337258033454418,-0.004837365821003914,-0.0024810009635984898
1686445309921480700,0.711480712890625,-0.00839747954159975,-0.008703476749360561,-0.0032487902790308
1686445309931497500,0.72149755859375,-0.009386844001710415,-0.006042712368071079,-0.0011640676530078053
1686445309941513700,0.731513671875,-0.009459547698497772,-0.006628341507166624,-0.00395852280780673
1686445309951530800,0.74153076171875,-0.011803129687905312,-0.005124188028275967,-0.0023217438720166683
1686445309961547500,0.751547607421875,-0.00842517614364624,-0.001261539408005774,0.006417952012270689
1686445309971563500,0.7615634765625,-0.008141549304127693,0.0044104610569775105,0.007758587133139372
1686445309981580800,0.771580810546875,-0.008563128300011158,0.00615110294893384,0.010688597336411476
1686445309991597600,0.78159765625,-0.003829359309747815,0.005923402961343527,0.012746155261993408
1686445310001613600,0.791613525390625,-0.005104214418679476,0.010367685928940773,0.011456386186182499
1686445310011630800,0.801630859375,-0.0024580976460129023,0.005204349290579557,0.01552489772439003
1686445310021646800,0.811646728515625,-0.002900448627769947,0.0016450346447527409,0.011998605914413929
1686445310031663600,0.82166357421875,0.001609081868082285,0.002016545506194234,0.0054794540628790855
1686445310041680600,0.8316806640625,-0.0007094661123119295,-0.001169394003227353,0.004567055031657219
1686445310051697000,0.84169677734375,0.0015784555580466986,-0.005549228750169277,-0.0038314899429678917
1686445310061713700,0.851713623046875,-0.00020106865849811584,-0.004601143300533295,-0.009766343981027603
1686445310071729700,0.861729736328125,0.0011749867117032409,-0.00631888210773468,-0.004960137419402599
1686445310081746700,0.87174658203125,0.0002258360618725419,-0.009577525779604912,-0.0052205948159098625
1686445310091763700,0.881763671875,-0.0021939121652394533,-0.01203908585011959,-0.007665643002837896
1686445310101779700,0.89177978515625,-0.004875715356320143,-0.010437460616230965,-0.0062275356613099575
1686445310111796700,0.901796630859375,-0.00878923013806343,-0.005851231049746275,-0.012824186123907566
1686445310121812500,0.9118125,-0.010072607547044754,-0.003996339626610279,-0.012054000049829483
1686445310131829800,0.921829833984375,-0.006878945045173168,-0.003093261504545808,-0.00101120222825557
1686445310141846800,0.9318466796875,-0.010105897672474384,0.001172323478385806,0.005367867648601532
1686445310151862500,0.941862548828125,-0.009494435973465443,0.002540655666962266,0.005921804811805487
1686445310161879800,0.9518798828125,-0.011425226926803589,0.005997172556817532,0.0020330571569502354
1686445310171896600,0.961896484375,-0.011691010557115078,0.011893144808709621,-0.0012535499408841133
1686445310181912600,0.97191259765625,-0.012201804667711258,0.012439891695976257,-0.0009590042755007744
1686445310191929600,0.9819296875,-0.012079565785825253,0.013527260161936283,0.0034016557037830353
1686445310201945900,0.99194580078125,-0.010418020188808441,0.013340040110051632,0.008585232309997082
1686445310211962600,1.001962646484375,-0.00675297761335969,0.01714702881872654,0.011567173525691032
1686445310221979600,1.011979736328125,-0.0075964005663990974,0.019052520394325256,0.009694971144199371
1686445310231995600,1.02199560546875,-0.0019912454299628735,0.019932961091399193,0.009191900491714478
1686445310242012700,1.0320126953125,-0.0031403994653373957,0.016328640282154083,0.005902896635234356
1686445310252028700,1.042028564453125,0.00036139096482656896,0.009584716521203518,0.003959587775170803
1686445310262045700,1.052045654296875,-0.001975266495719552,0.0030453247018158436,-0.0028482507914304733
1686445310272062700,1.062062744140625,-0.004571315832436085,-0.0036506610922515392,-0.0004942826926708221
1686445310282078700,1.07207861328125,-0.003278617514297366,-0.011692608706653118,0.002161954063922167
1686445310292095700,1.082095703125,-0.00387410051189363,-0.016323046758770943,0.007931692525744438
1686445310302112500,1.092112548828125,-0.0025065671652555466,-0.014720888808369637,0.0106505136936903
1686445310312128800,1.102128662109375,-0.0010439591715112329,-0.010343983769416809,0.013171728700399399
1686445310322145800,1.112145751953125,-0.004738828632980585,-0.00788695178925991,0.007243531756103039
1686445310332161800,1.122161865234375,-0.0017624800093472004,-0.007571367081254721,0.007583351340144873
1686445310342178600,1.132178466796875,-0.0060022324323654175,-0.01272671390324831,0.004186489153653383
1686445310352195800,1.14219580078125,-0.000904409505892545,-0.016272446140646935,0.004041346721351147
1686445310362211600,1.152211669921875,-0.003837881376966834,-0.01438240148127079,0.004240551497787237
1686445310372228600,1.162228515625,-0.0016391756944358349,-0.002176867797970772,-0.0009933591354638338
1686445310382244600,1.17224462890625,-0.006390521302819252,0.00555082643404603,-0.0029814087320119143
1686445310392261600,1.18226171875,-0.006735933478921652,0.011935489252209663,-0.0017590179340913892
1686445310402278700,1.192278564453125,-0.007815845310688019,0.010393785312771797,-0.0032836776226758957
1686445310412294700,1.202294677734375,-0.00833915639668703,0.008078965358436108,0.0027507790364325047
1686445310422311700,1.212311767578125,-0.008489358238875866,0.007968178018927574,0.0075750951655209064
1686445310432327700,1.22232763671875,-0.007360444404184818,0.007475226651877165,0.008442486636340618
1686445310442344700,1.2323447265625,-0.011232414282858372,0.010567156597971916,0.008101602084934711
1686445310452361500,1.242361572265625,-0.008773251436650753,0.008442752994596958,0.010025469586253166
1686445310462377700,1.252377685546875,-0.005558283533900976,0.010072873905301094,0.00748960766941309
1686445310472394800,1.262394775390625,-0.00390339526347816,0.011598066426813602,0.006669354159384966
1686445310482411500,1.27241162109375,-0.006551109720021486,0.009036105126142502,0.005743106827139854
1686445310492427500,1.282427490234375,-0.003976366017013788,0.00993225909769535,0.004562261048704386
1686445310502444800,1.29244482421875,-0.001630387152545154,0.009471531957387924,0.006858705077320337
1686445310512460800,1.302460693359375,-0.004265851341187954,0.008728510700166225,0.011114436201751232
1686445310522477600,1.3124775390625,-0.0027326694689691067,0.013584784232079983,0.012166384607553482
1686445310532494800,1.322494873046875,-0.007285343483090401,0.01894972287118435,0.012733105570077896
1686445310542510800,1.3325107421875,-0.008526642806828022,0.016832243651151657,0.015335546806454659
1686445310552527600,1.342527587890625,-0.005183043889701366,0.01173308864235878,0.01714915968477726
1686445310562543600,1.352543701171875,-0.008190551772713661,0.006160424090921879,0.014054033905267715
1686445310572561000,1.362560791015625,-0.005075186025351286,0.0044205812737345695,0.008048072457313538
1686445310582577700,1.37257763671875,-0.004601409658789635,0.002356897573918104,-0.0004665858286898583
1686445310592593700,1.38259375,-0.003028813051059842,0.003564374754205346,-0.00195129809435457
1686445310602611000,1.39261083984375,-0.003237072378396988,0.005921538453549147,0.0003779025573749095
1686445310612627700,1.402627685546875,-0.003266367129981518,0.007784686051309109,0.004705006722360849
1686445310622643700,1.412643798828125,-0.0006085322820581496,0.008730906993150711,0.0018935075495392084
1686445310632660700,1.42266064453125,-0.004597148858010769,0.00672208471223712,0.0020479708909988403
1686445310642676700,1.4326767578125,-0.005275189410895109,0.008316519670188427,-0.00035180358099751174
1686445310652693800,1.44269384765625,-0.004724713973701,0.002025600289925933,-0.004890629090368748
1686445310662710800,1.452710693359375,-0.005932990461587906,-0.0011491540353745222,-0.002663161139935255
1686445310672726500,1.4627265625,-0.0018050905782729387,-0.0013771206140518188,0.0009914948605000973
1686445310682743800,1.472743896484375,-0.005907956510782242,-0.002722017001360655,-0.00001304948909819359
1686445310692759800,1.482759765625,-0.003754258155822754,0.002543052425608039,0.0019528960110619664
1686445310702776600,1.492776611328125,-0.0062126219272613525,0.004731904715299606,0.004707936197519302
1686445310712793900,1.5027939453125,-0.007375890854746103,0.00866406224668026,0.004279699642211199
1686445310722809900,1.512809814453125,-0.00529489666223526,0.008812665939331055,0.0070464578457176685
1686445310732826600,1.52282666015625,-0.006893326062709093,0.006548180244863033,0.014970161020755768
1686445310742842600,1.532842529296875,-0.003961452282965183,0.002900448627769947,0.016413327306509018
1686445310752860000,1.54285986328125,-0.003838680451735854,0.0029411951545625925,0.015401593409478664
1686445310762876700,1.552876708984375,-0.004176635295152664,0.003829359309747815,0.010422014631330967
1686445310772892700,1.562892578125,-0.0035177695099264383,0.0032623722217977047,0.010540259070694447
1686445310782909700,1.57290966796875,-0.005870406050235033,-0.0009123989730142057,0.011810586787760258
1686445310792926000,1.582926025390625,-0.002213619416579604,0.000723048229701817,0.015531822107732296
1686445310802942700,1.592942626953125,-0.0023763386998325586,-0.00047697214176878333,0.009063802659511566
1686445310812959700,1.602959716796875,-0.00336117553524673,0.00401711231097579,0.008766593411564827
1686445310822975700,1.612975830078125,-0.0035217641852796078,0.006156695540994406,0.004234692547470331
1686445310832992800,1.62299267578125,-0.0033358754590153694,0.004994758404791355,0.0031012510880827904
1686445310843009800,1.633009765625,-0.005269596818834543,0.003034938359633088,0.004165716469287872
1686445310853025800,1.64302587890625,-0.006913566030561924,0.0017006946727633476,0.004599811974912882
1686445310863042800,1.653042724609375,-0.007798002101480961,0.009765013121068478,0.006371612660586834
1686445310873058800,1.663058837890625,-0.009698700159788132,0.005964415613561869,0.009492571465671062
1686445310883075800,1.673075927734375,-0.011124290525913239,0.009614277631044388,0.009358881041407585
1686445310893092600,1.683092529296875,-0.008406001143157482,0.010240653529763222,0.007809187285602093
1686445310903108900,1.69310888671875,-0.015413044951856136,0.010029198601841927,0.011796738021075726
1686445310913125600,1.703125732421875,-0.01101376861333847,0.008164718747138977,0.009927199222147465
1686445310923141600,1.7131416015625,-0.008846222423017025,0.009967679157853127,0.007867776788771152
1686445310933158700,1.72315869140625,-0.009652627632021904,0.00711676524952054,0.004927380476146936
1686445310943175700,1.73317578125,-0.009303220547735691,0.010031861253082752,0.007457383442670107
1686445310953191700,1.743191650390625,-0.005190767347812653,0.004567055031657219,0.006711698602885008
1686445310963208700,1.753208740234375,-0.007924501784145832,0.0038043255917727947,0.008473645895719528
1686445310973225700,1.763225830078125,-0.006727410946041346,0.005090366117656231,0.0076187714003026485
1686445310983241700,1.77324169921875,-0.005935919936746359,0.00506799528375268,0.008798285387456417
1686445310993258800,1.7832587890625,-0.005764145869761705,0.0006929545197635889,0.010786867700517178
1686445311003274800,1.793274658203125,-0.00185036426410079,0.004568919073790312,0.00887871254235506
1686445311013291800,1.803291748046875,-0.005937783978879452,0.0023997745011001825,0.008798019029200077
1686445311023308800,1.813308837890625,-0.0021960425656288862,0.0012311793398112059,0.009035838767886162
1686445311033324800,1.82332470703125,-0.005057609174400568,-0.0026431872975081205,0.0060048955492675304
1686445311043341600,1.833341552734375,-0.004486893769353628,-0.0046874298714101315,0.002460228279232979
1686445311053357600,1.843357666015625,-0.0017142767319455743,-0.006506102625280619,0.0005704491049982607
1686445311063374800,1.853374755859375,-0.003964914008975029,-0.006588394287973642,-0.0008596684201620519
1686445311073391600,1.8633916015625,-0.0008631304954178631,-0.0027177559677511454,-0.0026165556628257036
1686445311083407600,1.87340771484375,-0.004253867082297802,-0.004217382054775953,0.0030181603506207466
1686445311093425000,1.8834248046875,-0.0029406624380499125,-0.0009739180095493793,0.0009912285022437572
1686445311103440600,1.893440673828125,-0.004938033409416676,-0.002561161993071437,0.0031883365008980036
1686445311113457700,1.903457763671875,-0.004482366610318422,0.0007475492893718183,-0.0010990865994244814
1686445311123475000,1.913474853515625,-0.005307413637638092,-0.00035926041891798377,-0.0033252229914069176
1686445311133490700,1.92349072265625,-0.010746121406555176,0.005644303746521473,-0.004601143300533295
1686445311143507700,1.9335078125,-0.007669104728847742,0.005671467632055283,-0.005922603886574507
1686445311153523700,1.943523681640625,-0.0106531772762537,0.0007315703551284969,-0.005319664254784584
1686445311163540500,1.95354052734375,-0.011805526912212372,-0.0009504822082817554,-0.005140699911862612
1686445311173557800,1.963557861328125,-0.008085357025265694,-0.003468500915914774,-0.000600809114985168
1686445311183573800,1.97357373046875,-0.008072307333350182,0.001933454885147512,0.0009629990672692657
1686445311193590500,1.983590576171875,-0.010934406891465187,0.00452737370505929,0.004275705199688673
1686445311203607800,1.99360791015625,-0.007290669716894627,0.00980309583246708,0.010163954459130764
1686445311213623800,2.003623779296875,-0.008554339408874512,0.011085141450166702,0.006671218667179346
1686445311223640600,2.013640625,-0.0029912625905126333,0.010668623261153698,0.009707754477858543
1686445311233656600,2.023656494140625,-0.007389472797513008,0.0068387314677238464,-0.0013960290234535933
1686445311243673900,2.033673828125,-0.00624191714450717,0.0048797097988426685,-0.003882089862599969
1686445311253690600,2.043690673828125,-0.006918626371771097,0.004033890087157488,-0.0020221380982548
1686445311263706600,2.05370654296875,-0.004579305648803711,-0.0010727213229984045,0.00043356261448934674
1686445311273723600,2.0637236328125,-0.0002436792419757694,-0.003686347510665655,0.005213137716054916
1686445311283740000,2.073739990234375,-0.00564084155485034,-0.00019734023953787982,0.007877363823354244
1686445311293756700,2.083756591796875,-0.0008916263468563557,0.0005842975224368274,0.007821171544492245
1686445311303773700,2.093773681640625,-0.0020383833907544613,-0.001133707701228559,0.005995308049023151
1686445311313789700,2.103789794921875,-0.0027656927704811096,0.0013845774810761213,0.003966778516769409
1686445311323806700,2.113806640625,-0.003796069882810116,-0.0006490123341791332,-0.0004223773430567235
1686445311333822700,2.12382275390625,-0.004881574306637049,-0.0030975225381553173,-0.003939347807317972
1686445311343839700,2.13383984375,-0.004767058417201042,-0.0035246936604380608,-0.0011861718958243728
1686445311353856800,2.143856689453125,-0.007752728182822466,-0.0041430797427892685,-0.0022538332268595695
1686445311363872800,2.153872802734375,-0.006494118366390467,-0.002001898130401969,-0.0026288062799721956
1686445311373889800,2.163889892578125,-0.0025800704024732113,0.00034967303508892655,0.0008950884221121669
1686445311383906600,2.173906494140625,-0.0019355855183675885,0.003114566905423999,-0.001186970854178071
1686445311393922800,2.1839228515625,-0.0028788771014660597,0.0046325684525072575,0.0031965922098606825
1686445311403939800,2.19393994140625,-0.0073468624614179134,0.009679791517555714,0.0033358754590153694
1686445311413955600,2.20395556640625,-0.0024490428622812033,0.014503308571875095,0.0009872338268905878
1686445311423972600,2.21397265625,-0.00507039250805974,0.013285445049405098,-0.0015038870042189956
1686445311433990000,2.223989990234375,-0.005579588934779167,0.01070857048034668,-0.0016468988033011556
1686445311444005600,2.234005615234375,-0.004297276493161917,0.008043545298278332,-0.0014764565275982022
1686445311454022700,2.244022705078125,-0.006381466519087553,0.005540706682950258,-0.003993942867964506
1686445311464038700,2.25403857421875,-0.004179831128567457,0.004298341926187277,-0.00010892329009948298
1686445311474055700,2.2640556640625,-0.007865645922720432,0.008202003315091133,0.003453853540122509
1686445311484072700,2.27407275390625,-0.00421365350484848,0.011598066426813602,0.001317998394370079
1686445311494088700,2.284088623046875,-0.007722101639956236,0.010387926362454891,-0.0007004113867878914
1686445311504105700,2.294105712890625,-0.00748987402766943,0.008502141572535038,-0.002523611532524228
1686445311514121200,2.304121337890625,-0.0059875850565731525,0.0018485001055523753,-0.003436809405684471
1686445311524138200,2.31413818359375,-0.007901598699390888,-0.0024261397775262594,-0.007140733767300844
1686445311534155000,2.324155029296875,-0.005026982631534338,-0.0008173241512849927,-0.0057468353770673275
1686445311544171000,2.3341708984375,-0.003994741477072239,0.0000066579027588886674,-0.0054911719635128975
1686445311554188300,2.344188232421875,-0.003970240708440542,0.0006141249323263764,0.002680205274373293
1686445311564204300,2.354204345703125,-0.0014333132421597838,0.0019038938917219639,0.004884237423539162
1686445311574221000,2.364220947265625,-0.0030328077264130116,0.0011805793037638068,0.004084223881363869
1686445311584238300,2.37423828125,-0.004408863373100758,0.0014255901332944632,0.005247492343187332
1686445311594254300,2.38425439453125,-0.003894606838002801,0.005055745132267475,0.003736947663128376
1686445311604271000,2.39427099609375,-0.004428304266184568,0.003698598127812147,-0.0017473000334575772
1686445311614288100,2.4042880859375,-0.00401498144492507,0.003564108395949006,-0.006072007119655609
1686445311624304400,2.414304443359375,-0.003114300547167659,0.0018048242200165987,-0.0014540859265252948
1686445311634321200,2.424321044921875,-0.0016346483025699854,0.0028972530271857977,-0.0013132047606632113
1686445311644337200,2.434337158203125,-0.004339887294918299,0.0017419736832380295,0.002109223511070013
1686445311654354200,2.444354248046875,-0.0035340148024260998,0.004189152270555496,0.005561745725572109
1686445311664371200,2.45437109375,-0.003483681008219719,0.003944674041122198,0.007952732034027576
1686445311674387200,2.46438720703125,-0.005233910400420427,0.005916744936257601,0.007907724007964134
1686445311684404200,2.474404296875,-0.0054240599274635315,0.006493052933365107,0.0007643272401764989
1686445311694420200,2.484420166015625,-0.006659766659140587,0.0070768180303275585,-0.0037350833881646395
1686445311704437200,2.494437255859375,-0.005881324876099825,0.006229666527360678,-0.0010793792316690087
1686445311714454300,2.504454345703125,-0.007151652593165636,0.005540973041206598,-0.0009012137306854129
1686445311724470000,2.514469970703125,-0.005259210709482431,0.0024703482631593943,-0.005678392015397549
1686445311734487300,2.5244873046875,-0.002098038326948881,0.001788046327419579,-0.002603239845484495
1686445311744503300,2.53450341796875,-0.0065199509263038635,0.0007076018955558538,-0.004865861497819424
1686445311754520000,2.54452001953125,-0.0065527078695595264,-0.0013611416798084974,-0.0024881914723664522
1686445311764537000,2.554537109375,-0.006432333029806614,-0.00256462418474257,-0.00026019083452410996
1686445311774553000,2.564552978515625,-0.008027300238609314,0.001344363670796156,0.000013848437447450124
1686445311784570000,2.574570068359375,-0.00276089902035892,0.0029979203827679157,0.002499909373000264
1686445311794586000,2.584586181640625,-0.005536978133022785,0.008440356701612473,0.0013243899447843432
1686445311804603100,2.59460302734375,-0.0027286747936159372,0.00875114742666483,0.002498843939974904
1686445311814620200,2.6046201171875,-0.006347644608467817,0.004051733296364546,0.002867958042770624
1686445311824636200,2.61463623046875,-0.004963865969330072,0.005081577692180872,0.0025502429343760014
1686445311834653200,2.624653076171875,-0.0037593182642012835,0.004004861693829298,-0.000642620783764869
1686445311844670200,2.634670166015625,-0.005184908397495747,0.0022426480427384377,-0.0009859022684395313
1686445311854686200,2.644686279296875,-0.005103415343910456,0.0003001382574439049,-0.0012420982820913196
1686445311864703200,2.654703125,-0.007215834688395262,0.0005427522119134665,0.0013140037190169096
1686445311874719200,2.66471923828125,-0.005715143866837025,-0.0002490055630914867,0.0009078715811483562
1686445311884736000,2.674736083984375,-0.005567871034145355,0.0011329087428748608,0.001618136651813984
1686445311894753300,2.684753173828125,-0.009955694898962975,0.0023936491925269365,-0.0005299690528772771
1686445311904769300,2.694769287109375,-0.004689293913543224,0.00413509039208293,0.00035739620216190815
1686445311914786000,2.7047861328125,-0.006697850301861763,0.0043593281880021095,-0.0012998889433220029
1686445311924802000,2.714802001953125,-0.005981992464512587,0.00037230990710668266,-0.003629355924203992
1686445311934819300,2.7248193359375,-0.0027268105186522007,0.002017344580963254,-0.0027060380671173334
1686445311944836000,2.734836181640625,-0.004731105640530586,-0.0014703312190249562,-0.0007632619817741215
1686445311954852000,2.74485205078125,-0.004387557972222567,0.00022849922243040055,-0.0000756337758502923
1686445311964869400,2.754869384765625,-0.007756190374493599,0.0008908273885026574,-0.00038269624928943813
1686445311974885000,2.764885009765625,-0.005360943265259266,0.00487278588116169,-0.0010900318156927824
1686445311984902100,2.774902099609375,-0.006132727488875389,0.0036578518338501453,-0.0020636834669858217
1686445311994919200,2.784919189453125,-0.006412625312805176,0.0031316110398620367,-0.003044259501621127
1686445312004935200,2.79493505859375,-0.005277852527797222,-0.0002234392159152776,0.00027856664382852614
1686445312014952200,2.8049521484375,-0.0052951630204916,0.0012516856659203768,-0.002770220162346959
1686445312024969200,2.81496923828125,-0.0038951393216848373,0.0035598473623394966,-0.002177134156227112
1686445312034985000,2.82498486328125,-0.006533266510814428,0.0003885551996063441,-0.0014860439114272594
1686445312045002200,2.835002197265625,-0.0054421694949269295,0.004029096569865942,-0.00213532242923975
1686445312055018200,2.845018310546875,-0.002222674200311303,0.0003177151083946228,0.0005816344055347145
1686445312065035000,2.855034912109375,-0.0031140341889113188,0.0009952232940122485,0.0033720945939421654
1686445312075052300,2.86505224609375,-0.004939098376780748,-0.003462908323854208,-0.004098072182387114
1686445312085068300,2.875068359375,-0.009718406945466995,-0.0036823528353124857,-0.0038277613930404186
1686445312095085000,2.8850849609375,-0.007405984681099653,-0.0025513083674013615,-0.0032751555554568768
1686445312105101000,2.89510107421875,-0.009060606360435486,-0.001529453438706696,-0.001333178486675024
1686445312115118300,2.905118408203125,-0.010500578209757805,-0.0019883159548044205,0.0012330436147749424
1686445312125135000,2.915135009765625,-0.010334130376577377,-0.000952080066781491,0.0021635519806295633
1686445312135151000,2.925151123046875,-0.009616408497095108,0.002805640222504735,0.0018218684708699584
1686445312145168100,2.935168212890625,-0.008301072753965855,0.0007185208378359675,0.00005246427463134751
1686445312155184400,2.945184326171875,-0.006381732877343893,-0.003934021573513746,0.0013683321885764599
1686445312165201200,2.955201171875,-0.007441404741257429,-0.0033686324022710323,0.003428287338465452
1686445312175218200,2.96521826171875,-0.004221110139042139,0.0010894992155954242,0.003719637170433998
1686445312185234200,2.975234130859375,-0.0035931370221078396,0.0028240159153938293,0.0038280277512967587
1686445312195251200,2.985251220703125,-0.004504470620304346,0.006650978233665228,0.0020580908749252558
1686445312205267200,2.99526708984375,-0.003341468283906579,0.005877329967916012,-0.00020879182557109743
1686445312215284200,3.0052841796875,-0.00640942994505167,0.009889914654195309,0.0008173241512849927
1686445312225301200,3.01530126953125,-0.0024463797453790903,-0.00010492854926269501,0.0018354506464675069
1686445312235317200,3.025317138671875,-0.0019137475173920393,-0.0021283982787281275,0.006535930093377829
1686445312245334300,3.035334228515625,-0.004205397795885801,-0.00433056615293026,0.005891445092856884
1686445312255351000,3.04535107421875,-0.004555869847536087,-0.0039116512052714825,0.0026264095213264227
1686445312265367300,3.0553671875,-0.009011604823172092,-0.004435494542121887,0.0032352081034332514
1686445312275384000,3.065384033203125,-0.004649080336093903,0.00046392265358008444,0.002453836612403393
1686445312285400000,3.075400146484375,-0.005652293097227812,0.0017587515758350492,0.0011028150329366326
1686445312295417000,3.0854169921875,-0.005167864263057709,0.008757805451750755,0.0010410296963527799
1686445312305434000,3.09543408203125,-0.0044293696992099285,0.009576727636158466,0.0006735134520567954
1686445312315450000,3.1054501953125,-0.004791825544089079,0.006710366811603308,-0.0008825715631246567
1686445312325467100,3.115467041015625,-0.00436092633754015,0.0057407100684940815,-0.0025885924696922302
1686445312335483100,3.125483154296875,-0.007081877905875444,0.004436293616890907,-0.0033068470656871796
1686445312345500200,3.135500244140625,-0.005533515941351652,0.0019885823130607605,-0.004729773849248886
1686445312355517200,3.14551708984375,-0.004825647920370102,0.004356931429356337,-0.004797152243554592
1686445312365533200,3.155533203125,-0.004874383565038443,0.00583871454000473,-0.0009369000908918679
1686445312375550200,3.16555029296875,-0.004066114313900471,0.008322644978761673,-0.002891926560550928
1686445312385566200,3.175566162109375,-0.007651794236153364,0.008754609152674675,0.0009374326909892261
1686445312395583200,3.185583251953125,-0.00574843306094408,0.006712763570249081,0.002926813904196024
1686445312405600000,3.19560009765625,-0.006946322973817587,0.002835467690601945,0.0010250506456941366
1686445312415616300,3.2056162109375,-0.006337790749967098,0.0007779093575663865,-0.0013731258222833276
1686445312425633300,3.21563330078125,-0.00421285443007946,-0.0026935210917145014,-0.00037151097785681486
1686445312435650000,3.225650146484375,-0.007155647501349449,-0.00507039250805974,-0.004025101661682129
1686445312445666000,3.235666015625,-0.003924700431525707,-0.010460630059242249,-0.0009555422002449632
1686445312455683300,3.245683349609375,-0.00256355875171721,-0.005287706386297941,0.0011669971281662583
1686445312465699000,3.255698974609375,-0.0031521173659712076,0.0011416971683502197,0.000027430558475316502
1686445312475716000,3.265716064453125,-0.003001648932695389,0.005215800832957029,0.0046506780199706554
1686445312485733400,3.2757333984375,-0.0049492185935378075,0.0037851508241146803,0.005555087700486183
1686445312495749000,3.2857490234375,-0.00344533147290349,0.006083725020289421,0.004727909807115793
1686445312505766100,3.29576611328125,-0.005401955917477608,0.002156361471861601,0.0037268276792019606
1686445312515782700,3.30578271484375,-0.004129231441766024,0.006255765445530415,0.00005299690383253619
1686445312525799700,3.315799560546875,-0.004714061506092548,0.006046973634511232,-0.002460494404658675
1686445312535816700,3.325816650390625,-0.004069576505571604,0.0016144082183018327,-0.00040772996726445854
1686445312545832700,3.335832763671875,-0.006719954311847687,0.00336170825175941,-0.00025353292585350573
1686445312555849700,3.345849609375,-0.008914398960769176,0.004734035115689039,-0.0014479606179520488
1686445312565865700,3.35586572265625,-0.006788664031773806,0.006202235817909241,0.006100503262132406
1686445312575882800,3.3658828125,-0.006505836267024279,0.0062549663707613945,0.0040914141573011875
1686445312585899500,3.3758994140625,-0.005733519326895475,0.006967628374695778,0.008793225511908531
1686445312595915800,3.385915771484375,-0.003206978552043438,0.005718073341995478,0.007443002425134182
1686445312605932800,3.395932861328125,-0.005851497408002615,0.005775064695626497,0.004023237619549036
1686445312615949600,3.405949462890625,-0.003808053908869624,0.003999535460025072,0.003537476761266589
1686445312625965600,3.415965576171875,-0.0032623722217977047,0.003942809998989105,0.001341966912150383
1686445312635982800,3.42598291015625,-0.004200071096420288,-0.00017204020696226507,-0.0015997608425095677
1686445312645998600,3.43599853515625,-0.006110623013228178,-0.0000577905957470648,0.00007084008393576369
1686445312656015600,3.446015625,-0.003543335711583495,0.00027324032271280885,0.0017955031944438815
1686445312666033000,3.456032958984375,-0.005403287708759308,0.0004569984448608011,0.0009653958841226995
1686445312676048600,3.466048583984375,-0.005794771946966648,0.002270611235871911,0.0001525991247035563
1686445312686065700,3.476065673828125,-0.00743288267403841,0.003501790575683117,0.0009289105655625463
1686445312696081700,3.48608154296875,-0.005549761466681957,0.0034975295420736074,0.00003462109452812001
1686445312706098700,3.4960986328125,-0.005307147279381752,0.0037350833881646395,0.0008194546680897474
1686445312716115700,3.50611572265625,-0.005032042972743511,0.0038951393216848373,0.0017915084026753902
1686445312726131700,3.516131591796875,-0.007796936668455601,0.004774781409651041,-0.0010953581659123302
1686445312736148500,3.5261484375,-0.006429669912904501,0.007019826211035252,-0.0002596582053229213
1686445312746164500,3.53616455078125,-0.004433896858245134,0.007891212590038776,0.0010317085543647408
1686445312756181800,3.546181640625,-0.007863515987992287,0.004674912896007299,0.0060150157660245895
1686445312766198500,3.556198486328125,-0.006701578386127949,0.002892725635319948,0.0070397998206317425
1686445312776214500,3.566214599609375,-0.004701011814177036,0.004040814470499754,0.004764395300298929
1686445312786231800,3.576231689453125,-0.002966495230793953,0.0038860845379531384,0.005642172880470753
1686445312796247800,3.586247802734375,-0.002828543307259679,0.008057127706706524,0.0027353328187018633
1686445312806264600,3.5962646484375,-0.006730606779456139,0.008975918404757977,0.00418276060372591
1686445312816281900,3.60628173828125,-0.004334561061114073,0.00881959032267332,0.005775597412139177
1686445312826297900,3.6162978515625,-0.0035981968976557255,0.004490888677537441,0.00620995881035924
1686445312836314600,3.626314697265625,-0.0044072652235627174,0.0025475798174738884,0.004266916774213314
1686445312846331600,3.63633154296875,-0.004081028047949076,0.0011680624447762966,0.004767324775457382
1686445312856347600,3.64634765625,-0.0067726848646998405,-0.0019145464757457376,0.0008551410282962024
1686445312866364700,3.65636474609375,-0.0046663908287882805,-0.001600826159119606,0.0018719359068199992
1686445312876380700,3.666380615234375,-0.005238970275968313,0.0002764361270237714,0.0029981867410242558
1686445312886397700,3.676397705078125,-0.0054458980448544025,-0.0006130596739239991,0.0011182613670825958
1686445312896414700,3.686414794921875,-0.004445082042366266,-0.000218645524000749,-0.002356364857405424
1686445312906430700,3.6964306640625,-0.0046418895944952965,0.00166633992921561,-0.0025414545089006424
1686445312916447700,3.70644775390625,-0.002027997048571706,0.002623746171593666,-0.002210689941421151
1686445312926463500,3.71646337890625,-0.0046695866622030735,0.004500209353864193,-0.0019321233266964555
1686445312936480800,3.726480712890625,-0.00418329332023859,0.003971838392317295,0.00011052118497900665
1686445312946497800,3.736497802734375,-0.00310497940517962,2.6631610694494157e-7,0.0014317154418677092
1686445312956513500,3.746513427734375,-0.004339620936661959,0.0032780850306153297,0.002844256116077304
1686445312966530600,3.756530517578125,-0.004515389446169138,-0.0009989517275243998,0.0026373283471912146
1686445312976546800,3.766546875,-0.009067530743777752,-0.002543585142120719,0.0013294500531628728
1686445312986563600,3.7765634765625,-0.006432599388062954,-0.001826395862735808,0.005600361619144678
1686445312996580600,3.78658056640625,-0.00971787516027689,0.0020652813836932182,0.003096190979704261
1686445313006596600,3.7965966796875,-0.010575146414339542,0.0041100564412772655,0.0011238539591431618
1686445313016613600,3.806613525390625,-0.007286408916115761,0.00672368286177516,0.002877279184758663
1686445313026629600,3.816629638671875,-0.00866193138062954,0.003590473672375083,0.0025044367648661137
1686445313036646700,3.826646728515625,-0.006179599091410637,0.00013901700731366873,0.0052384380251169205
1686445313046663700,3.83666357421875,-0.004459995776414871,-0.001284708851017058,0.005914348177611828
1686445313056679700,3.8466796875,-0.006700779777020216,-0.00018961707246489823,0.00666429428383708
1686445313066696700,3.85669677734375,-0.0019385149935260415,0.0017473000334575772,0.006278668530285358
1686445313076713500,3.86671337890625,-0.004535895772278309,0.001142229768447578,0.006234460044652224
1686445313086729700,3.876729736328125,-0.004090349189937115,-0.00011052118497900665,0.0035241609439253807
1686445313096746800,3.886746826171875,-0.00631888210773468,0.0003920173039659858,0.006190517917275429
1686445313106762800,3.8967626953125,-0.0031092404387891293,-0.001421861699782312,0.003610979998484254
1686445313116779500,3.906779541015625,-0.002837598090991378,0.002822417998686433,0.0003259709046687931
1686445313126796800,3.916796875,-0.005575061310082674,0.003959055058658123,0.005401689559221268
1686445313136812800,3.926812744140625,-0.004355067387223244,0.005458681378513575,0.004447212442755699
1686445313146829600,3.93682958984375,-0.005152684170752764,0.004918325692415237,0.0059244679287076
1686445313156845600,3.946845458984375,-0.005447496194392443,-0.0008884305134415627,0.0006090649403631687
1686445313166862800,3.95686279296875,-0.004818989895284176,-0.0033601103350520134,0.0012772521004080772
1686445313176879600,3.966879638671875,-0.007844340987503529,-0.001743038883432746,-0.0021789984311908484
1686445313186895600,3.9768955078125,-0.004020308144390583,-0.0013938985066488385,-0.001008805469609797
1686445313196912600,3.98691259765625,-0.004662395920604467,0.0036874127108603716,-0.002296177437528968
1686445313206928600,3.9969287109375,-0.004544417839497328,0.005059206858277321,0.0011062771081924438
1686445313216945700,4.006945556640625,-0.004584898240864277,0.009380185976624489,0.001907355966977775
1686445313226962700,4.016962646484375,-0.006707970052957535,0.010834272019565105,0.0008303736103698611
1686445313236978700,4.026978759765625,-0.004577973857522011,0.010364224202930927,-0.0019347865600138903
1686445313246995700,4.03699560546875,-0.0032647692132741213,0.009387909434735775,-0.0031007183715701103
1686445313257012500,4.047012451171875,-0.00583631731569767,0.008199074305593967,-0.0009041432058438659
1686445313267028500,4.057028564453125,-0.008735435083508492,0.008215585723519325,-0.0015640745405107737
1686445313277045800,4.067045654296875,-0.00743075180798769,0.003790477057918906,-0.0016088156262412667
1686445313287061800,4.077061767578125,-0.0044168527238070965,0.000990962260402739,-0.0003478088474366814
1686445313297078500,4.08707861328125,-0.008237689733505249,0.0013467605458572507,-0.0011241203173995018
1686445313307095800,4.097095703125,-0.006162288598716259,0.0011832424206659198,0.004601676017045975
1686445313317111800,4.10711181640625,-0.004333761986345053,0.0008905610884539783,0.006363889668136835
1686445313327128600,4.117128662109375,-0.00649651512503624,0.0017486315919086337,0.002552107209339738
1686445313337144600,4.12714453125,-0.0021731394808739424,0.003084473079070449,0.0035364115610718727
1686445313347161900,4.137161865234375,-0.004168645944446325,-0.00018961707246489823,0.003829892026260495
1686445313357178600,4.1471787109375,-0.0036509274505078793,0.0026072347536683083,0.00126713200006634
1686445313367194600,4.157194580078125,-0.001728657865896821,0.001285241567529738,0.0016743293963372707
1686445313377211600,4.167211669921875,-0.0006194512825459242,0.00020266656065359712,0.004324973560869694
1686445313387228700,4.177228759765625,-0.004205131437629461,0.0028842033352702856,0.0070616379380226135
1686445313397244700,4.18724462890625,-0.0067481836304068565,0.008706672117114067,0.0020535634830594063
1686445313407261700,4.19726171875,-0.0034085798542946577,0.010007360018789768,0.0027025758754462004
1686445313417277700,4.207277587890625,-0.006449909880757332,0.010156497359275818,0.006685599684715271
1686445313427294700,4.217294677734375,-0.004836566746234894,0.008358331397175789,0.006010488141328096
1686445313437311700,4.227311767578125,-0.0028130970895290375,0.006052299868315458,0.003959055058658123
1686445313447327500,4.237327392578125,-0.004013916477560997,0.006477872841060162,0.005812349263578653
1686445313457344800,4.2473447265625,-0.002663161139935255,0.002907639369368553,0.0027025758754462004
1686445313467360800,4.25736083984375,-0.002086054068058729,0.0036578518338501453,0.002667954657226801
1686445313477377500,4.26737744140625,-0.00421232171356678,0.0031100395135581493,0.00461632339283824
1686445313487394600,4.27739453125,-0.005346029531210661,0.0008953547803685069,0.0018066884949803352
1686445313497410800,4.287410888671875,-0.006857373286038637,0.003055711043998599,0.0007390272221527994
1686445313507427600,4.297427490234375,-0.004246410448104143,0.0055122110061347485,0.0011835087789222598
1686445313517443800,4.30744384765625,-0.007456851191818714,0.005289570428431034,0.0012293151812627912
1686445313527461000,4.317461181640625,-0.0032176312524825335,0.003291134489700198,-0.0002442118711769581
1686445313537478000,4.327477783203125,-0.004991562571376562,0.0015185344964265823,-0.002222141483798623
1686445313547494000,4.337493896484375,-0.005351355765014887,0.0018106831703335047,-0.0012578109744936228
1686445313557511000,4.347510986328125,-0.0032977922819554806,0.0006237123161554337,0.002380333375185728
1686445313567527200,4.357527099609375,-0.004847485572099686,-0.001597363967448473,0.002171275205910206
1686445313577544000,4.3675439453125,-0.00040986048406921327,0.003680488560348749,0.001529453438706696
1686445313587561000,4.37756103515625,-0.004388889297842979,0.004567321389913559,0.005394765175879002
1686445313597577000,4.387576904296875,-0.003893541404977441,0.004791559185832739,0.006075735669583082
1686445313607594000,4.397593994140625,-0.007001716643571854,0.002950516063719988,0.005034439731389284
1686445313617611000,4.407611083984375,-0.004815527703613043,0.004883971065282822,0.0016370450612157583
1686445313627627000,4.417626953125,-0.005711948033422232,0.003982490859925747,0.00407463638111949
1686445313637644000,4.42764404296875,-0.007983890362083912,0.0019411781104281545,0.0009709885343909264
1686445313647660000,4.437659912109375,-0.006825948134064674,0.005991579964756966,0.0017153420485556126
1686445313657677000,4.447677001953125,-0.007878162898123264,0.00535588338971138,0.00452950457111001
1686445313667693800,4.45769384765625,-0.004592887591570616,0.005694371182471514,0.008233695290982723
1686445313677710000,4.4677099609375,-0.003748132847249508,0.004971588961780071,0.01056049857288599
1686445313687726800,4.477726806640625,-0.002864762442186475,0.004450674634426832,0.007237140089273453
1686445313697742800,4.487742919921875,-0.0046876962296664715,0.00430100504308939,0.0035960664972662926
1686445313707759900,4.497759765625,-0.0018825886072590947,0.0032200280111283064,-0.0007853662245906889
1686445313717777000,4.50777685546875,-0.00643819198012352,0.0021872541401535273,-0.000004793690095539205
1686445313727793000,4.51779296875,-0.006457899231463671,0.001249555149115622,0.0003067961661145091
1686445313737810000,4.527809814453125,-0.006043511442840099,0.0019773971289396286,-0.007635016459971666
1686445313747827000,4.537826904296875,-0.007274158298969269,0.004564391914755106,-0.011325092054903507
1686445313757843000,4.547843017578125,-0.010663030669093132,0.003900199430063367,-0.010833206586539745
1686445313767860000,4.55785986328125,-0.009349825792014599,0.003240001853555441,-0.005957491230219603
1686445313777876000,4.5678759765625,-0.007847536355257034,0.0046362970024347305,-0.005683718249201775
1686445313787893000,4.57789306640625,-0.00791278388351202,0.0022325278259813786,-0.006639526691287756
1686445313797910000,4.587909912109375,-0.005114867351949215,0.0015957661671563983,-0.003820837242528796
1686445313807926000,4.597926025390625,-0.006365753710269928,0.005587844643741846,0.0007523429812863469
1686445313817942800,4.60794287109375,-0.004132959526032209,0.005829659756273031,0.0038895467296242714
1686445313827959000,4.617958984375,-0.001332645770162344,0.007427023723721504,0.007434213999658823
1686445313837976000,4.62797607421875,-0.001662877737544477,0.003967311233282089,0.005123655777424574
1686445313847992800,4.637992919921875,-0.0057556238025426865,0.0017190704820677638,0.008259527385234833
1686445313858008800,4.6480087890625,-0.005124188028275967,-0.0012463594321161509,0.007245395798236132
1686445313868026000,4.658026123046875,-0.0043803672306239605,0.00000958738019107841,0.002294047037139535
1686445313878043000,4.66804296875,-0.003876763628795743,0.000958205375354737,-0.001487641828134656
1686445313888059000,4.678058837890625,-0.007672300562262535,0.0007342335302382708,0.0025747441686689854
1686445313898076200,4.688076171875,-0.006101301871240139,0.0034413367975503206,-0.0008298410102725029
1686445313908092000,4.698091796875,-0.007556719705462456,0.004200337454676628,-0.001514806062914431
1686445313918109000,4.70810888671875,-0.009780991822481155,0.008109325543045998,-0.005663744639605284
1686445313928126000,4.7181259765625,-0.006720487028360367,0.00806458480656147,-0.005644570104777813
1686445313938142000,4.728141845703125,-0.006049903109669685,0.0024109596852213144,-0.003178216516971588
1686445313948159000,4.738158935546875,-0.005312473513185978,0.0025209481827914715,-0.004565190523862839
1686445313958175000,4.748175048828125,-0.008738630451261997,-0.0009824400767683983,-0.002746784361079335
1686445313968191700,4.758191650390625,-0.004860801622271538,-0.006794789340347052,-0.00032570460462011397
1686445313978209000,4.768208984375,-0.0033364081755280495,-0.006773483939468861,-0.0022327941842377186
1686445313988225000,4.77822509765625,-0.0043713124468922615,-0.005005411338061094,0.00030839405371807516
1686445313998241800,4.78824169921875,-0.003979561384767294,-0.002115348819643259,0.0014990933705121279
1686445314008257800,4.7982578125,-0.004193679895251989,0.0046506780199706554,0.0019430422689765692
1686445314018275000,4.808275146484375,-0.005459746345877647,0.007564442697912455,0.0027473168447613716
1686445314028291800,4.818291748046875,-0.004874649923294783,0.00939083844423294,0.004846420604735613
1686445314038307800,4.828307861328125,-0.008700546808540821,0.006329268682748079,0.005119128152728081
1686445314048325000,4.8383251953125,-0.004581702407449484,0.0027047062758356333,0.005377188324928284
1686445314058342000,4.848341796875,-0.005951898638159037,-0.0015941682504490018,0.005703159607946873
1686445314068358000,4.85835791015625,-0.0056802560575306416,-0.005530053749680519,0.0048916940577328205
1686445314078375000,4.868375,-0.005474127363413572,-0.002951048780232668,-0.0002748382103163749
1686445314088391200,4.87839111328125,-0.007446198258548975,0.0005976133397780359,0.00032916670897975564
1686445314098408000,4.888407958984375,-0.004291950259357691,0.0037670412566512823,0.0015576828736811876
1686445314108425000,4.898425048828125,-0.006278668530285358,0.0057044909335672855,0.0020000338554382324
1686445314118441000,4.90844091796875,-0.005822202656418085,0.0076030585914850235,-0.0034197650384157896
1686445314128458000,4.9184580078125,-0.006734868045896292,0.005422462243586779,-0.005449626594781876
1686445314138474000,4.928473876953125,-0.009484581649303436,0.001945705502294004,-0.003944940399378538
1686445314148491000,4.938490966796875,-0.006045908201485872,0.0025739450938999653,-0.0015451660146936774
1686445314158508000,4.948508056640625,-0.008645153604447842,-0.004221909213811159,0.0012146678054705262
1686445314168524000,4.95852392578125,-0.004920456558465958,-0.0067569720558822155,0.004425374791026115
1686445314178541000,4.968541015625,-0.0036005936563014984,-0.006424875929951668,0.007093595806509256
1686445314188557800,4.978557861328125,-0.004796086810529232,-0.003614708548411727,0.00797377061098814
1686445314198574000,4.988573974609375,-0.0017544905422255397,0.0034794199746102095,0.00800040178000927
1686445314208591000,4.998591064453125,-0.003976099658757448,0.0043891556560993195,0.0027332021854817867
1686445314218606800,5.00860693359375,-0.00649731419980526,0.00526666734367609,0.005587844643741846
1686445314228624000,5.018623779296875,-0.005219529382884502,0.003908987622708082,0.0037151097785681486
1686445314238641000,5.028640869140625,-0.007672833278775215,0.0019438412273302674,-0.0006942860782146454
1686445314248657000,5.038656982421875,-0.005238703917711973,0.006366020068526268,-0.0014085458824411035
1686445314258674000,5.048673828125,-0.006650445982813835,0.00809201505035162,-0.002092179376631975
1686445314268690000,5.05868994140625,-0.0027244137600064278,0.008362325839698315,0.0005214469274505973
1686445314278707000,5.06870703125,-0.003841343568637967,0.005855758674442768,0.005803560372442007
1686445314288724000,5.078723876953125,-0.004413124173879623,0.0030514500103890896,0.003991812001913786
1686445314298740000,5.088739990234375,-0.002758502261713147,0.003323891432955861,0.0006972155533730984
1686445314308757000,5.098757080078125,-0.004519384354352951,0.003948136232793331,-0.0011515507940202951
1686445314318773000,5.10877294921875,-0.0009068063227459788,0.0030123014003038406,0.002606702037155628
1686445314328790000,5.1187900390625,-0.004668521229177713,0.0031792817171663046,0.004266916774213314
1686445314338806800,5.128806884765625,-0.005067196674644947,0.005828327964991331,0.0024458470288664103
1686445314348823000,5.138822998046875,-0.007458182517439127,0.007412376347929239,0.002147573046386242
1686445314358840000,5.148840087890625,-0.006797452457249165,0.006060821935534477,-0.0016170714516192675
1686445314368856800,5.15885693359375,-0.004941495135426521,0.0075942701660096645,-0.0068027786910533905
1686445314378872800,5.168872802734375,-0.006457366514950991,0.0037787591572850943,-0.007012103218585253
1686445314388890000,5.17889013671875,-0.009874735027551651,0.005230980925261974,-0.006675745826214552
1686445314398906000,5.188906005859375,-0.006909837480634451,0.0016668725293129683,-0.004495149478316307
1686445314408923000,5.1989228515625,-0.006965763866901398,0.004394481889903545,-0.004234426189213991
1686445314418940200,5.208940185546875,-0.00506852800026536,0.008096275851130486,-0.0003129214164800942
1686445314428956000,5.218955810546875,-0.004201669245958328,0.005759884603321552,-0.0007933556917123497
1686445314438973000,5.228972900390625,-0.00646801944822073,0.00833569373935461,-0.002457298804074526
1686445314448989000,5.238989013671875,-0.006077599711716175,0.004776113200932741,-0.0005480785621330142
1686445314459006000,5.249005859375,-0.007800665218383074,0.004623247776180506,0.0007451524725183845
1686445314469023000,5.25902294921875,-0.0062672169879078865,0.0025774072855710983,0.005530586466193199
1686445314479039000,5.2690390625,-0.0067543089389801025,-0.00010945591930067167,0.003994741477072239
1686445314489055700,5.2790556640625,-0.0028929917607456446,-0.0014410364674404263,0.003713245503604412
1686445314499073000,5.289072998046875,-0.005079180933535099,0.0034314829390496016,0.0034112429711967707
1686445314509089000,5.299089111328125,-0.004565989598631859,0.0031827439088374376,0.003658917034044862
1686445314519105800,5.309105712890625,-0.0003755057114176452,0.0035153725184500217,0.0001685781026026234
1686445314529121500,5.31912158203125,-0.005063468124717474,0.0023790018167346716,-0.0016277240356430411
1686445314539138800,5.329138916015625,-0.004160123877227306,0.009180981665849686,-0.001118527608923614
1686445314549155800,5.33915576171875,-0.007479487918317318,0.01245427317917347,-0.0023281353060156107
1686445314559171600,5.349171630859375,-0.006740460637956858,0.007755391299724579,0.004518318921327591
1686445314569188600,5.359188720703125,-0.004419249482452869,0.005785983521491289,0.005270928610116243
1686445314579204600,5.36920458984375,-0.005636846646666527,0.00350392097607255,0.007998271845281124
1686445314589221600,5.3792216796875,-0.004829642828553915,-0.0016349145444110036,-0.0018500980222597718
1686445314599238700,5.38923876953125,-0.008260859176516533,0.00023755396250635386,-0.002930542454123497
1686445314609254700,5.399254638671875,-0.010135192424058914,-0.0011771172285079956,-0.005461877211928368
1686445314619271700,5.409271728515625,-0.009373794309794903,-0.002552107209339738,-0.004869590047746897
1686445314629288700,5.419288818359375,-0.012635367922484875,-0.00012756542128045112,-0.0008474178612232208
1686445314639304700,5.4293046875,-0.009226255118846893,0.004491687286645174,-0.0005611280212178826
1686445314649321700,5.43932177734375,-0.010731473565101624,0.014186925254762173,-0.0025920546613633633
1686445314659337700,5.449337646484375,-0.011052384972572327,0.01194081548601389,0.0002639192680362612
1686445314669354800,5.459354736328125,-0.007812649011611938,0.007523696403950453,0.001216798322275281
1686445314679371500,5.46937158203125,-0.0015286544803529978,0.002210956299677491,0.0024586303625255823
1686445314689387500,5.479387451171875,-0.001065264455974102,-0.0012397015234455466,-0.0036495958920568228
1686445314699404800,5.48940478515625,-0.004603273700922728,0.0060118199326097965,-0.005872003734111786
1686445314709420800,5.4994208984375,-0.0006998787284828722,0.005766009911894798,0.0006705839768983424
1686445314719437600,5.5094375,-0.0010626012226566672,0.0020117517560720444,0.005218730308115482
1686445314729454800,5.519454833984375,-0.0035502600949257612,-0.004795287735760212,0.0035859462805092335
1686445314739470800,5.529470947265625,-0.004519384354352951,-0.00563977612182498,-0.002027997048571706
1686445314749487600,5.539487548828125,-0.0065223476849496365,0.0002306297537870705,-0.002142513170838356
1686445314759503600,5.549503662109375,-0.007457649800926447,0.0014109427575021982,0.001278849900700152
1686445314769520600,5.559520751953125,-0.0068901302292943,0.004591023549437523,0.0049127331003546715
1686445314779537700,5.56953759765625,-0.00827737059444189,0.0025598304346203804,0.010351973585784435
1686445314789553700,5.5795537109375,-0.003209375310689211,0.0021963089238852262,0.014095046557486057
1686445314799570700,5.58957080078125,-0.0041342913173139095,0.001306014135479927,0.01239168830215931
1686445314809587700,5.599587646484375,-0.002513757674023509,-0.000010652644050423987,0.006431533955037594
1686445314819603700,5.609603759765625,0.000060986389144090936,0.0017875137273222208,0.0016045545926317573
1686445314829620500,5.619620361328125,-0.001555818715132773,0.003513242118060589,-0.0028972530271857977
1686445314839636500,5.629636474609375,-0.0008426241693086922,0.003397927153855562,-0.007407316006720066
1686445314849653800,5.63965380859375,-0.003325755475088954,0.004198739770799875,-0.009549829177558422
1686445314859670500,5.64967041015625,-0.001716939965263009,0.002712695859372616,-0.014416756108403206
1686445314869686500,5.6596865234375,-0.005690376274287701,-0.0005645901546813548,-0.016409333795309067
1686445314879703800,5.669703857421875,-0.004786765668541193,-0.006688529159873724,-0.010996990837156773
1686445314889720600,5.679720458984375,-0.003257312346249819,-0.008043811656534672,-0.00555162550881505
1686445314899736600,5.689736572265625,-0.009063802659511566,-0.010151970200240612,0.0018873822409659624
1686445314909753600,5.699753662109375,-0.004311923868954182,-0.007185474969446659,-0.0013526194961741567
1686445314919769900,5.709769775390625,-0.007454453967511654,-0.0029800771735608578,-0.0020421119406819344
1686445314929786600,5.71978662109375,-0.006281331647187471,-0.0007640608819201589,-0.0019089538836851716
1686445314939803600,5.7298037109375,-0.0014199974248185754,0.0033633061684668064,-0.0014682007022202015
1686445314949819600,5.739819580078125,-0.007222226355224848,0.007931159809231758,-0.0006079996819607913
1686445314959836700,5.749836669921875,-0.007013967260718346,0.011233479715883732,-0.00031185615807771683
1686445314969852700,5.759852783203125,-0.008230765350162983,0.011828429996967316,-0.006405967753380537
1686445314979869700,5.76986962890625,-0.007130879908800125,0.009558884426951408,0.0005227785441093147
1686445314989886700,5.77988671875,-0.0032772859558463097,0.006228601094335318,0.004569451790302992
1686445314999902700,5.78990283203125,-0.004477039910852909,-0.00036511936923488975,0.0075822859071195126
1686445315009919700,5.799919677734375,-0.001609614584594965,0.0005560680292546749,0.008525044657289982
1686445315019935500,5.809935546875,-0.0057106162421405315,0.0021640846971422434,0.007160441018640995
1686445315029952800,5.819952880859375,-0.0026522420812398195,0.002481533447280526,0.004035754129290581
1686445315039969800,5.8299697265625,-0.0020421119406819344,0.005339637864381075,0.004193413536995649
1686445315049985500,5.839985595703125,-0.004340420011430979,0.006632070057094097,0.0025739450938999653
1686445315060002600,5.85000244140625,-0.005471996963024139,0.010260893031954765,0.00017843178648035973
1686445315070019800,5.860019775390625,-0.005983323790132999,0.012477975338697433,-0.004622715059667826
1686445315080035600,5.87003564453125,-0.004840561654418707,0.006655772216618061,-0.0065380604937672615
1686445315090052600,5.880052490234375,-0.006278668530285358,-0.000025300030756625347,-0.0028996497858315706
1686445315100068600,5.890068603515625,-0.005410744342952967,-0.006333529483526945,-0.005879727192223072
1686445315110085600,5.900085693359375,-0.004519117996096611,-0.010988202877342701,-0.002653839997947216
1686445315120102700,5.9101025390625,-0.006613960489630699,-0.009186307899653912,-0.005170527379959822
1686445315130118700,5.92011865234375,-0.002088717184960842,-0.008382831700146198,-0.008985771797597408
1686445315140135700,5.9301357421875,-0.005049353465437889,-0.005396096967160702,-0.007955394685268402
1686445315150151700,5.940151611328125,-0.005957757588475943,0.000999750685878098,-0.00788269005715847
1686445315160168700,5.950168701171875,-0.004460528492927551,0.0005320995696820319,-0.007453921716660261
1686445315170185500,5.960185546875,-0.00646722037345171,0.0012479572324082255,-0.006625678390264511
1686445315180201700,5.97020166015625,-0.004860002547502518,-0.00042104575550183654,-0.0030032468494027853
1686445315190218800,5.98021875,-0.005561479367315769,-0.002144377212971449,-0.001088966615498066
1686445315200235500,5.990235595703125,-0.00464694993570447,-0.003628556849434972,-0.0015137407463043928
1686445315210251500,6.00025146484375,-0.001540904981084168,-0.0025515747256577015,0.005901564843952656
1686445315220268800,6.010268798828125,-0.0046605318784713745,0.0018306568963453174,-0.0008080030675046146
1686445315230284800,6.020284912109375,-0.007352188695222139,-0.00016937704640440643,0.002008556155487895
1686445315240301600,6.030301513671875,-0.009603358805179596,0.001475391210988164,-0.0019715381786227226
1686445315250318800,6.04031884765625,-0.009972206316888332,-0.003294063964858651,-0.0024913870729506016
1686445315260334800,6.0503349609375,-0.008225971832871437,0.00025992453447543085,0.0022154836915433407
1686445315270351600,6.0603515625,-0.011547200381755829,0.007834487594664097,0.004864263813942671
1686445315280367600,6.07036767578125,-0.009492571465671062,0.006837133318185806,0.010367685928940773
1686445315290385000,6.080385009765625,-0.010713097639381886,0.00777509855106473,0.00800253264605999
1686445315300401700,6.090401611328125,-0.006231530569493771,0.009823336265981197,0.010627876967191696
1686445315310417700,6.100417724609375,-0.004798749927431345,0.007260043174028397,0.009602559730410576
1686445315320434700,6.1104345703125,-0.006625145673751831,0.005920207127928734,0.0035326832439750433
1686445315330450700,6.12045068359375,-0.007261374965310097,0.005576659459620714,-0.00016298545233439654
1686445315340467700,6.1304677734375,-0.0037619813811033964,-0.0010410296963527799,-0.003596865339204669
1686445315350484700,6.140484619140625,-0.004159058444201946,-0.0006740460521541536,-0.006167614832520485
1686445315360500500,6.15050048828125,-0.0029646309558302164,-0.005376389715820551,-0.006356698926538229
1686445315370517800,6.160517822265625,-0.00532658863812685,-0.0010993528412654996,-0.002639458980411291
1686445315380534500,6.170534423828125,-0.0028730181511491537,0.00011078749957960099,0.000021837920940015465
1686445315390550500,6.180550537109375,-0.004485828336328268,-0.0008362325606867671,0.006824616342782974
1686445315400567800,6.19056787109375,-0.003691940102726221,0.00205276464112103,0.01085877325385809
1686445315410583800,6.200583740234375,-0.00436039362102747,-0.0037886130157858133,0.00827816966921091
1686445315420600600,6.2106005859375,-0.006719421595335007,-0.005511145573109388,0.0012604740913957357
1686445315430617600,6.22061767578125,-0.004983040504157543,-0.00863050576299429,-0.0034613104071468115
1686445315440633900,6.2306337890625,-0.006016347091645002,-0.007262706756591797,-0.002252768026664853
1686445315450650600,6.240650634765625,-0.005911685060709715,-0.00481259822845459,-0.0024730113800615072
1686445315460666600,6.25066650390625,-0.004147606901824474,0.0007920240750536323,-0.00344506511464715
1686445315470683600,6.26068359375,-0.005848035216331482,0.006557501386851072,0.0009861685102805495
1686445315480700700,6.27070068359375,-0.0044022053480148315,0.012918195687234402,0.002832538215443492
1686445315490716700,6.280716552734375,-0.0032812808640301228,0.011599930934607983,0.0038570561446249485
1686445315500733700,6.290733642578125,-0.005136971361935139,0.01375096570700407,0.001862348522990942
1686445315510749700,6.300749755859375,-0.005438441410660744,0.012477176263928413,-0.0016343819443136454
1686445315520766200,6.31076611328125,-0.007148456759750843,0.011580223217606544,-0.00461552431806922
1686445315530783500,6.320783447265625,-0.002995523624122143,0.007668306119740009,-0.0037942056078463793
1686445315540799500,6.330799560546875,-0.008947156369686127,0.0029430591966956854,0.002703907433897257
1686445315550816300,6.340816162109375,-0.004216050263494253,-0.0024469124618917704,0.003885019337758422
1686445315560833500,6.35083349609375,-0.009001217782497406,-0.0016130766598507762,0.002493784064427018
1686445315570849500,6.360849609375,-0.0062421830371022224,0.004000600427389145,0.0015627428656443954
1686445315580866300,6.3708662109375,-0.005306880921125412,0.007062703371047974,0.0011385013349354267
1686445315590882300,6.38088232421875,-0.0059897154569625854,0.008652077987790108,-0.0003478088474366814
1686445315600899600,6.390899658203125,-0.0016964336391538382,0.005971073638647795,0.0024530377704650164
1686445315610916400,6.400916259765625,-0.004453337751328945,0.003442934714257717,0.003290601773187518
1686445315620932400,6.410932373046875,-0.004394481889903545,0.004494084510952234,0.0006644586683250964
1686445315630949400,6.420949462890625,-0.001454618526622653,0.0033542513847351074,0.0013960290234535933
1686445315640965400,6.43096533203125,-0.003582484321668744,0.00040000680019147694,0.001871136948466301
1686445315650982400,6.440982421875,0.0016080166678875685,-0.0018777948571369052,0.004803543444722891
1686445315660999400,6.45099951171875,-0.002285258611664176,0.0014058827655389905,0.005675462540239096
1686445315671015200,6.46101513671875,-0.003719370812177658,0.005797701422125101,0.00532499048858881
1686445315681032400,6.471032470703125,-0.005164135713130236,0.007993478327989578,0.007617173250764608
1686445315691049200,6.48104931640625,-0.005915413144975901,0.01059245690703392,-0.0011880361707881093
1686445315701065200,6.491065185546875,-0.004731105640530586,0.009910954162478447,0.0015417039394378662
1686445315711082500,6.50108251953125,-0.0070611052215099335,0.008450476452708244,-0.0024112260434776545
1686445315721098500,6.511098388671875,-0.008449943736195564,0.010129333473742008,-0.0026043052785098553
1686445315731115300,6.521115234375,-0.0041063278913497925,0.008314655162394047,0.0009627327090129256
1686445315741132300,6.53113232421875,-0.0073804184794425964,0.005589975044131279,0.00023462448734790087
1686445315751148500,6.5411484375,-0.005169461946934462,0.0041430797427892685,0.0024977787397801876
1686445315761165300,6.551165283203125,-0.006216350477188826,0.003239469137042761,0.004797152243554592
1686445315771181300,6.561181396484375,-0.005065065808594227,0.00024740767548792064,0.007249657064676285
1686445315781198300,6.5711982421875,-0.003960653208196163,0.002898051869124174,0.00541447289288044
1686445315791215400,6.58121533203125,-0.003869839245453477,0.005250155925750732,0.0004801679460797459
1686445315801231400,6.5912314453125,-0.001883121207356453,0.00782649777829647,0.0031619712244719267
1686445315811248400,6.601248291015625,-0.0054363105446100235,0.008627044036984444,0.001201618229970336
1686445315821265400,6.611265380859375,-0.0006519418093375862,0.0051476238295435905,-0.0015385081060230732
1686445315831281400,6.621281494140625,-0.007748733274638653,-0.00017976337403524667,-0.0035151063930243254
1686445315841298400,6.63129833984375,-0.004083158448338509,-0.003486876841634512,0.001279116258956492
1686445315851314400,6.641314453125,-0.004324707202613354,-0.00577826052904129,0.0004849616379942745
1686445315861331200,6.651331298828125,-0.004589425399899483,-0.005431517027318478,0.0007400924805551767
1686445315871348500,6.661348388671875,-0.003921770956367254,-0.005258411634713411,0.004987834487110376
1686445315881364200,6.6713642578125,-0.006169745232909918,-0.0012804478174075484,0.006794522982090712
1686445315891381200,6.68138134765625,-0.0035627768374979496,0.00469541922211647,0.008360461331903934
1686445315901397200,6.691397216796875,-0.0041278996504843235,0.0060054282657802105,0.005972937680780888
1686445315911414300,6.701414306640625,-0.0067484499886631966,0.01037540938705206,0.0011608719360083342
1686445315921431300,6.711431396484375,-0.0030306773260235786,0.012235094793140888,-0.0004748416249640286
1686445315931447300,6.721447265625,-0.009348760358989239,0.011091533116996288,-0.0021467742044478655
1686445315941464300,6.73146435546875,-0.00794207863509655,0.008293350227177143,-0.0034290861804038286
1686445315951481300,6.7414814453125,-0.0054213968105614185,0.008645686320960522,-0.002428004052489996
1686445315961497300,6.751497314453125,-0.007483748719096184,0.004467186518013477,0.006930344272404909
1686445315971514000,6.76151416015625,-0.002704440150409937,0.007434746716171503,0.0054541537538170815
1686445315981530400,6.7715302734375,-0.006472812965512276,0.00836845114827156,0.004135622642934322
1686445315991547400,6.78154736328125,-0.003480751533061266,0.01076636090874672,0.005854693241417408
1686445316001564200,6.791564208984375,-0.0044115264900028706,0.009652627632021904,0.008638761937618256
1686445316011580200,6.801580078125,-0.005840578582137823,0.005872802808880806,0.0065226140432059765
1686445316021597400,6.811597412109375,-0.006264820229262114,0.001812014845199883,0.002822417998686433
1686445316031613400,6.821613525390625,-0.007698665838688612,0.0018271948210895061,-0.0026024410035461187
1686445316041630200,6.831630126953125,-0.008668589405715466,0.0028538433834910393,-0.005352687556296587
1686445316051647500,6.8416474609375,-0.005920739844441414,0.0036075180396437645,-0.0011544802691787481
1686445316061663500,6.85166357421875,-0.004503937903791666,0.0019057580502703786,-0.00021065604232717305
1686445316071680300,6.86168017578125,-0.005331382155418396,0.001062334980815649,0.002026133006438613
1686445316081696300,6.8716962890625,-0.004009921569377184,-0.0011062771081924438,0.0021880532149225473
1686445316091713500,6.881713623046875,-0.0034053840208798647,-0.000049801110435510054,0.007375624496489763
1686445316101730300,6.891730224609375,-0.0031521173659712076,-0.004232029430568218,0.007895207032561302
1686445316111746300,6.901746337890625,-0.002406432293355465,-0.0018572885310277343,-0.004132959526032209
1686445316121763300,6.911763427734375,-0.004342550411820412,-0.0027688886038959026,0.0034408040810376406
1686445316131780400,6.9217802734375,-0.0049372343346476555,0.000984570593573153,0.004743356257677078
1686445316141796400,6.93179638671875,-0.005485845264047384,0.0010133327450603247,0.001811482128687203
1686445316151813400,6.9418134765625,-0.005138303153216839,-0.0009715211344882846,0.0009813748765736818
1686445316161829000,6.9518291015625,-0.005654157139360905,-0.0012887036427855492,0.0023638217244297266
1686445316171846400,6.961846435546875,-0.007033142261207104,-0.00027297402266412973,0.0041188448667526245
1686445316181863400,6.971863525390625,-0.0065191518515348434,0.0027944548055529594,-0.0017502295086160302
1686445316191879200,6.981879150390625,-0.007698133587837219,0.007933557033538818,-0.005105546209961176
1686445316201896400,6.991896484375,-0.006059756502509117,0.007213171571493149,-0.0026815368328243494
1686445316211912400,7.001912353515625,-0.0014375743921846151,0.008639294654130936,0.004090349189937115
1686445316221929200,7.01192919921875,-0.004899683874100447,0.008203867822885513,0.004312190227210522
1686445316231946200,7.0219462890625,-0.004764661658555269,0.006713296286761761,0.004297809209674597
1686445316241962500,7.03196240234375,-0.007125020958483219,0.0036136433482170105,0.004323908127844334
1686445316251979300,7.041979248046875,-0.006931409239768982,-0.00017603494052309543,0.0013012205017730594
1686445316261996300,7.051996337890625,-0.008558068424463272,-0.004588892683386803,0.004820321686565876
1686445316272012300,7.06201220703125,-0.010041182860732079,-0.0019952403381466866,0.006196909584105015
1686445316282029300,7.072029296875,-0.007157245185226202,-0.0011896340874955058,0.00433056615293026
1686445316292045300,7.08204541015625,-0.008856874890625477,-0.0024564997293055058,0.004513259045779705
1686445316302062300,7.092062255859375,-0.008345548063516617,-0.002030926523730159,0.002686330582946539
1686445316312079400,7.102079345703125,-0.0037060549948364496,-0.0005744438385590911,0.0004170510219410062
1686445316322095400,7.112095458984375,-0.004067711997777224,-0.001695900922641158,-0.0010783139150589705
1686445316332112400,7.1221123046875,-0.003266367129981518,0.0006404902087524533,0.002133458387106657
1686445316342128400,7.13212841796875,-0.0026197514962404966,-0.0004426173691172153,0.005558816250413656
1686445316352145400,7.1421455078125,-0.0022679478861391544,0.003234142903238535,0.0046120621263980865
1686445316362162400,7.152162353515625,-0.0038812910206615925,0.0019331886433064938,0.0014117417158558965
1686445316372178400,7.162178466796875,-0.003629888640716672,0.0033545177429914474,-0.002531867241486907
1686445316382195200,7.1721953125,-0.0033305492252111435,0.001582982949912548,-0.000020772657080669887
1686445316392212500,7.18221240234375,-0.005534847732633352,0.0022945795208215714,0.0020748688839375973
1686445316402228500,7.192228515625,-0.004283694550395012,0.0023102923296391964,0.00452843913808465
1686445316412245200,7.202245361328125,-0.0070427292957901955,0.0006601976347155869,0.00498197553679347
1686445316422261200,7.21226123046875,-0.007816910743713379,0.000007989483492565341,0.002835467690601945
1686445316432278300,7.2222783203125,-0.004280498716980219,0.000740625080652535,0.007484015077352524
1686445316442295300,7.23229541015625,-0.004857073072344065,0.003035471076145768,0.005124188028275967
1686445316452311300,7.242311279296875,-0.005164402071386576,0.002826146548613906,0.002924683503806591
1686445316462328300,7.252328369140625,-0.005644570104777813,0.004892759490758181,0.00016724651504773647
1686445316472344300,7.26234423828125,-0.004064782522618771,0.005197159014642239,-0.0008580705034546554
1686445316482361300,7.272361328125,-0.0044320328161120415,0.0071157002821564674,-0.0003842941368930042
1686445316492378000,7.282378173828125,-0.005684517323970795,0.004234958905726671,-0.0003656520275399089
1686445316502394400,7.292394287109375,-0.005382781382650137,0.003949468024075031,0.001871136948466301
1686445316512411400,7.302411376953125,-0.005312473513185978,0.006632336415350437,-0.0013880395563319325
1686445316522428200,7.31242822265625,-0.005789179354906082,0.008694687858223915,0.0006921555614098907
1686445316532444200,7.322444091796875,-0.003781422507017851,0.009988185949623585,0.002198705682530999
1686445316542461400,7.33246142578125,-0.005684783682227135,0.004096474498510361,0.0025624935515224934
1686445316552477400,7.3424775390625,-0.003907389938831329,0.0016636766958981752,0.0007872303831391037
1686445316562494200,7.352494140625,-0.005052282940596342,0.004185690078884363,0.00040027310024015605
1686445316572511200,7.36251123046875,-0.006305033806711435,0.0041763694025576115,0.0010207896120846272
1686445316582527500,7.372527587890625,-0.005006742663681507,0.00279019377194345,-0.0014708638191223145
1686445316592544300,7.382544189453125,-0.0046517434529960155,0.004369448404759169,0.0015371765475720167
1686445316602560300,7.392560302734375,-0.0046634613536298275,0.001986984396353364,0.00040480049210600555
1686445316612577300,7.402577392578125,-0.004827245604246855,0.00098217383492738,0.0054669370874762535
1686445316622594300,7.41259423828125,-0.0043745082803070545,0.0010900318156927824,0.00875168014317751
1686445316632610300,7.4226103515625,-0.004313522018492222,0.0017755294684320688,0.006992129608988762
1686445316642627300,7.43262744140625,-0.004467186518013477,0.004793690051883459,0.006199039984494448
1686445316652644400,7.442644287109375,-0.0024375913199037313,0.00446851784363389,0.002376604825258255
1686445316662660400,7.452660400390625,-0.006811034400016069,0.0018855180824175477,0.0021046961192041636
1686445316672677400,7.462677490234375,-0.005441637244075537,0.002537992550060153,0.003439738880842924
1686445316682693000,7.472693115234375,-0.004875981714576483,0.0032647692132741213,0.0008380967774428427
1686445316692710400,7.48271044921875,-0.0065436530858278275,0.0073500582948327065,-0.0014916365034878254
1686445316702727400,7.4927275390625,-0.005534048657864332,0.006216616835445166,0.0035625104792416096
1686445316712743200,7.5027431640625,-0.005919674411416054,0.008537561632692814,0.004189684987068176
1686445316722760200,7.51276025390625,-0.004860268905758858,0.008731439709663391,0.0065801385790109634
1686445316732776400,7.5227763671875,-0.001859152689576149,0.007535947021096945,0.005531651899218559
1686445316742793200,7.532793212890625,-0.002039981307461858,0.00490154791623354,0.00552233075723052
1686445316752810200,7.542810302734375,-0.0032842103391885757,0.00569969741627574,0.003314303932711482
1686445316762826200,7.552826171875,-0.004120443016290665,0.001520398654974997,0.004010187927633524
1686445316772843300,7.56284326171875,-0.004388356581330299,0.002356897573918104,0.0018498316640034318
1686445316782860300,7.5728603515625,-0.004239752423018217,0.002269545802846551,0.0034179009962826967
1686445316792876300,7.582876220703125,-0.003561445279046893,0.004357197787612677,0.0009299758239649236
1686445316802893300,7.592893310546875,-0.003665042342618108,0.008279501460492611,0.0009507485083304346
1686445316812909300,7.602909423828125,-0.006582268979400396,0.0060056946240365505,0.0024258734192699194
1686445316822926300,7.61292626953125,-0.005382781382650137,0.005082643125206232,0.0014652712270617485
1686445316832943000,7.622943115234375,-0.006069610361009836,0.0031278827227652073,0.0013105415273457766
1686445316842959400,7.63295947265625,-0.003931358456611633,-0.0011315771844238043,0.0007757788407616317
1686445316852976400,7.642976318359375,-0.0018370485631749034,0.00012836436508223414,0.00028336033574305475
1686445316862992400,7.652992431640625,-0.008352738805115223,0.0023094932548701763,0.0036397422663867474
1686445316873009200,7.663009033203125,-0.002112419344484806,0.004571315832436085,0.0036661075428128242
1686445316883026400,7.6730263671875,-0.004922853317111731,0.0048887645825743675,0.001475391210988164
1686445316893042400,7.68304248046875,-0.006729541812092066,0.00603498937562108,0.001537975505925715
1686445316903059200,7.69305908203125,-0.00577746145427227,0.006450176239013672,0.005565207917243242
1686445316913076500,7.703076416015625,-0.006647516507655382,0.004944957327097654,0.005583849735558033
1686445316923092500,7.713092529296875,-0.0017707358347252011,0.006915696896612644,0.006879477761685848
1686445316933109200,7.723109130859375,-0.006138053722679615,0.005249889567494392,0.00404640706256032
1686445316943125200,7.733125244140625,-0.004406998865306377,0.0049673281610012054,0.004107393324375153
1686445316953142500,7.743142578125,-0.004764395300298929,0.008494152687489986,0.003964914008975029
1686445316963159300,7.7531591796875,-0.006597981322556734,0.007457383442670107,0.0032376048620790243
1686445316973175300,7.76317529296875,-0.0035033884923905134,0.008200937882065773,0.007722367998212576
1686445316983192300,7.7731923828125,-0.006135124247521162,0.008191350847482681,0.0039880839176476
1686445316993208300,7.783208251953125,-0.002700977958738804,0.007778028026223183,0.0021403825376182795
1686445317003225300,7.793225341796875,-0.006469617132097483,0.006428071763366461,0.004507400095462799
1686445317013242400,7.803242431640625,-0.00823928788304329,0.0023193468805402517,0.004032026045024395
1686445317023258000,7.813258056640625,-0.005046157632023096,0.0014394385507330298,0.00011611382069531828
1686445317033275400,7.823275390625,-0.0052296495996415615,0.002314287004992366,0.0021371867042034864
1686445317043292200,7.833292236328125,-0.004010187927633524,0.002246376359835267,0.0030866037122905254
1686445317053308200,7.84330810546875,-0.005934055428951979,0.003299922915175557,0.005367334932088852
1686445317063325400,7.853325439453125,-0.0052964948117733,0.002746784361079335,0.0032748891972005367
1686445317073341400,7.863341552734375,-0.00373002327978611,0.003923901356756687,0.002255697501823306
1686445317083358200,7.873358154296875,-0.0051534827798604965,0.002162220422178507,-0.0030570426024496555
1686445317093375200,7.883375244140625,-0.004255465231835842,0.002482066163793206,-0.0017025588313117623
1686445317103391500,7.8933916015625,-0.006571882404386997,-0.0031787490006536245,-0.0033246902748942375
1686445317113408300,7.903408203125,-0.0049763829447329044,-0.0002814961189869791,-0.0008948221220634878
1686445317123424300,7.91342431640625,-0.004177967086434364,-0.0024503744207322598,0.0024559672456234694
1686445317133441300,7.923441162109375,-0.00703900121152401,0.003787015099078417,0.003055977402254939
1686445317143458300,7.933458251953125,-0.006355900317430496,0.0026458504144102335,0.0032719597220420837
1686445317153474300,7.943474365234375,-0.007319165393710136,0.0068328725174069405,0.006603308022022247
1686445317163491300,7.9534912109375,-0.005389172583818436,0.0043859598226845264,0.001157143502496183
1686445317173508400,7.96350830078125,-0.004971588961780071,0.001859152689576149,-0.0016186692519113421
1686445317183524400,7.9735244140625,-0.006944458931684494,0.002662628423422575,-0.006572681479156017
1686445317193541400,7.983541259765625,-0.004281830508261919,0.0006351639167405665,-0.004894357640296221
1686445317203557400,7.993557373046875,-0.007898136973381042,0.0019004317000508308,0.0012905678013339639
1686445317213574400,8.003574462890626,-0.006223541218787432,0.003091397462412715,0.004108192399144173
1686445317223591400,8.01359130859375,-0.005649629980325699,0.00672421557828784,-0.00023142869758885354
1686445317233607200,8.023607177734375,-0.0060206083580851555,0.008014250546693802,0.0030277478508651257
1686445317243624200,8.033624267578125,-0.003233876544982195,0.004101534374058247,0.0037976677995175123
1686445317253640400,8.043640380859374,-0.0044043357484042645,-0.0005392901366576552,0.0031643679831176996
1686445317263657200,8.0536572265625,-0.0032746228389441967,-0.0017323862994089723,-0.00009161273919744417
1686445317273674200,8.06367431640625,-0.0054365769028663635,-0.0023851271253079176,-0.0026879284996539354
1686445317283690200,8.073690185546875,-0.007559649180620909,0.004069310147315264,-0.00458702864125371
1686445317293707300,8.083707275390625,-0.006030994467437267,0.004231763072311878,-0.0022391858510673046
1686445317303724300,8.093724365234374,-0.005547896958887577,0.003885285696014762,0.0036828855518251657
1686445317313740300,8.103740234375,-0.00478543434292078,0.00210682675242424,0.003477289341390133
1686445317323757300,8.11375732421875,-0.004128698725253344,0.0014410364674404263,0.0029262814205139875
1686445317333773300,8.123773193359375,-0.008437426760792732,-0.000538491178303957,0.00009693906031316146
1686445317343790300,8.133790283203124,-0.005872536450624466,0.0015046859625726938,-0.0021015002857893705
1686445317353807000,8.14380712890625,-0.006322344299405813,-0.00030866035376675427,-0.0006151901907287538
1686445317363823400,8.1538232421875,-0.005688512232154608,-0.0024176177103072405,-0.0028122980147600174
1686445317373840400,8.16384033203125,-0.00794341042637825,0.0014532869681715965,-0.001859152689576149
1686445317383856400,8.1738564453125,-0.005320463329553604,0.002743322169408202,0.0004058657505083829
1686445317393873200,8.183873046875,-0.005783054046332836,0.005705023650079966,0.0036615801509469748
1686445317403890400,8.193890380859376,-0.004172374494373798,0.004892493132501841,-0.00008948221511673182
1686445317413906400,8.203906494140625,-0.004008590243756771,0.0019523634109646082,0.0009534116834402084
1686445317423923200,8.213923095703125,-0.006708236411213875,-0.0028477180749177933,0.001278849900700152
1686445317433940500,8.2239404296875,-0.008261658251285553,-0.0035505264531821012,-0.001457548001781106
1686445317443956500,8.23395654296875,-0.008012119680643082,-0.002118278294801712,-0.0046485476195812225
1686445317453973200,8.24397314453125,-0.010489125736057758,-0.002567020943388343,-0.0025686188600957394
1686445317463989200,8.2539892578125,-0.010905378498136997,-0.0025545042008161545,-0.0019017633749172091
1686445317474006500,8.264006591796875,-0.009035306982696056,-0.005379851907491684,0.0004471447318792343
1686445317484023300,8.274023193359374,-0.0073194317519664764,-0.0022916500456631184,0.003984355367720127
1686445317494039300,8.284039306640626,-0.006003297865390778,-0.0008362325606867671,0.0063034361228346825
1686445317504056300,8.294056396484375,-0.006373743526637554,-0.0026847326662391424,0.005831257440149784
1686445317514072300,8.304072265625,-0.003762513864785433,0.00032863407977856696,0.003852795111015439
1686445317524089600,8.314089599609375,-0.0008913599886000156,0.002132659312337637,0.0008503473363816738
1686445317534106400,8.3241064453125,-0.003938282374292612,0.004231763072311878,0.0015132081462070346
1686445317544122400,8.334122314453126,-0.002207760466262698,0.0016831178218126297,0.0007344998302869499
1686445317554139600,8.3441396484375,-0.001844505313783884,0.0021699436474591494,0.0007611314067617059
1686445317564156400,8.354156494140625,-0.0021816615480929613,0.004203799646347761,0.002123604528605938
1686445317574172400,8.36417236328125,-0.0014652712270617485,0.006734335329383612,0.004466920159757137
1686445317584189700,8.374189697265624,-0.00216514989733696,0.005425391718745232,0.005563609767705202
1686445317594205700,8.384205810546876,-0.005278118886053562,0.0025124261155724525,0.0034176346380263567
1686445317604222500,8.394222412109375,-0.006869091186672449,0.0024892566725611687,0.003926032222807407
1686445317614239500,8.404239501953125,-0.004923652391880751,0.0035803536884486675,0.003593669505789876
1686445317624255700,8.414255859375,-0.0075937374494969845,0.002029328839853406,-0.004141215234994888
1686445317634272500,8.4242724609375,-0.008112520910799503,0.004116448108106852,-0.0013680658303201199
1686445317644288500,8.43428857421875,-0.003288205014541745,0.007666974328458309,-0.0006090649403631687
1686445317654305500,8.444305419921875,-0.005218463949859142,0.00666456064209342,-0.0023031015880405903
1686445317664322600,8.454322509765625,-0.004007791168987751,0.008876316249370575,0.0004796353168785572
1686445317674338600,8.464338623046874,-0.006988667417317629,0.008244347758591175,0.003582484321668744
1686445317684355600,8.47435546875,-0.0043864925391972065,0.010273676365613937,0.0009717874927446246
1686445317694372600,8.48437255859375,-0.005919141694903374,0.006560430862009525,0.00005246427463134751
1686445317704388600,8.494388671875,-0.005940713454037905,0.004265318624675274,-0.0036549223586916924
1686445317714405600,8.504405517578125,-0.004009655211120844,0.004326305352151394,-0.0035108451265841722
1686445317724421400,8.51442138671875,-0.0057039582170546055,0.0040852888487279415,-0.00675324397161603
1686445317734438700,8.524438720703126,-0.0065324679017066956,0.004641090985387564,-0.0015853798249736428
1686445317744455700,8.53445556640625,-0.005302886478602886,0.003099919529631734,-0.001216265605762601
1686445317754471400,8.544471435546875,-0.007366569712758064,0.0013134710025042295,0.00018615495355334133
1686445317764488400,8.554488525390624,-0.004993693437427282,0.004093811381608248,0.0014064153656363487
1686445317774505700,8.564505615234374,-0.004846953321248293,0.0027531760279089212,0.0043625240214169025
1686445317784521500,8.574521484375,-0.005191832315176725,0.002770486520603299,0.006012618541717529
1686445317794538500,8.58453857421875,-0.0038754320703446865,0.003778493031859398,0.0046570696868002415
1686445317804554500,8.594554443359375,-0.00836898386478424,0.003065032185986638,0.003778493031859398
1686445317814571500,8.604571533203124,-0.0028389296494424343,-0.0009398295660503209,0.0005848301807418466
1686445317824588500,8.614588623046876,-0.005939648021012545,-0.0003981425834354013,-0.00202267081476748
1686445317834604500,8.6246044921875,-0.003994475118815899,0.0014831144362688065,-0.002116147894412279
1686445317844621600,8.63462158203125,-0.00421471893787384,0.00233825552277267,0.0013883059145882726
1686445317854637600,8.644637451171874,-0.006767624989151955,0.005271460860967636,0.00512738386169076
1686445317864654600,8.654654541015624,-0.004720719531178474,0.00469462014734745,0.0035052525345236063
1686445317874671400,8.66467138671875,-0.0030248183757066727,0.006370814051479101,0.004345746245235205
1686445317884687600,8.6746875,-0.005363606382161379,0.006741259712725878,0.0005629922379739583
1686445317894704600,8.68470458984375,-0.004235225263983011,0.003165433183312416,-0.001731320982798934
1686445317904721400,8.694721435546874,-0.006296778097748756,0.000391218374716118,-0.005754558369517326
1686445317914737400,8.7047373046875,-0.007727960590273142,0.0010189254535362124,-0.0033723609521985054
1686445317924754700,8.714754638671875,-0.00923504400998354,0.004167846869677305,-0.004143878817558289
1686445317934770700,8.724770751953125,-0.005591573193669319,0.006588927004486322,0.0009502158500254154
1686445317944787500,8.734787353515625,-0.005044825840741396,0.004513525404036045,0.004286357667297125
1686445317954804700,8.7448046875,-0.006107959896326065,0.0021933794487267733,0.0043808999471366405
1686445317964820700,8.75482080078125,-0.006728476379066706,-0.0020610203500837088,0.007602259516716003
1686445317974837500,8.76483740234375,-0.004743356257677078,0.003031742526218295,0.001752093667164445
1686445317984853500,8.774853515625,-0.0032115059439092875,0.0038978024385869503,0.003597131697461009
1686445317994870800,8.784870849609375,-0.00009853696246864274,0.005309544038027525,-0.0006993460701778531
1686445318004887600,8.794887451171874,-0.0000029294772048160667,0.007562578655779362,-0.002837331732735038
1686445318014903600,8.804903564453125,-0.0034045851789414883,0.008323709480464458,-0.009766343981027603
1686445318024920600,8.814920654296875,-0.003948402591049671,0.010456369258463383,-0.010963968001306057
1686445318034937600,8.8249375,-0.004656270612031221,0.009677394293248653,-0.010901649482548237
1686445318044953600,8.83495361328125,-0.005503688473254442,0.007303453050553799,-0.012337359599769115
1686445318054970600,8.844970703125,-0.007379353046417236,0.006928213406354189,-0.01709536276757717
1686445318064986400,8.854986328125,-0.008977515622973442,0.0007275756215676665,-0.016204802319407463
1686445318075003600,8.865003662109375,-0.007213970646262169,-0.004397411365061998,-0.013813816010951996
1686445318085020400,8.8750205078125,-0.006335926707834005,-0.005988916382193565,-0.012858274392783642
1686445318095036400,8.885036376953124,-0.008362858556210995,-0.0035052525345236063,-0.004708202555775642
1686445318105053700,8.8950537109375,-0.0046208505518734455,-0.0026770094409585,-0.001814944320358336
1686445318115069700,8.905069580078125,-0.005272792652249336,0.0016309198690578341,0.0003182477375958115
1686445318125086500,8.91508642578125,-0.0031433289404958487,0.004319647327065468,0.0022865901701152325
1686445318135103500,8.925103515625,-0.004793423693627119,0.005404885392636061,0.00040187101694755256
1686445318145119700,8.93511962890625,-0.0017153420485556126,0.003754790872335434,-0.0005416869535110891
1686445318155136500,8.945136474609376,0.004623514134436846,0.004187820944935083,-0.003882356220856309
1686445318165153500,8.955153564453125,-0.001315335277467966,0.006128732580691576,-0.008986570872366428
1686445318175169500,8.96516943359375,0.0016530241118744016,0.005634183529764414,-0.013066799379885197
1686445318185186600,8.9751865234375,0.0016322514275088906,0.008352206088602543,-0.011855860240757465
1686445318195202600,8.98520263671875,0.003882356220856309,0.006217415910214186,-0.01449771597981453
1686445318205219600,8.995219482421875,0.0008130630594678223,0.005362540949136019,-0.013009008951485157
1686445318215236600,9.005236572265625,0.0008503473363816738,0.002034388715401292,-0.014160294085741043
1686445318225252600,9.015252685546875,-0.0009249158320017159,0.0023904533591121435,-0.012839099392294884
1686445318235269600,9.02526953125,0.00022530343267135322,0.0034938009921461344,-0.00956900417804718
1686445318245286400,9.035286376953126,0.003534547286108136,0.002572613535448909,-0.007546066772192717
1686445318255302700,9.045302734375,-0.0020623519085347652,0.0027409254107624292,-0.013737117871642113
1686445318265319700,9.055319580078125,0.0014389059506356716,0.0023792681749910116,-0.01558002457022667
1686445318275335400,9.06533544921875,0.0012966931099072099,0.0016847157385200262,-0.022607840597629547
1686445318285352400,9.0753525390625,0.0010934938909485936,0.005927131045609713,-0.03026549331843853
1686445318295369700,9.08536962890625,0.0017164073651656508,0.00695058424025774,-0.03358405828475952
1686445318305385500,9.095385498046875,0.0035742283798754215,0.01281779445707798,-0.031924910843372345
1686445318315402500,9.105402587890625,0.006107693538069725,0.015973906964063644,-0.028235366567969322
1686445318325418500,9.11541845703125,0.0035502600949257612,0.014011423103511333,-0.02123924158513546
1686445318335435500,9.125435546875,-0.0007880293414928019,0.010155698284506798,-0.015193600207567215
1686445318345452500,9.13545263671875,0.00042104575550183654,0.00439075380563736,-0.011875567957758904
1686445318355468500,9.145468505859375,-0.0034615767654031515,0.0015038870042189956,-0.016317985951900482
1686445318365485600,9.155485595703125,-0.006213953718543053,-0.00210709311068058,-0.017788585275411606
1686445318375502600,9.165502685546874,-0.003864513011649251,-0.007673365995287895,-0.025225728750228882
1686445318385518600,9.1755185546875,-0.006530071143060923,-0.00475320965051651,-0.02756797894835472
1686445318395535400,9.185535400390625,-0.009370332583785057,-0.0022972426377236843,-0.02678447589278221
1686445318405551400,9.19555126953125,-0.005269064102321863,0.0055228634737432,-0.02263660356402397
1686445318415568600,9.205568603515625,-0.0076302229426801205,0.0095109473913908,-0.01456056721508503
1686445318425585400,9.21558544921875,-0.0026849990244954824,0.0062304651364684105,-0.01260873582214117
1686445318435601400,9.225601318359375,-0.0036770266015082598,0.003953462466597557,-0.009071258828043938
1686445318445618700,9.23561865234375,-0.004172108136117458,0.0015022892039269209,-0.007189469411969185
1686445318455634700,9.245634765625,-0.0029403960797935724,-0.0031292142812162638,-0.010675014927983284
1686445318465651500,9.2556513671875,-0.00574816670268774,-0.002302036387845874,-0.00851705577224493
1686445318475668700,9.265668701171874,-0.003519101068377495,-0.0028788771014660597,-0.010881143622100353
1686445318485684700,9.275684814453125,-0.006164152640849352,0.0035167040769010782,-0.012706208042800426
1686445318495701500,9.285701416015625,-0.003995274193584919,0.00267674308270216,-0.01398878637701273
1686445318505718500,9.295718505859375,-0.0048916940577328205,0.0014748586108908057,-0.014369618147611618
1686445318515734500,9.305734619140624,-0.007863515987992287,0.0010002832859754562,-0.014401576481759548
1686445318525751600,9.31575146484375,-0.008217183873057365,-0.0011819108622148633,-0.018441058695316315
1686445318535767600,9.325767578125,-0.010251039639115334,-0.002034655073657632,-0.016327841207385063
1686445318545784600,9.33578466796875,-0.011871573515236378,0.0014053500490263104,-0.017526529729366302
1686445318555801600,9.345801513671875,-0.012086223810911179,-0.00012889699428342283,-0.0179933812469244
1686445318565817600,9.355817626953124,-0.009701895527541637,-0.002089516259729862,-0.014239123091101646
1686445318575834600,9.365834716796876,-0.008440889418125153,0.0006463492172770202,-0.010337325744330883
1686445318585850400,9.375850341796875,-0.004719387739896774,-0.007736749015748501,-0.004462392535060644
1686445318595867600,9.38586767578125,-0.007333546411246061,-0.006909837480634451,-0.0014772554859519005
1686445318605884700,9.395884765625,-0.0038003309164196253,-0.004202734678983688,0.004343349486589432
1686445318615900400,9.405900390625,-0.006541789043694735,0.001418932224623859,-0.001279382617212832
1686445318625917400,9.41591748046875,-0.007133543025702238,0.007022755686193705,-0.0072808158583939075
1686445318635934500,9.4259345703125,-0.005568669643253088,0.011415906250476837,-0.011036671698093414
1686445318645950500,9.435950439453125,-0.007266967557370663,0.01531930174678564,-0.012404471635818481
1686445318655967500,9.445967529296874,-0.007446198258548975,0.015804529190063477,-0.007035539019852877
1686445318665983500,9.4559833984375,-0.00959803257137537,0.015548599883913994,-0.0062309978529810905
1686445318676000500,9.46600048828125,-0.006874683778733015,0.010933874174952507,-0.0024024376180022955
1686445318686017500,9.476017578125,-0.006826214492321014,0.003715642262250185,0.004601143300533295
1686445318696033500,9.486033447265624,-0.005340703297406435,0.0008953547803685069,0.006765228230506182
1686445318706050600,9.496050537109374,-0.004454403184354305,-0.005203284323215485,0.005781456362456083
1686445318716067600,9.506067626953126,-0.004548412747681141,-0.0029473204631358385,0.003727093804627657
1686445318726083600,9.51608349609375,-0.003894606838002801,0.003808586625382304,-0.0015760586829856038
1686445318736100400,9.526100341796875,-0.004303934518247843,0.007622499484568834,-0.0010873686987906694
1686445318746116600,9.53611669921875,-0.001142229768447578,0.007869641296565533,0.0033577135764062405
1686445318756133600,9.546133544921876,-0.0012242551892995834,0.005088235717266798,-0.00004873584839515388
1686445318766150400,9.556150390625,-0.003305515507236123,-0.002700977958738804,0.0016109461430460215
1686445318776166400,9.56616650390625,-0.0018708707066252828,0.0013286510948091745,0.0006503439508378506
1686445318786183700,9.57618359375,-0.000371777277905494,0.0023576964158564806,0.0035920715890824795
1686445318796199700,9.58619970703125,0.0029465213883668184,-0.0012434299569576979,0.00018189390539191663
1686445318806216400,9.596216552734376,0.0012191950809210539,0.0000066579027588886674,-0.0008684568456374109
1686445318816233700,9.606233642578125,-0.000910268456209451,-0.00010093380114994943,-0.0033135050907731056
1686445318826249500,9.61624951171875,0.00008122641156660393,-0.0002740392810665071,-0.006619819439947605
1686445318836266500,9.6262666015625,0.0007462177309207618,0.0036661075428128242,-0.005143895745277405
1686445318846283500,9.636283447265624,-0.0037358824629336596,0.004471713677048683,-0.006105563137680292
1686445318856299500,9.646299560546876,-0.005900233518332243,0.00890667550265789,-0.003787015099078417
1686445318866316500,9.656316650390625,-0.004828311037272215,0.009311476722359657,0.0021315941121429205
1686445318876332500,9.66633251953125,-0.006415554787963629,0.01127901952713728,-0.0018825886072590947
1686445318886349300,9.676349365234374,-0.005943909287452698,0.010630007833242416,0.002177933230996132
1686445318896366600,9.68636669921875,-0.009270995855331421,0.01133973989635706,0.0025350630749017
1686445318906382600,9.696382568359375,-0.012897422537207603,0.011092065833508968,-0.0003605920064728707
1686445318916399400,9.7063994140625,-0.010967696085572243,0.010476609691977501,-0.0006503439508378506
1686445318926416600,9.716416748046875,-0.014289457350969315,0.009313340298831463,-0.0025486452504992485
1686445318936432600,9.7264326171875,-0.009888051077723503,0.011003648862242699,0.0021963089238852262
1686445318946449400,9.736449462890626,-0.007619037292897701,0.011470234952867031,0.0037404096219688654
1686445318956465400,9.74646533203125,-0.007534348871558905,0.0148623026907444,0.002441585995256901
1686445318966482700,9.756482666015625,-0.003515905234962702,0.01889699138700962,0.007935155183076859
1686445318976499500,9.76649951171875,-0.004536428488790989,0.01480664312839508,0.009185775183141232
1686445318986515500,9.776515380859376,-0.0035744947381317616,0.016144081950187683,0.012503541074693203
1686445318996532500,9.786532470703126,0.00016005597717594355,0.01296160463243723,0.0051771849393844604
1686445319006548700,9.796548828125,-0.00024101608141791075,0.010028133168816566,0.0023315974976867437
1686445319016565500,9.8065654296875,0.0013403689954429865,0.00424401368945837,0.004230697639286518
1686445319026582500,9.81658251953125,0.00017177389236167073,-0.0026610305067151785,0.003052515210583806
1686445319036598500,9.8265986328125,0.0018330537714064121,-0.003198190126568079,-0.0019835224375128746
1686445319046615600,9.836615478515625,-0.0007608651067130268,-0.004257329273968935,0.0014152037911117077
1686445319056632600,9.846632568359375,-0.001076715998351574,-0.006651244591921568,0.003546531544998288
1686445319066648600,9.856648681640625,-0.0010349043877795339,-0.007410778198391199,0.005392102058976889
1686445319076665600,9.86666552734375,-0.0015984292840585113,-0.009779660031199455,0.00971574429422617
1686445319086681600,9.876681640625,-0.0017180051654577255,-0.012839365750551224,0.004460528492927551
1686445319096698600,9.88669873046875,-0.004166249185800552,-0.014303571544587612,0.003547064261510968
1686445319106715400,9.89671533203125,-0.0038666436448693275,-0.00818203017115593,-0.004327636677771807
1686445319116731600,9.906731689453125,-0.009679525159299374,-0.00580702256411314,-0.0051835766062140465
1686445319126748700,9.916748779296874,-0.008725048042833805,0.0001382180635118857,-0.006394249852746725
1686445319136764400,9.926764404296875,-0.004248807206749916,0.005932457745075226,-0.006700779777020216
1686445319146781400,9.936781494140625,-0.00999244675040245,0.011005247011780739,-0.0019888486713171005
1686445319156798700,9.946798828125,-0.005818474106490612,0.017586184665560722,-0.0007392935222014785
1686445319166814500,9.956814453125,-0.009727994911372662,0.01974068209528923,0.000955009541939944
1686445319176831500,9.96683154296875,-0.006603041663765907,0.020382769405841827,0.0007901599165052176
1686445319186848800,9.976848876953126,-0.0052083441987633705,0.018520154058933258,-0.001142229768447578
1686445319196864500,9.986864501953125,-0.0051537491381168365,0.014562164433300495,-0.002389654517173767
1686445319206881500,9.996881591796875,-0.0057593523524701595,0.010815363377332687,0.0022066952660679817
1686445319216897500,10.0068974609375,-0.004011519718915224,0.00637773796916008,0.005532717332243919
1686445319226914600,10.01691455078125,-0.003058374160900712,0.004485561978071928,0.0054605454206466675
1686445319236931600,10.026931640625,-0.00041278995922766626,0.003203782718628645,0.008713063783943653
1686445319246947600,10.036947509765625,-0.0023912524338811636,-0.0016445019282400608,0.008111988194286823
1686445319256964400,10.04696435546875,-0.0012809804175049067,-0.0036165728233754635,0.008466721512377262
1686445319266981600,10.056981689453124,-0.0028477180749177933,-0.007959921844303608,0.008577775210142136
1686445319276997600,10.06699755859375,-0.0037116475868970156,-0.007622765842825174,0.007810784969478846
1686445319287014400,10.077014404296875,-0.0036546560004353523,-0.00634897593408823,0.004427238833159208
1686445319297030400,10.087030517578125,-0.002679938916116953,-0.0052171326242387295,-0.00012010856153210625
1686445319307047700,10.097047607421874,-0.0033952640369534492,-0.0009049421059899032,-0.004789428785443306
1686445319317064400,10.107064453125,-0.006216616835445166,0.004135356284677982,-0.005898369010537863
1686445319327080400,10.11708056640625,-0.004957740660756826,0.006200371775776148,-0.0029385320376604795
1686445319337097700,10.12709765625,-0.007388407830148935,0.006194512825459242,-0.0014772554859519005
1686445319347113700,10.13711376953125,-0.00492125516757369,0.008946890011429787,0.0003097256412729621
1686445319357130500,10.147130615234374,-0.008520517498254776,0.004372377879917622,0.0003123887872789055
1686445319367147500,10.1571474609375,-0.011305118910968304,0.0011978897964581847,-0.004644020460546017
1686445319377163800,10.167163818359375,-0.00830826349556446,0.001210939371958375,-0.003692206460982561
1686445319387180500,10.1771806640625,-0.009287508204579353,0.0007036071619950235,-0.005405684467405081
1686445319397197600,10.187197509765625,-0.011327755637466908,0.0033750240691006184,-0.0032924660481512547
1686445319407213600,10.197213623046874,-0.010085124522447586,0.0040914141573011875,-0.000818123109638691
1686445319417230600,10.207230712890626,-0.011185809038579464,0.0051841093227267265,0.0035752938129007816
1686445319427246600,10.21724658203125,-0.0075671058148145676,-0.00020746025256812572,0.003829359309747815
1686445319437263600,10.227263671875,-0.0076091839000582695,-0.00449994346126914,0.002743055811151862
1686445319447280600,10.23728076171875,-0.009237173944711685,-0.00572979124262929,0.005447229836136103
1686445319457296600,10.247296630859376,-0.0014823154779151082,-0.006701844744384289,0.007290669716894627
1686445319467313400,10.2573134765625,-0.0017219999572262168,-0.011565842665731907,0.006909038871526718
1686445319477329400,10.267329345703125,0.002113218419253826,-0.015736885368824005,0.004974784795194864
1686445319487346700,10.2773466796875,0.0028754149097949266,-0.015364841558039188,0.0041097900830209255
1686445319497363500,10.287363525390624,0.00583844818174839,-0.012352007441222668,0.004355866461992264
1686445319507379500,10.29737939453125,0.0018546254141256213,-0.013256150297820568,0.0020663465838879347
1686445319517396500,10.307396484375,0.003920705523341894,-0.012270248495042324,0.0012721919920295477
1686445319527413800,10.317413818359375,0.0011771172285079956,-0.008933573961257935,-0.0013693973887711763
1686445319537429800,10.3274296875,0.0025044367648661137,-0.005661081522703171,0.0007155913626775146
1686445319547447000,10.337447021484374,0.003001915058121085,-0.0025832662358880043,0.006243514828383923
1686445319557463000,10.347463134765626,0.00205276464112103,0.007320763543248177,0.005947637837380171
1686445319567479800,10.357479736328125,-0.0013909690314903855,0.012256399728357792,0.007183610461652279
1686445319577497000,10.3674970703125,-0.0005278385360725224,0.01582024246454239,0.012161591090261936
1686445319587513000,10.37751318359375,0.003472495824098587,0.01954920031130314,0.01696273870766163
1686445319597529900,10.38752978515625,-0.0015662050573155284,0.015029815956950188,0.018452510237693787
1686445319607547100,10.397547119140626,-0.0010713896481320262,0.016997359693050385,0.017172595486044884
1686445319617563100,10.407563232421875,-0.00395585922524333,0.018392588943243027,0.01420530118048191
1686445319627580000,10.417579833984375,-0.010072074830532074,0.029558423906564713,0.016563264653086662
1686445319637596000,10.427595947265624,-0.00836711935698986,0.033057019114494324,0.02094442956149578
1686445319647613000,10.437613037109376,-0.011655856855213642,0.03617105260491371,0.026096316054463387
1686445319657630000,10.4476298828125,-0.011239605024456978,0.0413447767496109,0.0340125598013401
1686445319667646000,10.45764599609375,-0.014858840964734554,0.04597814381122589,0.04397464916110039
1686445319677663000,10.4676630859375,-0.014134194701910019,0.03831862658262253,0.046610645949840546
1686445319687678700,10.4776787109375,-0.006446181330829859,0.032815203070640564,0.04235198348760605
1686445319697696000,10.487696044921876,-0.009489108808338642,0.025783659890294075,0.030162695795297623
1686445319707712800,10.497712646484375,-0.008232097141444683,0.010570619255304337,0.0079735042527318
1686445319717728800,10.507728759765625,-0.007801197934895754,-0.00884915143251419,-0.011449728161096573
1686445319727746000,10.51774609375,-0.016447415575385094,-0.022011293098330498,-0.028538167476654053
1686445319737762800,10.5277626953125,-0.017301492393016815,-0.03482642397284508,-0.03352866694331169
1686445319747778800,10.53777880859375,-0.013763482682406902,-0.03615960106253624,-0.03311081603169441
1686445319757795800,10.5477958984375,-0.011333081871271133,-0.030361101031303406,-0.017607223242521286
1686445319767812000,10.55781201171875,-0.009798302315175533,-0.015596004202961922,-0.007780957501381636
1686445319777828900,10.567828857421874,-0.006458698306232691,-0.006925283931195736,0.0002764361270237714
1686445319787846000,10.577845947265626,-0.005884520709514618,-0.0016460998449474573,-0.0015313175972551107
1686445319797862000,10.58786181640625,-0.0032373385038226843,0.00027324032271280885,-0.0015169365797191858
1686445319807879000,10.59787890625,-0.005088235717266798,0.001050350721925497,0.008550078608095646
1686445319817896000,10.60789599609375,-0.004471180960536003,-0.0008743157959543169,0.020370785146951675
1686445319827912000,10.617911865234374,0.001279382617212832,-0.0070613715797662735,0.03104100562632084
1686445319837929000,10.627928955078126,-0.005805691238492727,-0.011081679724156857,0.0414598248898983
1686445319847945000,10.637945068359375,-0.002868224401026964,-0.0075913406908512115,0.048170458525419235
1686445319857962000,10.6479619140625,0.0034080471377819777,-0.010760501958429813,0.05215827748179436
1686445319867978800,10.657978759765625,0.0021518340799957514,-0.005410744342952967,0.051835235208272934
1686445319877995000,10.6679951171875,-0.002261290093883872,-0.0016828514635562897,0.04698721691966057
1686445319888012000,10.678011962890626,-0.0012743226252496243,0.00047351003740914166,0.03778040036559105
1686445319898028800,10.68802880859375,-0.002682602033019066,-0.004367318004369736,0.02888651005923748
1686445319908044800,10.698044921875,-0.008168714120984077,-0.005377188324928284,0.017642643302679062
1686445319918062000,10.70806201171875,-0.00830826349556446,-0.005356415640562773,0.014999722130596638
1686445319928077800,10.718077880859376,-0.01270114816725254,-0.000809068325906992,0.010100038722157478
1686445319938094800,10.7280947265625,-0.011472098529338837,0.007515440694987774,0.003934820648282766
1686445319948112100,10.738112060546875,-0.009495500475168228,0.017240505665540695,0.003178216516971588
1686445319958127900,10.7481279296875,-0.012540825642645359,0.022974025458097458,0.002043177140876651
1686445319968145000,10.758144775390624,-0.01341540738940239,0.03115925006568432,-0.00035499935620464385
1686445319978161000,10.768160888671876,-0.014750183559954166,0.03213183581829071,-0.002115082461386919
1686445319988178000,10.778177978515625,-0.01726820319890976,0.028930718079209328,-0.004001665860414505
1686445319998195000,10.78819482421875,-0.01565113104879856,0.022478943690657616,-0.009384446777403355
1686445320008211000,10.7982109375,-0.017127588391304016,0.016160594299435616,-0.01810949482023716
1686445320018227700,10.808227783203124,-0.017254887148737907,0.010112554766237736,-0.01734090782701969
1686445320028245000,10.818244873046876,-0.014407968148589134,0.006073871627449989,-0.02100514993071556
1686445320038261000,10.828260986328125,-0.008598282001912594,-0.0041401502676308155,-0.016351809725165367
1686445320048277800,10.83827783203125,-0.0030543794855475426,-0.008588162250816822,-0.008235558867454529
1686445320058293800,10.848293701171874,-0.00004820321555598639,-0.01565645821392536,0.003176884725689888
1686445320068311000,10.85831103515625,-0.00025752768851816654,-0.023361515253782272,0.01242284756153822
1686445320078327800,10.868327880859376,0.007814247161149979,-0.02533518336713314,0.023275228217244148
1686445320088343800,10.87834375,0.003035204717889428,-0.026403378695249557,0.02562546916306019
1686445320098361000,10.888361083984375,0.005005411338061094,-0.023630760610103607,0.025908296927809715
1686445320108377900,10.8983779296875,-0.000544350128620863,-0.020318588241934776,0.028895830735564232
1686445320118393900,10.908393798828126,-0.0001776328426785767,-0.021931132301688194,0.03127136826515198
1686445320128411000,10.918410888671875,0.0016402408946305513,-0.017953434959053993,0.03205567225813866
1686445320138427100,10.92842724609375,-0.002547047333791852,-0.014258564449846745,0.033131588250398636
1686445320148444000,10.93844384765625,-0.004680239129811525,-0.010941064916551113,0.03428899869322777
1686445320158461000,10.9484609375,-0.0073255570605397224,-0.009183377958834171,0.027057982981204987
1686445320168477000,10.958476806640626,-0.006006493698805571,-0.0015097459545359015,0.022664299234747887
1686445320178494000,10.968493896484375,-0.008534366264939308,0.009003881365060806,0.016697220504283905
1686445320188510000,10.978510009765625,-0.009369799867272377,0.018184596672654152,0.010239055380225182
1686445320198527000,10.98852685546875,-0.010732805356383324,0.023670708760619164,0.007002782076597214
1686445320208544000,10.9985439453125,-0.016115054488182068,0.02761964313685894,0.0010940266074612737
1686445320218560000,11.00856005859375,-0.014194648712873459,0.029990656301379204,-0.002889796160161495
1686445320228577000,11.018576904296875,-0.015329954214394093,0.02653067745268345,-0.004870122764259577
1686445320238593800,11.02859375,-0.016775252297520638,0.02635357715189457,-0.009444634430110455
1686445320248610000,11.038610107421874,-0.015134211629629135,0.021044831722974777,-0.010999388061463833
1686445320258626800,11.048626708984376,-0.013424196280539036,0.017900969833135605,-0.012089420109987259
1686445320268642800,11.058642822265625,-0.011460380628705025,0.011086473241448402,-0.007396130822598934
1686445320278659800,11.068659912109375,-0.010012419894337654,0.004483697935938835,-0.008039550855755806
1686445320288676900,11.0786767578125,-0.0054123420268297195,-0.0024671524297446012,-0.001894839107990265
1686445320298692900,11.08869287109375,-0.006678142584860325,-0.00532499048858881,0.0057372478768229485
1686445320308710000,11.0987099609375,-0.0037055222783237696,-0.00851545762270689,0.011949869804084301
1686445320318727000,11.108726806640625,-0.001955026527866721,-0.010860903188586235,0.013159478083252907
1686445320328743000,11.118742919921875,0.0019598202779889107,-0.01426282525062561,0.009081379510462284
1686445320338760000,11.128760009765625,0.001511610229499638,-0.013500895351171494,0.011182347312569618
1686445320348776000,11.13877587890625,-0.0021880532149225473,-0.018270617350935936,0.009134110063314438
1686445320358793000,11.14879296875,0.0029321403708308935,-0.01895611360669136,0.010358631610870361
1686445320368810000,11.15881005859375,-0.002665557898581028,-0.013128585182130337,0.01098340842872858
1686445320378826000,11.168825927734375,-0.0012141350889578462,-0.012500878423452377,0.016568856313824654
1686445320388842800,11.1788427734375,-0.006351905409246683,-0.011808455921709538,0.018575815483927727
1686445320398860000,11.188860107421876,-0.005440838169306517,-0.01341434195637703,0.01519812736660242
1686445320408876000,11.1988759765625,-0.00512951472774148,-0.01363272126764059,0.019665846601128578
1686445320418892800,11.208892822265625,-0.008791627362370491,-0.01404684316366911,0.01697046123445034
1686445320428908800,11.21890869140625,-0.005408613942563534,-0.009409747086465359,0.010185525752604008
1686445320438926000,11.228926025390624,-0.010891796089708805,0.0002657834847923368,0.009312009438872337
1686445320448942800,11.23894287109375,-0.009921872988343239,0.008114119060337543,0.0067963870242238045
1686445320458958800,11.248958740234375,-0.011423629708588123,0.020907146856188774,-0.0001555285998620093
1686445320468976000,11.25897607421875,-0.013228720054030418,0.024639565497636795,-0.0005560680292546749
1686445320478992000,11.268991943359374,-0.010089118964970112,0.019293803721666336,0.00002902845517382957
1686445320489009000,11.2790087890625,-0.010923754423856735,0.013258547522127628,0.0025656893849372864
1686445320499026000,11.28902587890625,-0.008870190940797329,0.006280532572418451,-0.00046152580762282014
1686445320509042000,11.2990419921875,-0.007859786972403526,0.00042530681821517646,-0.000532365869730711
1686445320519058400,11.309058349609375,-0.008253402076661587,-0.007714378647506237,0.00028522455249913037
1686445320529075500,11.319075439453124,-0.006788930390030146,-0.005073055624961853,-0.009705358184874058
1686445320539091500,11.329091552734376,-0.008376440964639187,0.00042051312630064785,-0.005357214715331793
1686445320549108500,11.3391083984375,-0.0070640346966683865,0.0030487868934869766,0.000636495475191623
1686445320559124500,11.34912451171875,-0.0030088394414633512,0.007449660450220108,0.0014391721924766898
1686445320569141500,11.3591416015625,-0.002770752878859639,0.0017603494925424457,0.0018700717482715845
1686445320579158500,11.369158447265624,-0.004713795147836208,-0.0007480819476768374,0.002980609890073538
1686445320589174500,11.379174560546875,-0.0032405343372374773,-0.004260791465640068,-0.002877012826502323
1686445320599191600,11.389191650390625,-0.0008972189389169216,-0.004029628820717335,-0.00024580975878052413
1686445320609208300,11.399208251953125,-0.0002671150432433933,-0.005268265027552843,0.0006703176186420023
1686445320619224300,11.409224365234374,-0.0021233384031802416,-0.006228867452591658,0.0014122743159532547
1686445320629241300,11.419241455078126,-0.0008748483960516751,-0.00119602563790977,-0.003971572034060955
1686445320639257300,11.42925732421875,-0.006296511739492416,0.001118793967179954,-0.0016056197928264737
1686445320649274400,11.4392744140625,-0.005894374568015337,0.004555337131023407,0.002026133006438613
1686445320659291400,11.44929150390625,-0.006997189484536648,0.0049825082533061504,0.0013883059145882726
1686445320669307400,11.459307373046874,-0.010574080981314182,0.0021576930303126574,0.007993211969733238
1686445320679324400,11.469324462890626,-0.008435296826064587,-0.0014982944121584296,0.010494186542928219
1686445320689341400,11.479341552734375,-0.007056045345962048,-0.002950516063719988,0.015087340027093887
1686445320699357400,11.489357421875,-0.007980428636074066,-0.009574596770107746,0.011257980950176716
1686445320709374500,11.49937451171875,-0.002704440150409937,-0.010689928196370602,0.011795672588050365
1686445320719390500,11.509390380859376,-0.0019022959750145674,-0.017007213085889816,0.008465656079351902
1686445320729407200,11.5194072265625,-0.0018991001415997744,-0.014034059830009937,0.0028130970895290375
1686445320739424500,11.529424560546875,-0.001731853699311614,-0.012140818871557713,-0.0008703210623934865
1686445320749440500,11.5394404296875,-0.004600344225764275,-0.007243531756103039,-0.005858688149601221
1686445320759457300,11.549457275390624,0.00042104575550183654,-0.0030131004750728607,-0.006384928710758686
1686445320769474600,11.559474609375,-0.0008141283178701997,-0.0014082795241847634,0.002237055217847228
1686445320779490600,11.569490478515625,0.0015574166318401694,-0.007069094572216272,0.004597947467118502
1686445320789507300,11.57950732421875,0.002156095113605261,-0.017364077270030975,0.006502374075353146
1686445320799523300,11.5895234375,0.0031353395897895098,-0.030059898272156715,0.0008575378451496363
1686445320809540600,11.59954052734375,-0.0024588967207819223,-0.041918154805898666,-0.00008548746700398624
1686445320819557400,11.609557373046876,-0.001957423286512494,-0.04627295583486557,-0.007772701792418957
1686445320829573400,11.619573486328125,-0.00010519486386328936,-0.0482729896903038,-0.005919408053159714
1686445320839590400,11.62959033203125,0.0007605988066643476,-0.03994022682309151,-0.006792126223444939
1686445320849606400,11.6396064453125,-0.0030045784078538418,-0.02889369986951351,-0.0051774512976408005
1686445320859623400,11.64962353515625,-0.0034993935842067003,-0.012551478110253811,-0.0004996090428903699
1686445320869640400,11.659640380859376,-0.000969656917732209,-0.003578489413484931,-0.007928763516247272
1686445320879656200,11.66965625,-0.004349474795162678,0.002507632365450263,-0.004322576802223921
1686445320889673500,11.679673583984375,-0.0035116442013531923,0.0034493261482566595,-0.001913214917294681
1686445320899690500,11.6896904296875,-0.007970042526721954,-0.007564176339656115,-0.0032522522378712893
1686445320909706200,11.699706298828126,-0.0034442662727087736,-0.014700116589665413,-0.003515905234962702
1686445320919723500,11.7097236328125,-0.003870904678478837,-0.019847474992275238,-0.005111138802021742
1686445320929739500,11.719739501953125,-0.005051750224083662,-0.018810173496603966,-0.008607069961726665
1686445320939756300,11.72975634765625,-0.0046453517861664295,-0.014057761989533901,-0.007013700902462006
1686445320949773300,11.739773193359374,-0.009889914654195309,-0.007767908275127411,-0.009433715604245663
1686445320959789600,11.74978955078125,-0.0046850331127643585,0.003424292430281639,-0.007357781287282705
1686445320969806300,11.759806396484375,-0.007646201644092798,0.01181990746408701,-0.002034122357144952
1686445320979823400,11.7698232421875,-0.009947173297405243,0.015973374247550964,-0.0009723200928419828
1686445320989839400,11.77983935546875,-0.006061354652047157,0.016588296741247177,0.0006298375665210187
1686445320999856400,11.7898564453125,-0.005911685060709715,0.011721370741724968,0.0038104509003460407
1686445321009872400,11.799872314453125,-0.0062339273281395435,0.005530320107936859,0.006789462640881538
1686445321019889400,11.809889404296875,-0.0047058057971298695,-0.00018881811411119998,0.006917028222233057
1686445321029906400,11.819906494140625,-0.0049249837175011635,0.00036245622322894633,0.00800492987036705
1686445321039922400,11.82992236328125,-0.004747883416712284,0.0033364081755280495,0.009667540900409222
