time,seconds_elapsed,z,y,x
1686425616605343200,0.10034326171875,-0.61883544921875,-0.2575225830078125,0.1792755126953125
1686425616615289300,0.110289306640625,-0.605133056640625,-0.276519775390625,0.2027435302734375
1686425616625234400,0.120234375,-0.605926513671875,-0.287139892578125,0.2362060546875
1686425616635179300,0.13017919921875,-0.6432037353515625,-0.280426025390625,0.27435302734375
1686425616645125400,0.14012548828125,-0.6993865966796875,-0.253692626953125,0.3058013916015625
1686425616655070200,0.1500703125,-0.7619781494140625,-0.23486328125,0.3265228271484375
1686425616665015600,0.160015625,-0.83758544921875,-0.2032623291015625,0.3171844482421875
1686425616674961400,0.16996142578125,-0.9293212890625,-0.2271881103515625,0.3306121826171875
1686425616684906500,0.179906494140625,-0.9697265625,-0.272796630859375,0.3478240966796875
1686425616694851300,0.189851318359375,-0.99383544921875,-0.3035736083984375,0.386993408203125
1686425616704797200,0.199797119140625,-1.0006866455078125,-0.343780517578125,0.415374755859375
1686425616714742500,0.209742431640625,-0.9704132080078125,-0.3769378662109375,0.43634033203125
1686425616724687400,0.219687255859375,-0.9561767578125,-0.3923797607421875,0.486328125
1686425616734633500,0.229633544921875,-0.9374847412109375,-0.4070281982421875,0.518585205078125
1686425616744578300,0.239578369140625,-0.90472412109375,-0.438018798828125,0.542633056640625
1686425616754523400,0.2495234375,-0.8413238525390625,-0.478912353515625,0.598907470703125
1686425616764469500,0.259469482421875,-0.78973388671875,-0.532958984375,0.650970458984375
1686425616774414300,0.269414306640625,-0.769622802734375,-0.5779571533203125,0.67816162109375
1686425616784359400,0.279359375,-0.7668609619140625,-0.5891265869140625,0.6887054443359375
1686425616794305300,0.28930517578125,-0.7873687744140625,-0.5578460693359375,0.71826171875
1686425616804250400,0.29925048828125,-0.844329833984375,-0.505615234375,0.77569580078125
1686425616814195500,0.309195556640625,-0.8797607421875,-0.467437744140625,0.843414306640625
1686425616824141300,0.319141357421875,-0.8926239013671875,-0.4150390625,0.8905181884765625
1686425616834086400,0.32908642578125,-0.8896331787109375,-0.3314361572265625,0.9369659423828125
1686425616844031200,0.33903125,-0.8752288818359375,-0.2381591796875,0.970306396484375
1686425616853976600,0.3489765625,-0.879791259765625,-0.1408538818359375,0.9566650390625
1686425616863922400,0.35892236328125,-0.8487091064453125,-0.0717315673828125,0.93115234375
1686425616873867300,0.3688671875,-0.7412567138671875,-0.028778076171875,0.919464111328125
1686425616883812400,0.378812255859375,-0.61968994140625,0.030609130859375,0.8871307373046875
1686425616893758200,0.38875830078125,-0.51641845703125,0.112579345703125,0.7960968017578125
1686425616903703600,0.39870361328125,-0.42059326171875,0.205902099609375,0.68695068359375
1686425616913648400,0.4086484375,-0.356842041015625,0.341796875,0.551788330078125
1686425616923594500,0.418594482421875,-0.365875244140625,0.5001220703125,0.4169158935546875
1686425616933539300,0.428539306640625,-0.427947998046875,0.641021728515625,0.3287506103515625
1686425616943484400,0.438484375,-0.4858245849609375,0.7555389404296875,0.31243896484375
1686425616953430500,0.448430419921875,-0.4995880126953125,0.8706207275390625,0.338592529296875
1686425616963375400,0.458375244140625,-0.41802978515625,0.9730377197265625,0.425018310546875
1686425616973320400,0.468320556640625,-0.2891998291015625,1.0494232177734375,0.519622802734375
1686425616983266300,0.478266357421875,-0.18951416015625,1.09124755859375,0.5603485107421875
1686425616993211400,0.48821142578125,-0.1011505126953125,1.0677642822265625,0.61572265625
1686425617003156500,0.498156494140625,-0.00836181640625,0.97021484375,0.7176055908203125
1686425617013102300,0.508102294921875,0.1118011474609375,0.81158447265625,0.8882904052734375
1686425617023047400,0.51804736328125,0.2103424072265625,0.69866943359375,1.0697479248046875
1686425617032992300,0.5279921875,0.247467041015625,0.623291015625,1.2309417724609375
1686425617042938400,0.5379384765625,0.1958160400390625,0.5613861083984375,1.3410491943359375
1686425617052883500,0.547883544921875,0.0894622802734375,0.4227142333984375,1.4919281005859375
1686425617062828300,0.557828369140625,-0.0433197021484375,0.324554443359375,1.661834716796875
1686425617072774400,0.5677744140625,-0.1668243408203125,0.2554473876953125,1.8798065185546875
1686425617082719200,0.57771923828125,-0.2321624755859375,0.18109130859375,2.1827392578125
1686425617092664600,0.58766455078125,-0.1937103271484375,0.0839996337890625,2.455322265625
1686425617102610400,0.5976103515625,-0.041961669921875,-0.002593994140625,2.6856689453125
1686425617112555300,0.60755517578125,0.1691741943359375,-0.063934326171875,2.79779052734375
1686425617122500400,0.617500244140625,0.36358642578125,-0.1372833251953125,2.8082733154296875
1686425617132446200,0.6274462890625,0.483428955078125,-0.2184906005859375,2.7248382568359375
1686425617142391600,0.6373916015625,0.587738037109375,-0.3466339111328125,2.602325439453125
1686425617152336400,0.64733642578125,0.721771240234375,-0.495758056640625,2.44769287109375
1686425617162281200,0.65728125,0.92877197265625,-0.6410064697265625,2.25579833984375
1686425617172227300,0.667227294921875,1.2057037353515625,-0.72052001953125,1.9955902099609375
1686425617182172400,0.67717236328125,1.341949462890625,-0.806182861328125,1.6497955322265625
1686425617192117500,0.687117431640625,1.382171630859375,-0.8524169921875,1.3599700927734375
1686425617202063400,0.6970634765625,1.483856201171875,-0.796844482421875,1.1986236572265625
1686425617212008400,0.707008544921875,1.542449951171875,-0.57855224609375,1.0162506103515625
1686425617221953300,0.716953369140625,1.5086669921875,-0.2088470458984375,0.79425048828125
1686425617231899100,0.726899169921875,1.2826385498046875,0.12322998046875,0.55706787109375
1686425617241844500,0.736844482421875,1.050079345703125,0.4052276611328125,0.2895050048828125
1686425617251789300,0.746789306640625,0.7073211669921875,0.489410400390625,0.108734130859375
1686425617261735400,0.7567353515625,0.4185791015625,0.549530029296875,-0.0308837890625
1686425617271680300,0.76668017578125,0.14208984375,0.4563140869140625,-0.242767333984375
1686425617281625300,0.776625244140625,-0.055206298828125,0.34033203125,-0.4436492919921875
1686425617291571500,0.786571533203125,-0.1130218505859375,0.25885009765625,-0.4556884765625
1686425617301516300,0.796516357421875,-0.057861328125,0.1993255615234375,-0.2811431884765625
1686425617311461400,0.80646142578125,0.1184234619140625,0.350250244140625,0.0424957275390625
1686425617321406500,0.816406494140625,0.1916961669921875,1.0714569091796875,0.5015106201171875
1686425617331351300,0.826351318359375,-0.1702117919921875,1.4558868408203125,0.62689208984375
1686425617341296400,0.83629638671875,-0.6151275634765625,0.4600372314453125,0.3963623046875
1686425617351242200,0.8462421875,-0.6075439453125,0.08831787109375,0.9657135009765625
1686425617361187600,0.8561875,-0.3443756103515625,-0.134490966796875,1.1530914306640625
1686425617371132400,0.86613232421875,-0.4330902099609375,-0.1033935546875,1.5592193603515625
1686425617381078500,0.87607861328125,-0.5576934814453125,-0.004974365234375,2.0805816650390625
1686425617391023400,0.8860234375,-0.2808685302734375,0.1204681396484375,2.357025146484375
1686425617400968200,0.89596826171875,0.07891845703125,0.277801513671875,2.0623779296875
1686425617410913500,0.90591357421875,0.36328125,0.4917755126953125,1.587646484375
1686425617420859400,0.915859375,0.197418212890625,0.6040191650390625,1.532501220703125
1686425617430804500,0.925804443359375,0.09832763671875,0.572967529296875,1.611419677734375
1686425617440749300,0.935749267578125,0.0868377685546875,0.4516143798828125,1.645233154296875
1686425617450695200,0.945695068359375,0.0743560791015625,0.3118743896484375,1.7579803466796875
1686425617460640500,0.955640625,0.051361083984375,0.276702880859375,1.873138427734375
1686425617470585300,0.96558544921875,0.0324859619140625,0.282806396484375,1.8598175048828125
1686425617480531500,0.975531494140625,0.0602874755859375,0.3066864013671875,1.73358154296875
1686425617490476300,0.985476318359375,0.0833892822265625,0.29815673828125,1.558380126953125
1686425617500421400,0.99542138671875,0.170684814453125,0.1845550537109375,1.384002685546875
1686425617510367500,1.005367431640625,0.1670074462890625,0.1049957275390625,1.2329559326171875
1686425617520312300,1.015312255859375,0.0222015380859375,0.0503387451171875,1.1621856689453125
1686425617530257400,1.02525732421875,-0.1378173828125,0.014801025390625,1.1121978759765625
1686425617540203300,1.035203369140625,-0.1703338623046875,-0.07373046875,1.0271759033203125
1686425617550148600,1.045148681640625,-0.1758270263671875,-0.1466827392578125,0.875579833984375
1686425617560093400,1.055093505859375,-0.251556396484375,-0.089080810546875,0.722137451171875
1686425617570039300,1.065039306640625,-0.261138916015625,-0.1304779052734375,0.54388427734375
1686425617579984400,1.074984375,-0.2871856689453125,-0.1912384033203125,0.3538665771484375
1686425617589929200,1.08492919921875,-0.393768310546875,-0.2159881591796875,0.1206207275390625
1686425617599875300,1.094875244140625,-0.624725341796875,-0.2189178466796875,-0.0947113037109375
1686425617609820400,1.1048203125,-0.9500732421875,-0.1574554443359375,-0.142333984375
1686425617619765200,1.11476513671875,-1.17889404296875,-0.0439910888671875,-0.046661376953125
1686425617629711400,1.12471142578125,-1.2530670166015625,0.029693603515625,0.1383514404296875
1686425617639656200,1.13465625,-1.0892791748046875,0.15594482421875,0.361328125
1686425617649601500,1.1446015625,-0.754730224609375,0.3022003173828125,0.4976959228515625
1686425617659547400,1.15454736328125,-0.316802978515625,0.3820037841796875,0.549346923828125
1686425617669492500,1.164492431640625,0.0027618408203125,0.3548126220703125,0.44024658203125
1686425617679437300,1.174437255859375,0.0137939453125,0.28564453125,0.2531585693359375
1686425617689382400,1.18438232421875,-0.2074737548828125,0.21075439453125,0.4613494873046875
1686425617699328500,1.19432861328125,-0.76824951171875,0.2938995361328125,0.8625030517578125
1686425617709273300,1.2042734375,-1.14019775390625,0.4454498291015625,1.161895751953125
1686425617719218200,1.21421826171875,-1.1103668212890625,0.575897216796875,1.3233489990234375
1686425617729164300,1.224164306640625,-0.764617919921875,0.6488037109375,1.5948944091796875
1686425617739109400,1.234109375,-0.1845550537109375,0.6439208984375,1.8753814697265625
1686425617749054500,1.244054443359375,0.4591217041015625,0.55133056640625,2.088287353515625
1686425617759000300,1.254000244140625,0.8522491455078125,0.31085205078125,2.0767669677734375
1686425617768945400,1.2639453125,0.9253082275390625,0.2603302001953125,1.9702301025390625
1686425617778890500,1.273890380859375,0.9256134033203125,0.2689208984375,1.867645263671875
1686425617788836400,1.28383642578125,0.871826171875,0.32464599609375,1.8172149658203125
1686425617798781400,1.293781494140625,0.66839599609375,0.4067230224609375,1.724945068359375
1686425617808726300,1.303726318359375,0.4647674560546875,0.4502105712890625,1.739837646484375
1686425617818672400,1.31367236328125,0.251007080078125,0.3180389404296875,1.6661376953125
1686425617828617200,1.3236171875,0.15643310546875,0.12139892578125,1.45751953125
1686425617838562600,1.3335625,0.2111663818359375,-0.1114959716796875,1.152740478515625
1686425617848508400,1.34350830078125,0.254150390625,-0.2831573486328125,0.8500823974609375
1686425617858453200,1.353453369140625,0.2003173828125,-0.3106842041015625,0.653564453125
1686425617868398300,1.3633984375,0.0933074951171875,-0.280242919921875,0.4985504150390625
1686425617878344200,1.37334423828125,0.0618743896484375,-0.27935791015625,0.3830108642578125
1686425617888289500,1.38328955078125,0.11334228515625,-0.2866668701171875,0.28564453125
1686425617898234400,1.393234375,0.1923065185546875,-0.3143310546875,0.2026214599609375
1686425617908180500,1.403180419921875,0.1884918212890625,-0.2945404052734375,0.1303863525390625
1686425617918125300,1.413125244140625,0.074554443359375,-0.204437255859375,0.1383514404296875
1686425617928070400,1.4230703125,-0.1847381591796875,-0.100555419921875,0.2463531494140625
1686425617938016500,1.4330166015625,-0.3924407958984375,0.000518798828125,0.2707977294921875
1686425617947961300,1.44296142578125,-0.4388885498046875,0.0856475830078125,0.10589599609375
1686425617957906400,1.452906494140625,-0.3785247802734375,0.1973876953125,-0.021453857421875
1686425617967852300,1.462852294921875,-0.223541259765625,0.3036346435546875,-0.0695037841796875
1686425617977797400,1.47279736328125,-0.0374755859375,0.2989654541015625,-0.10546875
1686425617987742500,1.482742431640625,0.0891571044921875,0.229034423828125,-0.021514892578125
1686425617997688300,1.492688232421875,0.0720062255859375,0.107696533203125,0.1179351806640625
1686425618007633400,1.50263330078125,-0.07763671875,-0.018310546875,0.3455963134765625
1686425618017578200,1.512578125,-0.295623779296875,-0.0992279052734375,0.6044464111328125
1686425618027524400,1.5225244140625,-0.4104461669921875,0.03265380859375,0.9640045166015625
1686425618037469400,1.532469482421875,-0.370330810546875,0.286376953125,1.4934844970703125
1686425618047414300,1.542414306640625,0.0945281982421875,0.48779296875,1.930877685546875
1686425618057359400,1.552359375,0.5941009521484375,0.4270172119140625,2.311676025390625
1686425618067305200,1.56230517578125,0.16680908203125,0.2147979736328125,2.4806060791015625
1686425618077250600,1.57225048828125,-0.2509918212890625,0.24676513671875,2.608917236328125
1686425618087195400,1.5821953125,-0.18597412109375,0.5545654296875,2.458709716796875
1686425618097141200,1.592141357421875,-0.1000213623046875,0.6198883056640625,2.0348358154296875
1686425618107086300,1.60208642578125,0.121124267578125,0.5108489990234375,1.5239105224609375
1686425618117031400,1.612031494140625,0.4950408935546875,0.37982177734375,1.105194091796875
1686425618126977500,1.6219775390625,0.7277374267578125,0.1962432861328125,0.850006103515625
1686425618136922400,1.63192236328125,0.817047119140625,0.1678314208984375,0.823883056640625
1686425618146867200,1.6418671875,0.7585601806640625,0.2872772216796875,1.0441436767578125
1686425618156813300,1.651813232421875,0.624267578125,0.437896728515625,1.29400634765625
1686425618166758400,1.66175830078125,0.443145751953125,0.51641845703125,1.348968505859375
1686425618176703500,1.671703369140625,0.2045440673828125,0.59906005859375,1.168365478515625
1686425618186649300,1.6816494140625,0.0521697998046875,0.7147064208984375,0.923797607421875
1686425618196594400,1.691594482421875,-0.060546875,0.8187408447265625,0.792266845703125
1686425618206539500,1.70153955078125,-0.1404876708984375,0.8103179931640625,0.6930389404296875
1686425618216485400,1.7114853515625,-0.1579437255859375,0.6668853759765625,0.5765228271484375
1686425618226430500,1.721430419921875,-0.19793701171875,0.5324249267578125,0.40704345703125
1686425618236375300,1.731375244140625,-0.243255615234375,0.376556396484375,0.3243865966796875
1686425618246321400,1.7413212890625,-0.30712890625,0.3134765625,0.2603302001953125
1686425618256266200,1.751266357421875,-0.2860260009765625,0.31256103515625,0.1056060791015625
1686425618266211300,1.76121142578125,-0.19598388671875,0.3542022705078125,0.0494384765625
1686425618276157400,1.771157470703125,-0.124603271484375,0.4106597900390625,0.0104522705078125
1686425618286102300,1.781102294921875,-0.06939697265625,0.527496337890625,-0.23553466796875
1686425618296047400,1.79104736328125,-0.019134521484375,0.576904296875,-0.1131439208984375
1686425618305993200,1.8009931640625,0.073822021484375,0.56524658203125,-0.02001953125
1686425618315938600,1.8109384765625,0.110809326171875,0.58612060546875,0.0262603759765625
1686425618325884000,1.8208837890625,0.130584716796875,0.6278839111328125,0.118011474609375
1686425618335829800,1.830829833984375,0.1265411376953125,0.7056884765625,0.207794189453125
1686425618345774800,1.84077490234375,0.11846923828125,0.7836151123046875,0.2855987548828125
1686425618355719700,1.8507197265625,0.1587066650390625,0.813568115234375,0.3291778564453125
1686425618365665800,1.860665771484375,0.117095947265625,0.8560791015625,0.3487701416015625
1686425618375611000,1.87061083984375,0.0857391357421875,0.954864501953125,0.3833160400390625
1686425618385555700,1.8805556640625,0.0659027099609375,1.1145172119140625,0.4096527099609375
1686425618395501800,1.890501708984375,0.0088653564453125,1.3092041015625,0.4348907470703125
1686425618405446700,1.90044677734375,-0.0463409423828125,1.50390625,0.540985107421875
1686425618415391700,1.910391845703125,-0.1241302490234375,1.7321014404296875,0.7508544921875
1686425618425337900,1.920337890625,-0.0822601318359375,1.552215576171875,0.6501312255859375
1686425618435282700,1.93028271484375,0.0099639892578125,1.3418426513671875,0.5648040771484375
1686425618445227800,1.940227783203125,0.0308685302734375,1.1432342529296875,0.468109130859375
1686425618455173600,1.950173583984375,0.2652740478515625,1.0272979736328125,0.4832763671875
1686425618465119000,1.960118896484375,0.849029541015625,2.1624603271484375,2.1307525634765625
1686425618475063800,1.970063720703125,1.345367431640625,3.710418701171875,2.503021240234375
1686425618485009700,1.980009765625,1.277435302734375,4.062591552734375,1.796539306640625
1686425618494954800,1.989954833984375,0.83563232421875,3.070404052734375,1.619232177734375
1686425618504899800,1.99989990234375,0.480438232421875,1.733856201171875,1.311676025390625
1686425618514845000,2.009844970703125,0.315948486328125,0.8823394775390625,1.0701904296875
1686425618524790800,2.019790771484375,0.1246490478515625,0.490509033203125,0.8504486083984375
1686425618534735600,2.029735595703125,-0.097503662109375,0.2950592041015625,0.63189697265625
1686425618544681000,2.039680908203125,-0.1259918212890625,0.1307525634765625,0.469573974609375
1686425618554626800,2.049626708984375,-0.0741424560546875,0.0576629638671875,0.3582000732421875
1686425618564572000,2.059572021484375,-0.0450439453125,0.0360870361328125,0.32757568359375
1686425618574516700,2.069516845703125,-0.0940093994140625,-0.0057525634765625,0.317047119140625
1686425618584462800,2.079462890625,-0.1374053955078125,-0.0512847900390625,0.246673583984375
1686425618594407700,2.08940771484375,-0.14166259765625,-0.0937042236328125,0.16064453125
1686425618604352800,2.099352783203125,-0.12445068359375,-0.153656005859375,0.1275787353515625
1686425618614299000,2.109298828125,-0.1378326416015625,-0.2015380859375,0.1310882568359375
1686425618624243700,2.11924365234375,-0.1454620361328125,-0.226654052734375,0.1294708251953125
1686425618634188800,2.129188720703125,-0.073699951171875,-0.1987762451171875,0.1031036376953125
1686425618644134700,2.139134765625,0.0456085205078125,-0.1471099853515625,0.07135009765625
1686425618654079700,2.149079833984375,0.1125640869140625,-0.08941650390625,0.008270263671875
1686425618664024800,2.15902490234375,0.23272705078125,-0.0284271240234375,-0.0969390869140625
1686425618673970700,2.168970703125,0.2904205322265625,0.0442962646484375,-0.1890716552734375
1686425618683915800,2.178915771484375,0.290679931640625,0.121490478515625,-0.44366455078125
1686425618693860900,2.18886083984375,0.14984130859375,0.7210235595703125,-1.2326507568359375
1686425618703807000,2.198806884765625,0.211334228515625,1.363067626953125,-0.6132659912109375
1686425618713751800,2.208751708984375,0.4160308837890625,1.69024658203125,-0.3351593017578125
1686425618723696600,2.218696533203125,0.6475677490234375,2.1125946044921875,-0.4303436279296875
1686425618733642800,2.228642822265625,0.8256072998046875,2.659942626953125,-0.1829376220703125
1686425618743587800,2.238587890625,0.70086669921875,3.5792083740234375,0.287261962890625
1686425618753533000,2.248532958984375,0.2620086669921875,4.8923797607421875,0.7415008544921875
1686425618763478800,2.258478759765625,0.2786865234375,4.898681640625,0.9166259765625
1686425618773423600,2.268423583984375,0.488555908203125,3.969390869140625,0.7203216552734375
1686425618783368700,2.27836865234375,0.288177490234375,2.7151031494140625,0.4999542236328125
1686425618793314800,2.288314697265625,0.1114044189453125,1.88446044921875,0.5370330810546875
1686425618803260000,2.298260009765625,-0.0599212646484375,1.171722412109375,0.664459228515625
1686425618813204700,2.308204833984375,-0.3538360595703125,0.201324462890625,1.012603759765625
1686425618823150800,2.31815087890625,-0.398040771484375,-0.4527435302734375,1.40118408203125
1686425618833095700,2.328095703125,-0.12701416015625,-0.03070068359375,1.31640625
1686425618843040800,2.338040771484375,0.0531005859375,0.349609375,0.9658050537109375
1686425618852987000,2.34798681640625,0.1398468017578125,0.4124755859375,0.6494903564453125
1686425618862931700,2.357931640625,0.165771484375,0.3452301025390625,0.4026947021484375
1686425618872876800,2.367876708984375,0.2966461181640625,0.3293914794921875,0.2694854736328125
1686425618882822700,2.37782275390625,0.276031494140625,0.2563934326171875,0.21661376953125
1686425618892768000,2.38776806640625,0.1746978759765625,0.1669769287109375,0.125701904296875
1686425618902712800,2.397712890625,0.14483642578125,0.104949951171875,-0.0906829833984375
1686425618912658700,2.40765869140625,0.1529998779296875,0.0943603515625,-0.224273681640625
1686425618922603800,2.417603759765625,0.18572998046875,0.083343505859375,-0.363525390625
1686425618932548900,2.427548828125,0.1493682861328125,0.0221710205078125,-0.4144287109375
1686425618942495000,2.437494873046875,0.089630126953125,-0.025726318359375,-0.2735443115234375
1686425618952439800,2.447439697265625,0.1116790771484375,-0.02789306640625,-0.1955108642578125
1686425618962384600,2.457384521484375,0.130859375,0.0250701904296875,-0.2156524658203125
1686425618972330800,2.467330810546875,0.180755615234375,0.1680755615234375,-0.329864501953125
1686425618982275800,2.47727587890625,0.2230682373046875,0.4825286865234375,-0.5416412353515625
1686425618992221000,2.487220947265625,0.192352294921875,0.8742828369140625,-0.816070556640625
1686425619002166800,2.497166748046875,0.1461944580078125,1.189422607421875,-0.973663330078125
1686425619012112000,2.50711181640625,0.0779876708984375,1.508026123046875,-0.9940948486328125
1686425619022056700,2.517056640625,-0.134796142578125,1.8802642822265625,-1.0414886474609375
1686425619032002600,2.52700244140625,-0.1880645751953125,2.285675048828125,-0.5560760498046875
1686425619041948000,2.536947998046875,0.0085296630859375,2.859130859375,0.1158294677734375
1686425619051892700,2.546892822265625,0.0949554443359375,3.4434356689453125,0.404541015625
1686425619061838800,2.5568388671875,0.1622314453125,3.700897216796875,0.5108184814453125
1686425619071783700,2.56678369140625,0.26824951171875,3.4252777099609375,0.38592529296875
1686425619081728800,2.576728759765625,0.371185302734375,2.940673828125,0.0401763916015625
1686425619091673900,2.586673828125,0.4077911376953125,2.33404541015625,-0.27874755859375
1686425619101619700,2.59661962890625,0.4281463623046875,1.7766571044921875,-0.0731353759765625
1686425619111564800,2.606564697265625,0.4268646240234375,1.3328399658203125,0.3069000244140625
1686425619121510000,2.616510009765625,0.4330902099609375,1.0215301513671875,0.45068359375
1686425619131456000,2.6264560546875,0.4160614013671875,0.8302001953125,0.4081573486328125
1686425619141400800,2.63640087890625,0.3712005615234375,0.69403076171875,0.3560333251953125
1686425619151345700,2.646345703125,0.2054595947265625,0.5449066162109375,0.319244384765625
1686425619161291800,2.656291748046875,-0.06768798828125,0.3749542236328125,0.2353973388671875
1686425619171236900,2.66623681640625,-0.2568511962890625,0.2064208984375,0.126068115234375
1686425619181182000,2.676181884765625,-0.289886474609375,0.0461273193359375,0.1502685546875
1686425619191127800,2.6861279296875,-0.1832427978515625,-0.0598602294921875,0.2926483154296875
1686425619201072600,2.69607275390625,-0.1059722900390625,-0.11383056640625,0.3996429443359375
1686425619211017700,2.706017822265625,-0.0501556396484375,-0.1591949462890625,0.50238037109375
1686425619220963800,2.7159638671875,-0.029205322265625,-0.1841278076171875,0.5770111083984375
1686425619230909000,2.725908935546875,-0.026397705078125,-0.216705322265625,0.600860595703125
1686425619240853800,2.735853759765625,-0.0267181396484375,-0.224029541015625,0.5510711669921875
1686425619250799900,2.7457998046875,0.0079803466796875,-0.1864166259765625,0.4127655029296875
1686425619260744700,2.75574462890625,0.023529052734375,-0.1444244384765625,0.29010009765625
1686425619270689800,2.765689697265625,0.005279541015625,-0.1160430908203125,0.1919403076171875
1686425619280636000,2.775635986328125,-0.0241546630859375,-0.0829620361328125,0.0908660888671875
1686425619290580700,2.785580810546875,-0.0710296630859375,-0.0110931396484375,-0.01580810546875
1686425619300525800,2.79552587890625,-0.1407928466796875,0.0711822509765625,-0.1962738037109375
1686425619310471700,2.8054716796875,-0.2340240478515625,0.2398223876953125,-1.0122833251953125
1686425619320416800,2.815416748046875,-0.27996826171875,1.056884765625,-1.9246063232421875
1686425619330362000,2.825362060546875,-0.045989990234375,1.802703857421875,-1.9841766357421875
1686425619340308200,2.83530810546875,0.2460784912109375,1.8750152587890625,-1.345611572265625
1686425619350253000,2.845253173828125,0.4907073974609375,1.89300537109375,-0.249664306640625
1686425619360198100,2.8551982421875,0.4915924072265625,1.9864654541015625,0.4657440185546875
1686425619370144300,2.865144287109375,0.3268280029296875,2.1526641845703125,0.8060760498046875
1686425619380089000,2.875089111328125,0.1310272216796875,1.905975341796875,1.4177093505859375
1686425619390034200,2.8850341796875,-0.0802154541015625,2.2303314208984375,0.8768157958984375
1686425619399980000,2.89497998046875,-0.4106597900390625,2.6627197265625,0.082611083984375
1686425619409925000,2.904925048828125,-0.7557830810546875,3.237030029296875,-0.1479034423828125
1686425619419870200,2.9148701171875,-0.76239013671875,3.17767333984375,0.206451416015625
1686425619429816000,2.924816162109375,-0.7094573974609375,2.45489501953125,0.7213134765625
1686425619439761200,2.93476123046875,-0.6424407958984375,1.8507232666015625,1.110137939453125
1686425619449706000,2.9447060546875,-0.5108642578125,1.2377471923828125,1.2818756103515625
1686425619459652000,2.954652099609375,-0.4783172607421875,1.03411865234375,1.1891632080078125
1686425619469597200,2.96459716796875,-0.385345458984375,0.863861083984375,0.944854736328125
1686425619479542000,2.9745419921875,-0.2200775146484375,0.7408905029296875,0.6486663818359375
1686425619489488100,2.984488037109375,-0.1623687744140625,0.74139404296875,0.213134765625
1686425619499433000,2.994432861328125,-0.0909881591796875,0.75616455078125,-0.2710418701171875
1686425619509378300,3.00437841796875,-0.029022216796875,0.72686767578125,-0.6760406494140625
1686425619519324200,3.01432421875,-0.0076751708984375,0.5701904296875,-0.9195404052734375
1686425619529269200,3.024269287109375,-0.0197296142578125,0.353546142578125,-0.9553985595703125
1686425619539214000,3.034214111328125,-0.0911407470703125,0.18572998046875,-0.8767852783203125
1686425619549160000,3.044159912109375,-0.1580657958984375,0.0590972900390625,-0.735321044921875
1686425619559105300,3.054105224609375,-0.1870880126953125,-0.0275726318359375,-0.54541015625
1686425619569050000,3.064050048828125,-0.1773223876953125,-0.059295654296875,-0.39190673828125
1686425619578996200,3.073996337890625,-0.1543121337890625,-0.0545196533203125,-0.279693603515625
1686425619588941000,3.083941162109375,-0.1106414794921875,-0.038604736328125,-0.191650390625
1686425619598886000,3.093885986328125,-0.050140380859375,0.0039215087890625,-0.112945556640625
1686425619608832000,3.10383203125,0.00909423828125,0.1162567138671875,-0.0602264404296875
1686425619618777000,3.113777099609375,0.057952880859375,0.2539520263671875,-0.0567169189453125
1686425619628722200,3.12372216796875,0.1098480224609375,0.40966796875,-0.0767364501953125
1686425619638668000,3.13366796875,0.1679534912109375,0.6724395751953125,-0.193206787109375
1686425619648613000,3.143613037109375,0.2861175537109375,1.037200927734375,-0.516326904296875
1686425619658558200,3.15355810546875,0.4043121337890625,1.485748291015625,-0.95843505859375
1686425619668504300,3.16350439453125,0.2972564697265625,2.0372467041015625,-1.1865386962890625
1686425619678449200,3.17344921875,0.12091064453125,2.6580810546875,-1.0735931396484375
1686425619688394000,3.18339404296875,-0.16790771484375,3.3234100341796875,-0.92584228515625
1686425619698340000,3.193340087890625,-0.4992828369140625,3.797393798828125,-0.7891693115234375
1686425619708285200,3.20328515625,-0.6792144775390625,3.6872406005859375,-0.6410675048828125
1686425619718230000,3.21322998046875,-0.6342620849609375,3.243438720703125,-0.1923980712890625
1686425619728176000,3.223176025390625,-0.5591278076171875,2.501861572265625,-0.057769775390625
1686425619738121000,3.233120849609375,-0.3632659912109375,1.8033294677734375,0.044952392578125
1686425619748066300,3.24306640625,0.536895751953125,1.5480804443359375,0.4802398681640625
1686425619758012200,3.25301220703125,1.445556640625,1.5726470947265625,1.0902099609375
1686425619767957200,3.262957275390625,1.4418792724609375,1.3235931396484375,0.85333251953125
1686425619777902000,3.272902099609375,1.2705535888671875,1.027374267578125,0.62188720703125
1686425619787848200,3.28284814453125,1.0368804931640625,0.6045989990234375,0.4385833740234375
1686425619797793000,3.29279296875,0.59820556640625,0.0972442626953125,0.2530364990234375
1686425619807738000,3.302738037109375,0.488250732421875,-0.5472564697265625,0.139495849609375
1686425619817684200,3.312684326171875,0.352630615234375,-0.563079833984375,0.11224365234375
1686425619827629000,3.322629150390625,0.09674072265625,-0.30657958984375,0.1032562255859375
1686425619837574000,3.332573974609375,0.0391845703125,-0.20184326171875,0.059906005859375
1686425619847520000,3.34252001953125,0.0742645263671875,-0.1349639892578125,0.011962890625
1686425619857465000,3.352465087890625,0.0431365966796875,-0.0912628173828125,-0.0073089599609375
1686425619867410200,3.36241015625,0.0382080078125,-0.0627288818359375,-0.0101318359375
1686425619877356000,3.37235595703125,0.0657501220703125,-0.0508880615234375,-0.003753662109375
1686425619887301000,3.382301025390625,0.0670318603515625,-0.0505523681640625,0.0046844482421875
1686425619897246200,3.39224609375,0.0512847900390625,-0.0601348876953125,0.0124053955078125
1686425619907192300,3.4021923828125,0.0204010009765625,-0.059722900390625,0.022247314453125
1686425619917137200,3.41213720703125,-0.0048370361328125,-0.057098388671875,0.0339202880859375
1686425619927082000,3.42208203125,-0.0110931396484375,-0.0528106689453125,0.0372314453125
1686425619937028000,3.432028076171875,-0.0189971923828125,-0.0567626953125,0.0389862060546875
1686425619946973200,3.44197314453125,-0.0410614013671875,-0.0502471923828125,0.03692626953125
1686425619956918300,3.451918212890625,-0.043731689453125,-0.0204010009765625,0.0234222412109375
1686425619966864100,3.461864013671875,-0.020782470703125,0.021392822265625,0.002349853515625
1686425619976809000,3.47180908203125,0.0378265380859375,0.04315185546875,-0.005401611328125
1686425619986754300,3.48175439453125,0.157684326171875,0.0749359130859375,-0.0397796630859375
1686425619996700200,3.4917001953125,0.2301788330078125,0.1102142333984375,-0.101593017578125
1686425620006645200,3.501645263671875,0.205780029296875,0.403778076171875,-0.3158111572265625
1686425620016590000,3.511590087890625,0.5464935302734375,2.39093017578125,-0.8947601318359375
1686425620026536200,3.5215361328125,1.0763397216796875,3.1959991455078125,-0.6444854736328125
1686425620036481000,3.53148095703125,0.9846343994140625,4.1482696533203125,-0.293121337890625
1686425620046426000,3.541426025390625,-0.369140625,6.466583251953125,0.5715484619140625
1686425620056372200,3.551372314453125,-1.0858917236328125,7.0903472900390625,1.0874786376953125
1686425620066317000,3.561317138671875,-0.760345458984375,5.5130157470703125,1.0663909912109375
1686425620076262100,3.57126220703125,-0.4644927978515625,3.32904052734375,0.4814605712890625
1686425620086207200,3.581207275390625,-0.205841064453125,1.8699188232421875,0.179443359375
1686425620096153000,3.591153076171875,0.0123748779296875,0.9563751220703125,0.0705108642578125
1686425620106098200,3.60109814453125,0.1443939208984375,0.418792724609375,0.063568115234375
1686425620116043000,3.61104296875,0.1504058837890625,0.1214599609375,0.031005859375
1686425620125989000,3.620989013671875,0.0806427001953125,-0.0495758056640625,-0.020294189453125
1686425620135934200,3.630934326171875,0.0404205322265625,-0.1118621826171875,-0.0487823486328125
1686425620145879000,3.640879150390625,0.0247955322265625,-0.1158905029296875,-0.0422821044921875
1686425620155825200,3.6508251953125,-0.0109710693359375,-0.1093902587890625,-0.0265655517578125
1686425620165770000,3.66077001953125,-0.0261383056640625,-0.1059112548828125,-0.017333984375
1686425620175715300,3.67071533203125,-0.0315093994140625,-0.0981903076171875,-0.0092315673828125
1686425620185661200,3.6806611328125,-0.0269012451171875,-0.0946807861328125,-0.0076141357421875
1686425620195606300,3.690606201171875,-0.0201263427734375,-0.095703125,-0.0048675537109375
1686425620205551000,3.700551025390625,-0.0235137939453125,-0.1043853759765625,-0.0003509521484375
1686425620215497000,3.7104970703125,-0.0303497314453125,-0.105926513671875,0.0049591064453125
1686425620225442000,3.720442138671875,-0.045745849609375,-0.102630615234375,0.005523681640625
1686425620235387100,3.73038720703125,-0.057159423828125,-0.1096954345703125,0.0102691650390625
1686425620245333200,3.740333251953125,-0.0812835693359375,-0.125335693359375,0.0174560546875
1686425620255278000,3.750278076171875,-0.1234588623046875,-0.1748504638671875,0.0218048095703125
1686425620265223000,3.760222900390625,-0.090667724609375,-0.229583740234375,0.0203857421875
1686425620275169000,3.7701689453125,-0.0661468505859375,-0.187408447265625,-0.0662841796875
1686425620285114000,3.780114013671875,-0.10986328125,-0.0286102294921875,-0.2176666259765625
1686425620295059200,3.79005908203125,-0.1293792724609375,0.09637451171875,-0.21197509765625
1686425620305005000,3.800005126953125,-0.14801025390625,0.1142730712890625,-0.118499755859375
1686425620314950100,3.8099501953125,-0.1639251708984375,0.12335205078125,-0.07952880859375
1686425620324895000,3.81989501953125,-0.155731201171875,0.159393310546875,-0.0774078369140625
1686425620334840800,3.8298408203125,-0.143310546875,0.2442169189453125,-0.084228515625
1686425620344786000,3.839785888671875,-0.111053466796875,0.61309814453125,-0.2069091796875
1686425620354730800,3.849730712890625,0.15032958984375,2.6343536376953125,-0.453216552734375
1686425620364676900,3.8596767578125,0.52008056640625,4.4759521484375,-0.1613922119140625
1686425620374622000,3.8696220703125,1.353118896484375,5.8726959228515625,-0.2105865478515625
1686425620384566800,3.87956689453125,2.5843658447265625,7.132049560546875,0.2803497314453125
1686425620394513000,3.889512939453125,3.329742431640625,5.9738922119140625,0.8249053955078125
1686425620404457700,3.899457763671875,2.409149169921875,3.1444244384765625,1.100250244140625
1686425620414403000,3.909403076171875,1.590057373046875,1.35443115234375,1.06365966796875
1686425620424349000,3.919348876953125,1.049102783203125,0.5302886962890625,0.894317626953125
1686425620434294000,3.9292939453125,0.5679931640625,0.1081695556640625,0.5472412109375
1686425620444238800,3.93923876953125,0.230224609375,-0.0045013427734375,0.31402587890625
1686425620454184700,3.949184814453125,0.0538177490234375,-0.0142364501953125,0.21624755859375
1686425620464130000,3.959130126953125,0.0385284423828125,-0.0185699462890625,0.1329803466796875
1686425620474075000,3.969074951171875,0.0171966552734375,-0.0272369384765625,0.1006317138671875
1686425620484021000,3.97902099609375,0.0213470458984375,-0.0325927734375,0.0730438232421875
1686425620493965800,3.9889658203125,0.0336456298828125,-0.036895751953125,0.03955078125
1686425620503910700,3.99891064453125,0.04278564453125,-0.0377960205078125,0.020294189453125
1686425620513856800,4.008856689453125,0.041717529296875,-0.0326995849609375,0.01446533203125
1686425620523801900,4.0188017578125,0.0508270263671875,-0.038848876953125,0.018402099609375
1686425620533747000,4.028746826171875,0.1935272216796875,-0.2475128173828125,-0.023040771484375
1686425620543692800,4.03869287109375,0.4002838134765625,-0.7822723388671875,-0.1377716064453125
1686425620553638000,4.048637939453125,0.5196075439453125,-0.507293701171875,0.09576416015625
1686425620563583000,4.0585830078125,0.45452880859375,0.0489654541015625,0.408355712890625
1686425620573528800,4.06852880859375,0.2682647705078125,0.5182647705078125,0.7488555908203125
1686425620583474000,4.078473876953125,0.094512939453125,0.71380615234375,0.743560791015625
1686425620593418800,4.088418701171875,0.0257720947265625,0.6530303955078125,0.2677001953125
1686425620603364900,4.09836474609375,0.0540008544921875,0.626220703125,0.1812591552734375
1686425620613310000,4.10831005859375,0.1286773681640625,0.68487548828125,0.2178497314453125
1686425620623254800,4.1182548828125,-0.0208587646484375,1.037628173828125,0.045501708984375
1686425620633201000,4.128200927734375,-0.4053497314453125,1.1469573974609375,-0.43231201171875
1686425620643145700,4.138145751953125,-0.3772125244140625,0.59893798828125,-0.423614501953125
1686425620653091000,4.148091064453125,-0.3534393310546875,0.6214752197265625,-0.288970947265625
1686425620663037000,4.158036865234375,-0.3302764892578125,1.230316162109375,-0.0984954833984375
1686425620672982000,4.16798193359375,0.0266265869140625,3.1309814453125,-0.3350677490234375
1686425620682926800,4.1779267578125,0.92083740234375,4.2392730712890625,-1.1148529052734375
1686425620692872700,4.187872802734375,1.11578369140625,4.5526580810546875,-1.2920989990234375
1686425620702817800,4.19781787109375,1.7750396728515625,4.5634307861328125,-1.3241119384765625
1686425620712763000,4.207762939453125,2.5543975830078125,4.3187103271484375,-1.1257476806640625
1686425620722709000,4.217708984375,1.899322509765625,3.1224212646484375,-0.7405242919921875
1686425620732653800,4.22765380859375,0.98980712890625,1.9828033447265625,-0.352935791015625
1686425620742598700,4.2375986328125,0.5880279541015625,1.1171417236328125,-0.1971435546875
1686425620752544800,4.247544677734375,0.41656494140625,0.567047119140625,-0.0531463623046875
1686425620762489900,4.25748974609375,0.3040313720703125,0.194793701171875,-0.04833984375
1686425620772435000,4.26743505859375,0.251922607421875,0.0294036865234375,-0.003173828125
1686425620782380800,4.277380859375,0.174407958984375,-0.0207061767578125,0.03021240234375
1686425620792326000,4.287325927734375,0.120147705078125,-0.04302978515625,0.04193115234375
1686425620802271000,4.29727099609375,0.0563812255859375,-0.0578765869140625,0.0659637451171875
1686425620812216800,4.307216796875,0.0093231201171875,-0.0460662841796875,0.0803375244140625
1686425620822162000,4.317161865234375,0.0168304443359375,-0.045257568359375,0.0927581787109375
1686425620832106800,4.327106689453125,0.037811279296875,-0.054931640625,0.084991455078125
1686425620842052900,4.337052978515625,0.0199737548828125,-0.073883056640625,0.07391357421875
1686425620851998000,4.346998046875,0.0069427490234375,-0.089874267578125,0.058258056640625
1686425620861942800,4.35694287109375,0.394287109375,-0.1162261962890625,0.1533355712890625
1686425620871889000,4.366888916015625,1.3335723876953125,-0.2157745361328125,0.319732666015625
1686425620881833700,4.376833740234375,0.9048309326171875,-0.2416229248046875,0.11419677734375
1686425620891779000,4.386779052734375,0.3489990234375,-0.1974639892578125,-0.00238037109375
1686425620901725000,4.396724853515625,0.0352630615234375,-0.1750030517578125,-0.01422119140625
1686425620911670000,4.406669921875,-0.0472259521484375,-0.12017822265625,-0.0164337158203125
1686425620921614800,4.41661474609375,-0.0151519775390625,0.00225830078125,-0.0322723388671875
1686425620931560700,4.426560791015625,-0.032196044921875,0.074127197265625,-0.0350189208984375
1686425620941505800,4.436505859375,-0.069122314453125,0.1102752685546875,-0.069732666015625
1686425620951451000,4.446450927734375,0.013824462890625,0.1659088134765625,-0.1449737548828125
1686425620961397000,4.45639697265625,0.14508056640625,0.372589111328125,-0.4308319091796875
1686425620971341800,4.466341796875,0.1223297119140625,3.07867431640625,-2.0207672119140625
1686425620981286700,4.47628662109375,0.681365966796875,5.058807373046875,-2.0358734130859375
1686425620991232800,4.486232666015625,1.946044921875,7.3661956787109375,-0.753570556640625
1686425621001177900,4.496177734375,1.7618255615234375,7.4867095947265625,-0.4066009521484375
1686425621011123000,4.506123046875,0.4141693115234375,4.5135040283203125,-0.3473968505859375
1686425621021068800,4.51606884765625,-0.239105224609375,2.12445068359375,-0.4945831298828125
1686425621031014000,4.526013916015625,-0.11041259765625,0.5009613037109375,0.4404754638671875
1686425621040959000,4.535958984375,-0.04571533203125,-0.0172271728515625,0.5213623046875
1686425621050905000,4.545905029296875,-0.200469970703125,-0.0781097412109375,0.0202484130859375
1686425621060850000,4.555849853515625,0.0608673095703125,0.033721923828125,0.03216552734375
1686425621070794800,4.565794677734375,0.1707305908203125,0.0599365234375,0.0342559814453125
1686425621080740900,4.575740966796875,0.1263275146484375,-0.0327606201171875,-0.062042236328125
1686425621090686000,4.58568603515625,0.0526580810546875,-0.09539794921875,-0.091094970703125
1686425621100630800,4.595630859375,-0.0363006591796875,-0.108734130859375,-0.064697265625
1686425621110577000,4.605576904296875,-0.0696868896484375,-0.099212646484375,-0.02301025390625
1686425621120521700,4.615521728515625,-0.0295867919921875,-0.09063720703125,-0.0009613037109375
1686425621130466800,4.625466796875,0.0168609619140625,-0.0825958251953125,0.0140838623046875
1686425621140413000,4.635412841796875,0.002349853515625,-0.07781982421875,0.031158447265625
1686425621150358000,4.64535791015625,-0.03692626953125,-0.0742034912109375,0.0335540771484375
1686425621160302800,4.655302734375,-0.023162841796875,-0.0817108154296875,0.0352325439453125
1686425621170249000,4.6652490234375,0.0066375732421875,-0.0982208251953125,0.0423431396484375
1686425621180193800,4.67519384765625,0.0012359619140625,-0.1082916259765625,0.0602874755859375
1686425621190139000,4.685138916015625,-0.0129852294921875,-0.1006927490234375,0.0921783447265625
1686425621200085000,4.6950849609375,-0.029144287109375,-0.0819244384765625,0.14874267578125
1686425621210029800,4.70502978515625,-0.070037841796875,-0.0063018798828125,0.206298828125
1686425621219974700,4.714974609375,-0.12872314453125,0.1219024658203125,0.25360107421875
1686425621229920800,4.724920654296875,-0.1806793212890625,0.223297119140625,0.2528076171875
1686425621239865900,4.734865966796875,-0.1480255126953125,0.2884063720703125,0.1688995361328125
1686425621249811000,4.74481103515625,-0.09423828125,0.475555419921875,0.0918731689453125
1686425621259756800,4.7547568359375,0.042724609375,2.3058319091796875,-0.028564453125
1686425621269702000,4.764701904296875,0.127471923828125,3.90301513671875,0.2893218994140625
1686425621279647000,4.77464697265625,-0.010833740234375,4.842987060546875,0.43841552734375
1686425621289593000,4.784593017578125,0.25140380859375,5.3610992431640625,0.7496795654296875
1686425621299538000,4.794537841796875,0.6802215576171875,4.3285675048828125,0.82818603515625
1686425621309482800,4.804482666015625,0.6584014892578125,3.1273345947265625,0.4386138916015625
1686425621319428900,4.814428955078125,0.4692535400390625,2.4088897705078125,-0.0245513916015625
1686425621329373700,4.824373779296875,0.4022216796875,1.941802978515625,-0.2389678955078125
1686425621339318800,4.83431884765625,0.3516845703125,1.6575927734375,-0.3261566162109375
1686425621349264600,4.8442646484375,0.296844482421875,1.342315673828125,-0.392059326171875
1686425621359209700,4.854209716796875,0.3958740234375,0.9990386962890625,-0.350494384765625
1686425621369154800,4.86415478515625,0.4074859619140625,0.758392333984375,-0.22216796875
1686425621379100700,4.8741005859375,0.361114501953125,0.46539306640625,-0.129241943359375
1686425621389045800,4.884045654296875,0.39190673828125,0.1726837158203125,-0.200469970703125
1686425621398990600,4.893990478515625,0.6551055908203125,-0.02410888671875,-0.4250640869140625
1686425621408935400,4.903935302734375,0.8418121337890625,-0.042327880859375,-0.5520172119140625
1686425621418881500,4.913881591796875,0.6683197021484375,-0.0653076171875,-0.5437774658203125
1686425621428826600,4.92382666015625,0.4531402587890625,-0.1146087646484375,-0.4994049072265625
1686425621438771700,4.933771728515625,0.3203125,-0.17022705078125,-0.56365966796875
1686425621448717600,4.943717529296875,0.1749114990234375,-0.2285919189453125,-0.5490264892578125
1686425621458662700,4.95366259765625,0.0697021484375,-0.2374114990234375,-0.5582275390625
1686425621468607700,4.963607666015625,0.0452423095703125,-0.2758636474609375,-0.604339599609375
1686425621478553900,4.973553955078125,-0.0283355712890625,-0.229278564453125,-0.263885498046875
1686425621488498700,4.983498779296875,-0.0193939208984375,-0.2299652099609375,-0.14691162109375
1686425621498443500,4.993443603515625,0.0131988525390625,-0.215240478515625,-0.2581024169921875
1686425621508389600,5.0033896484375,0.037689208984375,-0.0332489013671875,-0.327362060546875
1686425621518334700,5.013334716796875,0.0799407958984375,0.15911865234375,-0.4400787353515625
1686425621528279800,5.02327978515625,0.1496124267578125,0.4315032958984375,-0.58612060546875
1686425621538225700,5.0332255859375,0.2292022705078125,1.153717041015625,-0.9023895263671875
1686425621548170500,5.04317041015625,0.205169677734375,2.04742431640625,-1.1512908935546875
1686425621558115800,5.05311572265625,0.1973114013671875,3.7034912109375,-1.63421630859375
1686425621568061700,5.063061767578125,0.6331024169921875,5.20574951171875,-1.3815155029296875
1686425621578006800,5.0730068359375,0.8480987548828125,4.8692169189453125,-0.2000579833984375
1686425621587951600,5.08295166015625,0.516815185546875,3.6023101806640625,0.074371337890625
1686425621597897700,5.092897705078125,0.124298095703125,2.4134063720703125,-0.2441253662109375
1686425621607842600,5.102842529296875,-0.09368896484375,1.707489013671875,-0.460235595703125
1686425621617787600,5.11278759765625,0.0319671630859375,1.2682342529296875,-0.50140380859375
1686425621627733800,5.122733642578125,0.1685943603515625,1.05670166015625,-0.3634490966796875
1686425621637678600,5.1326787109375,0.169342041015625,0.90240478515625,-0.3211212158203125
1686425621647623700,5.142623779296875,0.2215728759765625,0.9323577880859375,-0.1420745849609375
1686425621657569500,5.152569580078125,0.3271942138671875,0.994110107421875,0.06201171875
1686425621667514600,5.1625146484375,0.3748626708984375,0.9509429931640625,0.2071075439453125
1686425621677459700,5.172459716796875,0.326019287109375,0.84619140625,0.320526123046875
1686425621687405600,5.182405517578125,0.239776611328125,0.7059783935546875,0.41143798828125
1686425621697350700,5.1923505859375,0.218414306640625,0.593109130859375,0.4701385498046875
1686425621707295700,5.202295654296875,0.14404296875,0.4020538330078125,0.4306488037109375
1686425621717241900,5.212241943359375,0.051483154296875,0.229461669921875,0.3613128662109375
1686425621727186700,5.222186767578125,-0.004150390625,0.1305389404296875,0.30047607421875
1686425621737131500,5.232131591796875,-0.0114898681640625,0.08489990234375,0.2700958251953125
1686425621747077600,5.24207763671875,0.0146331787109375,0.04730224609375,0.2467193603515625
1686425621757022700,5.252022705078125,0.0269775390625,0.0216217041015625,0.2357330322265625
1686425621766967800,5.2619677734375,0.0340576171875,0.002777099609375,0.231658935546875
1686425621776913700,5.27191357421875,0.048675537109375,-0.0059814453125,0.241943359375
1686425621786858500,5.2818583984375,0.0556182861328125,0.013946533203125,0.2678985595703125
1686425621796803800,5.291803955078125,0.058990478515625,0.0664825439453125,0.3023681640625
1686425621806749700,5.301749755859375,0.0567474365234375,0.1587066650390625,0.343017578125
1686425621816694800,5.31169482421875,0.03839111328125,0.2907867431640625,0.394775390625
1686425621826639600,5.3216396484375,0.0406036376953125,0.5517578125,0.479034423828125
1686425621836585700,5.331585693359375,-0.0031890869140625,0.93658447265625,0.387603759765625
1686425621846530600,5.341530517578125,-0.193756103515625,1.3305816650390625,0.0274505615234375
1686425621856475600,5.3514755859375,-0.3794097900390625,1.950714111328125,-0.092254638671875
1686425621866421800,5.361421875,-0.2076873779296875,2.38909912109375,0.07952880859375
1686425621876366600,5.37136669921875,-0.0228729248046875,2.4161376953125,0.5003814697265625
1686425621886311700,5.381311767578125,0.047332763671875,2.2191162109375,0.5895843505859375
1686425621896257500,5.391257568359375,0.131378173828125,1.9821014404296875,0.5274200439453125
1686425621906202600,5.40120263671875,0.177093505859375,1.9357147216796875,0.58673095703125
1686425621916147700,5.411147705078125,0.1796722412109375,2.0988922119140625,0.6332855224609375
1686425621926093600,5.421093505859375,0.218597412109375,2.31488037109375,0.5430755615234375
1686425621936038700,5.43103857421875,0.230499267578125,2.460418701171875,0.3056488037109375
1686425621945983700,5.440983642578125,0.2764129638671875,2.4329986572265625,0.0240936279296875
1686425621955929900,5.450929931640625,0.34454345703125,2.3700714111328125,-0.2969512939453125
1686425621965874700,5.460874755859375,0.38848876953125,2.1653900146484375,-0.534027099609375
1686425621975819500,5.470819580078125,0.3981781005859375,1.783966064453125,-0.623870849609375
1686425621985765600,5.480765625,0.31219482421875,1.386199951171875,-0.6974639892578125
1686425621995710700,5.490710693359375,0.1616973876953125,0.9896392822265625,-0.72955322265625
1686425622005655800,5.50065576171875,0.051544189453125,0.6717071533203125,-0.6641693115234375
1686425622015601700,5.5106015625,-0.0641632080078125,0.426116943359375,-0.5706329345703125
1686425622025546500,5.52054638671875,-0.1814117431640625,0.256439208984375,-0.4210052490234375
1686425622035491600,5.53049169921875,-0.171539306640625,0.1251678466796875,-0.377410888671875
1686425622045437700,5.540437744140625,-0.0321197509765625,-0.0550384521484375,-0.6034088134765625
1686425622055382800,5.5503828125,0.12469482421875,-0.169097900390625,-1.1197052001953125
1686425622065327600,5.56032763671875,0.4114990234375,-0.1159515380859375,-1.6641082763671875
1686425622075273700,5.570273681640625,0.803375244140625,-0.034576416015625,-1.869842529296875
1686425622085218600,5.580218505859375,0.9489898681640625,-0.0629119873046875,-1.45538330078125
1686425622095163600,5.59016357421875,0.7685089111328125,-0.0968475341796875,-0.6175994873046875
1686425622105109800,5.60010986328125,0.98931884765625,0.0368499755859375,-0.0754852294921875
1686425622115054600,5.6100546875,0.9178466796875,0.3003692626953125,0.1861572265625
1686425622124999700,5.619999755859375,0.1301116943359375,0.2425079345703125,0.12481689453125
1686425622134945500,5.629945556640625,-0.0715179443359375,0.232269287109375,-0.0598907470703125
1686425622144890600,5.639890625,0.0680389404296875,0.44415283203125,-0.1910858154296875
1686425622154835700,5.649835693359375,0.2275543212890625,0.8061370849609375,-0.3745574951171875
1686425622164781600,5.659781494140625,0.426116943359375,1.4706573486328125,-0.7946319580078125
1686425622174726700,5.6697265625,0.518463134765625,2.6431121826171875,-1.2298431396484375
1686425622184671700,5.679671630859375,0.4405364990234375,4.0894927978515625,-1.8091583251953125
1686425622194617900,5.689617919921875,0.3497314453125,4.5305938720703125,-1.0919189453125
1686425622204562700,5.699562744140625,0.1192779541015625,3.5326995849609375,-0.197509765625
1686425622214507500,5.709507568359375,0.0728912353515625,2.60302734375,-0.4598541259765625
1686425622224453600,5.71945361328125,0.121551513671875,2.054931640625,-0.9374847412109375
1686425622234398700,5.729398681640625,0.0157470703125,1.72930908203125,-1.26153564453125
1686425622244343800,5.73934375,-0.020233154296875,1.4415283203125,-1.113922119140625
1686425622254289700,5.74928955078125,-0.0366973876953125,1.0839385986328125,-0.763427734375
1686425622264234800,5.75923486328125,-0.009918212890625,0.8562469482421875,-0.3752899169921875
1686425622274179600,5.7691796875,0.04998779296875,0.8093719482421875,-0.0898590087890625
1686425622284125400,5.77912548828125,0.0402984619140625,0.808685302734375,0.03839111328125
1686425622294070800,5.78907080078125,-0.029510498046875,0.8045501708984375,0.2053375244140625
1686425622304015600,5.799015625,0.0767669677734375,0.7600555419921875,0.31951904296875
1686425622313961700,5.808961669921875,0.24090576171875,0.6857757568359375,0.36041259765625
1686425622323906600,5.818906494140625,0.1511688232421875,0.5614013671875,0.4208831787109375
1686425622333852000,5.828851806640625,0.07794189453125,0.440582275390625,0.422821044921875
1686425622343797800,5.8387978515625,0.044891357421875,0.3173828125,0.4014434814453125
1686425622353742800,5.848742919921875,0.0239105224609375,0.2314453125,0.4030609130859375
1686425622363687700,5.858687744140625,0.01947021484375,0.1695098876953125,0.370391845703125
1686425622373633800,5.8686337890625,0.020477294921875,0.1733245849609375,0.37835693359375
1686425622383579000,5.878578857421875,0.0135040283203125,0.2193603515625,0.4337310791015625
1686425622393523700,5.888523681640625,0.0275421142578125,0.245330810546875,0.48406982421875
1686425622403469800,5.8984697265625,0.0396728515625,0.241790771484375,0.514862060546875
1686425622413414700,5.90841455078125,0.002716064453125,0.2670135498046875,0.5532684326171875
1686425622423359700,5.91835986328125,-0.055572509765625,0.307891845703125,0.592498779296875
1686425622433305900,5.928305908203125,-0.11553955078125,0.306427001953125,0.626190185546875
1686425622443250700,5.938250732421875,-0.1832275390625,0.325775146484375,0.61834716796875
1686425622453195800,5.94819580078125,-0.3057403564453125,0.3331756591796875,0.522796630859375
1686425622463141600,5.9581416015625,-0.5397491455078125,0.3548126220703125,0.378326416015625
1686425622473086700,5.968086669921875,-0.639007568359375,0.58599853515625,0.2449798583984375
1686425622483031800,5.97803173828125,-0.51165771484375,0.8452606201171875,0.05731201171875
1686425622492978000,5.98797802734375,-0.396453857421875,1.1194610595703125,-0.1526031494140625
1686425622502922800,5.9979228515625,-0.315704345703125,1.5292205810546875,-0.2034759521484375
1686425622512867600,6.00786767578125,-0.2860260009765625,1.9588470458984375,-0.039398193359375
1686425622522813700,6.017813720703125,-0.175872802734375,2.35784912109375,0.215850830078125
1686425622532758800,6.0277587890625,-0.020233154296875,2.7470245361328125,0.459991455078125
1686425622542703600,6.03770361328125,0.0699005126953125,2.976470947265625,0.5877685546875
1686425622552649700,6.047649658203125,0.0732421875,2.9993743896484375,0.555694580078125
1686425622562594600,6.057594482421875,0.076934814453125,2.9438018798828125,0.3394012451171875
1686425622572540000,6.067539794921875,0.1855621337890625,2.986724853515625,0.03326416015625
1686425622582485800,6.07748583984375,0.3987274169921875,3.1844024658203125,-0.4236297607421875
1686425622592430800,6.087430908203125,0.64483642578125,3.2838592529296875,-0.8147735595703125
1686425622602375700,6.097375732421875,0.5863037109375,2.9150543212890625,-1.0178375244140625
1686425622612321800,6.10732177734375,0.4727325439453125,2.2689208984375,-1.0160980224609375
1686425622622267000,6.117266845703125,0.3711395263671875,1.5957183837890625,-0.7888946533203125
1686425622632211700,6.127211669921875,0.1728057861328125,1.061614990234375,-0.6683349609375
1686425622642157800,6.13715771484375,0.118743896484375,0.6720428466796875,-0.77880859375
1686425622652102700,6.1471025390625,0.7841796875,0.271087646484375,-1.248565673828125
1686425622662047700,6.1570478515625,2.6483001708984375,-0.4352874755859375,-2.718017578125
1686425622671993900,6.166993896484375,3.1189727783203125,-0.938568115234375,-3.82354736328125
1686425622681938700,6.176938720703125,1.552032470703125,-0.712799072265625,-2.5381927490234375
1686425622691883800,6.1868837890625,0.77117919921875,-0.4036865234375,-0.796875
1686425622701829600,6.19682958984375,0.1709747314453125,-0.1540679931640625,-0.177947998046875
1686425622711774700,6.206774658203125,0.04388427734375,-0.0627899169921875,-0.0238037109375
1686425622721719800,6.2167197265625,-0.021575927734375,-0.046661376953125,0.006866455078125
1686425622731666000,6.226666015625,-0.0150604248046875,0.004058837890625,0.0348968505859375
1686425622741610800,6.23661083984375,-0.0030364990234375,0.1290130615234375,0.0719451904296875
1686425622751555600,6.2465556640625,-0.0079803466796875,0.2953033447265625,0.0246429443359375
1686425622761501700,6.256501708984375,0.0140228271484375,0.49591064453125,-0.033111572265625
1686425622771446800,6.26644677734375,0.065338134765625,0.94476318359375,-0.1053466796875
1686425622781392000,6.276391845703125,0.1553497314453125,1.7285919189453125,-0.2365570068359375
1686425622791337700,6.286337646484375,0.217742919921875,2.475494384765625,-0.549560546875
1686425622801282600,6.296282470703125,0.1314849853515625,3.030517578125,-1.1786346435546875
1686425622811228000,6.306227783203125,0.101470947265625,3.55413818359375,-1.898345947265625
1686425622821173800,6.316173828125,0.183502197265625,3.723846435546875,-1.8218994140625
1686425622831118800,6.326118896484375,0.2495880126953125,3.33258056640625,-0.978546142578125
1686425622841063700,6.336063720703125,0.1322784423828125,2.6851806640625,-0.424713134765625
1686425622851009800,6.346009765625,-0.063018798828125,2.0047149658203125,-0.279571533203125
1686425622860955000,6.355954833984375,-0.08740234375,1.5687408447265625,-0.2111358642578125
1686425622870899700,6.365899658203125,-0.0272979736328125,1.28729248046875,-0.1183929443359375
1686425622880845800,6.375845703125,0.005096435546875,1.0337371826171875,0.02685546875
1686425622890790700,6.385790771484375,0.1361083984375,0.848907470703125,0.190185546875
1686425622900735700,6.39573583984375,0.2799530029296875,0.8172607421875,0.2945404052734375
1686425622910681600,6.405681640625,1.163238525390625,1.090667724609375,0.6057281494140625
1686425622920626700,6.415626708984375,1.45654296875,1.1956329345703125,0.6818695068359375
1686425622930571800,6.42557177734375,1.1783447265625,1.000579833984375,0.57257080078125
1686425622940517600,6.435517578125,0.7499542236328125,0.651153564453125,0.5235748291015625
1686425622950462700,6.445462646484375,0.5386962890625,0.2282562255859375,0.4718475341796875
1686425622960407800,6.45540771484375,0.3305206298828125,-0.0977020263671875,0.4008026123046875
1686425622970354000,6.46535400390625,0.0125732421875,-0.1817779541015625,0.241241455078125
1686425622980298800,6.475298828125,-0.120758056640625,-0.14947509765625,0.13946533203125
1686425622990243600,6.48524365234375,-0.127227783203125,-0.13421630859375,0.1053466796875
1686425623000189700,6.495189697265625,-0.1269073486328125,-0.1259918212890625,0.11846923828125
1686425623010134800,6.505134765625,-0.0992431640625,-0.1149139404296875,0.1505889892578125
1686425623020079900,6.515079833984375,-0.0642242431640625,-0.1193084716796875,0.1793975830078125
1686425623030025700,6.525025634765625,-0.0551910400390625,-0.1360626220703125,0.216217041015625
1686425623039970600,6.534970458984375,-0.058563232421875,-0.1472015380859375,0.2607269287109375
1686425623049916000,6.544916015625,-0.0778961181640625,-0.1539154052734375,0.3001251220703125
1686425623059861800,6.55486181640625,-0.1233062744140625,-0.156982421875,0.343353271484375
1686425623069806800,6.564806884765625,-0.2186126708984375,-0.1843109130859375,0.412078857421875
1686425623079751700,6.574751708984375,-0.261810302734375,-0.1504058837890625,0.4439544677734375
1686425623089697800,6.58469775390625,-0.343505859375,0.0941009521484375,0.2361907958984375
1686425623099643000,6.594642822265625,-0.5669708251953125,0.2968902587890625,0.00958251953125
1686425623109587700,6.604587646484375,-0.4183502197265625,0.417877197265625,-0.152008056640625
1686425623119533800,6.614533935546875,-0.3291778564453125,0.827728271484375,-0.63470458984375
1686425623129478700,6.624478759765625,-0.6441650390625,1.8554534912109375,-1.42401123046875
1686425623139423700,6.634423828125,-0.7083282470703125,2.648712158203125,-0.8692779541015625
1686425623149369600,6.64436962890625,-0.447509765625,3.0426788330078125,0.0384521484375
1686425623159314700,6.654314697265625,-0.3658447265625,3.5666961669921875,0.4708099365234375
1686425623169259800,6.664259765625,-0.19976806640625,3.75994873046875,0.669158935546875
1686425623179205600,6.67420556640625,-0.0601654052734375,3.3240203857421875,0.47088623046875
1686425623189150700,6.684150634765625,-0.03448486328125,2.9482421875,0.17486572265625
1686425623199095800,6.694095703125,0.010040283203125,2.85821533203125,-0.1662139892578125
1686425623209042000,6.7040419921875,0.2545623779296875,2.5644378662109375,-0.6967315673828125
1686425623218986800,6.71398681640625,0.7157440185546875,2.1592864990234375,-1.1448516845703125
1686425623228931600,6.723931640625,1.4080963134765625,1.88446044921875,-1.2368011474609375
1686425623238877700,6.733877685546875,2.5788116455078125,1.4014434814453125,-1.4253082275390625
1686425623248822800,6.74382275390625,2.772003173828125,0.98162841796875,-1.760162353515625
1686425623258768000,6.753767822265625,1.766815185546875,0.8728790283203125,-1.7280731201171875
1686425623268713700,6.763713623046875,0.918670654296875,0.7964324951171875,-1.0989532470703125
1686425623278658600,6.773658447265625,0.4091339111328125,0.7531280517578125,-0.654510498046875
1686425623288604000,6.78360400390625,0.034881591796875,0.5855560302734375,-0.5033416748046875
1686425623298549800,6.7935498046875,-0.138946533203125,0.4265289306640625,-0.4370880126953125
1686425623308494800,6.803494873046875,-0.28619384765625,0.333831787109375,-0.3090972900390625
1686425623318439700,6.813439697265625,-0.234405517578125,0.2952423095703125,-0.087799072265625
1686425623328385300,6.82338525390625,-0.2027740478515625,0.3721771240234375,0.115447998046875
1686425623338330400,6.833330322265625,-0.21173095703125,0.43756103515625,0.172149658203125
1686425623348275500,6.843275390625,-0.231292724609375,0.438232421875,0.1740570068359375
1686425623358221300,6.85322119140625,-0.2530364990234375,0.3730926513671875,0.1609344482421875
1686425623368166400,6.86316650390625,-0.2596282958984375,0.2474517822265625,0.1371002197265625
1686425623378111500,6.873111572265625,-0.2273712158203125,0.1273956298828125,0.146942138671875
1686425623388057300,6.883057373046875,-0.1985931396484375,0.044403076171875,0.1498260498046875
1686425623398002400,6.89300244140625,-0.209747314453125,0.083343505859375,0.163299560546875
1686425623407947300,6.902947265625,-0.2854156494140625,0.3928375244140625,0.150360107421875
1686425623417893400,6.912893310546875,-0.396514892578125,0.8260650634765625,0.1021270751953125
1686425623427838200,6.922838134765625,-0.4774169921875,1.1739654541015625,-0.0782012939453125
1686425623437783600,6.932783447265625,-0.64630126953125,1.402008056640625,-0.5860137939453125
1686425623447729400,6.9427294921875,-0.68536376953125,1.910369873046875,-1.2283477783203125
1686425623457674200,6.95267431640625,-0.6432342529296875,2.55120849609375,-2.1230316162109375
1686425623467619300,6.962619384765625,-0.376190185546875,3.0623016357421875,-1.92486572265625
1686425623477565200,6.972565185546875,0.2104034423828125,3.4349212646484375,-0.7574310302734375
1686425623487510500,6.982510498046875,0.52191162109375,3.597991943359375,-0.1249542236328125
1686425623497455400,6.992455322265625,0.6670379638671875,2.926116943359375,0.004547119140625
1686425623507401500,7.0024013671875,1.390228271484375,2.290130615234375,0.1415557861328125
1686425623517346300,7.01234619140625,1.2175140380859375,1.84149169921875,0.3250732421875
1686425623527291400,7.02229150390625,0.9016876220703125,1.458465576171875,0.47637939453125
1686425623537237500,7.032237548828125,0.7710723876953125,1.1623077392578125,0.42596435546875
1686425623547182300,7.042182373046875,0.5916748046875,0.8498687744140625,0.3361968994140625
1686425623557127400,7.05212744140625,0.3908538818359375,0.564727783203125,0.3140716552734375
1686425623567073300,7.0620732421875,0.571441650390625,0.4553680419921875,0.4609222412109375
1686425623577018400,7.072018310546875,0.9306182861328125,0.45068359375,0.6502532958984375
1686425623586963500,7.08196337890625,0.645355224609375,0.311370849609375,0.5432586669921875
1686425623596909300,7.091909423828125,0.155609130859375,0.099822998046875,0.283477783203125
1686425623606854400,7.1018544921875,-0.109283447265625,0.006256103515625,0.1478729248046875
1686425623616799200,7.11179931640625,-0.1287384033203125,-0.0245513916015625,0.078704833984375
1686425623626745300,7.121745361328125,-0.0722503662109375,-0.0604248046875,0.067352294921875
1686425623636690400,7.1316904296875,-0.08013916015625,-0.0746002197265625,0.0535888671875
1686425623646635300,7.14163525390625,-0.2063140869140625,-0.1249542236328125,0.0509185791015625
1686425623656581400,7.151581298828125,-0.7142181396484375,-0.2609710693359375,-0.0946197509765625
1686425623666526200,7.161526123046875,-1.20477294921875,-0.3569183349609375,-0.2705230712890625
1686425623676471600,7.171471435546875,-0.91650390625,-0.28436279296875,-0.0700836181640625
1686425623686417400,7.18141748046875,-0.433685302734375,-0.196136474609375,0.099151611328125
1686425623696362200,7.1913623046875,-0.138763427734375,-0.1093597412109375,0.112030029296875
1686425623706307300,7.201307373046875,-0.0152740478515625,-0.0451812744140625,0.07489013671875
1686425623716253200,7.211253173828125,0.046234130859375,-0.01080322265625,0.068756103515625
1686425623726198500,7.221198486328125,0.0960235595703125,0.031280517578125,0.079345703125
1686425623736143400,7.231143310546875,0.0763702392578125,0.0734710693359375,0.0488739013671875
1686425623746089500,7.24108935546875,0.134918212890625,0.081787109375,0.0084075927734375
1686425623756034300,7.251034423828125,0.1185150146484375,0.086334228515625,0.0125885009765625
1686425623765979400,7.2609794921875,0.108856201171875,0.162353515625,-0.0045623779296875
1686425623775925500,7.270925537109375,0.3802947998046875,1.6486053466796875,0.098236083984375
1686425623785870300,7.280870361328125,0.3916168212890625,3.1864471435546875,0.2825775146484375
1686425623795815400,7.2908154296875,0.2534942626953125,4.291656494140625,-0.025299072265625
1686425623805761300,7.30076123046875,0.4398956298828125,5.0779266357421875,-0.140411376953125
1686425623815706400,7.310706298828125,0.4862060546875,5.328826904296875,-0.1402740478515625
1686425623825651500,7.3206513671875,0.4191741943359375,4.6840362548828125,-0.114532470703125
1686425623835597300,7.330597412109375,0.2568511962890625,3.3418426513671875,0.04315185546875
1686425623845542400,7.34054248046875,0.0934295654296875,2.1189117431640625,0.0048065185546875
1686425623855487200,7.3504873046875,0.0521240234375,1.3365478515625,0.0235137939453125
1686425623865433300,7.360433349609375,-0.025726318359375,0.6734466552734375,0.11431884765625
1686425623875378400,7.37037841796875,-0.0119476318359375,0.4078216552734375,0.2918853759765625
1686425623885323300,7.3803232421875,0.2017059326171875,0.6820831298828125,0.3789825439453125
1686425623895269400,7.390269287109375,0.236541748046875,0.7676239013671875,0.311676025390625
1686425623905214200,7.400214111328125,0.26312255859375,0.6697540283203125,0.19476318359375
1686425623915159600,7.41015966796875,0.2827606201171875,0.5338897705078125,0.0462799072265625
1686425623925105400,7.42010546875,0.2765960693359375,0.4220733642578125,-0.097900390625
1686425623935050500,7.430050537109375,0.23712158203125,0.3118438720703125,-0.190399169921875
1686425623944995300,7.439995361328125,0.248687744140625,0.167572021484375,-0.2097015380859375
1686425623954941200,7.449941162109375,0.2550048828125,0.057037353515625,-0.17315673828125
1686425623964886500,7.459886474609375,0.1804962158203125,-0.0326080322265625,-0.1168212890625
1686425623974832400,7.469832275390625,0.0946044921875,-0.0854644775390625,-0.06121826171875
1686425623984777500,7.479777587890625,0.010650634765625,-0.111541748046875,-0.0292205810546875
1686425623994722300,7.489722412109375,-0.063079833984375,-0.1207427978515625,-0.023345947265625
1686425624004668400,7.49966845703125,-0.1390838623046875,-0.099090576171875,-0.0532989501953125
1686425624014613500,7.509613525390625,-0.2388916015625,-0.06988525390625,-0.09674072265625
1686425624024558300,7.519558349609375,-0.38116455078125,-0.048492431640625,-0.1444244384765625
1686425624034504400,7.52950439453125,-0.386260986328125,0.016265869140625,-0.1011199951171875
1686425624044449300,7.53944921875,-0.295318603515625,0.1410369873046875,-0.0578460693359375
1686425624054394400,7.549394287109375,-0.113616943359375,0.2760772705078125,-0.025390625
1686425624064340500,7.559340576171875,0.11688232421875,0.6591949462890625,0.0324554443359375
1686425624074285300,7.569285400390625,0.3533477783203125,1.5791168212890625,-0.346282958984375
1686425624084230400,7.57923046875,-0.298797607421875,2.5831451416015625,-1.2978973388671875
1686425624094176300,7.58917626953125,-1.0425872802734375,3.2187957763671875,-1.7539825439453125
1686425624104121300,7.599121337890625,-1.1228790283203125,3.2578887939453125,-1.88555908203125
1686425624114066400,7.60906640625,-0.7313690185546875,2.856048583984375,-1.3174591064453125
1686425624124012500,7.619012451171875,-0.678741455078125,2.2857818603515625,-0.6623687744140625
1686425624133957400,7.628957275390625,-0.64898681640625,1.90875244140625,-0.3603973388671875
1686425624143902200,7.638902099609375,-0.420135498046875,1.78167724609375,-0.40557861328125
1686425624153848300,7.648848388671875,-0.1472930908203125,1.7849578857421875,-0.418121337890625
1686425624163793400,7.65879345703125,0.2196197509765625,1.8067626953125,-0.2883758544921875
1686425624173738500,7.668738525390625,0.584625244140625,1.8211669921875,0.0276031494140625
1686425624183684400,7.678684326171875,0.73468017578125,1.772552490234375,0.5301971435546875
1686425624193629200,7.688629150390625,1.388427734375,1.37701416015625,0.8510589599609375
1686425624203574500,7.698574462890625,1.6453399658203125,0.8486785888671875,0.9117889404296875
1686425624213520400,7.708520263671875,0.8326568603515625,0.55133056640625,0.7924957275390625
1686425624223465500,7.718465576171875,0.38232421875,0.3879547119140625,0.6043243408203125
1686425624233410300,7.728410400390625,0.2119293212890625,0.2818756103515625,0.4474639892578125
1686425624243356400,7.7383564453125,0.140411376953125,0.154541015625,0.3109283447265625
1686425624253301500,7.748301513671875,0.0362091064453125,-0.0166778564453125,0.1012725830078125
1686425624263246300,7.758246337890625,-0.1177215576171875,-0.1536712646484375,-0.0315093994140625
1686425624273192400,7.7681923828125,-0.2608184814453125,-0.1999664306640625,-0.1104583740234375
1686425624283137300,7.77813720703125,-0.289703369140625,-0.2045745849609375,-0.133544921875
1686425624293082400,7.788082275390625,-0.3156890869140625,-0.2092132568359375,-0.1071319580078125
1686425624303028200,7.7980283203125,-0.37017822265625,-0.21771240234375,-0.091583251953125
1686425624312973300,7.807973388671875,-0.3990936279296875,-0.239990234375,-0.08331298828125
1686425624322919400,7.81791943359375,-0.3353118896484375,-0.2490386962890625,-0.0321502685546875
1686425624332865000,7.827864990234375,-0.211029052734375,-0.2260894775390625,0.0450439453125
1686425624342810000,7.83781005859375,-0.0855255126953125,-0.1876983642578125,0.09552001953125
1686425624352756000,7.847755859375,-0.02362060546875,-0.12469482421875,0.1153717041015625
1686425624362701000,7.857701171875,-0.039825439453125,-0.0545501708984375,0.0682830810546875
1686425624372646100,7.867646240234375,-0.1953582763671875,0.026336669921875,-0.134124755859375
1686425624382592000,7.877592041015625,-0.3665924072265625,0.1782989501953125,-0.408050537109375
1686425624392537000,7.887537109375,-0.26434326171875,0.6092071533203125,-0.505035400390625
1686425624402482000,7.89748193359375,0.6308135986328125,2.9929962158203125,-0.5499114990234375
1686425624412428000,7.907427978515625,0.2612762451171875,4.505035400390625,0.0210113525390625
1686425624422373000,7.917373046875,-0.2427215576171875,3.017333984375,0.3662261962890625
1686425624432318000,7.92731787109375,-0.2544097900390625,2.0228271484375,0.5510711669921875
1686425624442264000,7.93726416015625,-0.2764892578125,1.534759521484375,0.7193145751953125
1686425624452209000,7.947208984375,-0.106658935546875,1.5475006103515625,0.5511016845703125
1686425624462154200,7.957154296875,0.0626983642578125,1.771759033203125,0.06781005859375
1686425624472100000,7.96710009765625,0.026214599609375,1.964141845703125,-0.1775360107421875
1686425624482045000,7.977044921875,-0.0682220458984375,2.128570556640625,0.0120697021484375
1686425624491990000,7.986989990234375,-0.119720458984375,2.097503662109375,0.1875457763671875
1686425624501935900,7.996935791015625,-0.101806640625,1.89422607421875,0.3946075439453125
1686425624511881200,8.006881103515624,0.0268402099609375,1.6055755615234375,0.53253173828125
1686425624521826000,8.016825927734375,0.492950439453125,1.22479248046875,0.4295654296875
1686425624531772200,8.026772216796875,0.9898223876953125,0.94635009765625,0.15740966796875
1686425624541717000,8.036717041015624,0.70733642578125,0.800323486328125,-0.1847076416015625
1686425624551662800,8.046662841796875,0.111358642578125,0.708221435546875,-0.4212646484375
1686425624561608200,8.056608154296875,0.1452178955078125,0.562835693359375,-0.473052978515625
1686425624571553000,8.066552978515626,0.203582763671875,0.398590087890625,-0.496002197265625
1686425624581499100,8.0764990234375,-0.2206573486328125,0.3334503173828125,-0.34393310546875
1686425624591444000,8.08644384765625,-0.449371337890625,0.304046630859375,-0.077911376953125
1686425624601389000,8.09638916015625,-0.3961181640625,0.2909393310546875,0.05908203125
1686425624611335000,8.1063349609375,-0.24249267578125,0.28533935546875,0.053436279296875
1686425624621280000,8.116280029296876,-0.1466064453125,0.2617950439453125,0.0374908447265625
1686425624631225000,8.12622509765625,-0.1004791259765625,0.2603302001953125,0.1140289306640625
1686425624641171000,8.1361708984375,-0.0069122314453125,0.264434814453125,-0.004302978515625
1686425624651116000,8.146115966796875,-0.0236053466796875,0.306488037109375,-0.0068817138671875
1686425624661061000,8.15606103515625,-0.13421630859375,0.37554931640625,0.135711669921875
1686425624671007200,8.16600732421875,-0.17315673828125,0.4392242431640625,0.084716796875
1686425624680952000,8.1759521484375,-0.1346893310546875,0.4346160888671875,-0.055755615234375
1686425624690897000,8.18589697265625,-0.06787109375,0.4998016357421875,-0.08795166015625
1686425624700843000,8.195843017578126,-0.085784912109375,0.7203369140625,-0.1022491455078125
1686425624710788000,8.2057880859375,-0.3059539794921875,1.08038330078125,-0.1053924560546875
1686425624720734200,8.215734130859374,-0.5038604736328125,1.447174072265625,-0.4211883544921875
1686425624730679000,8.225678955078125,-0.8305511474609375,1.82696533203125,-0.567108154296875
1686425624740624000,8.235623779296875,-1.0761260986328125,2.143890380859375,-0.6043548583984375
1686425624750570000,8.245570068359376,-0.872344970703125,2.2472381591796875,-0.657012939453125
1686425624760515000,8.25551513671875,-0.521697998046875,2.1807403564453125,-0.0709228515625
1686425624770460200,8.265460205078124,-0.2153778076171875,2.049468994140625,0.308624267578125
1686425624780406000,8.275406005859375,0.0584869384765625,1.9796905517578125,0.2982940673828125
1686425624790351000,8.28535107421875,0.2282867431640625,2.017791748046875,0.18231201171875
1686425624800296200,8.295296142578126,0.158782958984375,2.1518096923828125,0.232757568359375
1686425624810242000,8.305241943359375,0.0592803955078125,2.2115936279296875,0.3260040283203125
1686425624820187100,8.315187255859374,0.0204010009765625,2.08868408203125,0.623291015625
1686425624830132000,8.325132080078125,0.073150634765625,1.8359832763671875,0.9704132080078125
1686425624840078000,8.335078125,0.177459716796875,1.5616455078125,1.1124267578125
1686425624850023000,8.34502294921875,0.265625,1.2559814453125,0.9227752685546875
1686425624859968000,8.354968017578125,0.181610107421875,0.903656005859375,0.714141845703125
1686425624869914000,8.3649140625,0.1411285400390625,0.56170654296875,0.7083282470703125
1686425624879859000,8.37485888671875,0.1931915283203125,0.2166748046875,0.7196807861328125
1686425624889804000,8.384803955078125,0.4540252685546875,-0.140472412109375,0.6962738037109375
1686425624899750000,8.39475,0.3759765625,-0.2732086181640625,0.5521240234375
1686425624909695200,8.4046953125,0.10772705078125,-0.2639923095703125,0.296783447265625
1686425624919641000,8.41464111328125,-0.0975189208984375,-0.2655792236328125,0.0679779052734375
1686425624929586000,8.4245859375,-0.1412506103515625,-0.26654052734375,-0.06646728515625
1686425624939531000,8.434531005859375,-0.0730743408203125,-0.249847412109375,-0.13507080078125
1686425624949476900,8.444476806640624,0.0685882568359375,-0.218505859375,-0.16302490234375
1686425624959422200,8.454422119140625,0.201934814453125,-0.18170166015625,-0.1621246337890625
1686425624969367000,8.464366943359375,0.265380859375,-0.1136016845703125,-0.1257781982421875
1686425624979313200,8.474313232421874,0.280609130859375,-0.0103759765625,-0.08782958984375
1686425624989258000,8.484258056640625,0.29388427734375,0.063995361328125,-0.0856170654296875
1686425624999203000,8.494203125,0.2615814208984375,0.101531982421875,-0.0693817138671875
1686425625009149200,8.504149169921876,0.0657501220703125,0.1207427978515625,-0.0447540283203125
1686425625019094000,8.514093994140625,-0.12774658203125,0.1066436767578125,-0.058319091796875
1686425625029039000,8.5240390625,-0.2219390869140625,0.1113433837890625,-0.1164093017578125
1686425625038985000,8.53398486328125,-0.521636962890625,0.2518463134765625,-0.18243408203125
1686425625048930000,8.543929931640625,-0.7734375,1.13629150390625,-0.0984649658203125
1686425625058875100,8.553875244140626,-0.571624755859375,3.2281036376953125,0.34930419921875
1686425625068821000,8.563821044921875,-0.4244842529296875,3.6225738525390625,0.874664306640625
1686425625078766000,8.57376611328125,-0.1248321533203125,3.1885528564453125,0.7988739013671875
1686425625088712000,8.5837119140625,0.145294189453125,2.2031707763671875,0.708984375
1686425625098657000,8.593656982421875,0.09136962890625,1.3885955810546875,0.5792083740234375
1686425625108602000,8.60360205078125,-0.0737762451171875,1.10455322265625,0.4385986328125
1686425625118548200,8.61354833984375,-0.3259735107421875,1.1660308837890625,0.4707489013671875
1686425625128493000,8.6234931640625,-0.607330322265625,1.4954071044921875,0.54779052734375
1686425625138438000,8.63343798828125,-0.812591552734375,1.836456298828125,0.69287109375
1686425625148384000,8.643384033203125,-0.8389129638671875,2.026153564453125,0.9129180908203125
1686425625158329000,8.6533291015625,-0.671173095703125,2.15386962890625,0.998779296875
1686425625168274000,8.66327392578125,-0.2104034423828125,1.93048095703125,0.933319091796875
1686425625178220000,8.673219970703125,0.39971923828125,1.4736328125,0.6360321044921875
1686425625188164900,8.683164794921876,1.21160888671875,1.0095062255859375,0.3237457275390625
1686425625198110200,8.693110107421875,1.9865264892578125,0.6497802734375,0.0930328369140625
1686425625208056000,8.70305615234375,1.063232421875,0.7283477783203125,-0.1117095947265625
1686425625218001200,8.713001220703125,0.0827178955078125,0.88385009765625,-0.250823974609375
1686425625227947000,8.722947021484375,-0.214111328125,0.7470245361328125,-0.2791595458984375
1686425625237892000,8.73289208984375,-0.30340576171875,0.519073486328125,-0.25482177734375
1686425625247837200,8.742837158203125,-0.2640533447265625,0.3372344970703125,-0.2148590087890625
1686425625257783000,8.752782958984374,-0.197998046875,0.2408599853515625,-0.1663665771484375
1686425625267728100,8.76272802734375,-0.138946533203125,0.209564208984375,-0.09918212890625
1686425625277673000,8.7726728515625,-0.122161865234375,0.201995849609375,-0.010986328125
1686425625287619000,8.782619140625,-0.13702392578125,0.2020263671875,0.0765380859375
1686425625297564000,8.79256396484375,-0.14306640625,0.1988677978515625,0.1075897216796875
1686425625307509000,8.802509033203124,-0.1471405029296875,0.189300537109375,0.106109619140625
1686425625317455000,8.812455078125,-0.150482177734375,0.180267333984375,0.1081085205078125
1686425625327400000,8.82239990234375,-0.156829833984375,0.1806182861328125,0.105743408203125
1686425625337344500,8.832344482421876,-0.18499755859375,0.2108001708984375,0.1076507568359375
1686425625347290600,8.84229052734375,-0.2505645751953125,0.34246826171875,0.027008056640625
1686425625357235500,8.8522353515625,-0.4471282958984375,0.5878143310546875,-0.1043548583984375
1686425625367181600,8.862181640625,-0.820709228515625,0.8820037841796875,-0.24188232421875
1686425625377126400,8.87212646484375,-1.1557769775390625,1.1460113525390625,-0.435821533203125
1686425625387071500,8.882071533203124,-1.2377166748046875,1.3791656494140625,-0.371826171875
1686425625397017600,8.892017578125,-1.024444580078125,1.588470458984375,-0.109619140625
1686425625406962400,8.90196240234375,-0.8891143798828125,1.7860107421875,-0.150543212890625
1686425625416907500,8.911907470703126,-0.869720458984375,1.9520111083984375,0.1945648193359375
1686425625426853400,8.921853271484375,-0.6454315185546875,2.0879058837890625,0.443603515625
1686425625436798500,8.931798583984374,-0.29302978515625,2.1668243408203125,0.42218017578125
1686425625446743600,8.94174365234375,0.22198486328125,2.35296630859375,0.4224395751953125
1686425625456689700,8.951689697265625,0.7734527587890625,2.663787841796875,0.4355621337890625
1686425625466634500,8.961634521484376,0.730316162109375,2.6300811767578125,0.5696258544921875
1686425625476579300,8.971579345703125,0.52276611328125,2.26556396484375,0.7614288330078125
1686425625486525400,8.981525390625,0.714630126953125,1.759979248046875,0.9249725341796875
1686425625496470500,8.991470458984375,1.3249359130859375,1.1625213623046875,0.9940338134765625
1686425625506416600,9.001416748046875,1.1919708251953125,1.0255279541015625,0.9607391357421875
1686425625516361500,9.011361572265624,0.59332275390625,0.9922637939453125,0.68505859375
1686425625526306300,9.021306396484375,0.162261962890625,0.823089599609375,0.5846099853515625
1686425625536252400,9.03125244140625,-0.67291259765625,0.4320526123046875,0.26739501953125
1686425625546197500,9.041197509765626,-1.1000213623046875,-0.09527587890625,0.19720458984375
1686425625556142600,9.051142578125,0.3199920654296875,-0.1985015869140625,0.6989898681640625
1686425625566088400,9.06108837890625,0.04071044921875,-0.3265533447265625,0.468963623046875
1686425625576033500,9.071033447265625,0.0030975341796875,-0.39605712890625,0.3076171875
1686425625585978600,9.080978515625,0.101806640625,-0.394073486328125,0.1470794677734375
1686425625595924700,9.0909248046875,0.1319427490234375,-0.367401123046875,-0.0127716064453125
1686425625605869600,9.10086962890625,0.1781768798828125,-0.3028411865234375,-0.106964111328125
1686425625615814400,9.110814453125,0.2095184326171875,-0.16229248046875,-0.075531005859375
1686425625625760500,9.120760498046875,0.2294158935546875,0.046234130859375,-0.0350494384765625
1686425625635705300,9.130705322265625,0.22747802734375,0.1831512451171875,-0.0702667236328125
1686425625645651500,9.1406513671875,0.1888885498046875,0.2287750244140625,-0.0940704345703125
1686425625655596500,9.150596435546875,0.0832366943359375,0.2509002685546875,-0.0894775390625
1686425625665541400,9.160541259765624,-0.0584564208984375,0.2403411865234375,-0.0636444091796875
1686425625675487500,9.170487548828126,-0.3441925048828125,0.250091552734375,-0.104400634765625
1686425625685432300,9.180432373046875,-0.900390625,1.1335906982421875,-0.2878265380859375
1686425625695377700,9.190377685546874,-1.1577301025390625,3.31005859375,-0.0254058837890625
1686425625705323500,9.200323486328125,-0.48651123046875,4.07269287109375,0.770782470703125
1686425625715268600,9.2102685546875,0.0402679443359375,2.92938232421875,1.199859619140625
1686425625725213400,9.22021337890625,0.1617279052734375,1.64532470703125,0.8724365234375
1686425625735159300,9.2301591796875,0.170623779296875,0.85284423828125,0.5832977294921875
1686425625745104600,9.240104736328124,0.0352020263671875,0.5641937255859375,0.5426025390625
1686425625755049500,9.250049560546875,-0.1428680419921875,0.6746673583984375,0.5704803466796875
1686425625764995600,9.25999560546875,-0.3021087646484375,1.0142059326171875,0.565948486328125
1686425625774940400,9.2699404296875,-0.4898529052734375,1.3872528076171875,0.423553466796875
1686425625784886500,9.279886474609375,-0.7419891357421875,1.7280120849609375,0.4921112060546875
1686425625794831600,9.28983154296875,-0.785491943359375,1.9569549560546875,0.7342376708984375
1686425625804776400,9.2997763671875,-0.570068359375,2.0138702392578125,0.9191131591796875
1686425625814722600,9.30972265625,0.15411376953125,1.8907012939453125,0.810211181640625
1686425625824667400,9.31966748046875,1.430877685546875,1.565582275390625,0.552093505859375
1686425625834612500,9.329612548828125,1.9073028564453125,1.2233123779296875,0.3668670654296875
1686425625844558600,9.33955859375,0.43603515625,1.1230316162109375,0.2258758544921875
1686425625854503400,9.34950341796875,-0.24560546875,0.92913818359375,0.1219024658203125
1686425625864448500,9.359448486328125,-0.125274658203125,0.6473236083984375,-0.0714569091796875
1686425625874394400,9.369394287109374,-0.0074462890625,0.477508544921875,-0.2735443115234375
1686425625884339500,9.37933935546875,-0.0734100341796875,0.422119140625,-0.2536773681640625
1686425625894284500,9.389284423828125,-0.19219970703125,0.380828857421875,-0.164520263671875
1686425625904230700,9.399230712890626,-0.21405029296875,0.298828125,-0.0954437255859375
1686425625914175500,9.409175537109375,-0.1987152099609375,0.2358245849609375,-0.0355682373046875
1686425625924121300,9.419121337890624,-0.2116241455078125,0.2017822265625,-0.0064544677734375
1686425625934066400,9.42906640625,-0.216156005859375,0.160400390625,0.0002288818359375
1686425625944011500,9.439011474609375,-0.2159881591796875,0.142974853515625,0.02093505859375
1686425625953957600,9.44895751953125,-0.2302093505859375,0.1534881591796875,0.0718536376953125
1686425625963902500,9.45890234375,-0.2404937744140625,0.1852264404296875,0.10455322265625
1686425625973847300,9.468847412109374,-0.25030517578125,0.2417449951171875,0.09014892578125
1686425625983793400,9.47879345703125,-0.2398834228515625,0.305572509765625,0.0670928955078125
1686425625993738500,9.488738525390625,-0.2469635009765625,0.4305572509765625,0.062408447265625
1686425626003683600,9.49868359375,-0.338348388671875,0.6459503173828125,0.0881805419921875
1686425626013629400,9.50862939453125,-0.5316162109375,0.9141387939453125,0.058349609375
1686425626023574500,9.518574462890625,-0.8016357421875,1.14947509765625,-0.1175384521484375
1686425626033520400,9.528520263671876,-1.0510406494140625,1.4138336181640625,-0.1952972412109375
1686425626043465700,9.5384658203125,-0.9210662841796875,1.6353302001953125,0.0144805908203125
1686425626053410600,9.54841064453125,-0.7633819580078125,1.7646484375,0.073486328125
1686425626063356400,9.5583564453125,-0.6605072021484375,1.8871002197265625,0.39404296875
1686425626073301500,9.568301513671875,-0.4004669189453125,2.029327392578125,0.74188232421875
1686425626083246600,9.57824658203125,-0.0449676513671875,2.18695068359375,0.714141845703125
1686425626093192700,9.588192626953125,0.3828125,2.3944244384765625,0.6125335693359375
1686425626103137500,9.598137451171874,0.7286224365234375,2.58734130859375,0.5945587158203125
1686425626113082400,9.608082275390625,0.6037139892578125,2.5010986328125,0.6433868408203125
1686425626123028500,9.618028564453125,0.4283447265625,2.0384368896484375,0.7999725341796875
1686425626132973300,9.627973388671874,0.503143310546875,1.5834503173828125,1.0046539306640625
1686425626142919400,9.63791943359375,0.70166015625,1.283905029296875,1.1016693115234375
1686425626152864500,9.647864501953125,0.81658935546875,1.0728607177734375,1.0022125244140625
1686425626162809600,9.6578095703125,0.5782012939453125,0.9666290283203125,0.837738037109375
1686425626172755500,9.66775537109375,0.33197021484375,0.7515716552734375,0.763031005859375
1686425626182700300,9.6777001953125,0.1408538818359375,0.38519287109375,0.6506195068359375
1686425626192645600,9.687645751953125,-1.007843017578125,-0.1576690673828125,0.1174468994140625
1686425626202591500,9.697591552734375,-1.09375,-0.6340484619140625,0.1730499267578125
1686425626212536600,9.70753662109375,0.5085601806640625,-0.5704193115234375,0.68267822265625
1686425626222481400,9.7174814453125,0.1445159912109375,-0.4312744140625,0.29913330078125
1686425626232427500,9.727427490234374,0.243194580078125,-0.171875,0.213134765625
1686425626242372600,9.73737255859375,0.2712860107421875,-0.0989532470703125,0.0926513671875
1686425626252317400,9.7473173828125,0.230560302734375,-0.1488494873046875,-0.0023040771484375
1686425626262263600,9.757263671875,0.2074432373046875,-0.106964111328125,0.0141754150390625
1686425626272208400,9.76720849609375,0.189361572265625,0.0030059814453125,0.0419921875
1686425626282154500,9.777154541015625,0.1576080322265625,0.0899658203125,0.0163421630859375
1686425626292099600,9.787099609375,0.1133575439453125,0.1260528564453125,-0.0011749267578125
1686425626302044400,9.79704443359375,0.036773681640625,0.163421630859375,0.03741455078125
1686425626311990500,9.806990478515624,-0.1489105224609375,0.244110107421875,0.039947509765625
1686425626321935400,9.816935302734375,-0.37255859375,0.4257354736328125,0.0616302490234375
1686425626331881000,9.826880859375,-0.58013916015625,0.7318878173828125,-0.109283447265625
1686425626341827000,9.8368271484375,-0.89581298828125,1.4127197265625,-0.1793212890625
1686425626351772200,9.846772216796875,-0.830963134765625,2.219390869140625,0.464447021484375
1686425626361717000,9.856717041015624,-0.130645751953125,2.8671875,0.9013519287109375
1686425626371663000,9.8666630859375,0.0736846923828125,2.7415313720703125,1.1956024169921875
1686425626381608000,9.87660791015625,-0.0691680908203125,1.7814788818359375,1.2458953857421875
1686425626391554000,9.886553955078124,-0.02703857421875,1.046234130859375,0.8941802978515625
1686425626401499100,9.8964990234375,-0.1483612060546875,0.8498687744140625,0.6423797607421875
1686425626411444000,9.90644384765625,-0.304962158203125,0.9611968994140625,0.5773773193359375
1686425626421390000,9.91639013671875,-0.381134033203125,1.1044158935546875,0.46697998046875
1686425626431335000,9.9263349609375,-0.6156463623046875,1.479095458984375,0.7880401611328125
1686425626441280000,9.936280029296874,-0.78765869140625,1.9671783447265625,1.0462799072265625
1686425626451226000,9.94622607421875,-0.5627899169921875,2.2027435302734375,1.097259521484375
1686425626461171200,9.956171142578125,-0.118011474609375,2.0207672119140625,1.41925048828125
1686425626471116000,9.966115966796876,1.281402587890625,1.5463104248046875,0.675018310546875
1686425626481062000,9.976061767578125,2.0513763427734375,1.262054443359375,0.4243927001953125
1686425626491007000,9.986007080078124,0.581329345703125,1.1494293212890625,0.2110443115234375
1686425626500952000,9.9959521484375,-0.2313385009765625,1.008392333984375,0.0399017333984375
1686425626510898200,10.005898193359375,-0.180023193359375,0.7714385986328125,0.026641845703125
1686425626520843000,10.015843017578124,-0.0144195556640625,0.6119537353515625,-0.1075286865234375
1686425626530789000,10.0257890625,0.042205810546875,0.55645751953125,-0.186676025390625
1686425626540734000,10.03573388671875,-0.0987548828125,0.5142364501953125,-0.192840576171875
1686425626550679000,10.045678955078126,-0.2024078369140625,0.4187469482421875,-0.1407928466796875
1686425626560625200,10.055625244140625,-0.1892242431640625,0.2820892333984375,-0.04522705078125
1686425626570570000,10.065570068359374,-0.129302978515625,0.1757659912109375,0.027801513671875
1686425626580515000,10.07551513671875,-0.1440582275390625,0.1060333251953125,0.076568603515625
1686425626590461000,10.0854609375,-0.2084503173828125,0.089019775390625,0.1063690185546875
1686425626600406000,10.095406005859376,-0.2381744384765625,0.090240478515625,0.112274169921875
1686425626610351000,10.10535107421875,-0.234588623046875,0.1106414794921875,0.1251983642578125
1686425626620297000,10.115296875,-0.200439453125,0.1444091796875,0.1249847412109375
1686425626630242000,10.125241943359375,-0.1596221923828125,0.200531005859375,0.11883544921875
1686425626640188000,10.13518798828125,-0.1648406982421875,0.324859619140625,0.11224365234375
1686425626650133200,10.14513330078125,-0.240570068359375,0.5655517578125,0.1444244384765625
1686425626660078000,10.155078125,-0.53338623046875,0.9170684814453125,0.1644744873046875
1686425626670024200,10.165024169921875,-1.0111846923828125,1.31561279296875,0.1038055419921875
1686425626679969000,10.174968994140626,-1.34320068359375,1.587127685546875,-0.039642333984375
1686425626689914000,10.1849140625,-0.9971466064453125,1.6552886962890625,0.1255950927734375
1686425626699860000,10.19485986328125,-0.6428680419921875,1.813323974609375,0.12042236328125
1686425626709805000,10.20480517578125,-0.5331573486328125,1.9291839599609375,0.28411865234375
1686425626719750000,10.21475,-0.2706146240234375,1.9221649169921875,0.7250823974609375
1686425626729696000,10.224696044921876,0.0929107666015625,1.909698486328125,0.773651123046875
1686425626739640800,10.234640869140625,0.3523406982421875,1.9680328369140625,0.575531005859375
1686425626749586200,10.244586181640624,0.3851776123046875,2.0944671630859375,0.474822998046875
1686425626759532000,10.254531982421875,0.306854248046875,2.1688995361328125,0.60107421875
1686425626769477000,10.26447705078125,0.407623291015625,2.0149993896484375,0.8664703369140625
1686425626779423000,10.274423095703124,0.65399169921875,1.5587921142578125,0.8785858154296875
1686425626789368000,10.2843681640625,0.9670562744140625,1.1036376953125,0.814422607421875
1686425626799313200,10.294313232421874,0.9432830810546875,0.8317718505859375,1.052825927734375
1686425626809259000,10.304259033203126,0.5539398193359375,0.7839202880859375,1.0853118896484375
1686425626819204000,10.3142041015625,0.1668701171875,0.7332000732421875,0.9552459716796875
1686425626829149000,10.32414892578125,-0.0464324951171875,0.414276123046875,0.810211181640625
1686425626839095000,10.334094970703125,-0.2835845947265625,0.0165252685546875,0.5796356201171875
1686425626849040100,10.3440400390625,-0.3019561767578125,-0.134918212890625,0.3655548095703125
1686425626858985000,10.35398486328125,-0.061126708984375,-0.0050201416015625,0.289794921875
1686425626868931000,10.36393115234375,0.0512237548828125,0.172637939453125,0.3396759033203125
1686425626878876000,10.3738759765625,0.06146240234375,0.153045654296875,0.2784881591796875
1686425626888822000,10.383822021484375,0.03851318359375,0.1675262451171875,0.25091552734375
1686425626898767000,10.39376708984375,0.0399017333984375,-0.12274169921875,0.0252227783203125
1686425626908712200,10.403712158203126,0.1662139892578125,-0.27728271484375,-0.0637664794921875
1686425626918658000,10.413657958984375,0.1969146728515625,-0.1799774169921875,-0.094940185546875
1686425626928603000,10.423602783203124,0.2243194580078125,0.05694580078125,-0.0093536376953125
1686425626938548000,10.4335478515625,0.22381591796875,0.1761932373046875,0.042205810546875
1686425626948494000,10.443494140625,0.15234375,0.2275390625,0.0909423828125
1686425626958439200,10.453439208984374,-0.081329345703125,0.3018798828125,0.1246490478515625
1686425626968384000,10.463384033203125,-0.3843231201171875,0.42584228515625,0.09051513671875
1686425626978330000,10.473330078125,-0.6292877197265625,0.6201934814453125,-0.185089111328125
1686425626988275000,10.48327490234375,-0.935028076171875,1.2947845458984375,-0.36590576171875
1686425626998220800,10.493220703125,-0.6606292724609375,2.1887054443359375,0.609466552734375
1686425627008166100,10.503166259765624,0.0598297119140625,2.817138671875,1.5353240966796875
1686425627018111000,10.513111083984375,0.2108917236328125,2.4462890625,1.396942138671875
1686425627028057000,10.52305712890625,-0.0495758056640625,1.608642578125,1.13238525390625
1686425627038002000,10.533001953125,-0.2241668701171875,1.0083160400390625,0.9403228759765625
1686425627047947000,10.542947021484375,-0.280242919921875,0.77764892578125,0.667938232421875
1686425627057893000,10.55289306640625,-0.2719268798828125,0.7643585205078125,0.403411865234375
1686425627067838000,10.562837890625,-0.357940673828125,0.88238525390625,0.5218048095703125
1686425627077783000,10.572782958984375,-0.535369873046875,1.19647216796875,0.8102264404296875
1686425627087729000,10.58272900390625,-0.6514434814453125,1.5441741943359375,0.8945770263671875
1686425627097674200,10.59267431640625,-0.5645904541015625,1.7694549560546875,0.8747711181640625
1686425627107619000,10.602619140625,-0.221923828125,1.826751708984375,0.938934326171875
1686425627117565200,10.612565185546876,0.3091888427734375,1.6914825439453125,1.0001678466796875
1686425627127510000,10.622510009765625,1.088409423828125,1.430206298828125,0.805572509765625
1686425627137455900,10.632455810546874,1.171051025390625,1.2010040283203125,0.538482666015625
1686425627147401200,10.642401123046875,0.3933258056640625,1.092926025390625,0.384918212890625
1686425627157346000,10.652345947265625,0.0662994384765625,0.9819488525390625,0.4114990234375
1686425627167292200,10.662292236328126,0.0656280517578125,0.8281402587890625,0.2193603515625
1686425627177237000,10.672237060546875,0.108306884765625,0.7679595947265625,-0.0526123046875
1686425627187181800,10.682181884765624,0.0644378662109375,0.71734619140625,-0.0977935791015625
1686425627197128000,10.6921279296875,-0.0880279541015625,0.59478759765625,-0.0528717041015625
1686425627207073000,10.702072998046875,-0.2213592529296875,0.44329833984375,0.00384521484375
1686425627217018000,10.71201806640625,-0.270050048828125,0.30706787109375,0.015411376953125
1686425627226964000,10.7219638671875,-0.241607666015625,0.196563720703125,0.0176544189453125
1686425627236909000,10.731908935546874,-0.2008819580078125,0.144927978515625,0.0564422607421875
1686425627246855000,10.74185498046875,-0.15008544921875,0.120697021484375,0.0694732666015625
1686425627256800000,10.751800048828125,-0.1151123046875,0.103057861328125,0.0743408203125
1686425627266745000,10.7617451171875,-0.11163330078125,0.0912017822265625,0.0968475341796875
1686425627276691000,10.77169091796875,-0.1309967041015625,0.08917236328125,0.165557861328125
1686425627286636000,10.781635986328125,-0.12353515625,0.1031494140625,0.150421142578125
1686425627296581000,10.7915810546875,-0.1196441650390625,0.1527862548828125,0.1109771728515625
1686425627306527200,10.80152734375,-0.145050048828125,0.286895751953125,0.055816650390625
1686425627316472000,10.81147216796875,-0.2339019775390625,0.5392303466796875,-0.0693511962890625
1686425627326417000,10.8214169921875,-0.48016357421875,0.8694915771484375,-0.11181640625
1686425627336362800,10.83136279296875,-0.9275970458984375,1.2355499267578125,-0.1100616455078125
1686425627346307800,10.841307861328126,-1.334075927734375,1.584716796875,0.0007781982421875
1686425627356254000,10.85125390625,-1.2055511474609375,1.9044952392578125,0.0868377685546875
1686425627366198800,10.86119873046875,-0.936492919921875,2.10418701171875,0.136566162109375
1686425627376143600,10.8711435546875,-0.67138671875,2.0369873046875,0.746551513671875
1686425627386089700,10.88108984375,-0.3526153564453125,1.983917236328125,1.1381988525390625
1686425627396034800,10.891034912109374,-0.011138916015625,2.089385986328125,1.0182342529296875
1686425627405980000,10.90097998046875,0.25982666015625,2.26898193359375,0.7350006103515625
1686425627415925800,10.91092578125,0.4897613525390625,2.3515777587890625,0.6455078125
1686425627425870800,10.920870849609376,0.6192626953125,2.3013916015625,0.77001953125
1686425627435816000,10.93081591796875,0.7213134765625,1.9645843505859375,0.8739471435546875
1686425627445761800,10.94076171875,0.8769683837890625,1.4380950927734375,0.9463653564453125
1686425627455707000,10.950706787109375,0.9858245849609375,0.9962158203125,1.0791778564453125
1686425627465652700,10.96065283203125,0.7882843017578125,0.794189453125,1.0966644287109375
1686425627475597800,10.970597900390626,0.4330596923828125,0.7576446533203125,0.9681854248046875
1686425627485542700,10.980542724609375,0.1741485595703125,0.5568084716796875,0.883209228515625
1686425627495488800,10.99048876953125,0.0401611328125,0.2452392578125,0.718170166015625
1686425627505433900,11.000433837890625,-0.1061859130859375,-0.0688934326171875,0.521270751953125
1686425627515378700,11.010378662109375,-0.200653076171875,-0.2926025390625,0.333892822265625
1686425627525324800,11.02032470703125,-0.2379913330078125,-0.2908477783203125,0.1642913818359375
1686425627535269600,11.03026953125,-0.1743316650390625,-0.2033538818359375,0.012420654296875
1686425627545215000,11.040215087890624,-0.0679931640625,-0.1680755615234375,-0.0506134033203125
1686425627555160800,11.050160888671876,-0.0005645751953125,-0.12493896484375,-0.0913848876953125
1686425627565105700,11.060105712890625,0.067840576171875,-0.0829315185546875,-0.12188720703125
1686425627575051800,11.0700517578125,0.135101318359375,0.000946044921875,-0.128448486328125
1686425627584996600,11.07999658203125,0.1743621826171875,0.1009063720703125,-0.0420379638671875
1686425627594942000,11.08994189453125,0.2279510498046875,0.1483306884765625,0.072540283203125
1686425627604887800,11.0998876953125,0.2879638671875,0.1669464111328125,0.1147308349609375
1686425627614833000,11.1098330078125,0.197723388671875,0.19793701171875,0.138763427734375
1686425627624777700,11.11977783203125,-0.137664794921875,0.28582763671875,0.189361572265625
1686425627634723800,11.129723876953125,-0.4857025146484375,0.4188385009765625,0.216766357421875
1686425627644669000,11.1396689453125,-0.7018585205078125,0.63836669921875,-0.1236724853515625
1686425627654613800,11.14961376953125,-1.01568603515625,1.376495361328125,-0.1253814697265625
1686425627664559900,11.159559814453125,-0.6198577880859375,2.3224029541015625,0.76678466796875
1686425627674504700,11.169504638671874,0.201416015625,2.8033294677734375,1.324981689453125
1686425627684449800,11.17944970703125,0.309661865234375,2.388031005859375,1.361602783203125
1686425627694396000,11.18939599609375,0.0570068359375,1.5722198486328125,1.188507080078125
1686425627704340700,11.1993408203125,-0.1229400634765625,0.98736572265625,0.941192626953125
1686425627714286800,11.209286865234375,-0.2788543701171875,0.72625732421875,0.811981201171875
1686425627724231700,11.219231689453125,-0.4260101318359375,0.72589111328125,0.824462890625
1686425627734176800,11.2291767578125,-0.4828033447265625,0.932769775390625,0.8444061279296875
1686425627744122600,11.23912255859375,-0.487701416015625,1.2033538818359375,0.8974609375
1686425627754068000,11.24906787109375,-0.5172576904296875,1.489044189453125,0.93450927734375
1686425627764012800,11.2590126953125,-0.5110321044921875,1.74908447265625,0.9227752685546875
1686425627773958700,11.268958740234375,-0.326080322265625,1.8155517578125,0.884002685546875
1686425627783903700,11.27890380859375,0.3073883056640625,1.624725341796875,0.6945648193359375
1686425627793848800,11.288848876953125,0.937469482421875,1.352447509765625,0.3690185546875
1686425627803795000,11.298794921875,0.96575927734375,1.132537841796875,0.25518798828125
1686425627813739800,11.30873974609375,0.562469482421875,1.0582427978515625,0.213958740234375
1686425627823686000,11.318685791015625,0.0731048583984375,1.0290985107421875,0.2791748046875
1686425627833630700,11.328630615234376,-0.0543212890625,0.894073486328125,0.21728515625
1686425627843575800,11.338575927734375,-0.007232666015625,0.7909698486328125,0.0405120849609375
1686425627853522000,11.34852197265625,0.008056640625,0.7173614501953125,-0.0156097412109375
1686425627863466800,11.358466796875,-0.0914154052734375,0.5808258056640625,0.0326385498046875
1686425627873411800,11.368411865234375,-0.195343017578125,0.4307098388671875,0.070465087890625
1686425627883357700,11.378357666015624,-0.244873046875,0.3202667236328125,0.1128082275390625
1686425627893302800,11.388302734375,-0.250274658203125,0.2472381591796875,0.1097259521484375
1686425627903248000,11.398247802734375,-0.2076568603515625,0.1699981689453125,0.0932464599609375
1686425627913193700,11.40819384765625,-0.1666412353515625,0.128692626953125,0.0916595458984375
1686425627923138800,11.418138916015625,-0.15447998046875,0.11614990234375,0.093658447265625
1686425627933084700,11.428084716796874,-0.1591949462890625,0.115875244140625,0.09332275390625
1686425627943029800,11.43802978515625,-0.1605987548828125,0.1329803466796875,0.0996856689453125
1686425627952974800,11.447974853515625,-0.18243408203125,0.1892852783203125,0.126373291015625
1686425627962921000,11.4579208984375,-0.2689971923828125,0.3741912841796875,0.146942138671875
1686425627972865800,11.46786572265625,-0.4529266357421875,0.673431396484375,0.0776519775390625
1686425627982810600,11.477810546875,-0.727569580078125,0.9970855712890625,-0.0179290771484375
1686425627992756700,11.4877568359375,-1.1004486083984375,1.2774658203125,-0.12725830078125
1686425628002701800,11.497701904296875,-1.3321990966796875,1.4667205810546875,-0.0682220458984375
1686425628012646700,11.507646728515626,-1.0367279052734375,1.6426544189453125,0.162567138671875
1686425628022592800,11.5175927734375,-0.8343963623046875,1.89385986328125,0.2964019775390625
1686425628032537600,11.52753759765625,-0.5888671875,2.0525970458984375,0.8235015869140625
1686425628042483700,11.537483642578126,-0.0873565673828125,2.16461181640625,1.1398162841796875
1686425628052428800,11.5474287109375,0.3918609619140625,2.2404327392578125,0.9241485595703125
1686425628062374000,11.557373779296874,0.479034423828125,2.3707427978515625,0.6938629150390625
1686425628072319700,11.56731982421875,0.7114105224609375,2.3472900390625,0.66912841796875
1686425628082264800,11.577264892578125,1.0416107177734375,1.976104736328125,0.82159423828125
1686425628092210000,11.5872099609375,0.904296875,1.5029449462890625,0.889404296875
1686425628102155800,11.59715576171875,0.512847900390625,1.2328948974609375,0.97332763671875
1686425628112100900,11.607100830078124,0.3762969970703125,1.0664825439453125,0.8818511962890625
1686425628122045700,11.617045654296875,0.4685516357421875,0.89056396484375,0.805877685546875
1686425628131991800,11.62699169921875,0.437103271484375,0.75787353515625,0.8795318603515625
1686425628141937000,11.63693701171875,0.3796844482421875,0.5607147216796875,0.86773681640625
1686425628151883000,11.646883056640625,0.2099609375,0.252410888671875,0.72479248046875
1686425628161827800,11.656827880859375,-0.2847900390625,-0.0799102783203125,0.46368408203125
1686425628171772700,11.666772705078126,-0.8204193115234375,-0.2906646728515625,0.29119873046875
1686425628181718800,11.67671875,-0.227386474609375,-0.227203369140625,0.353759765625
1686425628191663600,11.68666357421875,-0.02850341796875,-0.2469024658203125,0.05853271484375
1686425628201609000,11.69660888671875,-0.01446533203125,-0.178802490234375,0.1702880859375
1686425628211554800,11.706554931640625,0.1233673095703125,-0.141021728515625,0.12982177734375
1686425628221499600,11.716499755859376,0.3065643310546875,-0.1146697998046875,-0.11077880859375
1686425628231445800,11.72644580078125,0.3016357421875,0.0393829345703125,0.0139007568359375
1686425628241390600,11.736390625,0.28973388671875,0.1015167236328125,0.129547119140625
1686425628251336000,11.7463359375,0.2163543701171875,0.0603790283203125,0.0962677001953125
1686425628261281800,11.75628173828125,0.1563568115234375,0.0482330322265625,0.0672454833984375
1686425628271227000,11.766226806640624,0.0713043212890625,0.117462158203125,0.1131439208984375
1686425628281171700,11.776171630859375,-0.165435791015625,0.2257080078125,0.13690185546875
1686425628291117800,11.786117919921875,-0.517852783203125,0.3740386962890625,0.1089630126953125
1686425628301063000,11.79606298828125,-0.90618896484375,0.63507080078125,-0.1431732177734375
1686425628311007700,11.8060078125,-1.26495361328125,1.39593505859375,-0.3166046142578125
1686425628320953900,11.815953857421874,-0.8632659912109375,2.3651885986328125,0.7053985595703125
1686425628330898700,11.825898681640625,0.1854248046875,2.7790069580078125,1.438690185546875
1686425628340843500,11.835843505859375,0.56976318359375,2.2865447998046875,1.16998291015625
1686425628350789400,11.845789306640626,0.486785888671875,1.4772491455078125,1.0487518310546875
1686425628360734500,11.855734375,0.189910888671875,0.867034912109375,0.97125244140625
1686425628370680300,11.865680419921874,-0.121368408203125,0.5785369873046875,0.846221923828125
1686425628380625400,11.87562548828125,-0.396881103515625,0.553985595703125,0.833740234375
1686425628390570500,11.885570556640625,-0.6409149169921875,0.80322265625,0.909515380859375
1686425628400516400,11.895516357421876,-0.8347320556640625,1.2688446044921875,0.9081878662109375
1686425628410461400,11.90546142578125,-0.9146728515625,1.7993316650390625,0.9483489990234375
1686425628420406300,11.91540625,-0.7556610107421875,2.184906005859375,1.2501983642578125
1686425628430352400,11.925352294921876,-0.2842254638671875,2.2634429931640625,1.4623870849609375
1686425628440297500,11.93529736328125,0.4166107177734375,2.041168212890625,1.2219085693359375
1686425628450243600,11.94524365234375,1.05230712890625,1.5981597900390625,0.5088043212890625
1686425628460188400,11.9551884765625,1.2184295654296875,1.274810791015625,0.009979248046875
1686425628470133200,11.96513330078125,0.5440216064453125,1.12921142578125,-0.007171630859375
1686425628480079400,11.975079345703126,-0.067230224609375,1.017364501953125,-0.019989013671875
1686425628490024400,11.9850244140625,-0.124420166015625,0.7388153076171875,-0.1796112060546875
1686425628499969500,11.994969482421874,0.0226898193359375,0.4367523193359375,-0.275543212890625
1686425628509915400,12.004915283203125,0.056182861328125,0.2654266357421875,-0.2523345947265625
1686425628519860200,12.014860107421875,-0.0951995849609375,0.2503814697265625,-0.17901611328125
1686425628529805300,12.024805419921876,-0.2292022705078125,0.2514190673828125,-0.1298370361328125
1686425628539751200,12.034751220703125,-0.2530517578125,0.21142578125,-0.0400543212890625
1686425628549696500,12.044696533203124,-0.21124267578125,0.1444549560546875,0.0479583740234375
1686425628559641300,12.054641357421875,-0.1614532470703125,0.06646728515625,0.08843994140625
1686425628569587500,12.06458740234375,-0.15350341796875,0.005218505859375,0.083648681640625
1686425628579532300,12.0745322265625,-0.146209716796875,-0.0225677490234375,0.09283447265625
1686425628589478100,12.08447802734375,-0.1320343017578125,-0.022308349609375,0.1004486083984375
1686425628599423500,12.094423583984375,-0.133636474609375,-0.002227783203125,0.1144866943359375
1686425628609368300,12.104368408203126,-0.15069580078125,0.0657501220703125,0.1620635986328125
1686425628619314400,12.114314453125,-0.1908111572265625,0.21343994140625,0.192413330078125
1686425628629259300,12.12425927734375,-0.2877044677734375,0.460845947265625,0.116180419921875
1686425628639204400,12.134204345703125,-0.535125732421875,0.8577880859375,0.193878173828125
1686425628649150500,12.144150390625,-0.98193359375,1.4380035400390625,0.0279541015625
1686425628659095300,12.15409521484375,-1.5501556396484375,2.178863525390625,-0.3602142333984375
1686425628669041400,12.16404150390625,-1.6173095703125,2.702880859375,-0.2824249267578125
1686425628678986200,12.173986328125,-1.4245147705078125,2.814483642578125,0.1905670166015625
1686425628688931600,12.183931640625,-1.023956298828125,2.67681884765625,0.5292510986328125
1686425628698877400,12.19387744140625,-0.3015899658203125,2.3380126953125,0.2355499267578125
1686425628708822500,12.203822509765626,0.469085693359375,2.11065673828125,0.175537109375
1686425628718767400,12.213767333984375,1.1454925537109375,2.2066192626953125,0.2220306396484375
1686425628728713200,12.223713134765624,1.387939453125,2.3687591552734375,0.2332305908203125
1686425628738658300,12.233658203125,1.268798828125,2.165496826171875,0.579833984375
1686425628748603400,12.243603271484375,0.73590087890625,1.72894287109375,0.1630401611328125
1686425628758549500,12.253549560546874,0.27362060546875,1.200439453125,0.4504241943359375
1686425628768494300,12.263494384765625,-0.1650390625,0.9373321533203125,0.73455810546875
1686425628778440400,12.2734404296875,0.6100921630859375,1.1102447509765625,0.620758056640625
1686425628788385300,12.28338525390625,0.740875244140625,1.026824951171875,0.8616790771484375
1686425628798330400,12.293330322265625,0.367919921875,0.995513916015625,0.6942596435546875
1686425628808276500,12.3032763671875,0.0827789306640625,0.6435394287109375,0.70245361328125
1686425628818221300,12.31322119140625,0.0933990478515625,0.3079071044921875,0.52947998046875
1686425628828166400,12.32316650390625,0.109466552734375,0.000213623046875,0.613739013671875
1686425628838112300,12.3331123046875,0.036590576171875,-0.15802001953125,0.550018310546875
1686425628848057300,12.343057373046875,-0.1067657470703125,-0.2374114990234375,0.315093994140625
1686425628858002400,12.35300244140625,-0.0738983154296875,-0.3057403564453125,0.2000885009765625
1686425628867948300,12.3629482421875,-0.009124755859375,-0.3583526611328125,0.033477783203125
1686425628877893400,12.372893310546875,-0.0005950927734375,-0.3686676025390625,-0.13671875
1686425628887839200,12.382839111328124,0.029571533203125,-0.340118408203125,-0.198089599609375
1686425628897784600,12.39278466796875,0.0576629638671875,-0.216949462890625,-0.1383514404296875
1686425628907729400,12.4027294921875,0.11492919921875,-0.041229248046875,-0.0878753662109375
1686425628917675300,12.41267529296875,0.14300537109375,0.08184814453125,-0.0830535888671875
1686425628927620400,12.422620361328125,0.071685791015625,0.1595306396484375,-0.0696258544921875
1686425628937565400,12.4325654296875,-0.0883026123046875,0.1901702880859375,-0.0172271728515625
1686425628947511600,12.442511474609375,-0.2922515869140625,0.1942291259765625,0.029998779296875
1686425628957456400,12.452456298828125,-0.4677886962890625,0.2886199951171875,0.029876708984375
1686425628967401200,12.462401123046876,-0.7152252197265625,1.1638641357421875,0.0818328857421875
1686425628977347300,12.472347412109375,-0.480987548828125,3.568359375,0.1257476806640625
1686425628987292400,12.48229248046875,-0.1312103271484375,4.6856536865234375,0.9336090087890625
1686425628997238300,12.49223828125,-0.664520263671875,3.1126251220703125,0.64697265625
1686425629007183400,12.502183349609375,-0.5455780029296875,1.4688568115234375,0.309478759765625
1686425629017128400,12.51212841796875,-0.2904815673828125,0.7592010498046875,0.3719024658203125
1686425629027074300,12.52207421875,-0.1758270263671875,0.61083984375,0.3878936767578125
1686425629037019400,12.532019287109375,-0.169189453125,0.701263427734375,0.409149169921875
1686425629046964500,12.541964599609376,-0.2481231689453125,0.8381805419921875,0.3636627197265625
1686425629056910300,12.551910400390625,-0.4150238037109375,1.1483612060546875,0.3929901123046875
1686425629066855400,12.56185546875,-0.6197662353515625,1.7486572265625,0.39813232421875
1686425629076800300,12.57180029296875,-0.6508636474609375,2.3995819091796875,0.29046630859375
1686425629086746400,12.581746337890625,-0.4463348388671875,2.615386962890625,0.146270751953125
1686425629096691500,12.59169140625,-0.04217529296875,2.320343017578125,0.100982666015625
1686425629106637600,12.601637451171875,0.35943603515625,1.914642333984375,0.0944366455078125
1686425629116582400,12.61158251953125,0.548370361328125,1.54632568359375,-0.0265350341796875
1686425629126527200,12.62152734375,0.6182098388671875,1.1962890625,-0.22442626953125
1686425629136473300,12.631473388671875,0.65911865234375,0.737091064453125,-0.3566436767578125
1686425629146418400,12.64141845703125,0.599334716796875,0.4375762939453125,-0.372955322265625
1686425629156363500,12.651363525390625,0.3324432373046875,0.4037017822265625,-0.33819580078125
1686425629166309400,12.661309326171875,0.1116180419921875,0.3571014404296875,-0.327362060546875
1686425629176254200,12.671254150390626,-0.0766143798828125,0.3217926025390625,-0.21881103515625
1686425629186199600,12.681199462890625,-0.224639892578125,0.22064208984375,-0.064056396484375
1686425629196145400,12.6911455078125,-0.2846527099609375,0.06536865234375,-0.0577545166015625
1686425629206090500,12.701090576171875,-0.24737548828125,0.0705718994140625,0.00689697265625
1686425629216036400,12.711036376953125,-0.1219940185546875,-0.059783935546875,0.0354766845703125
1686425629225981400,12.7209814453125,-0.0834808349609375,-0.1201934814453125,0.0762176513671875
1686425629235926300,12.73092626953125,-0.084442138671875,-0.133087158203125,0.0709686279296875
1686425629245872400,12.740872314453124,-0.106658935546875,-0.1408843994140625,0.0667877197265625
1686425629255817500,12.7508173828125,-0.1732025146484375,-0.13616943359375,0.086669921875
1686425629265762300,12.76076220703125,-0.2115325927734375,-0.1201934814453125,0.103973388671875
1686425629275708400,12.77070849609375,-0.2845001220703125,-0.108184814453125,0.1271209716796875
1686425629285653200,12.7806533203125,-0.550750732421875,-0.06390380859375,0.2357635498046875
1686425629295599400,12.790599365234375,-0.94091796875,0.121917724609375,0.3328094482421875
1686425629305544400,12.80054443359375,-1.22149658203125,0.3439483642578125,0.0787353515625
1686425629315489300,12.8104892578125,-1.3834381103515625,0.749664306640625,-0.2687835693359375
1686425629325435400,12.820435302734374,-1.5287017822265625,3.0044097900390625,-1.0461883544921875
1686425629335381000,12.830381103515625,-1.734039306640625,5.1775360107421875,-0.9961700439453125
1686425629345326000,12.840326171875,-0.8091888427734375,4.9688873291015625,-0.5135345458984375
1686425629355272000,12.85027197265625,1.0531158447265625,3.8511199951171875,-0.6485137939453125
1686425629365217300,12.86021728515625,2.42987060546875,3.0102081298828125,-0.72314453125
1686425629375162000,12.870162109375,1.6110076904296875,2.17498779296875,-0.529998779296875
1686425629385108200,12.880108154296876,0.4905242919921875,1.6334075927734375,-0.471099853515625
1686425629395053000,12.890052978515625,0.0879974365234375,1.521697998046875,-0.3392486572265625
1686425629404999000,12.8999990234375,0.0728302001953125,1.527618408203125,-0.1094207763671875
1686425629414944300,12.9099443359375,0.1748046875,1.4491729736328125,0.1097412109375
1686425629424889000,12.91988916015625,0.2157135009765625,1.3485870361328125,0.30474853515625
1686425629434835200,12.929835205078126,0.21417236328125,1.2822113037109375,0.4124298095703125
1686425629444780000,12.939780029296875,0.0245361328125,1.201080322265625,0.4780731201171875
1686425629454725000,12.94972509765625,-0.0296173095703125,0.9950714111328125,0.48876953125
1686425629464671200,12.959671142578125,-0.0377655029296875,0.600616455078125,0.4554901123046875
1686425629474616000,12.969615966796875,-0.00537109375,0.1685638427734375,0.42169189453125
1686425629484561200,12.97956103515625,0.0705718994140625,-0.134918212890625,0.54925537109375
1686425629494507000,12.989507080078125,0.1772613525390625,-0.3602752685546875,0.5321044921875
1686425629504452400,12.999452392578124,0.234710693359375,-0.5098419189453125,0.2306060791015625
