time,seconds_elapsed,z,y,x
1686425616611559400,0.106559326171875,-50.3084716796875,-2.9738502502441406,-1.6391983032226562
1686425616621504300,0.116504150390625,-50.35101318359375,-2.9484291076660156,-1.282562255859375
1686425616631450400,0.126450439453125,-50.32890319824219,-2.9575767517089844,-1.004669189453125
1686425616641395500,0.1363955078125,-50.34056091308594,-2.7635498046875,0.01395416259765625
1686425616651340500,0.146340576171875,-50.07428741455078,-2.619232177734375,1.195159912109375
1686425616661286400,0.156286376953125,-50.00481414794922,-2.113739013671875,1.8337326049804688
1686425616671231200,0.166231201171875,-49.82197570800781,-1.9284439086914062,2.5023269653320312
1686425616681176300,0.17617626953125,-50.069923400878906,-2.1729812622070312,2.9282684326171875
1686425616691122200,0.1861220703125,-49.88805389404297,-2.350025177001953,3.720947265625
1686425616701067500,0.196067626953125,-49.66742706298828,-2.4300498962402344,4.664726257324219
1686425616711012400,0.206012451171875,-50.03223419189453,-2.8580169677734375,5.87939453125
1686425616720958500,0.21595849609375,-49.499237060546875,-3.00115966796875,6.893608093261719
1686425616730903300,0.2259033203125,-49.2587890625,-3.1239242553710938,8.016075134277344
1686425616740848400,0.235848388671875,-48.781288146972656,-3.5021705627441406,9.155967712402344
1686425616750794500,0.24579443359375,-48.906005859375,-3.6312942504882812,10.534523010253906
1686425616760739300,0.2557392578125,-48.906005859375,-3.6312942504882812,10.534523010253906
1686425616770684400,0.265684326171875,-48.895362854003906,-3.6910438537597656,11.638870239257812
1686425616780630300,0.27563037109375,-48.13994598388672,-3.8665733337402344,12.702713012695312
1686425616790575400,0.285575439453125,-47.892616271972656,-3.644153594970703,13.756866455078125
1686425616800520400,0.2955205078125,-47.55382537841797,-3.7965850830078125,14.900062561035156
1686425616810466300,0.30546630859375,-47.561798095703125,-3.731670379638672,15.615509033203125
1686425616820411400,0.315411376953125,-47.184593200683594,-3.5803146362304688,16.567672729492188
1686425616830356500,0.3253564453125,-47.043052673339844,-3.446155548095703,17.58386993408203
1686425616840302600,0.335302490234375,-46.501220703125,-3.588848114013672,18.80926513671875
1686425616850247400,0.345247314453125,-45.97673034667969,-3.6143646240234375,20.358055114746094
1686425616860192300,0.355192138671875,-44.85631561279297,-3.6936187744140625,21.92870330810547
1686425616870137300,0.365137451171875,-44.06463623046875,-4.2096405029296875,23.745582580566406
1686425616880083200,0.375083251953125,-42.507598876953125,-4.754810333251953,25.619773864746094
1686425616890028500,0.385028564453125,-41.11351013183594,-5.517597198486328,27.15326690673828
1686425616899973400,0.394973388671875,-39.796165466308594,-6.302501678466797,28.659812927246094
1686425616909919200,0.404919189453125,-38.43699645996094,-6.972499847412109,30.043495178222656
1686425616919864300,0.4148642578125,-37.119903564453125,-7.92926025390625,31.491195678710938
1686425616929809400,0.424809326171875,-35.66460418701172,-8.395824432373047,32.73030090332031
1686425616939755500,0.434755615234375,-33.79907989501953,-9.07448959350586,34.10932159423828
1686425616949700400,0.444700439453125,-32.18199157714844,-9.517833709716797,35.49043273925781
1686425616959645200,0.454645263671875,-29.771949768066406,-10.125652313232422,36.92854309082031
1686425616969591300,0.46459130859375,-27.00615692138672,-10.853633880615234,38.983070373535156
1686425616979536400,0.474536376953125,-24.063323974609375,-11.063762664794922,40.58494567871094
1686425616989481500,0.4844814453125,-21.340591430664062,-11.08913803100586,41.961814880371094
1686425616999427300,0.49442724609375,-18.653053283691406,-10.508892059326172,42.890113830566406
1686425617009372400,0.504372314453125,-17.22039031982422,-9.859622955322266,43.72064971923828
1686425617019317500,0.5143173828125,-16.20026397705078,-8.97482681274414,44.342750549316406
1686425617029263400,0.524263427734375,-15.31585693359375,-7.796760559082031,44.92523956298828
1686425617039208400,0.53420849609375,-14.908599853515625,-6.287807464599609,45.289878845214844
1686425617049153300,0.5441533203125,-14.96356201171875,-4.599514007568359,45.319175720214844
1686425617059099400,0.554099365234375,-15.388442993164062,-2.752826690673828,45.51990509033203
1686425617069044200,0.564044189453125,-15.557403564453125,-0.7779502868652344,45.536766052246094
1686425617078989300,0.5739892578125,-16.373306274414062,1.1242523193359375,45.358665466308594
1686425617088935400,0.583935302734375,-16.79113006591797,2.947601318359375,45.008094787597656
1686425617098880300,0.59388037109375,-17.33490753173828,4.265113830566406,44.677879333496094
1686425617108825300,0.603825439453125,-18.145538330078125,5.675144195556641,44.45940399169922
1686425617118771200,0.613771240234375,-18.74858856201172,6.242160797119141,44.11139678955078
1686425617128716500,0.623716552734375,-19.196311950683594,6.9249725341796875,43.820213317871094
1686425617138661400,0.633661376953125,-20.38720703125,7.162502288818359,43.33091735839844
1686425617148607200,0.643607177734375,-21.556793212890625,7.4249114990234375,42.856971740722656
1686425617158552300,0.65355224609375,-22.924949645996094,7.450016021728516,42.358795166015625
1686425617168497400,0.663497314453125,-23.827239990234375,6.952220916748047,41.98213195800781
1686425617178442500,0.6734423828125,-24.663352966308594,6.44244384765625,41.4967041015625
1686425617188388400,0.683388427734375,-25.715133666992188,5.670963287353516,41.26478576660156
1686425617198333200,0.693333251953125,-26.31523895263672,5.123989105224609,40.6539306640625
1686425617208278500,0.703278564453125,-27.043296813964844,4.7572021484375,40.17426300048828
1686425617218224400,0.713224365234375,-27.696517944335938,4.175464630126953,39.938377380371094
1686425617228169500,0.72316943359375,-28.25836181640625,3.761383056640625,39.49376678466797
1686425617238114300,0.7331142578125,-28.491683959960938,3.6678733825683594,39.231903076171875
1686425617248060400,0.743060302734375,-28.78832244873047,3.523223876953125,38.970863342285156
1686425617258005500,0.753005615234375,-29.123939514160156,3.3270492553710938,38.857322692871094
1686425617267950300,0.762950439453125,-29.058799743652344,2.905628204345703,38.79328918457031
1686425617277896400,0.772896484375,-28.916000366210938,2.725170135498047,39.14672088623047
1686425617287841300,0.78284130859375,-28.54267120361328,2.1910629272460938,39.58905792236328
1686425617297786400,0.792786376953125,-28.229843139648438,1.6311836242675781,39.74261474609375
1686425617307732200,0.802732177734375,-27.707733154296875,1.3046035766601562,40.00464630126953
1686425617317677300,0.81267724609375,-27.033920288085938,0.9585151672363281,40.207420349121094
1686425617327621400,0.822621337890625,-26.970550537109375,0.5377082824707031,40.518882751464844
1686425617337567200,0.832567138671875,-26.418991088867188,-0.2554740905761719,41.10517883300781
1686425617347512600,0.8425126953125,-25.08281707763672,-1.2750320434570312,41.63655090332031
1686425617357457400,0.85245751953125,-24.088790893554688,-1.9374427795410156,42.40190887451172
1686425617367403300,0.8624033203125,-23.023391723632812,-2.3533973693847656,42.62774658203125
1686425617377348400,0.872348388671875,-22.804702758789062,-2.875194549560547,42.966346740722656
1686425617387293400,0.88229345703125,-22.72589874267578,-3.4566421508789062,42.97527313232422
1686425617397238300,0.89223828125,-22.648040771484375,-4.0246429443359375,42.65381622314453
1686425617407184400,0.902184326171875,-23.11455535888672,-4.291126251220703,42.368080139160156
1686425617417129200,0.912129150390625,-23.554527282714844,-4.7701416015625,42.078590393066406
1686425617427074600,0.922074462890625,-23.434226989746094,-4.893756866455078,42.33739471435547
1686425617437020400,0.9320205078125,-22.953582763671875,-5.184986114501953,42.41133117675781
1686425617446965500,0.941965576171875,-22.575225830078125,-5.120014190673828,42.495323181152344
1686425617456910300,0.951910400390625,-21.866928100585938,-5.029083251953125,42.729949951171875
1686425617466856400,0.9618564453125,-21.34783172607422,-4.916542053222656,43.22370910644531
1686425617476801300,0.97180126953125,-20.734130859375,-4.935947418212891,43.245635986328125
1686425617486746400,0.981746337890625,-20.94305419921875,-5.0909881591796875,43.541542053222656
1686425617496692500,0.9916923828125,-20.633872985839844,-5.141204833984375,43.77814483642578
1686425617506637300,1.00163720703125,-20.281753540039062,-5.088603973388672,43.66474151611328
1686425617516582400,1.01158251953125,-20.25213623046875,-5.144031524658203,43.672874450683594
1686425617526528300,1.0215283203125,-19.745460510253906,-5.274631500244141,43.71869659423828
1686425617536473300,1.031473388671875,-20.12445068359375,-5.215206146240234,43.82202911376953
1686425617546418400,1.04141845703125,-19.97235870361328,-5.580188751220703,43.767127990722656
1686425617556364300,1.0513642578125,-19.97235870361328,-5.580188751220703,43.767127990722656
1686425617566309400,1.061309326171875,-19.737045288085938,-5.963611602783203,43.66393280029297
1686425617576254500,1.07125439453125,-20.03449249267578,-6.266693115234375,43.758522033691406
1686425617586200600,1.08120068359375,-19.93695068359375,-6.3157958984375,43.641319274902344
1686425617596145400,1.0911455078125,-19.77227020263672,-6.5086517333984375,43.740821838378906
1686425617606090200,1.10109033203125,-19.582054138183594,-6.809532165527344,43.940818786621094
1686425617616036400,1.111036376953125,-19.41242218017578,-6.985462188720703,43.63031768798828
1686425617625981400,1.1209814453125,-19.545700073242188,-6.856292724609375,43.50818634033203
1686425617635926500,1.130926513671875,-19.21685791015625,-7.216819763183594,43.512725830078125
1686425617645872400,1.140872314453125,-18.875900268554688,-7.249958038330078,43.635398864746094
1686425617655817200,1.150817138671875,-18.74394989013672,-7.253452301025391,43.562461853027344
1686425617665762300,1.16076220703125,-18.465118408203125,-7.567493438720703,43.844993591308594
1686425617675708400,1.17070849609375,-18.430023193359375,-7.679786682128906,44.06865692138672
1686425617685653500,1.180653564453125,-18.188705444335938,-7.961101531982422,43.95594024658203
1686425617695598300,1.190598388671875,-18.24744415283203,-7.6629486083984375,44.019737243652344
1686425617705543200,1.200543212890625,-18.38994598388672,-7.346813201904297,44.22040557861328
1686425617715489300,1.2104892578125,-18.395484924316406,-6.661949157714844,44.36420440673828
1686425617725434400,1.220434326171875,-18.52703094482422,-6.132335662841797,44.256370544433594
1686425617735379500,1.23037939453125,-18.14618682861328,-5.720405578613281,44.001609802246094
1686425617745325300,1.2403251953125,-18.506332397460938,-5.320102691650391,44.248313903808594
1686425617755270400,1.2502705078125,-18.539505004882812,-5.12646484375,44.40778350830078
1686425617765215500,1.260215576171875,-18.26239013671875,-4.569881439208984,44.325035095214844
1686425617775161300,1.270161376953125,-18.547470092773438,-4.2794342041015625,44.47368621826172
1686425617785106400,1.2801064453125,-18.630767822265625,-3.9350357055664062,44.40727996826172
1686425617795051300,1.29005126953125,-18.5185546875,-3.406097412109375,44.205284118652344
1686425617804997400,1.299997314453125,-18.658981323242188,-2.8601913452148438,44.410377502441406
1686425617814942500,1.3099423828125,-18.600692749023438,-2.258411407470703,44.529258728027344
1686425617824887300,1.31988720703125,-18.028968811035156,-2.1169509887695312,44.698646545410156
1686425617834833400,1.32983349609375,-17.382301330566406,-2.041301727294922,44.99919891357422
1686425617844778200,1.3397783203125,-16.513427734375,-2.0637741088867188,45.314491271972656
1686425617854723300,1.349723388671875,-15.752067565917969,-2.1159934997558594,45.71784210205078
1686425617864669400,1.35966943359375,-15.166473388671875,-1.984222412109375,45.779823303222656
1686425617874614500,1.369614501953125,-14.868759155273438,-1.4489479064941406,45.91297149658203
1686425617884559400,1.379559326171875,-14.390998840332031,-0.9388313293457031,46.04320526123047
1686425617894505200,1.389505126953125,-13.984970092773438,-0.8206214904785156,46.00849151611328
1686425617904450300,1.3994501953125,-13.858726501464844,-0.3214530944824219,45.90509796142578
1686425617914395400,1.4093955078125,-14.516304016113281,-0.002384185791015625,46.01519012451172
1686425617924341500,1.419341552734375,-14.66119384765625,0.12495040893554688,45.795387268066406
1686425617934286300,1.429286376953125,-14.715423583984375,-0.2017974853515625,46.035621643066406
1686425617944231200,1.439231201171875,-15.044624328613281,-0.5254936218261719,45.903541564941406
1686425617954177300,1.44917724609375,-14.557395935058594,-0.9063911437988281,45.72394561767578
1686425617964122400,1.459122314453125,-14.377906799316406,-1.7209968566894531,46.034568786621094
1686425617974067500,1.4690673828125,-13.883811950683594,-2.452117919921875,46.28911590576172
1686425617984013300,1.479013427734375,-13.687355041503906,-2.4861793518066406,46.339942932128906
1686425617993958400,1.48895849609375,-13.097602844238281,-3.2897491455078125,46.390602111816406
1686425618003903500,1.498903564453125,-12.496719360351562,-3.8744659423828125,46.385459899902344
1686425618013849300,1.508849365234375,-11.935745239257812,-4.577426910400391,46.34259796142578
1686425618023794400,1.51879443359375,-11.415306091308594,-4.660160064697266,46.516075134277344
1686425618033739300,1.5287392578125,-11.104698181152344,-4.600788116455078,46.45470428466797
1686425618043685400,1.538685302734375,-10.702430725097656,-4.272796630859375,46.54021453857422
1686425618053630500,1.54863037109375,-11.371261596679688,-3.8147201538085938,46.396751403808594
1686425618063575300,1.5585751953125,-12.290824890136719,-3.0913352966308594,46.26410675048828
1686425618073520400,1.568520263671875,-12.811721801757812,-2.5726776123046875,46.12615203857422
1686425618083466200,1.57846630859375,-13.611175537109375,-2.588226318359375,45.94989776611328
1686425618093411300,1.588411376953125,-14.609542846679688,-2.466930389404297,45.98516082763672
1686425618103356400,1.5983564453125,-14.812370300292969,-2.5658111572265625,45.88249969482422
1686425618113302500,1.608302490234375,-14.68621826171875,-2.2168502807617188,45.811378479003906
1686425618123247400,1.618247314453125,-14.547607421875,-1.6615524291992188,46.03057098388672
1686425618133192200,1.628192138671875,-13.777656555175781,-0.53271484375,46.09459686279297
1686425618143138300,1.63813818359375,-13.515777587890625,0.836944580078125,46.411155700683594
1686425618153083400,1.64808349609375,-13.03466796875,2.6464309692382812,46.475547790527344
1686425618163028500,1.658028564453125,-13.13543701171875,4.412204742431641,46.424903869628906
1686425618172974300,1.667974365234375,-12.69732666015625,5.854648590087891,46.13642120361328
1686425618182919200,1.677919189453125,-12.638259887695312,7.1180267333984375,45.94983673095703
1686425618192864500,1.687864501953125,-12.660476684570312,8.051025390625,45.65064239501953
1686425618202810400,1.697810302734375,-12.488212585449219,9.077442169189453,45.647438049316406
1686425618212755500,1.70775537109375,-12.296554565429688,9.503433227539062,45.63336944580078
1686425618222700300,1.7177001953125,-12.178497314453125,10.132999420166016,45.69225311279297
1686425618232646400,1.727646484375,-12.40594482421875,10.34341049194336,45.77751922607422
1686425618242591500,1.737591552734375,-12.376441955566406,10.92562484741211,45.62934112548828
1686425618252536300,1.747536376953125,-12.415229797363281,11.339122772216797,45.634544372558594
1686425618262482400,1.757482421875,-12.376945495605469,11.400264739990234,45.454734802246094
1686425618272427300,1.76742724609375,-12.192100524902344,11.901657104492188,45.38451385498047
1686425618282372400,1.777372314453125,-11.733131408691406,12.516845703125,45.192604064941406
1686425618292318500,1.787318359375,-12.037452697753906,12.915363311767578,44.95543670654297
1686425618302263300,1.79726318359375,-12.455718994140625,13.569389343261719,44.715858459472656
1686425618312208400,1.80720849609375,-13.241256713867188,13.990291595458984,44.319908142089844
1686425618322154200,1.817154296875,-13.974494934082031,14.206939697265625,44.21984100341797
1686425618332099600,1.827099609375,-13.974494934082031,14.206939697265625,44.21984100341797
1686425618342045000,1.837044921875,-15.036407470703125,15.007438659667969,43.71997833251953
1686425618351990800,1.84699072265625,-15.438934326171875,15.242256164550781,43.53386688232422
1686425618361936000,1.856935791015625,-15.402397155761719,16.0804443359375,43.08649444580078
1686425618371880700,1.866880615234375,-14.929267883300781,17.085105895996094,42.82518768310547
1686425618381826800,1.876826904296875,-14.853431701660156,18.87221908569336,42.36260223388672
1686425618391772000,1.88677197265625,-14.0289306640625,20.82837677001953,41.365882873535156
1686425618401716700,1.896716796875,-12.946853637695312,23.232200622558594,40.35425567626953
1686425618411662800,1.906662841796875,-12.688278198242188,26.065296173095703,39.01683044433594
1686425618421607700,1.916607666015625,-11.745903015136719,29.17119598388672,36.67705535888672
1686425618431552800,1.926552734375,-11.032424926757812,32.450462341308594,33.876731872558594
1686425618441499000,1.936498779296875,-10.302993774414062,35.99563980102539,30.650192260742188
1686425618451443700,1.946443603515625,-9.600196838378906,39.196006774902344,26.50830841064453
1686425618461388800,1.956388916015625,-8.860588073730469,41.944602966308594,22.62530517578125
1686425618471334700,1.966334716796875,-7.7948455810546875,44.032684326171875,18.8382568359375
1686425618481279700,1.97627978515625,-5.703987121582031,45.37279510498047,16.019973754882812
1686425618491224800,1.986224853515625,-3.5353775024414062,46.50416564941406,13.339775085449219
1686425618501171000,1.9961708984375,-1.8843307495117188,46.83131408691406,11.890655517578125
1686425618511115800,2.00611572265625,-1.39697265625,47.39322280883789,10.859046936035156
1686425618521060600,2.016060546875,-0.8015594482421875,47.40481185913086,10.051994323730469
1686425618531006000,2.026005859375,-0.21779632568359375,47.559688568115234,9.463523864746094
1686425618540951800,2.035951904296875,-0.06475067138671875,47.71559143066406,9.088943481445312
1686425618550897000,2.04589697265625,-0.7567062377929688,47.80828857421875,8.64105224609375
1686425618560841700,2.055841796875,-0.788116455078125,47.612857818603516,8.4453125
1686425618570787800,2.065787841796875,-1.1784744262695312,47.97813415527344,8.74383544921875
1686425618580733000,2.07573291015625,-1.990966796875,47.904449462890625,8.538795471191406
1686425618590677800,2.085677734375,-2.8041763305664062,47.91429138183594,8.621551513671875
1686425618600623900,2.095623779296875,-3.345855712890625,47.69084930419922,8.616600036621094
1686425618610568700,2.105568603515625,-3.9022979736328125,47.76250457763672,8.822288513183594
1686425618620513800,2.115513671875,-4.508979797363281,47.66380310058594,9.288497924804688
1686425618630460000,2.1254599609375,-4.9930572509765625,47.38275909423828,9.99658203125
1686425618640404700,2.13540478515625,-5.762725830078125,47.197242736816406,10.695899963378906
1686425618650349800,2.145349853515625,-6.795707702636719,46.81224060058594,11.664146423339844
1686425618660295700,2.155295654296875,-7.904632568359375,46.46258544921875,12.562576293945312
1686425618670240800,2.16524072265625,-8.618949890136719,46.15790557861328,13.167022705078125
1686425618680185900,2.175185791015625,-9.249168395996094,45.74094009399414,13.437179565429688
1686425618690132000,2.185132080078125,-9.069389343261719,45.92840576171875,13.690818786621094
1686425618700076800,2.195076904296875,-9.190704345703125,45.94841003417969,13.570106506347656
1686425618710021600,2.205021728515625,-9.273040771484375,46.10577392578125,12.947319030761719
1686425618719967700,2.2149677734375,-9.368301391601562,46.489280700683594,12.108688354492188
1686425618729912800,2.224912841796875,-9.00421142578125,46.76412582397461,10.886932373046875
1686425618739857700,2.234857666015625,-8.417564392089844,47.02263641357422,9.646125793457031
1686425618749803800,2.2448037109375,-7.918754577636719,47.41265869140625,8.734992980957031
1686425618759748600,2.25474853515625,-6.272621154785156,47.802093505859375,8.176910400390625
1686425618769694000,2.26469384765625,-5.292022705078125,47.87691879272461,7.807975769042969
1686425618779639800,2.274639892578125,-4.393363952636719,48.02566146850586,8.101921081542969
1686425618789585000,2.2845849609375,-3.4330673217773438,48.05308151245117,8.211616516113281
1686425618799529700,2.29452978515625,-3.0558624267578125,48.09325408935547,7.855133056640625
1686425618809475800,2.304475830078125,-3.6404571533203125,48.151832580566406,7.450157165527344
1686425618819421000,2.3144208984375,-5.0941314697265625,48.154300689697266,6.848365783691406
1686425618829365800,2.32436572265625,-7.2602691650390625,48.195701599121094,5.80511474609375
1686425618839312000,2.334311767578125,-9.414329528808594,47.804420471191406,5.020011901855469
1686425618849256700,2.344256591796875,-11.684356689453125,47.48579406738281,4.7109375
1686425618859201800,2.354201904296875,-13.908576965332031,46.742916107177734,4.555107116699219
1686425618869148000,2.36414794921875,-16.07006072998047,46.164466857910156,4.620086669921875
1686425618879092700,2.3740927734375,-17.610694885253906,45.39490509033203,4.5460052490234375
1686425618889037800,2.384037841796875,-19.703330993652344,45.03131866455078,4.824714660644531
1686425618898983700,2.393983642578125,-20.767723083496094,44.4529914855957,4.905296325683594
1686425618908928800,2.4039287109375,-21.272071838378906,43.830108642578125,5.030731201171875
1686425618918873900,2.413873779296875,-21.79497528076172,43.62706756591797,5.490745544433594
1686425618928820000,2.423820068359375,-22.53882598876953,43.4731330871582,6.098762512207031
1686425618938764800,2.433764892578125,-23.10253143310547,43.49729537963867,6.687355041503906
1686425618948709600,2.443709716796875,-23.17578125,42.98079299926758,7.827728271484375
1686425618958655700,2.45365576171875,-23.070449829101562,42.64973831176758,9.250762939453125
1686425618968600800,2.463600830078125,-23.13732147216797,42.516109466552734,10.600791931152344
1686425618978546000,2.4735458984375,-22.465057373046875,41.82514953613281,12.252830505371094
1686425618988491800,2.48349169921875,-21.911788940429688,41.705650329589844,13.587127685546875
1686425618998436600,2.4934365234375,-21.001670837402344,41.758628845214844,14.452850341796875
1686425619008382000,2.5033818359375,-20.06262969970703,42.251258850097656,14.826873779296875
1686425619018327800,2.513327880859375,-18.963844299316406,42.909976959228516,14.288291931152344
1686425619028273000,2.52327294921875,-18.284103393554688,43.577049255371094,13.178329467773438
1686425619038217700,2.5332177734375,-17.286468505859375,44.18144989013672,11.732131958007812
1686425619048163800,2.543163818359375,-15.977638244628906,44.80378341674805,10.635360717773438
1686425619058109000,2.55310888671875,-14.680427551269531,45.40449142456055,10.331802368164062
1686425619068053800,2.5630537109375,-13.371116638183594,45.748497009277344,10.330596923828125
1686425619077999900,2.572999755859375,-11.871612548828125,46.00934982299805,10.52020263671875
1686425619087944700,2.58294482421875,-10.864273071289062,46.397315979003906,10.845100402832031
1686425619097889800,2.592889892578125,-9.242027282714844,46.68483352661133,10.985527038574219
1686425619107835600,2.602835693359375,-7.86871337890625,46.760868072509766,10.943794250488281
1686425619117780700,2.61278076171875,-7.86871337890625,46.760868072509766,10.943794250488281
1686425619127725800,2.622725830078125,-5.8448028564453125,47.033348083496094,11.609016418457031
1686425619137670700,2.632670654296875,-4.172660827636719,47.155338287353516,11.98944091796875
1686425619147616800,2.64261669921875,-2.5195693969726562,47.02153396606445,12.348564147949219
1686425619157561900,2.652561767578125,-0.6660614013671875,46.96536636352539,12.978614807128906
1686425619167506700,2.662506591796875,0.9029693603515625,46.64675521850586,13.417129516601562
1686425619177452800,2.672452880859375,1.7961044311523438,46.316810607910156,13.72259521484375
1686425619187397600,2.682397705078125,2.32049560546875,46.306976318359375,13.974128723144531
1686425619197343000,2.692343017578125,2.4656753540039062,46.109100341796875,14.272972106933594
1686425619207288800,2.702288818359375,2.5225982666015625,46.215572357177734,14.585777282714844
1686425619217234000,2.71223388671875,1.8370208740234375,46.03820037841797,14.991958618164062
1686425619227178800,2.7221787109375,0.7669906616210938,45.99677658081055,15.445457458496094
1686425619237124600,2.73212451171875,-0.4256439208984375,46.019405364990234,15.90301513671875
1686425619247070000,2.742070068359375,-1.8044509887695312,45.604705810546875,16.33324432373047
1686425619257014800,2.752014892578125,-2.8763885498046875,45.332950592041016,17.4339599609375
1686425619266961000,2.7619609375,-4.05670166015625,44.84722900390625,18.26861572265625
1686425619276905700,2.77190576171875,-5.8827972412109375,44.275577545166016,18.934715270996094
1686425619286850800,2.781850830078125,-7.979911804199219,43.840232849121094,19.763351440429688
1686425619296796700,2.791796630859375,-9.727882385253906,43.189720153808594,20.031234741210938
1686425619306741800,2.80174169921875,-12.599151611328125,42.631446838378906,20.223373413085938
1686425619316686800,2.811686767578125,-15.457786560058594,42.528236389160156,19.62348175048828
1686425619326633200,2.82163330078125,-18.332550048828125,42.19215774536133,17.479637145996094
1686425619336578000,2.831578125,-20.719093322753906,42.111820220947266,13.978363037109375
1686425619346523100,2.841523193359375,-22.586761474609375,42.616798400878906,9.703292846679688
1686425619356469200,2.85146923828125,-24.321456909179688,42.89079284667969,5.691596984863281
1686425619366414000,2.8614140625,-24.909683227539062,42.91522979736328,2.144622802734375
1686425619376359200,2.871359130859375,-24.883819580078125,42.857051849365234,-0.517669677734375
1686425619386305000,2.881304931640625,-24.42212677001953,43.10438537597656,-2.1985626220703125
1686425619396250000,2.89125,-23.81127166748047,43.35896682739258,-3.7089920043945312
1686425619406195200,2.9011953125,-22.873855590820312,43.9066162109375,-4.861259460449219
1686425619416141000,2.91114111328125,-21.995399475097656,44.45261001586914,-5.340110778808594
1686425619426086100,2.921086181640625,-21.066162109375,44.73501205444336,-5.167427062988281
1686425619436031000,2.931031005859375,-20.441993713378906,45.107826232910156,-5.0571746826171875
1686425619445977000,2.94097705078125,-19.36382293701172,45.366886138916016,-4.616981506347656
1686425619455922200,2.950922119140625,-18.528854370117188,45.87932205200195,-3.9644546508789062
1686425619465867000,2.960866943359375,-18.321578979492188,46.14073181152344,-3.3668899536132812
1686425619475813000,2.970813232421875,-17.790557861328125,46.458656311035156,-2.4976043701171875
1686425619485758000,2.980758056640625,-17.426185607910156,46.41897964477539,-1.8231735229492188
1686425619495703300,2.990703369140625,-17.19397735595703,46.55634307861328,-1.3446273803710938
1686425619505649200,3.000649169921875,-16.854843139648438,46.62726593017578,-1.2031707763671875
1686425619515594000,3.010593994140625,-16.816078186035156,46.65016174316406,-1.0885238647460938
1686425619525539000,3.0205390625,-17.024307250976562,46.609397888183594,-1.3647079467773438
1686425619535485000,3.03048486328125,-17.2296142578125,46.614051818847656,-1.6419525146484375
1686425619545430300,3.04043017578125,-17.411041259765625,46.21009826660156,-1.8821334838867188
1686425619555375000,3.050375,-18.03050994873047,45.96669006347656,-2.1028366088867188
1686425619565321200,3.0603212890625,-18.822052001953125,45.743465423583984,-2.1637802124023438
1686425619575266000,3.07026611328125,-20.124114990234375,45.1260986328125,-1.9051132202148438
1686425619585211100,3.080211181640625,-21.06945037841797,44.83736801147461,-2.0648880004882812
1686425619595157200,3.0901572265625,-22.46233367919922,44.154441833496094,-1.8308563232421875
1686425619605102000,3.10010205078125,-23.7760009765625,43.642311096191406,-1.3103866577148438
1686425619615047200,3.110047119140625,-25.001853942871094,42.89801788330078,-0.6723709106445312
1686425619624993000,3.119992919921875,-26.25031280517578,42.178504943847656,0.3690948486328125
1686425619634938400,3.1299384765625,-27.303504943847656,41.45548629760742,1.2917938232421875
1686425619644883200,3.13988330078125,-28.099952697753906,40.7811393737793,2.5862808227539062
1686425619654829000,3.1498291015625,-28.150238037109375,40.65816116333008,4.186370849609375
1686425619664774100,3.159774169921875,-27.770523071289062,40.754215240478516,5.843475341796875
1686425619674719000,3.169718994140625,-26.579566955566406,41.2188606262207,7.2059173583984375
1686425619684665000,3.1796650390625,-24.310272216796875,42.32162094116211,8.330856323242188
1686425619694610200,3.189610107421875,-21.239669799804688,43.805965423583984,9.337760925292969
1686425619704555000,3.199554931640625,-18.45421600341797,44.66429901123047,9.920967102050781
1686425619714501000,3.209501220703125,-15.503334045410156,45.81672668457031,10.286109924316406
1686425619724446000,3.219446044921875,-13.064468383789062,46.232295989990234,10.972816467285156
1686425619734391300,3.229391357421875,-11.15155029296875,46.357173919677734,11.450202941894531
1686425619744337200,3.239337158203125,-9.123619079589844,46.3388786315918,12.718193054199219
1686425619754282200,3.2492822265625,-7.0201263427734375,46.06804275512695,13.876029968261719
1686425619764227000,3.25922705078125,-4.373016357421875,45.79353332519531,15.536430358886719
1686425619774173000,3.2691728515625,-0.9083023071289062,45.3088493347168,17.107101440429688
1686425619784118300,3.2791181640625,2.3361740112304688,44.773746490478516,18.746131896972656
1686425619794063000,3.28906298828125,5.001861572265625,43.99726486206055,19.811325073242188
1686425619804009200,3.29900927734375,5.942047119140625,43.238407135009766,21.035415649414062
1686425619813954000,3.3089541015625,5.3977203369140625,43.06840515136719,21.525527954101562
1686425619823899100,3.318899169921875,4.7027435302734375,43.114784240722656,21.701393127441406
1686425619833845200,3.32884521484375,4.084449768066406,43.0871696472168,21.79766082763672
1686425619843790000,3.3387900390625,3.1217193603515625,43.35491943359375,21.470848083496094
1686425619853735200,3.348735107421875,2.379791259765625,43.57284164428711,21.58179473876953
1686425619863681000,3.358680908203125,1.4571304321289062,44.020835876464844,21.379791259765625
1686425619873626000,3.368626220703125,0.482574462890625,44.177066802978516,20.959312438964844
1686425619883571200,3.3785712890625,-0.43724822998046875,44.706695556640625,20.262313842773438
1686425619893517000,3.38851708984375,-1.2113189697265625,45.03662872314453,19.696533203125
1686425619903462100,3.398462158203125,-1.2113189697265625,45.03662872314453,19.696533203125
1686425619913407000,3.408406982421875,-2.2320404052734375,44.91020202636719,19.154541015625
1686425619923353000,3.41835302734375,-3.5028839111328125,45.14353942871094,18.698516845703125
1686425619933298200,3.428298095703125,-4.709297180175781,45.26425552368164,17.890060424804688
1686425619943243000,3.438242919921875,-5.694221496582031,45.23434066772461,17.164871215820312
1686425619953189000,3.448189208984375,-7.054756164550781,45.22900390625,16.761878967285156
1686425619963134000,3.458134033203125,-8.181716918945312,45.31021499633789,16.59050750732422
1686425619973079300,3.468079345703125,-9.9283447265625,45.252628326416016,16.09661102294922
1686425619983025200,3.478025146484375,-11.531784057617188,45.1666145324707,15.465438842773438
1686425619992970200,3.48797021484375,-13.266670227050781,45.06727600097656,14.890365600585938
1686425620002915000,3.4979150390625,-14.837226867675781,44.79841232299805,13.912734985351562
1686425620012860200,3.507860107421875,-16.63129425048828,44.804100036621094,12.717948913574219
1686425620022806300,3.51780615234375,-17.808242797851562,44.73882293701172,10.720046997070312
1686425620032751000,3.527751220703125,-18.344139099121094,45.183597564697266,8.164360046386719
1686425620042697200,3.537697265625,-17.501182556152344,46.033390045166016,5.471405029296875
1686425620052642000,3.54764208984375,-15.27813720703125,46.819862365722656,3.7483444213867188
1686425620062587100,3.557587158203125,-13.114601135253906,47.56566619873047,3.26739501953125
1686425620072533200,3.567533203125,-11.7686767578125,48.09465789794922,3.6606826782226562
1686425620082478000,3.57747802734375,-10.626823425292969,48.264915466308594,4.264762878417969
1686425620092423200,3.587423095703125,-9.799209594726562,48.15007019042969,5.31512451171875
1686425620102368000,3.597367919921875,-9.120849609375,48.047271728515625,6.619636535644531
1686425620112314000,3.607314208984375,-8.749664306640625,47.90108108520508,7.562461853027344
1686425620122259200,3.61725927734375,-7.592918395996094,47.98468017578125,8.531684875488281
1686425620132204000,3.6272041015625,-6.47515869140625,47.97239685058594,9.083641052246094
1686425620142150100,3.637150146484375,-5.590110778808594,47.88552474975586,9.694053649902344
1686425620152095000,3.647094970703125,-4.564079284667969,47.888023376464844,9.813003540039062
1686425620162040300,3.657040283203125,-3.02105712890625,47.929931640625,10.233917236328125
1686425620171986200,3.666986083984375,-2.2588348388671875,47.98582077026367,10.235984802246094
1686425620181931000,3.676930908203125,-1.8679428100585938,47.63993835449219,10.413742065429688
1686425620191876000,3.6868759765625,-0.8878250122070312,47.70315933227539,10.5819091796875
1686425620201822000,3.696822021484375,-0.2215728759765625,47.838829040527344,10.576194763183594
1686425620211767300,3.706767333984375,0.3766021728515625,47.91764450073242,10.674079895019531
1686425620221712100,3.716712158203125,2.0396499633789062,47.95603561401367,10.318893432617188
1686425620231658200,3.726658203125,3.0901641845703125,47.762168884277344,9.977523803710938
1686425620241603000,3.73660302734375,3.7541046142578125,47.86421203613281,9.810340881347656
1686425620251548200,3.746548095703125,5.217926025390625,47.590110778808594,9.846298217773438
1686425620261494300,3.756494384765625,5.949897766113281,47.3577880859375,9.844253540039062
1686425620271439000,3.766439208984375,6.8791961669921875,47.38605880737305,9.387741088867188
1686425620281384200,3.77638427734375,7.768806457519531,47.186119079589844,9.378128051757812
1686425620291330000,3.786330078125,8.923011779785156,47.00487518310547,9.215911865234375
1686425620301275100,3.796275146484375,9.897598266601562,46.91399002075195,9.203628540039062
1686425620311220200,3.80622021484375,10.084426879882812,46.606143951416016,9.033256530761719
1686425620321166000,3.816166015625,10.61721420288086,46.65692901611328,8.982772827148438
1686425620331111000,3.82611083984375,10.834938049316406,46.773799896240234,9.012969970703125
1686425620341055700,3.8360556640625,10.116035461425781,46.68836212158203,9.413124084472656
1686425620351001900,3.846001953125,8.887466430664062,46.84022521972656,10.040206909179688
1686425620360947000,3.855947021484375,6.392036437988281,46.99797058105469,10.549575805664062
1686425620370891800,3.865891845703125,2.071380615234375,47.49037551879883,10.328514099121094
1686425620380838000,3.875837890625,-3.342926025390625,47.78152084350586,9.37066650390625
1686425620390782700,3.88578271484375,-7.648773193359375,47.73575973510742,7.491264343261719
1686425620400728000,3.89572802734375,-10.944107055664062,47.536094665527344,5.1272125244140625
1686425620410674000,3.905673828125,-13.814697265625,47.12444305419922,3.0852432250976562
1686425620420618800,3.91561865234375,-15.9842529296875,46.85219192504883,1.5614013671875
1686425620430563800,3.925563720703125,-17.339988708496094,46.43775177001953,0.5282821655273438
1686425620440509700,3.935509765625,-18.490936279296875,45.68186569213867,-0.3225860595703125
1686425620450455000,3.945455078125,-19.743309020996094,45.19684600830078,-0.9588165283203125
1686425620460399900,3.95539990234375,-20.65503692626953,44.9359016418457,-1.5935440063476562
1686425620470346000,3.965345947265625,-21.366195678710938,44.72539138793945,-2.3526763916015625
1686425620480290800,3.975290771484375,-22.06292724609375,44.42295837402344,-3.27197265625
1686425620490236000,3.98523583984375,-22.86528778076172,43.94561004638672,-4.074348449707031
1686425620500182000,3.99518212890625,-23.763580322265625,43.343170166015625,-5.1326751708984375
1686425620510126800,4.005126953125,-24.57666015625,42.65224075317383,-6.333099365234375
1686425620520072000,4.015072021484375,-25.391868591308594,41.986839294433594,-7.6755218505859375
1686425620530017800,4.025017822265625,-25.700782775878906,41.68622589111328,-9.096000671386719
1686425620539963000,4.034962890625,-24.83472442626953,42.01638412475586,-10.405494689941406
1686425620549908000,4.044907958984375,-22.494888305664062,43.02970504760742,-11.57147216796875
1686425620559853800,4.054853759765625,-17.100570678710938,43.082252502441406,-11.926651000976562
1686425620569799000,4.064798828125,-12.734565734863281,44.42694854736328,-12.445762634277344
1686425620579743700,4.07474365234375,-8.244186401367188,45.27220916748047,-12.845481872558594
1686425620589689900,4.08468994140625,-3.064056396484375,45.80404281616211,-13.3892822265625
1686425620599635000,4.094635009765625,1.6765975952148438,45.5882568359375,-14.133918762207031
1686425620609579800,4.104579833984375,6.7046966552734375,44.93259811401367,-15.167213439941406
1686425620619526000,4.11452587890625,10.814750671386719,43.86237335205078,-15.947906494140625
1686425620629470700,4.124470703125,14.76727294921875,42.72502899169922,-16.61785888671875
1686425620639416000,4.134416015625,17.861431121826172,41.34813690185547,-16.577255249023438
1686425620649362000,4.14436181640625,20.508724212646484,40.633888244628906,-15.899024963378906
1686425620659306800,4.154306640625,21.915592193603516,40.78820037841797,-14.296730041503906
1686425620669251800,4.164251953125,21.16131591796875,42.15940856933594,-11.239158630371094
1686425620679197700,4.17419775390625,18.36327362060547,43.85264205932617,-7.9012908935546875
1686425620689143000,4.18414306640625,13.931526184082031,45.26464080810547,-5.826133728027344
1686425620699088000,4.194087890625,13.931526184082031,45.26464080810547,-5.826133728027344
1686425620709034000,4.204033935546875,8.74407958984375,46.769012451171875,-5.074066162109375
1686425620718978800,4.213978759765625,4.380607604980469,47.33633804321289,-5.174102783203125
1686425620728924000,4.223923828125,0.351806640625,47.43701171875,-5.4351348876953125
1686425620738870000,4.2338701171875,-2.6912841796875,47.39371871948242,-6.4246826171875
1686425620748814800,4.24381494140625,-5.0275115966796875,47.15013122558594,-6.72747802734375
1686425620758760000,4.253760009765625,-6.6007537841796875,46.806365966796875,-6.6937103271484375
1686425620768705800,4.263705810546875,-8.447135925292969,46.70664978027344,-6.8019256591796875
1686425620778651000,4.27365087890625,-9.501876831054688,46.36400604248047,-7.102897644042969
1686425620788596000,4.283595947265625,-10.673927307128906,46.01405715942383,-7.347496032714844
1686425620798541800,4.293541748046875,-11.489082336425781,45.73130798339844,-7.5866851806640625
1686425620808487000,4.30348681640625,-12.377235412597656,45.26893997192383,-7.9726715087890625
1686425620818431700,4.313431640625,-13.64715576171875,45.14012908935547,-8.198135375976562
1686425620828377900,4.3233779296875,-14.877548217773438,44.71222686767578,-8.646873474121094
1686425620838323000,4.333322998046875,-15.739128112792969,44.36814880371094,-8.302146911621094
1686425620848267800,4.343267822265625,-17.24742889404297,43.86894989013672,-8.377983093261719
1686425620858214000,4.3532138671875,-18.81273651123047,43.22162628173828,-8.041267395019531
1686425620868158700,4.36315869140625,-19.791702270507812,42.75954818725586,-7.388984680175781
1686425620878104000,4.37310400390625,-20.59527587890625,42.790138244628906,-5.580238342285156
1686425620888050000,4.3830498046875,-21.201210021972656,42.68785858154297,-3.2801284790039062
1686425620897994800,4.392994873046875,-21.456275939941406,42.75694274902344,0.02474212646484375
1686425620907939800,4.40293994140625,-21.18486785888672,42.591552734375,2.6310577392578125
1686425620917885700,4.4128857421875,-20.453346252441406,42.670433044433594,5.71258544921875
1686425620927831000,4.4228310546875,-19.294708251953125,42.835792541503906,9.148605346679688
1686425620937775900,4.43277587890625,-17.479698181152344,42.67912292480469,12.055412292480469
1686425620947722000,4.442721923828125,-16.009262084960938,42.50624465942383,15.061416625976562
1686425620957666800,4.452666748046875,-13.764694213867188,42.474082946777344,17.458969116210938
1686425620967612000,4.46261181640625,-12.16888427734375,42.253116607666016,18.987945556640625
1686425620977558000,4.47255810546875,-10.357437133789062,42.520992279052734,19.510345458984375
1686425620987502800,4.4825029296875,-8.81329345703125,43.65278625488281,18.141647338867188
1686425620997448000,4.492447998046875,-6.687446594238281,44.66304016113281,16.16742706298828
1686425621007393800,4.502393798828125,-3.6045989990234375,45.56666564941406,14.218231201171875
1686425621017339000,4.5123388671875,-0.7428207397460938,46.08745574951172,12.930641174316406
1686425621027284000,4.522283935546875,1.5536041259765625,46.05363464355469,12.109039306640625
1686425621037229800,4.532229736328125,3.7254638671875,46.30211639404297,11.527885437011719
1686425621047175000,4.5421748046875,4.2835693359375,46.249778747558594,10.685890197753906
1686425621057119700,4.55211962890625,5.087104797363281,46.2715950012207,9.72137451171875
1686425621067065900,4.56206591796875,5.089576721191406,46.46453094482422,9.5555419921875
1686425621077011000,4.572010986328125,5.065727233886719,46.56285858154297,9.115425109863281
1686425621086955800,4.581955810546875,5.212615966796875,46.64199447631836,8.946662902832031
1686425621096902000,4.59190185546875,5.140632629394531,46.66859817504883,8.574577331542969
1686425621106846700,4.6018466796875,4.8119049072265625,46.90443420410156,7.8937225341796875
1686425621116792000,4.6117919921875,5.006660461425781,47.10968780517578,7.3973541259765625
1686425621126738000,4.621738037109375,4.893028259277344,47.019493103027344,7.134033203125
1686425621136683000,4.63168310546875,4.7260589599609375,47.34385681152344,6.8460235595703125
1686425621146627800,4.6416279296875,4.752265930175781,47.223411560058594,6.793403625488281
1686425621156573700,4.65157373046875,4.649726867675781,47.232322692871094,6.220794677734375
1686425621166519000,4.66151904296875,4.410858154296875,47.35641098022461,5.9453582763671875
1686425621176464000,4.6714638671875,4.7900390625,47.29957580566406,5.7068634033203125
1686425621186410000,4.681409912109375,5.010246276855469,47.43022918701172,5.3202056884765625
1686425621196354800,4.691354736328125,4.924385070800781,47.57297134399414,4.99700927734375
1686425621206300000,4.7012998046875,4.792961120605469,47.67143249511719,4.553260803222656
1686425621216246000,4.71124609375,5.1872406005859375,47.56526184082031,4.428215026855469
1686425621226190800,4.72119091796875,4.947853088378906,47.64891052246094,3.8739013671875
1686425621236136000,4.731135986328125,4.8440399169921875,47.71894836425781,3.91668701171875
1686425621246081800,4.741081787109375,4.787811279296875,47.85990524291992,3.789306640625
1686425621256027000,4.75102685546875,4.959663391113281,47.6341438293457,3.1908950805664062
1686425621265972000,4.760971923828125,4.843849182128906,47.449607849121094,3.1442718505859375
1686425621275917800,4.770917724609375,4.2947235107421875,47.452125549316406,3.4471435546875
1686425621285863000,4.78086279296875,3.0771102905273438,47.85985565185547,3.5334091186523438
1686425621295807700,4.790807861328125,1.0751190185546875,47.895751953125,3.4608840942382812
1686425621305753900,4.80075390625,-1.32928466796875,47.58894729614258,3.6191635131835938
1686425621315699000,4.810698974609375,-3.7524185180664062,47.49540710449219,4.1331024169921875
1686425621325643800,4.820643798828125,-6.184440612792969,47.28676986694336,4.75341796875
1686425621335589600,4.830589599609375,-8.4727783203125,46.86334991455078,5.798683166503906
1686425621345534500,4.840534423828125,-10.229934692382812,46.40916442871094,6.524269104003906
1686425621355479800,4.850479736328125,-11.727500915527344,45.970458984375,7.660163879394531
1686425621365424600,4.860424560546875,-13.212776184082031,45.483673095703125,8.578834533691406
1686425621375370800,4.870370849609375,-14.003654479980469,44.85114669799805,9.464195251464844
1686425621385315600,4.880315673828125,-14.97076416015625,44.178802490234375,10.896591186523438
1686425621395261700,4.89026171875,-16.082321166992188,43.34235382080078,12.933204650878906
1686425621405206800,4.900206787109375,-16.504898071289062,42.52507019042969,15.125213623046875
1686425621415151600,4.910151611328125,-16.731185913085938,41.526573181152344,17.16570281982422
1686425621425096700,4.9200966796875,-16.652755737304688,40.85356521606445,19.049652099609375
1686425621435042600,4.93004248046875,-16.206954956054688,40.058528900146484,20.48053741455078
1686425621444987600,4.939987548828125,-15.802070617675781,39.59478759765625,21.63622283935547
1686425621454933800,4.949933837890625,-15.972312927246094,39.220008850097656,22.16131591796875
1686425621464878600,4.959878662109375,-15.682182312011719,39.42509460449219,22.308181762695312
1686425621474823700,4.96982373046875,-15.454154968261719,39.262054443359375,22.47718048095703
1686425621484768500,4.9797685546875,-15.454154968261719,39.262054443359375,22.47718048095703
1686425621494714600,4.989714599609375,-15.565177917480469,39.17400360107422,22.59014892578125
1686425621504659700,4.99965966796875,-15.686256408691406,39.3205680847168,22.58240509033203
1686425621514604500,5.0096044921875,-15.347366333007812,39.45624542236328,22.535171508789062
1686425621524550700,5.019550537109375,-15.267166137695312,39.37016677856445,22.165908813476562
1686425621534495500,5.02949560546875,-14.884353637695312,39.4771728515625,21.63909912109375
1686425621544440800,5.03944091796875,-15.218788146972656,40.11125183105469,21.11029052734375
1686425621554386700,5.04938671875,-14.065078735351562,40.796424865722656,20.07939910888672
1686425621564331800,5.059331787109375,-13.151466369628906,41.9470100402832,18.315940856933594
1686425621574276600,5.069276611328125,-11.584075927734375,43.2857780456543,16.039627075195312
1686425621584222500,5.079222412109375,-8.783340454101562,44.729801177978516,14.305717468261719
1686425621594167800,5.089167724609375,-6.015167236328125,45.39437484741211,13.256103515625
1686425621604112600,5.099112548828125,-3.3424224853515625,46.01344680786133,12.171920776367188
1686425621614058800,5.109058837890625,-1.1400299072265625,46.10035705566406,11.678535461425781
1686425621624003600,5.119003662109375,0.5364990234375,46.22039031982422,10.91888427734375
1686425621633948700,5.12894873046875,1.3947906494140625,46.453453063964844,10.075408935546875
1686425621643894800,5.138894775390625,1.9180679321289062,46.67755126953125,9.350288391113281
1686425621653839600,5.148839599609375,2.0890426635742188,46.81143569946289,8.309745788574219
1686425621663784700,5.15878466796875,1.9808807373046875,47.04199981689453,7.2954864501953125
1686425621673730600,5.16873046875,1.8690109252929688,47.32227325439453,6.43206787109375
1686425621683675600,5.178675537109375,2.0338897705078125,47.324275970458984,5.6250762939453125
1686425621693620700,5.188620849609375,2.28759765625,47.3032112121582,4.909034729003906
1686425621703566600,5.198566650390625,2.7208404541015625,47.3457145690918,4.237724304199219
1686425621713511700,5.20851171875,2.7175140380859375,47.67443084716797,3.9107894897460938
1686425621723456500,5.21845654296875,2.6043701171875,47.52669906616211,3.5671310424804688
1686425621733402600,5.228402587890625,3.0466537475585938,47.657135009765625,3.4374465942382812
1686425621743347700,5.23834765625,3.2410202026367188,47.575462341308594,3.4087905883789062
1686425621753292500,5.24829248046875,3.540863037109375,47.420188903808594,3.4337997436523438
1686425621763238700,5.25823876953125,4.008766174316406,47.40869903564453,3.1222152709960938
1686425621773183500,5.26818359375,4.5322265625,47.46492004394531,3.0530319213867188
1686425621783128800,5.27812890625,5.663612365722656,47.361907958984375,2.8812255859375
1686425621793074700,5.28807470703125,6.450706481933594,47.126678466796875,2.8245086669921875
1686425621803019800,5.298019775390625,7.2025604248046875,47.02852249145508,2.6059188842773438
1686425621812964600,5.307964599609375,8.386146545410156,46.926334381103516,2.595458984375
1686425621822910500,5.317910400390625,9.849739074707031,46.81244659423828,2.7581558227539062
1686425621832855800,5.327855712890625,11.344734191894531,46.35954666137695,3.0825576782226562
1686425621842800600,5.337800537109375,12.83816909790039,46.10784149169922,3.4809036254882812
1686425621852746800,5.347746826171875,13.499042510986328,46.093143463134766,3.3500747680664062
1686425621862691600,5.357691650390625,13.806880950927734,45.8914680480957,3.1341476440429688
1686425621872636700,5.36763671875,13.826541900634766,45.98784255981445,2.6283950805664062
1686425621882582800,5.377582763671875,13.24332046508789,46.016483306884766,2.4292755126953125
1686425621892527600,5.387527587890625,12.290821075439453,46.5069580078125,2.4733047485351562
1686425621902472700,5.39747265625,10.487442016601562,46.52703094482422,2.7108078002929688
1686425621912418600,5.40741845703125,8.513862609863281,47.08469009399414,2.881622314453125
1686425621922363600,5.41736376953125,6.634033203125,47.33267593383789,3.5022430419921875
1686425621932308700,5.427308837890625,4.250999450683594,47.35963439941406,4.1558685302734375
1686425621942254800,5.4372548828125,1.4852066040039062,47.30525207519531,5.28759765625
1686425621952199700,5.44719970703125,-1.2111129760742188,47.3927001953125,6.11090087890625
1686425621962144500,5.45714453125,-3.718109130859375,47.27067947387695,7.0070037841796875
1686425621972090600,5.467090576171875,-5.9900360107421875,47.07199478149414,7.814292907714844
1686425621982035700,5.47703564453125,-7.9766693115234375,46.346046447753906,8.412322998046875
1686425621991980500,5.48698046875,-10.038658142089844,45.843074798583984,8.927520751953125
1686425622001926700,5.4969267578125,-11.58843994140625,45.593441009521484,9.2962646484375
1686425622011871500,5.50687158203125,-13.553146362304688,44.73809051513672,9.604415893554688
1686425622021816800,5.51681689453125,-15.053115844726562,44.21028518676758,9.560691833496094
1686425622031762700,5.5267626953125,-17.229576110839844,43.47364807128906,9.865921020507812
1686425622041707800,5.536707763671875,-18.853004455566406,42.599342346191406,10.874008178710938
1686425622051652600,5.546652587890625,-20.774169921875,41.422996520996094,12.182685852050781
1686425622061598700,5.5565986328125,-21.70245361328125,40.68840026855469,13.413154602050781
1686425622071543800,5.566543701171875,-22.23804473876953,39.98974609375,15.035881042480469
1686425622081488600,5.576488525390625,-21.439414978027344,39.72743225097656,16.49291229248047
1686425622091434800,5.586434814453125,-20.04395294189453,39.87409973144531,17.917396545410156
1686425622101379600,5.596379638671875,-18.96398162841797,40.213924407958984,18.626365661621094
1686425622111324700,5.60632470703125,-17.24376678466797,40.48365020751953,18.9449462890625
1686425622121270800,5.616270751953125,-16.709823608398438,41.02898406982422,19.159713745117188
1686425622131215600,5.626215576171875,-16.58447265625,40.80962371826172,18.836090087890625
1686425622141160700,5.63616064453125,-16.7293701171875,40.84524917602539,18.713760375976562
1686425622151106600,5.6461064453125,-16.854782104492188,41.12120056152344,18.377418518066406
1686425622161051600,5.6560517578125,-17.03778839111328,41.67350769042969,17.246932983398438
1686425622170996700,5.665996826171875,-16.441329956054688,42.19207000732422,15.984931945800781
1686425622180942800,5.67594287109375,-15.770103454589844,43.09762191772461,13.997207641601562
1686425622190887700,5.6858876953125,-13.565208435058594,44.385284423828125,11.855056762695312
1686425622200832500,5.69583251953125,-10.950531005859375,45.35300827026367,10.066619873046875
1686425622210778600,5.705778564453125,-7.191978454589844,46.27021789550781,9.639625549316406
1686425622220723700,5.7157236328125,-3.9636459350585938,46.742095947265625,9.63336181640625
1686425622230668800,5.725668701171875,-0.994140625,46.828102111816406,10.176795959472656
1686425622240614700,5.73561474609375,1.3580703735351562,47.028480529785156,9.94622802734375
1686425622250559500,5.7455595703125,2.5086898803710938,46.995018005371094,9.51959228515625
1686425622260504800,5.7555048828125,2.5086898803710938,46.995018005371094,9.51959228515625
1686425622270450700,5.76545068359375,2.9635086059570312,47.13032531738281,8.279716491699219
1686425622280395800,5.775395751953125,3.1038742065429688,47.12001037597656,7.2445220947265625
1686425622290340600,5.785340576171875,3.0431976318359375,47.322227478027344,6.361732482910156
1686425622300286700,5.79528662109375,2.6073455810546875,47.460506439208984,5.757606506347656
1686425622310231800,5.805231689453125,2.3566513061523438,47.426658630371094,4.7074127197265625
1686425622320176600,5.8151767578125,2.2366485595703125,47.54004669189453,4.177886962890625
1686425622330122800,5.825122802734375,1.9170608520507812,47.55112075805664,3.6145477294921875
1686425622340067800,5.83506787109375,1.8537521362304688,47.66932678222656,3.0195846557617188
1686425622350012700,5.8450126953125,1.8765182495117188,47.85556411743164,2.967620849609375
1686425622359958500,5.85495849609375,2.2124862670898438,47.9272575378418,2.8005599975585938
1686425622369903900,5.86490380859375,2.3642120361328125,48.07109069824219,2.8804855346679688
1686425622379848700,5.8748486328125,2.6596755981445312,47.88949203491211,2.8273162841796875
1686425622389794800,5.884794921875,3.6367721557617188,47.74683380126953,2.6280746459960938
1686425622399739600,5.89473974609375,3.9804763793945312,47.991119384765625,3.1114349365234375
1686425622409684700,5.904684814453125,5.341651916503906,47.935142517089844,3.6760787963867188
1686425622419630800,5.914630859375,6.7640228271484375,47.70366287231445,3.87384033203125
1686425622429575700,5.92457568359375,8.581390380859375,47.51043701171875,4.236106872558594
1686425622439520800,5.934520751953125,10.602081298828125,47.02185821533203,4.8083648681640625
1686425622449466600,5.944466552734375,12.543174743652344,46.15482711791992,5.375556945800781
1686425622459412000,5.954411865234375,14.131500244140625,45.79841232299805,5.684906005859375
1686425622469356800,5.964356689453125,15.166217803955078,45.2991943359375,6.403594970703125
1686425622479302700,5.974302734375,16.148239135742188,44.90679931640625,6.867149353027344
1686425622489247700,5.984247802734375,16.619503021240234,44.49284362792969,6.943550109863281
1686425622499192800,5.99419287109375,16.489017486572266,44.54405212402344,6.850028991699219
1686425622509139000,6.004138916015625,15.396202087402344,44.983375549316406,6.353370666503906
1686425622519083800,6.014083740234375,14.513935089111328,45.55097961425781,5.640815734863281
1686425622529028600,6.024028564453125,12.649742126464844,46.1596565246582,5.026237487792969
1686425622538974700,6.033974609375,10.161689758300781,46.6533088684082,5.2774810791015625
1686425622548919600,6.04391943359375,7.5779571533203125,47.04832458496094,5.798332214355469
1686425622558865000,6.053864990234375,5.070732116699219,47.24794387817383,6.937255859375
1686425622568810800,6.063810791015625,2.1147842407226562,47.25566101074219,8.433448791503906
1686425622578755800,6.073755859375,-0.976409912109375,46.880271911621094,9.519798278808594
1686425622588700700,6.08370068359375,-3.9949188232421875,46.26737594604492,10.744476318359375
1686425622598646500,6.093646484375,-6.836265563964844,45.840728759765625,12.015975952148438
1686425622608592000,6.103591796875,-8.936279296875,45.11003494262695,12.939598083496094
1686425622618536700,6.11353662109375,-10.43511962890625,44.631290435791016,13.417587280273438
1686425622628482800,6.12348291015625,-12.117721557617188,44.10197067260742,14.34759521484375
1686425622638427600,6.133427734375,-13.898765563964844,43.12956619262695,14.825592041015625
1686425622648372700,6.143372802734375,-15.98321533203125,42.132694244384766,16.014259338378906
1686425622658318800,6.15331884765625,-16.849594116210938,40.737571716308594,18.389205932617188
1686425622668263700,6.163263671875,-17.513023376464844,39.54705810546875,20.180458068847656
1686425622678208800,6.173208740234375,-17.861183166503906,39.251495361328125,20.43340301513672
1686425622688154600,6.183154541015625,-17.909950256347656,39.65333557128906,19.533203125
1686425622698100000,6.193099853515625,-18.135841369628906,40.38919448852539,18.002151489257812
1686425622708044800,6.203044921875,-17.641799926757812,41.19010925292969,16.452392578125
1686425622717990700,6.21299072265625,-16.864097595214844,41.987327575683594,14.693122863769531
1686425622727935700,6.222935791015625,-15.791511535644531,43.025794982910156,13.44500732421875
1686425622737880800,6.232880859375,-14.324356079101562,43.6102409362793,12.249015808105469
1686425622747826700,6.24282666015625,-13.103141784667969,44.26019287109375,11.455238342285156
1686425622757771800,6.252771728515625,-11.435951232910156,45.039180755615234,10.953506469726562
1686425622767716600,6.262716552734375,-9.995254516601562,45.25434875488281,10.634353637695312
1686425622777662700,6.272662841796875,-8.465019226074219,45.809635162353516,10.465797424316406
1686425622787607600,6.282607666015625,-6.662117004394531,46.138126373291016,10.574333190917969
1686425622797553000,6.292552978515625,-5.4539642333984375,46.30643844604492,10.655647277832031
1686425622807498800,6.302498779296875,-4.3900604248046875,46.45835876464844,10.213203430175781
1686425622817443800,6.31244384765625,-2.59051513671875,46.69447326660156,9.567962646484375
1686425622827388700,6.322388671875,-1.4058151245117188,46.891658782958984,8.483497619628906
1686425622837334500,6.33233447265625,-0.0587005615234375,47.23335266113281,7.571311950683594
1686425622847279900,6.34227978515625,1.2115631103515625,47.19990539550781,7.588287353515625
1686425622857224700,6.352224609375,1.4987945556640625,47.04180908203125,7.540580749511719
1686425622867170800,6.3621708984375,1.6352310180664062,47.09220886230469,7.32562255859375
1686425622877115600,6.37211572265625,1.4682235717773438,47.10380172729492,7.273162841796875
1686425622887060700,6.382060791015625,1.0053939819335938,47.181602478027344,7.376579284667969
1686425622897006800,6.3920068359375,0.6661758422851562,47.125946044921875,7.294586181640625
1686425622906951700,6.40195166015625,0.21237945556640625,46.927459716796875,7.37579345703125
1686425622916896800,6.411896728515625,1.1330642700195312,47.25343322753906,7.471794128417969
1686425622926842600,6.421842529296875,2.5398025512695312,47.14276885986328,7.705177307128906
1686425622936788000,6.4317880859375,3.72308349609375,46.892337799072266,7.957130432128906
1686425622946732800,6.44173291015625,4.644401550292969,46.81390380859375,8.405899047851562
1686425622956678700,6.4516787109375,5.259773254394531,46.778961181640625,8.783714294433594
1686425622966623700,6.461623779296875,4.732261657714844,46.49764633178711,9.382820129394531
1686425622976568600,6.471568603515625,4.182121276855469,46.42436981201172,9.757835388183594
1686425622986514700,6.4815146484375,3.574432373046875,46.59336471557617,10.316680908203125
1686425622996459800,6.491459716796875,3.1671981811523438,46.35045623779297,10.535598754882812
1686425623006404600,6.501404541015625,2.8226699829101562,46.41615295410156,10.904083251953125
1686425623016350700,6.511350830078125,2.5734710693359375,46.478614807128906,11.059104919433594
1686425623026295600,6.521295654296875,2.41387939453125,46.43312072753906,11.117530822753906
1686425623036241000,6.531240966796875,2.239471435546875,46.70249557495117,11.173515319824219
1686425623046186800,6.541186767578125,2.239471435546875,46.70249557495117,11.173515319824219
1686425623056131800,6.5511318359375,2.59613037109375,46.7261848449707,11.106292724609375
1686425623066076700,6.56107666015625,2.6505584716796875,46.496925354003906,11.307991027832031
1686425623076022800,6.571022705078125,3.2750167846679688,46.192626953125,11.177009582519531
1686425623085968000,6.5809677734375,3.9925613403320312,46.28654861450195,11.310295104980469
1686425623095912700,6.59091259765625,4.7777557373046875,46.20185852050781,11.48577880859375
1686425623105858800,6.60085888671875,4.810691833496094,45.93693923950195,11.555450439453125
1686425623115803600,6.6108037109375,4.470893859863281,45.95073318481445,11.71343994140625
1686425623125748700,6.620748779296875,4.119438171386719,46.11098861694336,11.987434387207031
1686425623135694800,6.63069482421875,3.4446487426757812,46.60102081298828,11.152023315429688
1686425623145639700,6.6406396484375,2.352813720703125,46.811180114746094,9.665489196777344
1686425623155584800,6.650584716796875,1.3202133178710938,47.2257080078125,8.284156799316406
1686425623165530600,6.660530517578125,-0.25923919677734375,47.139591217041016,7.497734069824219
1686425623175475700,6.670475830078125,-2.1556549072265625,46.96937561035156,8.021682739257812
1686425623185420800,6.6804208984375,-4.2072906494140625,46.5927619934082,9.488113403320312
1686425623195367000,6.690366943359375,-6.384307861328125,45.903785705566406,11.389892578125
1686425623205311700,6.700311767578125,-7.8116607666015625,44.9907341003418,13.55084228515625
1686425623215256600,6.710256591796875,-9.772499084472656,43.85311508178711,15.543975830078125
1686425623225202700,6.72020263671875,-11.995941162109375,42.757652282714844,17.01433563232422
1686425623235147800,6.730147705078125,-13.924636840820312,41.045440673828125,18.54041290283203
1686425623245092600,6.740092529296875,-15.345169067382812,40.4974479675293,19.461395263671875
1686425623255038700,6.750038818359375,-15.884017944335938,40.342159271240234,19.42871856689453
1686425623264983600,6.759983642578125,-16.17963409423828,40.51774597167969,18.54515838623047
1686425623274929000,6.769928955078125,-16.354537963867188,40.80171585083008,17.97754669189453
1686425623284874800,6.779874755859375,-15.989067077636719,41.45924758911133,17.223243713378906
1686425623294819800,6.78981982421875,-15.385276794433594,41.933074951171875,16.222915649414062
1686425623304764700,6.7997646484375,-14.470558166503906,42.5633659362793,15.453018188476562
1686425623314710800,6.809710693359375,-14.132072448730469,43.503211975097656,14.270263671875
1686425623324655900,6.81965576171875,-13.393402099609375,43.7765007019043,13.053627014160156
1686425623334600400,6.829600341796875,-12.2606201171875,44.51905059814453,11.987571716308594
1686425623344546300,6.83954638671875,-11.046867370605469,45.029205322265625,11.254341125488281
1686425623354491400,6.849491455078125,-9.82904052734375,45.560455322265625,10.646385192871094
1686425623364436500,6.8594365234375,-8.273262023925781,45.98965072631836,10.360366821289062
1686425623374382300,6.86938232421875,-6.709007263183594,46.191741943359375,10.259475708007812
1686425623384327400,6.879327392578125,-5.050445556640625,46.35276412963867,10.642349243164062
1686425623394272300,6.889272216796875,-2.7481231689453125,46.556602478027344,10.785079956054688
1686425623404218400,6.89921826171875,-1.27044677734375,46.46310043334961,10.984977722167969
1686425623414163500,6.90916357421875,0.5501251220703125,46.281166076660156,11.713424682617188
1686425623424108300,6.9191083984375,2.0221328735351562,46.15023422241211,12.749595642089844
1686425623434054400,6.929054443359375,3.01739501953125,45.759803771972656,13.668601989746094
1686425623443999200,6.938999267578125,3.0310287475585938,45.29064178466797,14.195594787597656
1686425623453944300,6.9489443359375,2.0379180908203125,45.38118362426758,14.290763854980469
1686425623463890400,6.958890380859375,0.6065139770507812,45.55620574951172,13.28790283203125
1686425623473835500,6.96883544921875,-1.8141555786132812,46.08653259277344,11.815383911132812
1686425623483780400,6.9787802734375,-3.8795623779296875,46.35172653198242,10.21575927734375
1686425623493726200,6.988726318359375,-5.4865264892578125,46.31535720825195,8.802314758300781
1686425623503671300,6.99867138671875,-6.715568542480469,46.276058197021484,8.167671203613281
1686425623513616400,7.008616455078125,-6.264762878417969,46.31155776977539,8.429718017578125
1686425623523562500,7.0185625,-5.141227722167969,46.37795639038086,8.72491455078125
1686425623533507300,7.02850732421875,-4.0110321044921875,46.58665084838867,9.142837524414062
1686425623543452200,7.0384521484375,-2.1047821044921875,46.454124450683594,9.764411926269531
1686425623553398300,7.048398193359375,0.08611297607421875,46.361976623535156,10.273880004882812
1686425623563343400,7.05834326171875,1.53271484375,46.41721725463867,10.839706420898438
1686425623573288400,7.068288330078125,2.368927001953125,46.311161041259766,11.021591186523438
1686425623583234300,7.078234375,2.8782272338867188,46.25529098510742,11.523468017578125
1686425623593179400,7.088179443359375,3.2010650634765625,46.3874626159668,12.091400146484375
1686425623603124500,7.09812451171875,2.9909210205078125,46.22352981567383,12.861259460449219
1686425623613070600,7.108070556640625,2.3557281494140625,46.194305419921875,13.037834167480469
1686425623623015400,7.118015380859375,1.8975067138671875,46.27107620239258,12.99749755859375
1686425623632960300,7.127960205078125,1.7673568725585938,45.813331604003906,13.093696594238281
1686425623642906400,7.13790625,1.440460205078125,46.023250579833984,12.747306823730469
1686425623652851500,7.1478515625,0.6666259765625,46.00966262817383,12.346221923828125
1686425623662796300,7.15779638671875,0.2445068359375,46.39173126220703,11.855216979980469
1686425623672742400,7.167742431640625,-0.3126983642578125,46.546043395996094,11.48272705078125
1686425623682687200,7.177687255859375,-1.300750732421875,46.32978057861328,10.692100524902344
1686425623692632300,7.18763232421875,-2.3171920776367188,46.56433868408203,10.340812683105469
1686425623702578400,7.197578369140625,-3.14239501953125,46.399566650390625,10.036582946777344
1686425623712523500,7.2075234375,-3.8954925537109375,46.4067497253418,9.837249755859375
1686425623722468400,7.21746826171875,-4.861625671386719,46.62407684326172,9.283599853515625
1686425623732414500,7.22741455078125,-5.7636871337890625,46.39463806152344,9.066543579101562
1686425623742359300,7.237359375,-6.2915191650390625,46.04764175415039,8.802131652832031
1686425623752304400,7.247304443359375,-6.607566833496094,46.33015441894531,8.806610107421875
1686425623762250500,7.25725048828125,-7.2910003662109375,46.23899459838867,8.577720642089844
1686425623772195300,7.2671953125,-7.404930114746094,46.112884521484375,8.261734008789062
1686425623782140200,7.27714013671875,-8.025413513183594,46.06082534790039,8.75555419921875
1686425623792086300,7.287086181640625,-7.9130706787109375,46.17985153198242,9.029083251953125
1686425623802031400,7.29703125,-8.07135009765625,45.91290283203125,9.251754760742188
1686425623811976400,7.3069765625,-7.906242370605469,46.102840423583984,9.344306945800781
1686425623821922300,7.31692236328125,-7.3960113525390625,46.22105407714844,9.391090393066406
1686425623831867400,7.326867431640625,-7.3960113525390625,46.22105407714844,9.391090393066406
1686425623841812500,7.3368125,-6.7530517578125,46.32285690307617,9.49853515625
1686425623851758600,7.346758544921875,-6.18194580078125,46.528602600097656,9.154930114746094
1686425623861703400,7.356703369140625,-5.619529724121094,46.69807815551758,8.426406860351562
1686425623871648300,7.366648193359375,-6.107292175292969,46.731040954589844,8.137535095214844
1686425623881594400,7.376594482421875,-7.504981994628906,46.45744705200195,7.990242004394531
1686425623891539500,7.38653955078125,-9.023643493652344,46.02152633666992,7.7316436767578125
1686425623901484500,7.396484619140625,-10.928092956542969,45.69122314453125,8.046783447265625
1686425623911430400,7.406430419921875,-12.682342529296875,44.9519157409668,8.387184143066406
1686425623921375200,7.416375244140625,-14.562744140625,44.25603485107422,8.70281982421875
1686425623931320300,7.4263203125,-15.793655395507812,43.580928802490234,9.155174255371094
1686425623941266200,7.43626611328125,-17.401832580566406,43.05619812011719,9.788192749023438
1686425623951211500,7.44621142578125,-18.181961059570312,42.77862548828125,9.801780700683594
1686425623961156400,7.45615625,-18.67859649658203,42.50430679321289,10.207656860351562
1686425623971102500,7.4661025390625,-18.79602813720703,42.498619079589844,10.448249816894531
1686425623981047300,7.47604736328125,-18.44701385498047,42.686683654785156,10.4014892578125
1686425623990993200,7.4859931640625,-18.206504821777344,42.93166732788086,10.594367980957031
1686425624000938500,7.4959384765625,-17.34967803955078,43.04726028442383,10.131050109863281
1686425624010883300,7.50588330078125,-16.679702758789062,43.65569305419922,10.048347473144531
1686425624020829400,7.515829345703125,-16.04918670654297,43.717220306396484,9.696037292480469
1686425624030774300,7.525774169921875,-15.795417785644531,43.83189392089844,9.305618286132812
1686425624040719400,7.53571923828125,-15.644981384277344,43.98646545410156,9.132095336914062
1686425624050665500,7.54566552734375,-15.587669372558594,44.06868362426758,8.94281005859375
1686425624060610300,7.5556103515625,-15.402626037597656,43.941566467285156,9.188385009765625
1686425624070555400,7.565555419921875,-14.916549682617188,43.9655647277832,9.677604675292969
1686425624080501200,7.575501220703125,-13.933883666992188,43.97993850708008,10.407318115234375
1686425624090446600,7.585446533203125,-13.190284729003906,43.96664047241211,11.4761962890625
1686425624100391400,7.595391357421875,-12.543853759765625,44.026920318603516,11.98828125
1686425624110337300,7.605337158203125,-11.986831665039062,44.38576889038086,12.063957214355469
1686425624120282400,7.615282470703125,-11.475929260253906,44.6494026184082,11.755599975585938
1686425624130227200,7.625227294921875,-10.481124877929688,44.89262008666992,11.19354248046875
1686425624140173300,7.63517333984375,-9.557792663574219,45.13304901123047,10.925727844238281
1686425624150118400,7.645118408203125,-8.853172302246094,45.29998016357422,10.865020751953125
1686425624160063200,7.655063232421875,-7.898811340332031,45.537757873535156,10.72698974609375
1686425624170009300,7.66500927734375,-6.65277099609375,45.69237518310547,10.72900390625
1686425624179954200,7.6749541015625,-4.913307189941406,45.909236907958984,10.834907531738281
1686425624189899500,7.6848994140625,-3.5416717529296875,46.070587158203125,11.432075500488281
1686425624199845400,7.694845458984375,-3.03143310546875,45.91952133178711,11.796066284179688
1686425624209790500,7.70479052734375,-2.6871185302734375,45.904232025146484,11.760398864746094
1686425624219735300,7.7147353515625,-2.9296798706054688,45.86896514892578,11.730392456054688
1686425624229681200,7.72468115234375,-3.3966293334960938,45.851165771484375,11.812759399414062
1686425624239626500,7.73462646484375,-3.810394287109375,45.91804885864258,11.750114440917969
1686425624249571300,7.7445712890625,-4.276985168457031,46.058074951171875,12.113433837890625
1686425624259517400,7.754517333984375,-4.782196044921875,45.967254638671875,11.850830078125
1686425624269462300,7.764462158203125,-4.895820617675781,46.030391693115234,12.141441345214844
1686425624279407400,7.774407470703125,-4.899513244628906,45.86138153076172,11.964698791503906
1686425624289353500,7.784353515625,-5.2787628173828125,45.8162841796875,11.9635009765625
1686425624299298300,7.79429833984375,-5.6069183349609375,45.54585266113281,11.835037231445312
1686425624309244400,7.804244384765625,-6.286201477050781,45.56557846069336,11.7919921875
1686425624319189200,7.814189208984375,-6.801582336425781,45.304656982421875,11.907707214355469
1686425624329134600,7.824134521484375,-7.6408843994140625,45.22802734375,11.999710083007812
1686425624339081000,7.8340810546875,-7.903961181640625,45.40762710571289,12.206954956054688
1686425624349026000,7.844026123046875,-8.214324951171875,45.489505767822266,12.466201782226562
1686425624358971100,7.85397119140625,-8.421791076660156,45.17573547363281,12.891387939453125
1686425624368917000,7.8639169921875,-8.785942077636719,45.06855010986328,12.944137573242188
1686425624378862000,7.873862060546875,-9.304901123046875,44.725379943847656,13.411087036132812
1686425624388807200,7.88380712890625,-9.875946044921875,44.430870056152344,13.245002746582031
1686425624398753000,7.8937529296875,-10.12164306640625,44.26776885986328,13.317779541015625
1686425624408698000,7.903697998046875,-9.909439086914062,44.37043762207031,13.255691528320312
1686425624418643000,7.913642822265625,-10.102432250976562,44.74677658081055,12.63409423828125
1686425624428589000,7.923589111328125,-10.304893493652344,44.850982666015625,12.549858093261719
1686425624438534100,7.9335341796875,-10.549819946289062,44.67891311645508,13.029541015625
1686425624448479000,7.94347900390625,-10.534843444824219,44.55359649658203,13.699867248535156
1686425624458425000,7.953425048828125,-10.290840148925781,44.08488082885742,14.520652770996094
1686425624468370000,7.963369873046875,-10.29034423828125,43.81758117675781,15.450050354003906
1686425624478315000,7.97331494140625,-10.353874206542969,43.395633697509766,16.46337127685547
1686425624488260900,7.9832607421875,-10.23712158203125,42.96344757080078,17.331260681152344
1686425624498206200,7.993206298828125,-10.719314575195312,42.602874755859375,18.10614013671875
1686425624508151000,8.003151123046875,-10.441261291503906,42.358890533447266,18.617645263671875
1686425624518097000,8.013096923828124,-10.620933532714844,41.88701248168945,19.75377655029297
1686425624528042000,8.0230419921875,-11.174629211425781,41.950157165527344,20.033782958984375
1686425624537987800,8.03298779296875,-11.081764221191406,41.42469024658203,20.437774658203125
1686425624547933200,8.04293310546875,-11.394050598144531,41.629859924316406,20.275360107421875
1686425624557878000,8.0528779296875,-11.918960571289062,41.79307174682617,19.97344207763672
1686425624567824100,8.06282421875,-11.301582336425781,41.865623474121094,19.50140380859375
1686425624577769000,8.07276904296875,-11.244377136230469,42.282936096191406,19.28106689453125
1686425624587714000,8.082714111328125,-11.364753723144531,42.26819610595703,18.881820678710938
1686425624597660200,8.09266015625,-11.651054382324219,42.3198127746582,18.407516479492188
1686425624607605000,8.10260498046875,-12.059852600097656,42.166900634765625,18.167160034179688
1686425624617550000,8.112550048828124,-12.059852600097656,42.166900634765625,18.167160034179688
1686425624627496000,8.122495849609376,-12.802223205566406,42.283111572265625,17.93427276611328
1686425624637441000,8.13244091796875,-12.983291625976562,42.04840850830078,17.67469024658203
1686425624647386000,8.14238623046875,-13.056617736816406,42.243568420410156,17.627609252929688
1686425624657332000,8.15233203125,-12.997428894042969,42.35322570800781,17.552566528320312
1686425624667277000,8.162277099609375,-13.0767822265625,42.326446533203125,17.58147430419922
1686425624677222000,8.172221923828126,-13.314445495605469,42.26325225830078,17.558128356933594
1686425624687168000,8.18216796875,-13.591270446777344,42.04698944091797,17.8948974609375
1686425624697113000,8.192113037109374,-13.75244140625,41.80553436279297,18.241783142089844
1686425624707058000,8.202057861328125,-14.213333129882812,41.36412811279297,18.4058837890625
1686425624717004000,8.212004150390625,-14.361442565917969,41.28316879272461,18.586883544921875
1686425624726948900,8.221948974609376,-14.819145202636719,41.00499725341797,18.826507568359375
1686425624736894200,8.231894287109375,-15.01800537109375,40.893375396728516,19.21503448486328
1686425624746840000,8.241840087890624,-15.906608581542969,40.3885498046875,19.59423065185547
1686425624756785200,8.25178515625,-16.72028350830078,40.14760208129883,19.31878662109375
1686425624766731000,8.26173095703125,-17.71185302734375,39.94850158691406,18.996749877929688
1686425624776675800,8.27167578125,-18.169723510742188,40.13980484008789,18.709228515625
1686425624786621200,8.28162109375,-18.278121948242188,40.3334846496582,18.208984375
1686425624796567000,8.291567138671875,-17.53752899169922,40.46881866455078,17.98955535888672
1686425624806512000,8.30151220703125,-16.62596893310547,40.77709197998047,17.871665954589844
1686425624816457000,8.31145703125,-15.398590087890625,41.241004943847656,17.886306762695312
1686425624826403000,8.321403076171874,-13.990478515625,41.59947967529297,18.090782165527344
1686425624836348200,8.33134814453125,-12.375938415527344,42.265525817871094,18.339942932128906
1686425624846293000,8.34129296875,-10.518760681152344,42.20195770263672,18.755340576171875
1686425624856239000,8.351239013671876,-9.03643798828125,42.40501022338867,19.055145263671875
1686425624866184000,8.361183837890625,-7.7738494873046875,42.951412200927734,19.339500427246094
1686425624876129000,8.37112890625,-6.634361267089844,43.2613410949707,19.109466552734375
1686425624886075100,8.3810751953125,-6.01385498046875,43.224510192871094,19.06182098388672
1686425624896020000,8.39102001953125,-6.2813262939453125,43.23439407348633,19.01220703125
1686425624905965000,8.400965087890626,-6.722465515136719,43.42171096801758,18.909080505371094
1686425624915911000,8.410910888671875,-7.379669189453125,43.36431121826172,18.982620239257812
1686425624925856000,8.42085595703125,-7.914398193359375,42.95948791503906,19.155731201171875
1686425624935801900,8.4308017578125,-8.095382690429688,43.073123931884766,19.259971618652344
1686425624945747200,8.440747314453125,-8.067588806152344,42.63050842285156,19.335861206054688
1686425624955692000,8.450692138671876,-8.376541137695312,42.75523376464844,19.301666259765625
1686425624965638000,8.460637939453125,-8.214889526367188,42.74467849731445,19.669944763183594
1686425624975583000,8.4705830078125,-7.700843811035156,42.842952728271484,19.67009735107422
1686425624985528000,8.480528076171876,-7.713584899902344,42.83246612548828,20.03400421142578
1686425624995474200,8.49047412109375,-7.248664855957031,42.67266082763672,20.21343231201172
1686425625005419000,8.5004189453125,-6.7286224365234375,42.49783706665039,20.736473083496094
1686425625015363800,8.51036376953125,-6.227996826171875,42.25676727294922,21.07635498046875
1686425625025310000,8.52031005859375,-6.382362365722656,42.09425354003906,21.534561157226562
1686425625035255000,8.530255126953126,-5.9964447021484375,41.984317779541016,21.84052276611328
1686425625045200100,8.5402001953125,-6.215187072753906,41.69548797607422,21.87255096435547
1686425625055146000,8.55014599609375,-7.026435852050781,41.44640350341797,22.15180206298828
1686425625065091000,8.560091064453125,-8.2308349609375,41.36573028564453,22.18000030517578
1686425625075037000,8.570036865234375,-9.549301147460938,40.991798400878906,22.60498046875
1686425625084982300,8.579982177734376,-10.761054992675781,40.257789611816406,22.92595672607422
1686425625094927000,8.589927001953125,-11.894302368164062,39.711448669433594,23.561233520507812
1686425625104873000,8.599873046875,-12.425750732421875,39.252830505371094,24.310882568359375
1686425625114818000,8.609818115234376,-12.676887512207031,38.64427947998047,25.158187866210938
1686425625124763100,8.61976318359375,-13.256202697753906,37.906089782714844,26.00232696533203
1686425625134709000,8.629708984375,-13.385650634765625,37.200462341308594,26.949607849121094
1686425625144654000,8.639654052734375,-13.298843383789062,36.40312957763672,27.517379760742188
1686425625154599000,8.649598876953124,-13.688858032226562,35.88515090942383,28.280914306640625
1686425625164545000,8.659544921875,-13.513702392578125,35.47586441040039,28.703018188476562
1686425625174489900,8.66948974609375,-14.38641357421875,35.39021301269531,28.410202026367188
1686425625184435200,8.679435302734374,-15.146133422851562,35.356231689453125,28.252952575683594
1686425625194381000,8.689381103515625,-15.651008605957031,35.37406921386719,27.766319274902344
1686425625204326100,8.699326171875,-15.71893310546875,35.739952087402344,27.455047607421875
1686425625214272000,8.70927197265625,-15.629127502441406,35.77241134643555,27.05762481689453
1686425625224216800,8.719216796875,-15.704093933105469,36.23673629760742,26.605026245117188
1686425625234162200,8.729162109375,-15.804267883300781,36.64901351928711,25.908851623535156
1686425625244108000,8.73910791015625,-16.212501525878906,36.877769470214844,25.38494873046875
1686425625254053000,8.74905322265625,-16.69061279296875,37.199371337890625,24.73810577392578
1686425625263998000,8.758998046875,-17.32109832763672,37.458473205566406,24.386215209960938
1686425625273944000,8.768944091796875,-17.85302734375,37.54005432128906,23.84166717529297
1686425625283889200,8.77888916015625,-18.25926971435547,37.47881317138672,23.39318084716797
1686425625293834000,8.788833984375,-18.35437774658203,37.58378601074219,23.089675903320312
1686425625303780000,8.798780029296875,-18.45044708251953,37.425254821777344,22.95427703857422
1686425625313725000,8.808724853515624,-18.82067108154297,37.35570526123047,22.89032745361328
1686425625323670300,8.818670166015625,-19.090248107910156,37.16746520996094,23.107498168945312
1686425625333615600,8.82861572265625,-18.55834197998047,37.37889862060547,23.318130493164062
1686425625343560400,8.838560546875,-18.32532501220703,37.10002136230469,23.823379516601562
1686425625353505500,8.848505615234375,-18.169769287109375,36.866233825683594,24.09625244140625
1686425625363451400,8.858451416015624,-17.28376007080078,37.0891227722168,24.52088165283203
1686425625373396500,8.868396484375,-16.568321228027344,37.128936767578125,24.719528198242188
1686425625383342600,8.878342529296875,-15.780158996582031,37.30531692504883,25.33898162841797
1686425625393287400,8.888287353515626,-15.062713623046875,37.333839416503906,25.78559112548828
1686425625403232500,8.898232421875,-15.062713623046875,37.333839416503906,25.78559112548828
1686425625413178400,8.908178466796874,-14.295234680175781,37.44902801513672,25.479515075683594
1686425625423123700,8.918123779296875,-13.966667175292969,37.53187561035156,25.61853790283203
1686425625433068500,8.928068603515625,-14.236885070800781,37.72959899902344,25.347862243652344
1686425625443014400,8.938014404296876,-14.631973266601562,37.9998893737793,25.034866333007812
1686425625452959500,8.94795947265625,-14.368034362792969,38.24104690551758,24.60485076904297
1686425625462904600,8.957904541015624,-12.945556640625,38.91030502319336,24.561080932617188
1686425625472850700,8.9678505859375,-11.028785705566406,39.45527648925781,24.366432189941406
1686425625482795500,8.97779541015625,-8.734077453613281,39.9844970703125,24.003875732421875
1686425625492740400,8.987740234375,-6.856170654296875,40.577945709228516,24.113693237304688
1686425625502686500,8.9976865234375,-5.819862365722656,40.888587951660156,24.010650634765625
1686425625512631300,9.00763134765625,-5.5328216552734375,40.882328033447266,23.840248107910156
1686425625522577400,9.017577392578126,-5.52783203125,40.88594055175781,23.407012939453125
1686425625532522500,9.0275224609375,-6.0001678466796875,40.81117630004883,23.43769073486328
1686425625542467600,9.037467529296874,-6.261322021484375,40.960655212402344,23.37267303466797
1686425625552413400,9.047413330078125,-6.3892822265625,41.11935806274414,23.206260681152344
1686425625562358300,9.057358154296875,-6.8172760009765625,41.145530700683594,22.955902099609375
1686425625572303600,9.0673037109375,-7.313591003417969,41.330833435058594,22.77338409423828
1686425625582249500,9.07724951171875,-7.411033630371094,41.04048538208008,23.001998901367188
1686425625592194600,9.087194580078124,-7.5255279541015625,40.957916259765625,22.922164916992188
1686425625602139400,9.097139404296875,-7.853172302246094,41.017845153808594,23.379562377929688
1686425625612085500,9.10708544921875,-7.5079803466796875,40.98147964477539,23.36103057861328
1686425625622030600,9.117030517578126,-7.49163818359375,40.83152389526367,23.90833282470703
1686425625631975400,9.126975341796875,-7.120933532714844,40.811397552490234,24.195465087890625
1686425625641921500,9.136921630859375,-7.043464660644531,40.603721618652344,24.572265625
1686425625651866400,9.146866455078126,-6.913887023925781,40.53052520751953,24.899261474609375
1686425625661812500,9.1568125,-6.545890808105469,40.33034133911133,25.343307495117188
1686425625671757600,9.166757568359374,-6.223747253417969,39.97802734375,25.429229736328125
1686425625681702700,9.17670263671875,-6.7294769287109375,39.81572723388672,25.561187744140625
1686425625691648500,9.1866484375,-7.131401062011719,39.65277862548828,25.48602294921875
1686425625701593300,9.19659326171875,-8.451469421386719,39.535186767578125,25.40996551513672
1686425625711538400,9.206538330078125,-9.475906372070312,39.27396774291992,25.43621063232422
1686425625721484500,9.216484619140624,-10.319747924804688,38.88530731201172,25.350250244140625
1686425625731429600,9.2264296875,-11.132225036621094,38.5747184753418,25.515731811523438
1686425625741374500,9.23637451171875,-11.200218200683594,38.40468215942383,25.77338409423828
1686425625751320600,9.246320556640624,-11.482650756835938,37.924713134765625,26.129966735839844
1686425625761265400,9.256265380859375,-11.842132568359375,37.58208465576172,26.908721923828125
1686425625771211300,9.266211181640625,-11.914840698242188,36.87953567504883,27.702857971191406
1686425625781156600,9.276156494140626,-12.073638916015625,36.032135009765625,28.44536590576172
1686425625791101400,9.286101318359375,-12.760574340820312,35.22661209106445,29.52594757080078
1686425625801047600,9.296047607421874,-13.221427917480469,34.65911102294922,29.908370971679688
1686425625810992400,9.305992431640625,-13.675399780273438,34.005794525146484,30.09503936767578
1686425625820937500,9.3159375,-14.453468322753906,34.08605194091797,30.298751831054688
1686425625830883600,9.325883544921876,-14.58648681640625,34.02314758300781,30.22412109375
1686425625840828400,9.335828369140625,-14.695426940917969,34.050636291503906,30.32866668701172
1686425625850773500,9.3457734375,-14.586601257324219,34.164703369140625,30.234954833984375
1686425625860719400,9.35571923828125,-14.219871520996094,34.247283935546875,29.940513610839844
1686425625870664700,9.365664794921875,-14.046806335449219,34.5361213684082,29.62647247314453
1686425625880609500,9.375609619140626,-14.008125305175781,34.85964584350586,29.329971313476562
1686425625890555400,9.385555419921875,-14.635383605957031,35.11261749267578,28.90802001953125
1686425625900500500,9.39550048828125,-14.754920959472656,35.20551681518555,28.42510223388672
1686425625910446300,9.4054462890625,-15.080673217773438,35.212135314941406,27.954025268554688
1686425625920391700,9.4153916015625,-15.40496826171875,35.505496978759766,27.83281707763672
1686425625930336500,9.42533642578125,-15.548469543457031,35.49778747558594,27.48773193359375
1686425625940282600,9.43528271484375,-15.8460693359375,35.43374252319336,27.30010986328125
1686425625950227500,9.4452275390625,-15.592620849609375,35.5156364440918,27.236045837402344
1686425625960172300,9.45517236328125,-15.805076599121094,35.522186279296875,27.312347412109375
1686425625970118400,9.465118408203125,-15.344459533691406,35.54658508300781,27.440208435058594
1686425625980063500,9.4750634765625,-15.474838256835938,35.24263000488281,27.6165771484375
1686425625990008600,9.485008544921875,-15.392349243164062,35.30603790283203,27.95581817626953
1686425625999954400,9.494954345703125,-14.9808349609375,35.0181884765625,28.400177001953125
1686425626009899500,9.5048994140625,-14.674781799316406,34.92668151855469,28.47985076904297
1686425626019844600,9.5148447265625,-14.329994201660156,34.85474395751953,28.828941345214844
1686425626029790500,9.52479052734375,-13.699111938476562,34.94269943237305,29.568138122558594
1686425626039735600,9.534735595703125,-12.673469543457031,34.98419189453125,29.827774047851562
1686425626049681400,9.544681396484375,-12.146759033203125,34.5321044921875,30.34947967529297
1686425626059626500,9.55462646484375,-12.239242553710938,34.42372131347656,30.30023956298828
1686425626069571600,9.564571533203125,-12.706459045410156,34.4132080078125,30.092002868652344
1686425626079517700,9.574517578125,-13.20721435546875,34.662330627441406,29.502845764160156
1686425626089462500,9.584462646484376,-13.39288330078125,35.004520416259766,29.26152801513672
1686425626099407400,9.594407470703125,-12.87115478515625,35.14103317260742,29.046798706054688
1686425626109353500,9.604353515625,-11.383247375488281,35.71630859375,28.94731903076172
1686425626119298600,9.614298583984375,-9.924720764160156,36.540138244628906,28.724563598632812
1686425626129243600,9.62424365234375,-8.769485473632812,36.94656753540039,28.744369506835938
1686425626139189500,9.634189453125,-7.986259460449219,37.50574493408203,28.842605590820312
1686425626149134300,9.64413427734375,-7.2815093994140625,37.661041259765625,28.83147430419922
1686425626159080400,9.65408056640625,-7.1297149658203125,37.73828125,29.041419982910156
1686425626169025500,9.664025634765625,-7.290321350097656,37.54122543334961,28.8140869140625
1686425626178970600,9.673970703125,-7.148582458496094,37.653411865234375,28.55664825439453
1686425626188916500,9.68391650390625,-7.148582458496094,37.653411865234375,28.55664825439453
1686425626198861600,9.693861572265625,-7.087928771972656,37.43108367919922,28.788352966308594
1686425626208806400,9.703806396484374,-7.2081756591796875,37.69969940185547,28.639610290527344
1686425626218752500,9.71375244140625,-7.181892395019531,37.705718994140625,28.456275939941406
1686425626228697600,9.723697509765625,-7.028877258300781,37.645660400390625,28.496688842773438
1686425626238642400,9.733642333984376,-7.11370849609375,37.41153335571289,28.90715789794922
1686425626248588500,9.743588623046875,-7.250274658203125,37.1968994140625,29.187515258789062
1686425626258533400,9.753533447265625,-7.311393737792969,36.871681213378906,29.036354064941406
1686425626268478500,9.763478515625,-7.074302673339844,36.81196594238281,29.16291046142578
1686425626278424600,9.773424560546875,-7.127357482910156,36.660255432128906,29.53978729248047
1686425626288369400,9.783369384765624,-6.973663330078125,36.52251434326172,29.81989288330078
1686425626298315500,9.7933154296875,-6.4691619873046875,36.562416076660156,30.07982635498047
1686425626308260400,9.80326025390625,-6.447479248046875,36.15898895263672,30.245101928710938
1686425626318205700,9.813205810546876,-6.832893371582031,36.03541564941406,30.2398681640625
1686425626328151600,9.823151611328125,-7.155845642089844,35.844757080078125,30.636016845703125
1686425626338097200,9.83309716796875,-8.109077453613281,35.802696228027344,30.69837188720703
1686425626348042000,9.8430419921875,-9.654296875,35.389312744140625,30.56371307373047
1686425626357988000,9.852988037109375,-11.203605651855469,35.03600311279297,30.24042510986328
1686425626367933000,9.862932861328124,-12.359779357910156,35.019134521484375,29.91668701171875
1686425626377878000,9.8728779296875,-13.508460998535156,34.47447204589844,29.96320343017578
1686425626387824000,9.88282421875,-14.259162902832031,34.27267837524414,30.029449462890625
1686425626397769000,9.89276904296875,-14.561813354492188,34.287086486816406,29.96820831298828
1686425626407715000,9.902715087890625,-14.125526428222656,34.17707061767578,29.6278076171875
1686425626417660000,9.912659912109374,-14.010780334472656,34.04529571533203,30.16204071044922
1686425626427605200,9.922605224609375,-14.498672485351562,33.85748291015625,30.350677490234375
1686425626437551000,9.932551025390625,-13.990554809570312,33.409664154052734,30.858322143554688
1686425626447496000,9.942495849609376,-13.601463317871094,33.153106689453125,31.435989379882812
1686425626457441000,9.95244091796875,-13.206535339355469,32.51202392578125,32.155914306640625
1686425626467387000,9.962386962890625,-13.258392333984375,31.888959884643555,32.826576232910156
1686425626477332200,9.972332275390626,-13.506088256835938,31.612993240356445,32.928131103515625
1686425626487277000,9.982277099609375,-13.561233520507812,31.63741111755371,33.10972595214844
1686425626497223200,9.99222314453125,-13.948051452636719,31.61320686340332,33.004730224609375
1686425626507168000,10.00216796875,-13.748077392578125,31.573755264282227,33.13047790527344
1686425626517113000,10.012113037109375,-14.638114929199219,31.8558292388916,32.78999328613281
1686425626527059200,10.02205908203125,-15.011390686035156,31.90778160095215,32.28748321533203
1686425626537004000,10.032004150390625,-15.128700256347656,32.068931579589844,32.15998077392578
1686425626546950100,10.0419501953125,-15.254875183105469,32.19932556152344,31.87183380126953
1686425626556895000,10.05189501953125,-15.660125732421875,32.3788948059082,31.375198364257812
1686425626566839800,10.06183984375,-16.016860961914062,32.610443115234375,30.872596740722656
1686425626576786000,10.071785888671876,-16.229278564453125,32.63471984863281,30.635231018066406
1686425626586731000,10.08173095703125,-16.409828186035156,32.63824462890625,30.1737060546875
1686425626596676000,10.091676025390624,-16.544349670410156,32.95624923706055,30.067970275878906
1686425626606622000,10.1016220703125,-16.503921508789062,33.07965850830078,30.072677612304688
1686425626616567000,10.111567138671875,-16.73192596435547,32.91797637939453,29.915725708007812
1686425626626512100,10.12151220703125,-16.79637908935547,32.748207092285156,30.232078552246094
1686425626636458000,10.1314580078125,-17.015640258789062,32.431114196777344,30.464996337890625
1686425626646403000,10.141403076171875,-16.91539764404297,32.274497985839844,30.579193115234375
1686425626656349000,10.151348876953126,-16.686233520507812,32.415985107421875,30.827430725097656
1686425626666294000,10.1612939453125,-16.404296875,32.28468704223633,31.27307891845703
1686425626676239000,10.171239013671874,-15.91485595703125,32.215904235839844,31.68035125732422
1686425626686185200,10.181185302734375,-14.594078063964844,32.199371337890625,32.30095672607422
1686425626696130000,10.191130126953125,-13.795906066894531,32.269004821777344,32.477264404296875
1686425626706075000,10.201074951171876,-13.037620544433594,32.32259750366211,32.475379943847656
1686425626716021000,10.21102099609375,-12.71783447265625,32.43745803833008,32.43224334716797
1686425626725966000,10.220966064453124,-12.493522644042969,32.86611557006836,32.44605255126953
1686425626735911200,10.2309111328125,-12.491584777832031,33.2274055480957,32.09674835205078
1686425626745857000,10.24085693359375,-12.254470825195312,33.70063018798828,31.434837341308594
1686425626755802000,10.250802001953126,-11.166419982910156,34.343074798583984,31.544754028320312
1686425626765748000,10.260748046875,-9.920341491699219,34.917388916015625,31.21831512451172
1686425626775693000,10.270693115234375,-8.9991455078125,35.44377136230469,31.001174926757812
1686425626785638100,10.28063818359375,-7.5448150634765625,35.9249153137207,30.824317932128906
1686425626795584000,10.290583984375,-7.344459533691406,36.18798828125,30.380233764648438
1686425626805529000,10.300529052734374,-7.134208679199219,36.780059814453125,30.152191162109375
1686425626815474000,10.310473876953125,-7.221923828125,36.67485046386719,30.108070373535156
1686425626825420000,10.320419921875,-7.279197692871094,36.56578826904297,29.87134552001953
1686425626835365000,10.330365234375,-7.85601806640625,36.71727752685547,29.69306182861328
1686425626845310000,10.34031005859375,-8.46954345703125,36.66535568237305,29.54114532470703
1686425626855256000,10.350256103515624,-9.001945495605469,36.41981506347656,29.165802001953125
1686425626865201000,10.360200927734375,-9.152450561523438,36.722015380859375,29.2415771484375
1686425626875147000,10.37014697265625,-9.129165649414062,36.57965850830078,29.465057373046875
1686425626885092000,10.380092041015626,-9.463272094726562,36.3555908203125,29.93701934814453
1686425626895037000,10.390036865234375,-9.2886962890625,35.93297576904297,30.35883331298828
1686425626904983000,10.399983154296875,-8.969253540039062,35.41870880126953,30.665603637695312
1686425626914927900,10.409927978515626,-8.354270935058594,35.18310546875,31.0574951171875
1686425626924873200,10.419873291015625,-7.923942565917969,35.17059326171875,31.629051208496094
1686425626934819000,10.429819091796874,-7.419227600097656,34.84239196777344,32.156227111816406
1686425626944764200,10.43976416015625,-6.922294616699219,34.44819641113281,32.34126281738281
1686425626954709000,10.449708984375,-6.052215576171875,34.149940490722656,32.78277587890625
1686425626964654800,10.45965478515625,-6.3691253662109375,33.700958251953125,33.49940490722656
1686425626974600200,10.46960009765625,-6.3691253662109375,33.700958251953125,33.49940490722656
1686425626984545000,10.479544921875,-7.26568603515625,33.33152770996094,33.353492736816406
1686425626994491100,10.4894912109375,-8.928749084472656,33.322872161865234,33.01636505126953
1686425627004436000,10.49943603515625,-10.616203308105469,33.22994613647461,32.522621154785156
1686425627014382000,10.509382080078124,-11.170295715332031,33.169769287109375,32.30706024169922
1686425627024327000,10.519326904296875,-11.597343444824219,33.08785629272461,32.448028564453125
1686425627034272000,10.52927197265625,-11.608757019042969,33.20098114013672,32.627723693847656
1686425627044218000,10.539218017578126,-12.147933959960938,32.86249542236328,32.57653045654297
1686425627054163000,10.549162841796875,-12.902183532714844,32.39037322998047,32.676475524902344
1686425627064108000,10.55910791015625,-12.854255676269531,32.27691650390625,33.046112060546875
1686425627074054000,10.569053955078125,-13.089752197265625,32.032257080078125,32.895790100097656
1686425627083999200,10.578999267578125,-13.308670043945312,31.54230308532715,33.3970947265625
1686425627093944000,10.588944091796876,-13.069656372070312,31.27341651916504,33.775970458984375
1686425627103890000,10.598889892578125,-12.686279296875,30.9179630279541,34.3656005859375
1686425627113835000,10.6088349609375,-12.360664367675781,30.782041549682617,34.540130615234375
1686425627123780900,10.61878076171875,-12.186447143554688,30.726207733154297,34.62327575683594
1686425627133726200,10.628726318359375,-12.115592956542969,30.590011596679688,34.44221496582031
1686425627143671000,10.638671142578126,-12.745964050292969,30.958349227905273,34.10301971435547
1686425627153617200,10.6486171875,-13.282432556152344,30.972503662109375,33.61912536621094
1686425627163562000,10.65856201171875,-13.901405334472656,30.984827041625977,33.40448760986328
1686425627173507000,10.668507080078125,-13.777427673339844,31.19400405883789,33.310279846191406
1686425627183453200,10.678453125,-14.003517150878906,31.74626350402832,33.366188049316406
1686425627193398000,10.68839794921875,-13.851661682128906,31.66298484802246,32.92577362060547
1686425627203343000,10.698343017578125,-14.388595581054688,31.744937896728516,32.66278839111328
1686425627213289000,10.7082890625,-15.100471496582031,32.037384033203125,32.198020935058594
1686425627223234000,10.718234130859376,-15.390647888183594,31.983917236328125,31.917938232421875
1686425627233179100,10.72817919921875,-15.895988464355469,32.19596862792969,31.549453735351562
1686425627243125000,10.738125,-16.247970581054688,32.292381286621094,31.3529052734375
1686425627253070000,10.748070068359375,-16.809890747070312,32.5880241394043,30.962860107421875
1686425627263016000,10.758015869140625,-16.849899291992188,32.6068115234375,30.659469604492188
1686425627272961000,10.7679609375,-17.224899291992188,32.626014709472656,30.218894958496094
1686425627282906000,10.777906005859375,-17.130081176757812,32.499393463134766,30.461776733398438
1686425627292852000,10.78785205078125,-17.410293579101562,32.46549606323242,30.389663696289062
1686425627302797000,10.797797119140625,-17.092498779296875,32.27793884277344,30.620094299316406
1686425627312742000,10.807741943359375,-16.826141357421875,32.07025146484375,30.804763793945312
1686425627322688000,10.81768798828125,-16.601097106933594,32.10765075683594,30.960067749023438
1686425627332632800,10.8276328125,-16.263458251953125,32.0024528503418,31.252777099609375
1686425627342577700,10.83757763671875,-15.509620666503906,32.206912994384766,31.65313720703125
1686425627352523800,10.847523681640626,-14.686203002929688,32.26023483276367,31.98944091796875
1686425627362468600,10.857468505859375,-14.30023193359375,32.195037841796875,32.65391540527344
1686425627372414700,10.867414794921874,-13.694404602050781,32.45049285888672,32.378753662109375
1686425627382359800,10.87735986328125,-13.659217834472656,32.607872009277344,32.30537414550781
1686425627392305000,10.887304931640625,-13.528656005859375,32.95890426635742,31.997756958007812
1686425627402250800,10.897250732421876,-13.189247131347656,33.42742156982422,31.749404907226562
1686425627412195600,10.907195556640625,-12.655464172363281,33.71552276611328,31.148963928222656
1686425627422141000,10.917140869140624,-11.449462890625,34.30854797363281,30.666419982910156
1686425627432086800,10.927086669921875,-9.778694152832031,34.909934997558594,30.702125549316406
1686425627442031900,10.937031982421875,-8.453140258789062,35.414390563964844,30.97174835205078
1686425627451976700,10.946976806640626,-7.4512786865234375,35.590484619140625,30.856170654296875
1686425627461922800,10.9569228515625,-6.805267333984375,35.88639450073242,30.794784545898438
1686425627471868000,10.966867919921874,-6.756011962890625,35.78093719482422,31.001007080078125
1686425627481814000,10.97681396484375,-7.153190612792969,35.878387451171875,31.032089233398438
1686425627491758800,10.9867587890625,-7.666900634765625,35.769630432128906,30.927520751953125
1686425627501703700,10.99670361328125,-8.197769165039062,35.762550354003906,30.613906860351562
1686425627511649800,11.00664990234375,-8.829109191894531,35.921363830566406,30.38214111328125
1686425627521595000,11.016594970703125,-9.121238708496094,35.85362243652344,30.32001495361328
1686425627531539700,11.026539794921876,-9.513412475585938,35.705284118652344,30.308563232421875
1686425627541485800,11.03648583984375,-9.454696655273438,35.648109436035156,30.422958374023438
1686425627551430700,11.0464306640625,-9.21563720703125,35.615631103515625,30.64617156982422
1686425627561375700,11.056375732421875,-9.281387329101562,35.36311340332031,30.832748413085938
1686425627571321600,11.066321533203125,-8.975830078125,35.42778015136719,31.173431396484375
1686425627581267000,11.076266845703126,-8.395561218261719,35.18431091308594,31.39887237548828
1686425627591212800,11.086212890625,-7.788887023925781,34.833221435546875,31.756385803222656
1686425627601158000,11.096157958984374,-7.412353515625,34.845863342285156,32.2109375
1686425627611102700,11.106102783203125,-7.02581787109375,34.59556579589844,32.73493194580078
1686425627621048600,11.116048583984375,-6.843162536621094,34.20829772949219,33.027488708496094
1686425627630994000,11.125993896484376,-6.757453918457031,33.84160614013672,33.576759338378906
1686425627640938800,11.135938720703125,-7.3682861328125,33.18865966796875,33.709442138671875
1686425627650884900,11.145884765625,-8.760078430175781,33.106781005859375,33.84587860107422
1686425627660829700,11.15582958984375,-10.405593872070312,32.979759216308594,33.41046142578125
1686425627670774800,11.16577490234375,-11.573890686035156,32.54133605957031,33.28981018066406
1686425627680721000,11.175720947265624,-12.039726257324219,32.14094924926758,33.09850311279297
1686425627690665700,11.185665771484375,-12.050682067871094,32.14164733886719,33.09617614746094
1686425627700611800,11.19561181640625,-12.928520202636719,32.041481018066406,33.036712646484375
1686425627710556700,11.205556640625,-13.307029724121094,31.730140686035156,33.240333557128906
1686425627720502000,11.215501953125,-13.385360717773438,31.457366943359375,33.39338684082031
1686425627730448000,11.22544775390625,-13.6510009765625,30.85863494873047,33.754058837890625
1686425627740392700,11.235392822265625,-13.6510009765625,30.85863494873047,33.754058837890625
1686425627750337800,11.245337890625,-13.784416198730469,30.337522506713867,34.039215087890625
1686425627760283600,11.25528369140625,-13.835014343261719,30.272716522216797,34.64923858642578
1686425627770228700,11.265228759765625,-13.898231506347656,29.627517700195312,34.98284149169922
1686425627780173800,11.275173828125,-13.520553588867188,29.450864791870117,34.82221984863281
1686425627790120000,11.285119873046876,-13.531837463378906,29.885900497436523,34.65559387207031
1686425627800064800,11.295064697265625,-13.683891296386719,29.999345779418945,34.661109924316406
1686425627810010600,11.3050107421875,-14.038490295410156,30.4349365234375,34.37355041503906
1686425627819955700,11.314955810546875,-14.258041381835938,30.368392944335938,34.37969207763672
1686425627829900800,11.32490087890625,-14.872512817382812,30.45163917541504,33.98185729980469
1686425627839847000,11.334846923828126,-14.434478759765625,30.479555130004883,33.491111755371094
1686425627849791700,11.344791748046875,-14.733650207519531,30.949541091918945,33.33441162109375
1686425627859736600,11.354736572265624,-14.737289428710938,31.179397583007812,33.258941650390625
1686425627869682700,11.3646826171875,-14.871307373046875,31.318204879760742,32.79206085205078
1686425627879627800,11.374627685546875,-15.10833740234375,31.55162239074707,32.531639099121094
1686425627889572900,11.38457275390625,-15.700706481933594,31.610076904296875,32.264183044433594
1686425627899518700,11.394518798828125,-15.828788757324219,31.484466552734375,31.845619201660156
1686425627909463800,11.4044638671875,-16.25121307373047,31.41401481628418,32.12846374511719
1686425627919409700,11.41440966796875,-16.291366577148438,31.523340225219727,32.069175720214844
1686425627929355000,11.42435498046875,-16.549476623535156,31.622385025024414,31.76476287841797
1686425627939299800,11.4342998046875,-16.756240844726562,31.510522842407227,31.737449645996094
1686425627949245700,11.44424560546875,-16.468177795410156,31.445903778076172,32.090431213378906
1686425627959190800,11.454190673828125,-16.2191162109375,31.395278930664062,32.31773376464844
1686425627969135900,11.464135986328126,-15.951545715332031,31.21449851989746,32.356544494628906
1686425627979082000,11.47408203125,-15.644508361816406,31.13559341430664,32.584571838378906
1686425627989026800,11.48402685546875,-14.935440063476562,31.261756896972656,32.90699005126953
1686425627998971600,11.4939716796875,-14.090812683105469,31.283658981323242,33.13642120361328
1686425628008917800,11.503917724609375,-12.828514099121094,31.579254150390625,33.54130554199219
1686425628018862800,11.51386279296875,-11.262077331542969,32.0225830078125,33.693687438964844
1686425628028809000,11.52380908203125,-10.592636108398438,31.92782211303711,33.728675842285156
1686425628038753800,11.53375390625,-9.985267639160156,32.18152618408203,33.749610900878906
1686425628048699000,11.543698974609375,-10.523941040039062,32.367286682128906,33.825096130371094
1686425628058644700,11.553644775390625,-10.332923889160156,32.23097229003906,33.216575622558594
1686425628068589600,11.563589599609376,-10.236930847167969,32.403663635253906,33.12251281738281
1686425628078535000,11.573534912109375,-9.742202758789062,32.90580749511719,33.13671112060547
1686425628088480800,11.583480712890625,-9.350883483886719,33.02139663696289,33.12983703613281
1686425628098425900,11.59342578125,-8.339447021484375,33.389591217041016,32.985076904296875
1686425628108370700,11.60337060546875,-7.8935394287109375,33.52960968017578,32.977783203125
1686425628118316800,11.61331689453125,-7.742889404296875,33.70680236816406,32.861305236816406
1686425628128262000,11.623261962890625,-7.896400451660156,33.588584899902344,32.60735321044922
1686425628138207700,11.633207763671875,-8.214431762695312,33.897850036621094,32.76818084716797
1686425628148152800,11.64315283203125,-8.811798095703125,33.978424072265625,32.55084228515625
1686425628158097700,11.65309765625,-8.954925537109375,34.079933166503906,32.44567108154297
1686425628168043800,11.663043701171874,-8.836334228515625,34.07219696044922,32.441444396972656
1686425628177988900,11.67298876953125,-8.971717834472656,34.31376266479492,32.33238983154297
1686425628187933700,11.68293359375,-9.238533020019531,34.45378494262695,32.259063720703125
1686425628197879800,11.6928798828125,-9.146156311035156,34.35614776611328,32.13463592529297
1686425628207824600,11.70282470703125,-8.807037353515625,34.22950744628906,32.34120178222656
1686425628217770000,11.71277001953125,-8.867523193359375,34.3399772644043,32.343345642089844
1686425628227715800,11.7227158203125,-8.696434020996094,34.350929260253906,32.93199920654297
1686425628237661000,11.732660888671875,-8.013252258300781,34.185951232910156,33.12200164794922
1686425628247606800,11.742606689453124,-7.6921234130859375,33.96962356567383,33.440773010253906
1686425628257551600,11.752551513671875,-7.006980895996094,33.77540588378906,33.595947265625
1686425628267496700,11.76249658203125,-7.2052459716796875,33.233001708984375,33.767494201660156
1686425628277442800,11.77244287109375,-6.97320556640625,33.168487548828125,34.13859558105469
1686425628287388000,11.782387939453125,-7.118324279785156,32.89046859741211,34.343223571777344
1686425628297332700,11.792332763671874,-7.7073211669921875,32.89985656738281,34.127174377441406
1686425628307278800,11.80227880859375,-8.993629455566406,32.865699768066406,34.00840759277344
1686425628317223700,11.8122236328125,-10.416793823242188,32.88043975830078,33.32012939453125
1686425628327168800,11.822168701171876,-11.278953552246094,32.86730194091797,33.1082763671875
1686425628337114400,11.8321142578125,-11.395248413085938,32.6707878112793,32.73969268798828
1686425628347059500,11.8420595703125,-11.962684631347656,32.91357421875,32.48259735107422
1686425628357005300,11.85200537109375,-12.240676879882812,32.979156494140625,32.31005859375
1686425628366950400,11.861950439453125,-12.640411376953125,32.81270980834961,32.318763732910156
1686425628376895500,11.8718955078125,-12.915328979492188,32.58815002441406,32.28224182128906
1686425628386841300,11.88184130859375,-13.256752014160156,32.44596862792969,32.63288116455078
1686425628396786400,11.891786376953124,-13.813079833984375,31.74529266357422,33.24089813232422
1686425628406731300,11.901731201171875,-14.220420837402344,30.917810440063477,33.60187530517578
1686425628416677400,11.911677490234375,-15.344612121582031,30.18177032470703,34.005828857421875
1686425628426622500,11.92162255859375,-16.04267120361328,29.797653198242188,33.89087677001953
1686425628436567300,11.9315673828125,-16.02325439453125,29.94599151611328,33.857017517089844
1686425628446513400,11.941513427734375,-15.892623901367188,30.025693893432617,33.62725830078125
1686425628456458200,11.951458251953126,-16.08594512939453,30.321998596191406,33.187477111816406
1686425628466404400,11.961404296875,-15.980087280273438,30.532649993896484,32.796180725097656
1686425628476349400,11.971349365234374,-15.949066162109375,31.13010597229004,32.355674743652344
1686425628486294300,11.981294189453125,-16.7498779296875,31.538925170898438,31.706764221191406
1686425628496240400,11.991240478515625,-17.10271453857422,31.993324279785156,31.118698120117188
1686425628506185200,12.001185302734376,-16.7119140625,32.41278839111328,30.764129638671875
1686425628516130600,12.011130615234375,-16.220413208007812,32.94792938232422,30.385818481445312
1686425628526076400,12.021076416015624,-16.220413208007812,32.94792938232422,30.385818481445312
1686425628536021500,12.031021484375,-16.462486267089844,33.41497802734375,29.71868133544922
1686425628545966300,12.04096630859375,-16.932281494140625,33.98939895629883,29.06645965576172
1686425628555912200,12.050912109375,-16.72333526611328,34.41358184814453,28.69123077392578
1686425628565857500,12.060857421875,-16.43091583251953,34.96504211425781,27.957794189453125
1686425628575803400,12.070803466796875,-16.30744171142578,35.2508659362793,27.36664581298828
1686425628585748500,12.08074853515625,-16.298255920410156,35.49153137207031,27.07683563232422
1686425628595693300,12.090693359375,-16.47393035888672,36.11149597167969,26.953201293945312
1686425628605639400,12.100639404296874,-15.942543029785156,36.202152252197266,26.597640991210938
1686425628615584300,12.110584228515625,-15.712486267089844,36.496849060058594,26.391761779785156
1686425628625529300,12.120529296875,-14.738761901855469,36.93341827392578,26.685653686523438
1686425628635475500,12.130475341796876,-13.958106994628906,37.14080810546875,26.975784301757812
1686425628645420300,12.140420166015625,-13.023918151855469,37.173851013183594,27.16443634033203
1686425628655365400,12.150365478515624,-11.065422058105469,37.273353576660156,27.608322143554688
1686425628665311200,12.160311279296875,-9.608009338378906,37.326412200927734,27.84754180908203
1686425628675256600,12.170256591796875,-8.755752563476562,37.50676727294922,28.272743225097656
1686425628685202400,12.180202392578124,-8.912094116210938,37.97347640991211,27.600830078125
1686425628695147300,12.190147216796875,-9.706535339355469,37.95730209350586,27.22925567626953
1686425628705092400,12.20009228515625,-10.641242980957031,38.01499557495117,26.341598510742188
1686425628715038200,12.2100380859375,-11.370643615722656,38.776519775390625,25.486534118652344
1686425628724983600,12.219983642578125,-10.544197082519531,39.07025909423828,24.894760131835938
1686425628734928400,12.229928466796874,-9.002426147460938,39.811920166015625,24.281494140625
1686425628744874500,12.23987451171875,-7.876029968261719,40.445919036865234,23.87163543701172
1686425628754819300,12.2498193359375,-6.797340393066406,40.922611236572266,23.346839904785156
1686425628764764400,12.259764404296876,-5.648689270019531,41.26860046386719,23.263145446777344
1686425628774710500,12.26971044921875,-5.278205871582031,41.60264205932617,22.79248046875
1686425628784655400,12.2796552734375,-5.071601867675781,41.83470916748047,22.33155059814453
1686425628794601500,12.2896015625,-5.223419189453125,42.045589447021484,22.037124633789062
1686425628804546300,12.29954638671875,-5.174713134765625,42.46332550048828,21.525245666503906
1686425628814491400,12.309491455078126,-5.920448303222656,42.49735641479492,21.353843688964844
1686425628824437500,12.3194375,-6.404106140136719,42.38999938964844,20.831100463867188
1686425628834382300,12.32938232421875,-7.046760559082031,42.4251823425293,20.661285400390625
1686425628844327400,12.339327392578125,-7.607490539550781,42.4862174987793,20.39421844482422
1686425628854273300,12.349273193359375,-7.908233642578125,42.68339538574219,20.333358764648438
1686425628864218400,12.35921826171875,-7.896064758300781,42.52833557128906,20.258819580078125
1686425628874163500,12.36916357421875,-7.443031311035156,42.51884841918945,20.355133056640625
1686425628884109300,12.379109375,-7.144264221191406,42.605899810791016,20.324073791503906
1686425628894054400,12.389054443359376,-6.597953796386719,42.66564178466797,20.298789978027344
1686425628904000300,12.399000244140625,-6.471443176269531,42.80148696899414,20.733238220214844
1686425628913945300,12.4089453125,-6.0941162109375,42.376304626464844,20.696258544921875
1686425628923890400,12.418890380859375,-5.7086181640625,42.453758239746094,21.213233947753906
1686425628933836500,12.42883642578125,-5.2670135498046875,42.122135162353516,21.69599151611328
1686425628943781400,12.438781494140626,-5.6414642333984375,41.73307800292969,22.079910278320312
1686425628953726200,12.448726318359375,-5.741310119628906,41.67137145996094,22.364791870117188
1686425628963672300,12.45867236328125,-6.421722412109375,41.481597900390625,22.51818084716797
1686425628973617400,12.468617431640626,-8.151687622070312,41.25019073486328,22.375587463378906
1686425628983562500,12.4785625,-9.509956359863281,41.329280853271484,21.43663787841797
1686425628993508400,12.48850830078125,-10.817634582519531,41.27589416503906,20.64623260498047
1686425629003453200,12.498453125,-12.001655578613281,41.469871520996094,19.884353637695312
1686425629013399300,12.5083994140625,-12.855453491210938,41.51728439331055,19.425003051757812
1686425629023344400,12.518344482421876,-13.6334228515625,41.495933532714844,18.73401641845703
1686425629033289500,12.52828955078125,-14.149566650390625,41.7586669921875,18.336959838867188
1686425629043235300,12.5382353515625,-14.120735168457031,41.6777458190918,17.91419219970703
1686425629053180400,12.548180419921875,-14.315353393554688,41.608070373535156,18.462051391601562
1686425629063125200,12.558125244140625,-14.132881164550781,41.22205352783203,18.865394592285156
1686425629073071400,12.5680712890625,-14.567596435546875,40.81491470336914,19.633934020996094
1686425629083016400,12.578016357421875,-15.008460998535156,40.24006652832031,20.495346069335938
1686425629092962300,12.58796240234375,-16.059349060058594,39.58485412597656,21.084007263183594
1686425629102907400,12.597907470703126,-16.487632751464844,39.22338104248047,21.005050659179688
1686425629112852200,12.607852294921875,-16.670578002929688,39.0916862487793,20.813819885253906
1686425629122798300,12.61779833984375,-16.743911743164062,39.1953125,20.534286499023438
1686425629132743400,12.627743408203125,-16.663185119628906,39.56355285644531,20.17279815673828
1686425629142688300,12.637688232421874,-15.785438537597656,40.13814926147461,20.313209533691406
1686425629152634400,12.64763427734375,-15.0458984375,40.49394989013672,19.863746643066406
1686425629162579200,12.6575791015625,-14.555778503417969,40.78852081298828,19.63011932373047
1686425629172524500,12.667524658203124,-14.259292602539062,40.76091003417969,19.323387145996094
1686425629182470400,12.677470458984375,-14.080345153808594,41.24253463745117,18.63140106201172
1686425629192415500,12.68741552734375,-14.452224731445312,41.70598602294922,18.058975219726562
1686425629202361300,12.697361328125,-14.286094665527344,41.817466735839844,17.777175903320312
1686425629212306200,12.70730615234375,-14.150558471679688,42.09945297241211,16.82335662841797
1686425629222251500,12.71725146484375,-13.923263549804688,42.27509307861328,16.47576141357422
1686425629232197400,12.727197265625,-13.442657470703125,42.820308685302734,16.140228271484375
1686425629242142500,12.737142578125,-12.679519653320312,43.21326446533203,15.872444152832031
1686425629252087300,12.74708740234375,-11.768295288085938,43.48578643798828,15.639892578125
1686425629262033400,12.757033447265625,-10.775070190429688,44.09012222290039,14.986289978027344
1686425629271978500,12.766978515625,-9.703193664550781,44.095306396484375,15.053337097167969
1686425629281923300,12.77692333984375,-8.861480712890625,44.27070617675781,15.363700866699219
1686425629291869400,12.786869384765625,-8.260894775390625,44.289100646972656,15.407234191894531
1686425629301814300,12.796814208984374,-7.9034423828125,44.38780975341797,15.793281555175781
1686425629311760400,12.806760498046875,-7.9034423828125,44.38780975341797,15.793281555175781
1686425629321705200,12.816705322265625,-8.539535522460938,44.031768798828125,15.868972778320312
1686425629331650300,12.826650390625,-9.887542724609375,43.7883415222168,15.8297119140625
1686425629341597200,12.83659716796875,-11.867843627929688,43.61310958862305,14.697608947753906
1686425629351542300,12.846542236328125,-14.192588806152344,43.2929573059082,13.788970947265625
1686425629361487000,12.856487060546876,-15.432838439941406,43.03888702392578,12.509391784667969
1686425629371433000,12.866432861328125,-14.82342529296875,43.383750915527344,12.152450561523438
1686425629381378000,12.8763779296875,-13.213951110839844,44.0130615234375,11.938407897949219
1686425629391323100,12.8863232421875,-11.120651245117188,44.59163284301758,11.377510070800781
