time,seconds_elapsed,z,y,x
1686425616611709400,0.10670947265625,-124.44688415527344,-58.151702880859375,82.84690856933594
1686425616621782300,0.1167822265625,-124.53196716308594,-58.100860595703125,83.5601806640625
1686425616631856400,0.1268564453125,-124.423095703125,-58.153717041015625,84.03721618652344
1686425616641930200,0.13693017578125,-124.48361206054688,-57.86421203613281,84.90530395507812
1686425616652004600,0.147004638671875,-124.10676574707031,-57.73966979980469,86.15119934082031
1686425616662077400,0.157077392578125,-124.11558532714844,-57.090484619140625,86.57388305664062
1686425616672150300,0.167150390625,-123.88764953613281,-57.03257751464844,87.25442504882812
1686425616682223400,0.177223388671875,-124.30697631835938,-57.4481201171875,87.58383178710938
1686425616692296200,0.187296142578125,-123.95411682128906,-57.59831237792969,88.52241516113281
1686425616702369500,0.19736962890625,-123.71806335449219,-57.639739990234375,89.52630615234375
1686425616712443400,0.207443359375,-124.31578063964844,-58.20613098144531,90.84873962402344
1686425616722518500,0.2175185546875,-123.42559814453125,-58.2359619140625,91.783203125
1686425616732592400,0.22759228515625,-123.30154418945312,-58.350616455078125,92.94874572753906
1686425616742667500,0.23766748046875,-122.729736328125,-58.83050537109375,94.09556579589844
1686425616752741400,0.247741455078125,-123.09403991699219,-58.86051940917969,95.56907653808594
1686425616762812400,0.2578125,-123.029541015625,-58.892669677734375,96.5643310546875
1686425616772883500,0.267883544921875,-121.97782897949219,-59.1142578125,97.612060546875
1686425616782954500,0.27795458984375,-121.93263244628906,-58.7335205078125,98.662353515625
1686425616793026600,0.288026611328125,-121.55744934082031,-59.03507995605469,99.84097290039062
1686425616803099400,0.298099365234375,-121.70338439941406,-58.883697509765625,100.38624572753906
1686425616813171500,0.30817138671875,-121.17294311523438,-58.69795227050781,101.43258666992188
1686425616823242500,0.318242431640625,-121.12515258789062,-58.57063293457031,102.47425842285156
1686425616833313500,0.3283134765625,-120.424072265625,-58.82347106933594,103.78288269042969
1686425616843384300,0.33838427734375,-119.90647888183594,-58.8023681640625,105.4603271484375
1686425616853457400,0.34845751953125,-118.54898071289062,-58.90299987792969,107.0396728515625
1686425616863529500,0.358529541015625,-117.88809204101562,-59.59278869628906,108.95451354980469
1686425616873602300,0.368602294921875,-116.02656555175781,-60.14955139160156,110.85150146484375
1686425616883675400,0.37867529296875,-114.69729614257812,-60.99891662597656,112.24945068359375
1686425616893747500,0.38874755859375,-113.41049194335938,-61.79261779785156,113.74528503417969
1686425616903819300,0.3988193359375,-112.03468322753906,-62.416900634765625,115.080078125
1686425616913891300,0.408891357421875,-110.73432922363281,-63.48774719238281,116.55325317382812
1686425616923963400,0.41896337890625,-109.22404479980469,-63.75929260253906,117.70936584472656
1686425616934035200,0.42903515625,-107.1953125,-64.5223388671875,119.14405822753906
1686425616944107300,0.439107177734375,-105.67706298828125,-64.8720703125,120.5260009765625
1686425616954179300,0.449179443359375,-102.95155334472656,-65.54531860351562,121.98678588867188
1686425616964251400,0.45925146484375,-100.04423522949219,-66.32110595703125,124.28654479980469
1686425616974324500,0.469324462890625,-97.03096008300781,-66.32521057128906,125.70834350585938
1686425616984397300,0.479397216796875,-94.39579772949219,-66.27708435058594,126.99569702148438
1686425616994471400,0.489471435546875,-91.72225952148438,-65.45590209960938,127.74552917480469
1686425617004543200,0.499543212890625,-90.78883361816406,-64.7791748046875,128.5371856689453
1686425617014614300,0.5096142578125,-89.93283081054688,-63.80067443847656,129.07635498046875
1686425617024685300,0.519685302734375,-89.1024169921875,-62.50593566894531,129.64308166503906
1686425617034759200,0.52975927734375,-88.88499450683594,-60.86534118652344,129.92105102539062
1686425617044831200,0.539831298828125,-89.12384033203125,-59.10569763183594,129.8169403076172
1686425617054904600,0.549904541015625,-89.69589233398438,-57.19599914550781,130.08587646484375
1686425617064976400,0.559976318359375,-89.76303100585938,-55.17012023925781,130.0295867919922
1686425617075048400,0.57004833984375,-90.83631896972656,-53.29682922363281,129.77392578125
1686425617085121300,0.580121337890625,-91.09576416015625,-51.504852294921875,129.35472106933594
1686425617095194400,0.5901943359375,-91.68965148925781,-50.388580322265625,129.03262329101562
1686425617105266400,0.600266357421875,-92.6064453125,-48.941741943359375,128.8585968017578
1686425617115338200,0.610338134765625,-93.12692260742188,-48.710113525390625,128.4590606689453
1686425617125410300,0.620410400390625,-93.51284790039062,-47.981231689453125,128.1904754638672
1686425617135482400,0.630482421875,-94.99940490722656,-47.92085266113281,127.62236022949219
1686425617145554400,0.640554443359375,-96.16050720214844,-47.64854431152344,127.15452575683594
1686425617155623400,0.65062353515625,-97.607666015625,-47.71784973144531,126.64671325683594
1686425617165695500,0.660695556640625,-98.32461547851562,-48.423675537109375,126.31838989257812
1686425617175766500,0.6707666015625,-99.1343994140625,-48.93821716308594,125.78968811035156
1686425617185838300,0.68083837890625,-100.27198791503906,-49.813812255859375,125.65863037109375
1686425617195911400,0.690911376953125,-100.69239807128906,-50.27146911621094,124.89701843261719
1686425617205983500,0.7009833984375,-101.47135925292969,-50.56657409667969,124.46954345703125
1686425617216055300,0.71105517578125,-102.09480285644531,-51.23382568359375,124.33064270019531
1686425617226127400,0.72112744140625,-102.62030029296875,-51.581207275390625,123.80299377441406
1686425617236199400,0.731199462890625,-102.72291564941406,-51.54718017578125,123.61383056640625
1686425617246271500,0.741271484375,-103.04475402832031,-51.71217346191406,123.35311889648438
1686425617256343300,0.75134326171875,-103.3958740234375,-51.92884826660156,123.29826354980469
1686425617266416400,0.76141650390625,-103.17129516601562,-52.43988037109375,123.25392150878906
1686425617276490500,0.771490478515625,-102.99760437011719,-52.52447509765625,123.7734375
1686425617286562600,0.7815625,-102.53256225585938,-53.19927978515625,124.25114440917969
1686425617296635400,0.791635498046875,-102.24380493164062,-53.7694091796875,124.28981018066406
1686425617306707500,0.80170751953125,-101.638427734375,-54.003173828125,124.59500122070312
1686425617316780300,0.8117802734375,-100.90426635742188,-54.357025146484375,124.77420043945312
1686425617326852400,0.821852294921875,-101.08375549316406,-54.80755615234375,125.12890625
1686425617336925200,0.83192529296875,-100.33796691894531,-55.74888610839844,125.82453918457031
1686425617346998500,0.84199853515625,-98.68965148925781,-56.85850524902344,126.33406066894531
1686425617357071400,0.8520712890625,-97.83174133300781,-57.37882995605469,127.1925048828125
1686425617367145200,0.862145263671875,-96.73794555664062,-57.69673156738281,127.20370483398438
1686425617377217300,0.87221728515625,-96.85610961914062,-58.26063537597656,127.587158203125
1686425617387291400,0.88229150390625,-96.83296203613281,-58.865814208984375,127.46493530273438
1686425617397364500,0.892364501953125,-96.75547790527344,-59.428466796875,127.01203918457031
1686425617407435500,0.902435546875,-97.43856811523438,-59.57499694824219,126.74050903320312
1686425617417507300,0.91250732421875,-97.86798095703125,-60.13856506347656,126.44952392578125
1686425617427579400,0.922579345703125,-97.5247802734375,-60.12078857421875,126.92646789550781
1686425617437652200,0.93265234375,-96.90077209472656,-60.47869873046875,126.92684936523438
1686425617447727400,0.942727294921875,-96.5631103515625,-60.27201843261719,127.01484680175781
1686425617457799400,0.95279931640625,-95.72355651855469,-60.17076110839844,127.30940246582031
1686425617467870500,0.962870361328125,-95.27972412109375,-60.04962158203125,127.90625
1686425617477941200,0.972941162109375,-94.62838745117188,-60.12152099609375,127.74046325683594
1686425617488012300,0.98301220703125,-95.16458129882812,-60.33052062988281,128.14537048339844
1686425617498084400,0.99308447265625,-94.64927673339844,-60.33903503417969,128.35838317871094
1686425617508157200,1.0031572265625,-94.28007507324219,-60.24552917480469,128.10572814941406
1686425617518229500,1.0132294921875,-94.37876892089844,-60.34393310546875,128.16221618652344
1686425617528298500,1.023298583984375,-93.68229675292969,-60.50444030761719,128.22303771972656
1686425617538370300,1.033370361328125,-94.41363525390625,-60.369415283203125,128.3492431640625
1686425617548442400,1.0434423828125,-94.05026245117188,-60.90324401855469,128.23138427734375
1686425617558515200,1.05351513671875,-93.78184509277344,-61.29400634765625,128.10897827148438
1686425617568587300,1.063587158203125,-94.29124450683594,-61.56512451171875,128.28225708007812
1686425617578660600,1.07366064453125,-94.03656005859375,-61.51318359375,128.08079528808594
1686425617588732400,1.083732421875,-93.84516906738281,-61.76322937011719,128.26651000976562
1686425617598805500,1.093805419921875,-93.64479064941406,-62.107086181640625,128.50648498535156
1686425617608879400,1.10387939453125,-93.48335266113281,-62.233306884765625,127.99288940429688
1686425617618951400,1.113951416015625,-93.73713684082031,-61.982757568359375,127.94570922851562
1686425617629024300,1.124024169921875,-93.22444152832031,-62.53810119628906,128.00064086914062
1686425617639097300,1.134097412109375,-92.878662109375,-62.44099426269531,128.17031860351562
1686425617649172200,1.144172119140625,-92.82986450195312,-62.43269348144531,128.01954650878906
1686425617659245600,1.15424560546875,-92.49259948730469,-62.87028503417969,128.44349670410156
1686425617669319400,1.1643193359375,-92.55447387695312,-62.902313232421875,128.6437530517578
1686425617679392300,1.174392333984375,-92.23110961914062,-63.25086975097656,128.39720153808594
1686425617689465300,1.18446533203125,-92.40922546386719,-62.72218322753906,128.53121948242188
1686425617699538400,1.194538330078125,-92.58505249023438,-62.398895263671875,128.78634643554688
1686425617709612300,1.2046123046875,-92.53610229492188,-61.56733703613281,128.9075164794922
1686425617719685400,1.214685302734375,-92.7177734375,-61.0994873046875,128.6995849609375
1686425617729760500,1.224760498046875,-92.13308715820312,-60.734375,128.38636779785156
1686425617739834400,1.23483447265625,-92.78802490234375,-60.33869934082031,128.8325653076172
1686425617749905400,1.244905517578125,-92.69111633300781,-60.22727966308594,128.95733642578125
1686425617759979500,1.2549794921875,-92.29055786132812,-59.52630615234375,128.77821350097656
1686425617770052400,1.26505224609375,-92.79930114746094,-59.34173583984375,129.01893615722656
1686425617780123400,1.275123291015625,-92.80232238769531,-58.97587585449219,128.86697387695312
1686425617790196500,1.285196533203125,-92.61231994628906,-58.37351989746094,128.6110382080078
1686425617800269300,1.295269287109375,-92.85325622558594,-57.82086181640625,128.9780731201172
1686425617810344400,1.305344482421875,-92.71591186523438,-57.19685363769531,129.06265258789062
1686425617820418300,1.315418212890625,-91.93992614746094,-57.238525390625,129.25213623046875
1686425617830492200,1.3254921875,-91.26344299316406,-57.189056396484375,129.60487365722656
1686425617840565500,1.3355654296875,-90.30616760253906,-57.25056457519531,129.926025390625
1686425617850639400,1.345639404296875,-89.58758544921875,-57.31462097167969,130.36441040039062
1686425617860713500,1.35571337890625,-89.07191467285156,-57.109649658203125,130.29058837890625
1686425617870787300,1.365787353515625,-88.88873291015625,-56.413848876953125,130.45205688476562
1686425617880861200,1.375861083984375,-88.33934020996094,-55.91374206542969,130.5811309814453
1686425617890934500,1.3859345703125,-87.96185302734375,-55.951446533203125,130.4807891845703
1686425617901008400,1.39600830078125,-87.94691467285156,-55.30072021484375,130.35006713867188
1686425617911078400,1.406078369140625,-88.91632080078125,-55.05329895019531,130.5450897216797
1686425617921151500,1.4161513671875,-88.85725402832031,-55.00224304199219,130.1940460205078
1686425617931223300,1.426223388671875,-88.87541198730469,-55.5096435546875,130.6173095703125
1686425617941296400,1.43629638671875,-89.31401062011719,-55.832122802734375,130.3371124267578
1686425617951370500,1.44637060546875,-88.50196838378906,-56.23577880859375,130.1385955810547
1686425617961445400,1.4564453125,-88.44491577148438,-57.222930908203125,130.64425659179688
1686425617971518200,1.466518310546875,-87.82565307617188,-57.92083740234375,130.87649536132812
1686425617981592300,1.47659228515625,-87.74760437011719,-57.677581787109375,130.8462677001953
1686425617991666400,1.48666650390625,-87.00138854980469,-58.78729248046875,130.89686584472656
1686425618001740500,1.496740478515625,-86.39607238769531,-59.284942626953125,130.86952209472656
1686425618011814400,1.506814453125,-85.85098266601562,-60.034942626953125,130.8116455078125
1686425618021887200,1.51688720703125,-85.34666442871094,-59.87092590332031,131.07119750976562
1686425618031961300,1.52696142578125,-85.11953735351562,-59.75502014160156,130.91639709472656
1686425618042034400,1.537034423828125,-84.68080139160156,-59.320159912109375,131.0603485107422
1686425618052107300,1.547107177734375,-85.7757568359375,-58.810333251953125,130.82579040527344
1686425618062181400,1.557181396484375,-86.79507446289062,-57.98139953613281,130.6974334716797
1686425618072255500,1.56725537109375,-87.15736389160156,-57.544189453125,130.557373046875
1686425618082328300,1.577328369140625,-88.06764221191406,-57.77226257324219,130.3658905029297
1686425618092401200,1.587401123046875,-89.1451416015625,-57.596527099609375,130.4853057861328
1686425618102475500,1.5974755859375,-89.03147888183594,-57.78300476074219,130.32777404785156
1686425618112550100,1.607550048828125,-88.77444458007812,-57.25587463378906,130.26919555664062
1686425618122625300,1.617625244140625,-88.63087463378906,-56.61848449707031,130.6038818359375
1686425618132700400,1.627700439453125,-87.60975646972656,-55.261474609375,130.60617065429688
1686425618142775300,1.637775390625,-87.55000305175781,-53.79600524902344,131.023193359375
1686425618152848400,1.647848388671875,-86.98167419433594,-51.81153869628906,130.98727416992188
1686425618162922500,1.657922607421875,-87.31393432617188,-50.06315612792969,130.89085388183594
1686425618172995300,1.667995361328125,-86.66143798828125,-48.74934387207031,130.5077667236328
1686425618183067400,1.6780673828125,-86.753173828125,-47.55720520019531,130.36170959472656
1686425618193142500,1.688142578125,-86.80772399902344,-46.755645751953125,130.01771545410156
1686425618203216400,1.69821630859375,-86.55809020996094,-45.69206237792969,130.1322784423828
1686425618213289200,1.708289306640625,-86.35871887207031,-45.50494384765625,130.11387634277344
1686425618223364400,1.7183642578125,-86.26994323730469,-44.79438781738281,130.2017822265625
1686425618233438200,1.728438232421875,-86.63484191894531,-44.750732421875,130.29754638671875
1686425618243513300,1.738513427734375,-86.50311279296875,-44.020599365234375,130.05650329589844
1686425618253587500,1.74858740234375,-86.56907653808594,-43.674224853515625,130.12271118164062
1686425618263662300,1.758662353515625,-86.5001220703125,-43.753265380859375,129.8693084716797
1686425618273737500,1.768737548828125,-86.25697326660156,-43.07672119140625,129.84268188476562
1686425618283809500,1.7788095703125,-85.68894958496094,-42.416259765625,129.60235595703125
1686425618293881300,1.78888134765625,-86.29693603515625,-42.10394287109375,129.34718322753906
1686425618303954400,1.798954345703125,-86.76052856445312,-41.3482666015625,129.1066436767578
1686425618314027300,1.80902734375,-87.69218444824219,-41.020111083984375,128.6484832763672
1686425618324099300,1.819099365234375,-88.40461730957031,-40.88471984863281,128.6661376953125
1686425618334173700,1.829173583984375,-89.5972900390625,-39.85194396972656,128.00721740722656
1686425618344245800,1.839245849609375,-89.73748779296875,-39.84217834472656,127.94593811035156
1686425618354318800,1.84931884765625,-89.52627563476562,-38.763946533203125,127.39462280273438
1686425618364391700,1.8593916015625,-88.87945556640625,-37.69305419921875,127.20733642578125
1686425618374464800,1.86946484375,-88.961669921875,-35.59465026855469,126.6646728515625
1686425618384536800,1.879536865234375,-87.83932495117188,-33.57124328613281,125.45545959472656
1686425618394608600,1.889608642578125,-86.65476989746094,-30.98931884765625,124.43789672851562
1686425618404681700,1.899681640625,-86.72381591796875,-27.985443115234375,122.97085571289062
1686425618414755800,1.909755859375,-85.5093994140625,-24.771011352539062,120.23231506347656
1686425618424828000,1.919827880859375,-84.88699340820312,-21.422775268554688,117.24876403808594
1686425618434900700,1.929900634765625,-84.15121459960938,-17.771804809570312,113.8526611328125
1686425618444971800,1.9399716796875,-83.45901489257812,-14.7086181640625,109.34661865234375
1686425618455044900,1.950044921875,-82.70475769042969,-12.139755249023438,105.56660461425781
1686425618465116700,1.96011669921875,-81.50926208496094,-10.314453125,101.81773376464844
1686425618475188700,1.970188720703125,-79.01057434082031,-9.27191162109375,99.38485717773438
1686425618485259800,1.980259765625,-76.81103515625,-8.223587036132812,96.75959777832031
1686425618495330800,1.990330810546875,-75.36589050292969,-8.216384887695312,95.80024719238281
1686425618505403600,2.000403564453125,-75.34149169921875,-7.5610809326171875,94.93473815917969
1686425618515476700,2.010476806640625,-74.70309448242188,-7.7684326171875,94.21702575683594
1686425618525550800,2.02055078125,-74.12396240234375,-7.556549072265625,93.71551513671875
1686425618535623700,2.030623779296875,-74.14227294921875,-7.400238037109375,93.426025390625
1686425618545697800,2.04069775390625,-75.17041015625,-7.3326873779296875,92.948974609375
1686425618555771000,2.05077099609375,-74.93902587890625,-7.6427459716796875,92.85354614257812
1686425618565844700,2.0608447265625,-75.47218322753906,-7.0543975830078125,93.34870910644531
1686425618575917800,2.070917724609375,-76.45262145996094,-7.3027191162109375,92.94332885742188
1686425618585992000,2.080991943359375,-77.26611328125,-7.2596435546875,93.14057922363281
1686425618596064800,2.091064697265625,-77.69976806640625,-7.575897216796875,93.10073852539062
1686425618606137900,2.101137939453125,-78.2620849609375,-7.3868408203125,93.39022827148438
1686425618616210700,2.111210693359375,-78.88874816894531,-7.553314208984375,93.9600830078125
1686425618626283800,2.12128369140625,-79.32405090332031,-7.9069061279296875,94.76438903808594
1686425618636358000,2.13135791015625,-80.20733642578125,-8.054412841796875,95.46022033691406
1686425618646431700,2.141431640625,-81.34507751464844,-8.518783569335938,96.53546142578125
1686425618656503600,2.151503662109375,-82.48422241210938,-8.8543701171875,97.40611267089844
1686425618666577000,2.161576904296875,-83.04154968261719,-9.141159057617188,97.89360046386719
1686425618676649000,2.17164892578125,-83.6383056640625,-9.602798461914062,98.03076171875
1686425618686720000,2.181719970703125,-83.13627624511719,-9.17486572265625,98.27783203125
1686425618696791800,2.191791748046875,-83.37738037109375,-9.221481323242188,98.00819396972656
1686425618706863900,2.20186376953125,-83.4442138671875,-9.009475708007812,97.18565368652344
1686425618716936000,2.21193603515625,-83.54461669921875,-8.535995483398438,96.26115417480469
1686425618727007700,2.2220078125,-82.99777221679688,-8.30438232421875,94.88697814941406
1686425618737080800,2.232080810546875,-82.32258605957031,-8.0523681640625,93.63859558105469
1686425618747153700,2.242153564453125,-81.85871887207031,-7.6100311279296875,92.85861206054688
1686425618757226800,2.252226806640625,-79.75613403320312,-7.2208251953125,92.44099426269531
1686425618767299800,2.2622998046875,-79.04031372070312,-7.2711639404296875,92.14730834960938
1686425618777372000,2.272371826171875,-78.17425537109375,-7.093017578125,92.70497131347656
1686425618787444700,2.28244482421875,-77.18943786621094,-7.113861083984375,92.74136352539062
1686425618797517800,2.292517822265625,-77.04420471191406,-7.0686187744140625,92.19941711425781
1686425618807590700,2.302590576171875,-78.01144409179688,-7.002716064453125,91.775146484375
1686425618817662700,2.312662841796875,-79.81086730957031,-7.0225677490234375,91.09506225585938
1686425618827735800,2.32273583984375,-82.26045227050781,-6.9656829833984375,89.87617492675781
1686425618837809000,2.332808837890625,-84.40971374511719,-7.5290985107421875,89.19377136230469
1686425618847881700,2.3428818359375,-86.72587585449219,-7.818817138671875,89.07408142089844
1686425618857952800,2.352952880859375,-88.93186950683594,-8.730484008789062,88.97921752929688
1686425618868022800,2.363022705078125,-91.06838989257812,-9.243515014648438,89.13204956054688
1686425618878096000,2.373095947265625,-92.36203002929688,-10.089111328125,89.00263977050781
1686425618888169700,2.383169677734375,-94.67427062988281,-10.291183471679688,89.42170715332031
1686425618898242800,2.393242919921875,-95.32958984375,-10.954940795898438,89.4234619140625
1686425618908316000,2.40331591796875,-95.61112976074219,-11.595550537109375,89.56674194335938
1686425618918388700,2.413388671875,-96.14141845703125,-11.631561279296875,90.15986633300781
1686425618928462800,2.423462890625,-96.97317504882812,-11.765960693359375,90.82676696777344
1686425618938535700,2.43353564453125,-97.4652099609375,-11.670944213867188,91.40762329101562
1686425618948608800,2.44360888671875,-97.34333801269531,-12.402542114257812,92.76751708984375
1686425618958683000,2.453682861328125,-97.16696166992188,-12.659820556640625,94.30300903320312
1686425618968754700,2.463754638671875,-97.30233764648438,-12.71490478515625,95.62399291992188
1686425618978827800,2.473827880859375,-96.33601379394531,-13.627593994140625,97.39617919921875
1686425618988898800,2.48389892578125,-95.83009338378906,-13.519744873046875,98.60406494140625
1686425618998971600,2.4939716796875,-94.77799987792969,-13.398147583007812,99.28337097167969
1686425619009045000,2.504044921875,-93.82745361328125,-12.730606079101562,99.46177673339844
1686425619019117800,2.514117919921875,-92.66511535644531,-12.005813598632812,98.56013488769531
1686425619029190700,2.524190673828125,-92.15208435058594,-11.335418701171875,97.22285461425781
1686425619039263700,2.534263671875,-91.02798461914062,-10.755950927734375,95.64288330078125
1686425619049337900,2.544337890625,-89.59535217285156,-10.126480102539062,94.68513488769531
1686425619059410700,2.55441064453125,-88.30276489257812,-9.534378051757812,94.6971435546875
1686425619069482800,2.564482666015625,-86.98863220214844,-9.292495727539062,94.81622314453125
1686425619079556600,2.574556640625,-85.41346740722656,-9.064727783203125,95.08174133300781
1686425619089630700,2.584630615234375,-84.6019287109375,-8.626190185546875,95.46046447753906
1686425619099703800,2.594703857421875,-82.73504638671875,-8.378631591796875,95.52749633789062
1686425619109776600,2.604776611328125,-81.46076965332031,-8.386734008789062,95.41329956054688
1686425619119849700,2.614849609375,-79.17802429199219,-8.036102294921875,96.35977172851562
1686425619129920800,2.624920654296875,-77.64582824707031,-7.9739837646484375,96.62689208984375
1686425619139993900,2.634993896484375,-76.00032043457031,-8.209548950195312,96.9775390625
1686425619150067000,2.64506689453125,-74.06707763671875,-8.234832763671875,97.71537780761719
1686425619160138000,2.655137939453125,-72.61122131347656,-8.657852172851562,98.07769775390625
1686425619170211800,2.6652119140625,-71.98698425292969,-8.9923095703125,98.33023071289062
1686425619180285700,2.67528564453125,-71.60929870605469,-8.874786376953125,98.560302734375
1686425619190356700,2.685356689453125,-71.61497497558594,-9.147476196289062,98.87797546386719
1686425619200429600,2.6954296875,-71.59317016601562,-8.919921875,99.19633483886719
1686425619210503000,2.7055029296875,-72.57414245605469,-9.210220336914062,99.63966369628906
1686425619220571600,2.715571533203125,-73.797119140625,-9.197555541992188,100.11198425292969
1686425619230643700,2.725643798828125,-75.03852844238281,-9.149444580078125,100.57115173339844
1686425619240714800,2.73571484375,-76.49140930175781,-9.738128662109375,100.99050903320312
1686425619250785800,2.745785888671875,-77.44125366210938,-9.953018188476562,102.35797119140625
1686425619260856800,2.75585693359375,-78.66468811035156,-10.52386474609375,103.08677673339844
1686425619270929000,2.765928955078125,-80.74769592285156,-11.12969970703125,103.68582153320312
1686425619280998700,2.77599853515625,-82.95263671875,-11.510818481445312,104.57911682128906
1686425619291069700,2.786069580078125,-84.56170654296875,-12.246932983398438,104.62391662597656
1686425619301142800,2.796142822265625,-87.87986755371094,-12.768508911132812,104.78591918945312
1686425619311214600,2.806214599609375,-90.73347473144531,-12.690673828125,103.87092590332031
1686425619321286700,2.81628662109375,-93.61465454101562,-13.119400024414062,101.11283874511719
1686425619331357200,2.826357177734375,-95.80696105957031,-13.097991943359375,97.071533203125
1686425619341430300,2.83643017578125,-97.46820068359375,-12.360153198242188,92.48861694335938
1686425619351503000,2.846503173828125,-99.14999389648438,-12.178054809570312,88.58169555664062
1686425619361574100,2.85657421875,-99.28211975097656,-12.252899169921875,85.2196044921875
1686425619371645200,2.866645263671875,-99.01194763183594,-12.343948364257812,82.90927124023438
1686425619381717200,2.87671728515625,-98.37686157226562,-11.975067138671875,81.61882019042969
1686425619391790000,2.8867900390625,-97.7066650390625,-11.717605590820312,80.17620849609375
1686425619401864000,2.896864013671875,-96.63932800292969,-11.053359985351562,79.16642761230469
1686425619411938300,2.906938232421875,-95.78433227539062,-10.508026123046875,78.95549011230469
1686425619422012200,2.91701220703125,-94.83488464355469,-10.330490112304688,79.38737487792969
1686425619432085000,2.9270849609375,-94.33209228515625,-9.921707153320312,79.47279357910156
1686425619442157000,2.937156982421875,-93.07330322265625,-9.707901000976562,80.04425048828125
1686425619452230100,2.947230224609375,-92.3350830078125,-9.09466552734375,80.78125
1686425619462303200,2.95730322265625,-92.37753295898438,-8.933120727539062,81.35694885253906
1686425619472375000,2.967375,-91.71771240234375,-8.59271240234375,82.33433532714844
1686425619482448100,2.9774482421875,-91.41963195800781,-8.774658203125,82.93124389648438
1686425619492522200,2.987522216796875,-91.24000549316406,-8.566864013671875,83.33186340332031
1686425619502597000,2.99759716796875,-90.85833740234375,-8.522369384765625,83.33921813964844
1686425619512670000,3.007669921875,-90.93907165527344,-8.518585205078125,83.44319152832031
1686425619522741000,3.017740966796875,-91.24555969238281,-8.584671020507812,83.01152038574219
1686425619532814000,3.02781396484375,-91.44970703125,-8.56195068359375,82.73385620117188
1686425619542886100,3.03788623046875,-91.62162780761719,-9.128463745117188,82.5084228515625
1686425619552959200,3.047959228515625,-92.41537475585938,-9.307998657226562,82.29547119140625
1686425619563032000,3.058031982421875,-93.27537536621094,-9.523193359375,82.29808044433594
1686425619573106200,3.068106201171875,-94.78053283691406,-10.29736328125,82.68389892578125
1686425619583179300,3.07817919921875,-95.58395385742188,-10.455352783203125,82.35765075683594
1686425619593251300,3.088251220703125,-97.15489196777344,-11.29510498046875,82.74835205078125
1686425619603325200,3.0983251953125,-98.43704223632812,-11.739288330078125,83.38278198242188
1686425619613398000,3.10839794921875,-99.62796020507812,-12.575942993164062,84.06756591796875
1686425619623472000,3.11847216796875,-100.88540649414062,-13.285598754882812,85.26953125
1686425619633545200,3.128545166015625,-101.86091613769531,-14.010009765625,86.14498901367188
1686425619643617300,3.1386171875,-102.55522155761719,-14.664993286132812,87.58738708496094
1686425619653690000,3.148690185546875,-102.30865478515625,-14.568618774414062,89.30905151367188
1686425619663764200,3.15876416015625,-101.75787353515625,-14.385421752929688,90.98884582519531
1686425619673838000,3.168838134765625,-100.24417114257812,-13.774139404296875,92.23405456542969
1686425619683913200,3.178913330078125,-97.54586791992188,-12.417510986328125,93.26451110839844
1686425619693987000,3.188987060546875,-94.15647888183594,-10.781356811523438,94.22445678710938
1686425619704059100,3.19905908203125,-91.48446655273438,-10.172073364257812,94.63909912109375
1686425619714132000,3.209132080078125,-88.4677734375,-8.90264892578125,94.91748046875
1686425619724206300,3.219206298828125,-86.23260498046875,-8.780227661132812,95.73211669921875
1686425619734279200,3.229279052734375,-84.5289306640625,-8.77099609375,96.12623596191406
1686425619744352000,3.23935205078125,-82.45524597167969,-8.84625244140625,97.70875549316406
1686425619754426400,3.24942626953125,-80.32168579101562,-9.217559814453125,98.82276916503906
1686425619764498200,3.259498291015625,-77.45831298828125,-9.4935302734375,100.68310546875
1686425619774569000,3.26956884765625,-73.66831970214844,-10.06182861328125,102.21807861328125
1686425619784642300,3.279642333984375,-70.51145935058594,-10.616989135742188,103.88430786132812
1686425619794716200,3.289716064453125,-68.07603454589844,-11.489501953125,104.72120666503906
1686425619804789000,3.2997890625,-67.82232666015625,-12.241348266601562,106.00851440429688
1686425619814862000,3.309862060546875,-68.95724487304688,-12.177078247070312,106.20661926269531
1686425619824935200,3.31993505859375,-69.712158203125,-12.04461669921875,106.25746154785156
1686425619835008300,3.33000830078125,-70.29994201660156,-12.101669311523438,106.32206726074219
1686425619845079300,3.340079345703125,-71.39970397949219,-11.716415405273438,105.82693481445312
1686425619855152000,3.350152099609375,-72.05378723144531,-11.518310546875,106.11204528808594
1686425619865223200,3.36022314453125,-73.04835510253906,-10.978790283203125,105.78553771972656
1686425619875296000,3.3702958984375,-74.04354858398438,-10.938629150390625,105.27813720703125
1686425619885368000,3.3803681640625,-74.94160461425781,-10.260452270507812,104.47113037109375
1686425619895441200,3.390441162109375,-75.65768432617188,-10.009963989257812,103.95755004882812
1686425619905514200,3.40051416015625,-76.77653503417969,-10.317947387695312,103.42501831054688
1686425619915587000,3.410587158203125,-78.14688110351562,-9.941482543945312,103.00320434570312
1686425619925658000,3.420658203125,-79.32766723632812,-9.865570068359375,102.05453491210938
1686425619935728000,3.43072802734375,-80.22447204589844,-9.955413818359375,101.36247253417969
1686425619945800200,3.44080029296875,-81.73443603515625,-9.950973510742188,101.08766174316406
1686425619955872000,3.4508720703125,-82.76847839355469,-9.8353271484375,101.00843811035156
1686425619965944000,3.460944091796875,-84.76162719726562,-9.948135375976562,100.38623046875
1686425619976018200,3.47101806640625,-86.30810546875,-10.045455932617188,99.700439453125
1686425619986091300,3.48109130859375,-88.09529113769531,-10.150100708007812,99.14768981933594
1686425619996163000,3.4911630859375,-89.6004638671875,-10.486404418945312,98.00990295410156
1686425620006236200,3.501236083984375,-91.48345947265625,-10.371490478515625,96.72872924804688
1686425620016309000,3.51130908203125,-92.41488647460938,-10.464996337890625,94.41131591796875
1686425620026383000,3.521383056640625,-92.69575500488281,-9.817306518554688,91.63371276855469
1686425620036455200,3.531455078125,-91.30422973632812,-8.806381225585938,88.88615417480469
1686425620046527200,3.54152734375,-88.53213500976562,-8.04510498046875,87.5489501953125
1686425620056599000,3.55159912109375,-86.39227294921875,-7.3154754638671875,87.56216430664062
1686425620066670000,3.561670166015625,-85.37162780761719,-6.87274169921875,88.30325317382812
1686425620076742100,3.5717421875,-84.31095886230469,-6.8451995849609375,88.99119567871094
1686425620086811100,3.58181103515625,-83.60836791992188,-7.0734710693359375,90.21910095214844
1686425620096880000,3.591880126953125,-82.9893798828125,-7.171478271484375,91.62472534179688
1686425620106952200,3.6019521484375,-82.74040222167969,-7.334930419921875,92.42366027832031
1686425620117024300,3.612024169921875,-81.27113342285156,-7.159912109375,93.40338134765625
1686425620127096000,3.622095947265625,-80.16888427734375,-7.2103424072265625,93.78933715820312
1686425620137166000,3.632166015625,-79.37641906738281,-7.3268890380859375,94.42300415039062
1686425620147237000,3.642237060546875,-78.29429626464844,-7.2888336181640625,94.346435546875
1686425620157310000,3.65231005859375,-76.54559326171875,-7.2312469482421875,94.88748168945312
1686425620167383300,3.66238330078125,-76.09400939941406,-7.1697998046875,94.72291564941406
1686425620177456000,3.6724560546875,-75.85084533691406,-7.6755218505859375,94.97056579589844
1686425620187528200,3.682528076171875,-74.63630676269531,-7.4495391845703125,95.13491821289062
1686425620197599200,3.69259912109375,-74.09492492675781,-7.2850494384765625,95.06002807617188
1686425620207671000,3.702671142578125,-73.52383422851562,-7.228851318359375,95.19912719726562
1686425620217742000,3.7127421875,-71.4371337890625,-7.20654296875,94.6636962890625
1686425620227813000,3.722813232421875,-70.63031005859375,-7.4928131103515625,94.32781982421875
1686425620237883100,3.732883056640625,-70.12016296386719,-7.273040771484375,94.22993469238281
1686425620247955200,3.742955078125,-68.33811950683594,-7.6967926025390625,94.34671020507812
1686425620258027000,3.753027099609375,-67.89730834960938,-7.9124908447265625,94.32954406738281
1686425620268100000,3.76310009765625,-66.88951110839844,-7.780548095703125,93.69223022460938
1686425620278172000,3.773171875,-66.01568603515625,-8.071273803710938,93.86041259765625
1686425620288245200,3.783245361328125,-64.75621032714844,-8.245086669921875,93.63748168945312
1686425620298317300,3.7933173828125,-63.85308837890625,-8.300018310546875,93.68484497070312
1686425620308391200,3.80339111328125,-63.97966003417969,-8.694183349609375,93.45158386230469
1686425620318463000,3.813462890625,-63.309234619140625,-8.500717163085938,93.44879150390625
1686425620328534800,3.82353466796875,-63.21685791015625,-8.357559204101562,93.51109313964844
1686425620338606800,3.83360693359375,-64.30838012695312,-8.523483276367188,94.05842590332031
1686425620348679000,3.843678955078125,-65.73971557617188,-8.277206420898438,94.77578735351562
1686425620358751700,3.853751708984375,-68.73915100097656,-8.11712646484375,95.23832702636719
1686425620368823800,3.86382373046875,-73.78594970703125,-7.4915771484375,94.72666931152344
1686425620378897000,3.87389697265625,-79.63536071777344,-7.2805023193359375,93.4757080078125
1686425620388970800,3.883970703125,-83.50021362304688,-7.460296630859375,91.22967529296875
1686425620399044900,3.894044921875,-86.39352416992188,-7.72119140625,88.67280578613281
1686425620409119000,3.904118896484375,-89.09513854980469,-8.217178344726562,86.75897216796875
1686425620419191800,3.91419189453125,-90.98579406738281,-8.433975219726562,85.44126892089844
1686425620429266000,3.924265869140625,-92.01776123046875,-8.904983520507812,84.60337829589844
1686425620439338000,3.934337890625,-93.08723449707031,-9.796707153320312,83.82501220703125
1686425620449411800,3.944411865234375,-94.37995910644531,-10.173965454101562,83.274169921875
1686425620459485000,3.95448486328125,-95.15617370605469,-10.34576416015625,82.64004516601562
1686425620469559000,3.96455908203125,-95.78753662109375,-10.536209106445312,81.8314208984375
1686425620479632000,3.9746318359375,-96.47853088378906,-10.875213623046875,80.84840393066406
1686425620489704000,3.984703857421875,-97.32290649414062,-11.422149658203125,80.09254455566406
1686425620499776000,3.99477587890625,-98.25936889648438,-12.074356079101562,78.93238830566406
1686425620509844700,4.0048447265625,-99.03854370117188,-12.800491333007812,77.67543029785156
1686425620519918000,4.01491796875,-99.85459899902344,-13.455734252929688,76.27651977539062
1686425620529990000,4.024989990234375,-99.96209716796875,-13.611221313476562,74.82498168945312
1686425620540060700,4.035060791015625,-98.62858581542969,-13.030120849609375,73.55964660644531
1686425620550133000,4.045133056640625,-95.70242309570312,-11.745010375976562,72.45075988769531
1686425620560205000,4.055205078125,-91.8602294921875,-10.359954833984375,71.711669921875
1686425620570275800,4.06527587890625,-87.11572265625,-8.989227294921875,71.32841491699219
1686425620580349000,4.075348876953125,-82.54638671875,-8.373153686523438,70.95404052734375
1686425620590422000,4.085422119140625,-77.10023498535156,-7.95733642578125,70.35922241210938
1686425620600494800,4.095494873046875,-72.534423828125,-8.470550537109375,69.53468322753906
1686425620610566000,4.10556591796875,-67.3919677734375,-9.30120849609375,68.38655090332031
1686425620620639700,4.1156396484375,-63.64714050292969,-10.536361694335938,67.70635986328125
1686425620630711800,4.1257119140625,-59.757293701171875,-11.700408935546875,67.08045959472656
1686425620640782800,4.135782958984375,-57.00462341308594,-13.172607421875,67.40374755859375
1686425620650852900,4.145852783203125,-54.53511047363281,-13.62322998046875,68.33564758300781
1686425620660925000,4.155925048828125,-53.621734619140625,-13.123367309570312,70.30557250976562
1686425620670997800,4.165997802734375,-55.23579406738281,-11.268035888671875,73.94210815429688
1686425620681070800,4.17607080078125,-58.846923828125,-9.446685791015625,77.39149475097656
1686425620691145000,4.18614501953125,-63.928619384765625,-8.146575927734375,78.96429443359375
1686425620701216000,4.196216064453125,-69.41671752929688,-6.6054534912109375,79.18998718261719
1686425620711289900,4.206289794921875,-73.45237731933594,-6.410919189453125,78.75094604492188
1686425620721365000,4.216364990234375,-77.34803771972656,-6.4958953857421875,78.42587280273438
1686425620731437800,4.226437744140625,-79.99897766113281,-6.596466064453125,77.146484375
1686425620741510000,4.236510009765625,-82.05398559570312,-6.91973876953125,77.11691284179688
1686425620751582000,4.24658203125,-83.32368469238281,-7.3033599853515625,77.28457641601562
1686425620761654000,4.256654052734375,-85.27873229980469,-7.3059844970703125,77.119873046875
1686425620771726800,4.266726806640625,-86.01852416992188,-7.745269775390625,76.74221801757812
1686425620781799000,4.276798828125,-87.23724365234375,-8.098129272460938,76.52005004882812
1686425620791869000,4.286868896484375,-87.91041564941406,-8.354141235351562,76.28300476074219
1686425620801941000,4.29694091796875,-88.82760620117188,-8.887969970703125,75.838623046875
1686425620812012800,4.3070126953125,-90.24940490722656,-8.884078979492188,75.67701721191406
1686425620822084900,4.3170849609375,-91.46408081054688,-9.43096923828125,75.13945007324219
1686425620832156000,4.327156005859375,-92.17892456054688,-9.74169921875,75.79985046386719
1686425620842227000,4.33722705078125,-93.94451904296875,-10.3026123046875,75.55670166015625
1686425620852299000,4.347299072265625,-95.53250122070312,-11.008865356445312,76.05754089355469
1686425620862371000,4.35737109375,-96.2781982421875,-11.397247314453125,76.83537292480469
1686425620872440800,4.36744091796875,-97.01199340820312,-11.170654296875,79.10420227050781
1686425620882512000,4.377511962890625,-97.539306640625,-11.325790405273438,81.59979248046875
1686425620892584000,4.387583984375,-97.65478515625,-11.18853759765625,85.30439758300781
1686425620902655700,4.39765576171875,-97.17391967773438,-11.44720458984375,87.63279724121094
1686425620912726800,4.407726806640625,-96.25935363769531,-11.271148681640625,90.90338134765625
1686425620922799900,4.4177998046875,-94.9307861328125,-11.071380615234375,94.48043823242188
1686425620932872000,4.427871826171875,-92.85464477539062,-11.356170654296875,97.17669677734375
1686425620942943700,4.43794384765625,-91.52130126953125,-11.535491943359375,100.22216796875
1686425620953015800,4.448015869140625,-88.96875,-11.511672973632812,102.37765502929688
1686425620963088000,4.458087890625,-87.63104248046875,-11.807754516601562,103.56108093261719
1686425620973159700,4.46815966796875,-85.73381042480469,-11.34539794921875,103.68302917480469
1686425620983231700,4.478231689453125,-84.29600524902344,-9.869903564453125,101.56198120117188
1686425620993303800,4.4883037109375,-81.93873596191406,-8.908004760742188,99.34686279296875
1686425621003377000,4.498376953125,-78.47515869140625,-8.046798706054688,97.40762329101562
1686425621013450800,4.50845068359375,-75.70132446289062,-7.678314208984375,96.38323974609375
1686425621023523800,4.51852392578125,-73.62982177734375,-7.9327850341796875,95.74702453613281
1686425621033593900,4.52859375,-71.50752258300781,-7.571990966796875,95.26153564453125
1686425621043667000,4.5386669921875,-71.5914306640625,-7.7440032958984375,94.31576538085938
1686425621053738000,4.548738037109375,-70.69024658203125,-7.69268798828125,93.30250549316406
1686425621063811800,4.558811767578125,-71.0064697265625,-7.431671142578125,93.45442199707031
1686425621073885000,4.568885009765625,-71.04078674316406,-7.3709869384765625,92.90518188476562
1686425621083958000,4.5789580078125,-70.82597351074219,-7.2994842529296875,92.84437561035156
1686425621094030800,4.58903076171875,-70.98503112792969,-7.2937774658203125,92.39140319824219
1686425621104103700,4.599103759765625,-71.41590881347656,-6.974700927734375,91.58770751953125
1686425621114177000,4.609177001953125,-71.01289367675781,-6.7816162109375,91.16473388671875
1686425621124249000,4.6192490234375,-71.24920654296875,-6.989349365234375,90.99412536621094
1686425621134322000,4.629322021484375,-71.43739318847656,-6.50006103515625,90.6962890625
1686425621144395800,4.639395751953125,-71.33433532714844,-6.7974700927734375,90.73731994628906
1686425621154468900,4.64946875,-71.48809814453125,-6.737091064453125,89.95783996582031
1686425621164540700,4.659540771484375,-71.78120422363281,-6.5671844482421875,89.80062866210938
1686425621174611700,4.66961181640625,-71.15614318847656,-6.6959991455078125,89.57682800292969
1686425621184683800,4.679683837890625,-70.99917602539062,-6.490753173828125,89.1312255859375
1686425621194755800,4.689755859375,-71.20680236816406,-6.34320068359375,88.83328247070312
1686425621204830000,4.699829833984375,-71.35635375976562,-6.262359619140625,88.34156799316406
1686425621214902800,4.70990283203125,-70.7529296875,-6.4499359130859375,88.34332275390625
1686425621224974800,4.719974853515625,-71.24441528320312,-6.290771484375,87.61822509765625
1686425621235046000,4.7300458984375,-71.29429626464844,-6.2261505126953125,87.8985595703125
1686425621245118000,4.740117919921875,-71.33158874511719,-6.056976318359375,87.70347595214844
1686425621255191800,4.75019189453125,-71.06900024414062,-6.4286346435546875,86.91767883300781
1686425621265262800,4.760262939453125,-71.29925537109375,-6.596771240234375,87.090576171875
1686425621275335700,4.770335693359375,-72.02076721191406,-6.51983642578125,87.53248596191406
1686425621285409000,4.780408935546875,-73.50433349609375,-5.950897216796875,87.53257751464844
1686425621295481000,4.790481201171875,-75.81837463378906,-6.06292724609375,87.39688110351562
1686425621305553000,4.800552978515625,-78.38287353515625,-6.506072998046875,87.64698791503906
1686425621315625000,4.810625,-80.81346130371094,-6.5147705078125,88.30241394042969
1686425621325698800,4.82069873046875,-83.2490234375,-6.769195556640625,88.96505737304688
1686425621335771600,4.830771728515625,-85.48019409179688,-7.2780609130859375,90.17938232421875
1686425621345845800,4.840845703125,-87.02603149414062,-7.7444915771484375,90.77778625488281
1686425621355919600,4.850919677734375,-88.42031860351562,-8.177032470703125,92.07691955566406
1686425621365992400,4.860992431640625,-89.90071105957031,-8.682952880859375,92.90916442871094
1686425621376065800,4.871065673828125,-90.41532897949219,-9.373458862304688,93.78128051757812
1686425621386138600,4.881138671875,-91.45254516601562,-10.0616455078125,95.43130493164062
1686425621396210700,4.891210693359375,-92.62156677246094,-10.96337890625,97.70829772949219
1686425621406283500,4.901283447265625,-92.77005004882812,-11.773040771484375,99.96212768554688
1686425621416355600,4.91135546875,-92.91824340820312,-12.8436279296875,101.94233703613281
1686425621426425600,4.921425537109375,-92.71858215332031,-13.38714599609375,103.76400756835938
1686425621436499700,4.931499755859375,-92.12663269042969,-14.230728149414062,105.0146484375
1686425621446572800,4.94157275390625,-91.73802185058594,-14.562667846679688,106.06085205078125
1686425621456646700,4.951646728515625,-92.13706970214844,-14.902053833007812,106.33506774902344
1686425621466718700,4.96171875,-91.66378784179688,-14.466278076171875,106.33146667480469
1686425621476791600,4.97179150390625,-91.46046447753906,-14.775772094726562,106.50926208496094
1686425621486863600,4.981863525390625,-91.70637512207031,-14.833984375,106.59994506835938
1686425621496934700,4.9919345703125,-91.83145141601562,-14.594085693359375,106.54417419433594
1686425621507006700,5.0020068359375,-91.3095703125,-14.462738037109375,106.48123168945312
1686425621517079600,5.01207958984375,-91.33229064941406,-14.637039184570312,105.98385620117188
1686425621527153000,5.02215283203125,-90.82908630371094,-14.453216552734375,105.39436340332031
1686425621537226800,5.032226806640625,-91.44886779785156,-13.609451293945312,104.86476135253906
1686425621547299600,5.042299560546875,-89.703125,-12.903945922851562,103.63412475585938
1686425621557372700,5.05237255859375,-88.88502502441406,-11.568206787109375,101.5792236328125
1686425621567445800,5.06244580078125,-87.05754089355469,-10.154571533203125,99.098876953125
1686425621577517800,5.072517822265625,-83.76612854003906,-8.668670654296875,97.58074951171875
1686425621587589600,5.082589599609375,-81.01091003417969,-8.314193725585938,96.80337524414062
1686425621597660700,5.09266064453125,-78.37612915039062,-7.713226318359375,95.7054443359375
1686425621607732700,5.102732666015625,-76.36087036132812,-7.8380279541015625,95.44709777832031
1686425621617803500,5.112803466796875,-74.89353942871094,-7.7048187255859375,94.58151245117188
1686425621627877600,5.122877685546875,-74.36077880859375,-7.426788330078125,93.70469665527344
1686425621637951500,5.132951416015625,-73.97077941894531,-7.2062530517578125,93.02665710449219
1686425621648025900,5.14302587890625,-73.93997192382812,-7.1082611083984375,91.86062622070312
1686425621658099700,5.153099609375,-74.1591796875,-6.8392333984375,90.85682678222656
1686425621668173600,5.163173583984375,-74.27252197265625,-6.5391845703125,90.05342102050781
1686425621678246000,5.173245849609375,-73.99754333496094,-6.64788818359375,89.26887512207031
1686425621688317700,5.183317626953125,-73.70849609375,-6.678131103515625,88.58901977539062
1686425621698390800,5.193390869140625,-73.20382690429688,-6.6103363037109375,87.93550109863281
1686425621708464600,5.203464599609375,-73.38084411621094,-6.167755126953125,87.74557495117188
1686425621718537500,5.213537353515625,-73.53767395019531,-6.505035400390625,87.395263671875
1686425621728611600,5.223611572265625,-72.87442016601562,-6.2639312744140625,87.3507080078125
1686425621738686500,5.2336865234375,-72.7786865234375,-6.42999267578125,87.36224365234375
1686425621748760600,5.243760498046875,-72.43687438964844,-6.6145477294921875,87.40859985351562
1686425621758834700,5.253834716796875,-71.90211486816406,-6.5688323974609375,86.96310424804688
1686425621768909600,5.26390966796875,-71.35655212402344,-6.4856719970703125,86.9903564453125
1686425621778984400,5.273984375,-69.98330688476562,-6.65203857421875,86.77772521972656
1686425621789059600,5.2840595703125,-69.33319091796875,-6.9398651123046875,86.76679992675781
1686425621799134700,5.294134765625,-68.59535217285156,-6.983489990234375,86.48381042480469
1686425621809209600,5.304209716796875,-67.24000549316406,-7.0872802734375,86.55615234375
1686425621819282700,5.31428271484375,-65.66502380371094,-7.2058258056640625,86.78773498535156
1686425621829353500,5.324353515625,-64.15753173828125,-7.7935943603515625,87.17646789550781
1686425621839426800,5.3344267578125,-62.66471862792969,-7.9652557373046875,87.60423278808594
1686425621849499600,5.344499755859375,-62.33506774902344,-7.8856658935546875,87.26287841796875
1686425621859573500,5.354573486328125,-62.16767883300781,-8.161727905273438,87.01309204101562
1686425621869646600,5.364646484375,-62.262664794921875,-7.94677734375,86.39204406738281
1686425621879720700,5.374720703125,-63.08573913574219,-7.9450836181640625,86.31491088867188
1686425621889794600,5.384794677734375,-64.18515014648438,-7.2708740234375,86.45567321777344
1686425621899866600,5.39486669921875,-66.32704162597656,-7.4379425048828125,86.7701416015625
1686425621909940700,5.404940673828125,-68.36833190917969,-6.666412353515625,86.9144287109375
1686425621920012800,5.4150126953125,-70.21086120605469,-6.5416259765625,87.71400451660156
1686425621930086700,5.425086669921875,-72.79409790039062,-6.60260009765625,88.38075256347656
1686425621940157700,5.43515771484375,-75.712158203125,-6.6893463134765625,89.70269775390625
1686425621950229800,5.445229736328125,-78.38084411621094,-6.54547119140625,90.40328979492188
1686425621960303600,5.4553037109375,-80.81251525878906,-6.750823974609375,91.32835388183594
1686425621970376700,5.465376708984375,-82.99092102050781,-6.980010986328125,92.10031127929688
1686425621980450600,5.475450439453125,-84.86405944824219,-7.9157257080078125,92.61509704589844
1686425621990525700,5.485525634765625,-86.95602416992188,-8.329986572265625,93.09733581542969
1686425622000600600,5.4956005859375,-88.30203247070312,-8.478836059570312,93.40782165527344
1686425622010674700,5.5056748046875,-90.43180847167969,-9.575164794921875,93.69186401367188
1686425622020749600,5.51574951171875,-91.74688720703125,-9.97265625,93.50814819335938
1686425622030825700,5.52582568359375,-94.19248962402344,-10.792373657226562,93.95220947265625
1686425622040899800,5.53589990234375,-95.59590148925781,-11.721450805664062,95.23991394042969
1686425622050973700,5.5459736328125,-97.63551330566406,-13.017959594726562,96.66818237304688
1686425622061048800,5.556048828125,-98.16879272460938,-13.576812744140625,97.86753845214844
1686425622071121700,5.56612158203125,-98.54815673828125,-14.26116943359375,99.64631652832031
1686425622081196500,5.576196533203125,-97.21871948242188,-14.349884033203125,101.03742980957031
1686425622091271700,5.586271728515625,-95.5858154296875,-14.040512084960938,102.44895935058594
1686425622101342700,5.5963427734375,-94.63136291503906,-13.62384033203125,102.87327575683594
1686425622111418600,5.606418701171875,-92.65643310546875,-13.382003784179688,103.03654479980469
1686425622121492700,5.61649267578125,-92.59443664550781,-12.727020263671875,103.21000671386719
1686425622131567600,5.626567626953125,-92.63163757324219,-13.2506103515625,102.67219543457031
1686425622141642500,5.636642578125,-92.88404846191406,-13.113540649414062,102.62994384765625
1686425622151716600,5.646716552734375,-93.001708984375,-12.741973876953125,102.20846557617188
1686425622161790700,5.656790771484375,-93.20762634277344,-12.079727172851562,100.76203918457031
1686425622171864800,5.66686474609375,-92.30107116699219,-11.5745849609375,99.44770812988281
1686425622181937700,5.676937744140625,-91.60009765625,-10.51507568359375,97.1712646484375
1686425622192009700,5.687009765625,-88.78504943847656,-9.075393676757812,94.96768188476562
1686425622202083600,5.69708349609375,-86.00733947753906,-8.234954833984375,93.31996154785156
1686425622212157700,5.70715771484375,-81.79371643066406,-7.3378448486328125,93.43460083007812
1686425622222230800,5.717230712890625,-78.77632141113281,-7.0431365966796875,93.59571838378906
1686425622232304600,5.7273046875,-75.9097900390625,-7.1106414794921875,94.35784912109375
1686425622242379800,5.7373798828125,-73.80316162109375,-6.8647613525390625,93.81935119628906
1686425622252452600,5.74745263671875,-73.13058471679688,-6.9912567138671875,93.31471252441406
1686425622262527700,5.75752783203125,-72.95257568359375,-6.7888031005859375,91.75129699707031
1686425622272600600,5.7676005859375,-72.93731689453125,-6.8570556640625,90.79753112792969
1686425622282674400,5.77767431640625,-73.07797241210938,-6.570281982421875,89.97537231445312
1686425622292748800,5.787748779296875,-73.6630859375,-6.4574432373046875,89.48211669921875
1686425622302823700,5.79782373046875,-73.84011840820312,-6.5597686767578125,88.25445556640625
1686425622312897800,5.807897705078125,-73.90812683105469,-6.3878021240234375,87.93206787109375
1686425622322972700,5.81797265625,-74.30711364746094,-6.4174346923828125,87.35528564453125
1686425622333045800,5.828045654296875,-74.26846313476562,-6.2566070556640625,86.74774169921875
1686425622343118600,5.83811865234375,-74.21145629882812,-6.043304443359375,86.91180419921875
1686425622353192700,5.848192626953125,-73.75088500976562,-6.017181396484375,86.69894409179688
1686425622363266800,5.858266845703125,-73.67245483398438,-5.8446502685546875,86.87713623046875
1686425622373341000,5.8683408203125,-73.31980895996094,-6.1557159423828125,86.77101135253906
1686425622383412700,5.878412841796875,-72.071533203125,-6.2828826904296875,86.51365661621094
1686425622393486800,5.88848681640625,-71.97981262207031,-5.8846588134765625,87.26858520507812
1686425622403561700,5.898561767578125,-70.21385192871094,-6.060089111328125,87.86557006835938
1686425622413637600,5.9086376953125,-68.76713562011719,-6.36138916015625,87.91737365722656
1686425622423713800,5.9187138671875,-66.79261779785156,-6.539398193359375,88.34507751464844
1686425622433788700,5.92878857421875,-64.6910400390625,-7.145477294921875,89.00088500976562
1686425622443863600,5.938863525390625,-62.7816162109375,-8.163070678710938,89.56605529785156
1686425622453937700,5.948937744140625,-61.33363342285156,-8.31634521484375,89.7728271484375
1686425622464011800,5.95901171875,-60.5191650390625,-8.87237548828125,90.65437316894531
1686425622474084900,5.9690849609375,-59.55810546875,-9.222274780273438,91.01641845703125
1686425622484158700,5.97915869140625,-59.2900390625,-9.644805908203125,90.93879699707031
1686425622494232600,5.989232666015625,-59.65992736816406,-9.408538818359375,90.77767944335938
1686425622504306700,5.999306640625,-61.135589599609375,-8.814804077148438,90.12063598632812
1686425622514379800,6.0093798828125,-61.93409729003906,-8.1961669921875,89.32218933105469
1686425622524453600,6.01945361328125,-64.18893432617188,-7.5711517333984375,88.74658203125
1686425622534527700,6.02952783203125,-66.92518615722656,-7.123260498046875,89.34228515625
1686425622544600800,6.039600830078125,-69.54698181152344,-6.767486572265625,89.97039794921875
1686425622554675000,6.049675048828125,-72.02377319335938,-6.645599365234375,91.35520935058594
1686425622564747800,6.059747802734375,-75.15823364257812,-6.7142333984375,92.99354553222656
1686425622574819800,6.06981982421875,-78.30323791503906,-7.242034912109375,93.91683959960938
1686425622584892700,6.079892578125,-81.29283142089844,-7.9494171142578125,95.19654846191406
1686425622594964700,6.08996484375,-84.06369018554688,-8.301971435546875,96.48667907714844
1686425622605036800,6.100036865234375,-85.8687744140625,-9.15362548828125,97.27189636230469
1686425622615107800,6.11010791015625,-87.12844848632812,-9.532135009765625,97.57260131835938
1686425622625180700,6.1201806640625,-88.8841552734375,-10.081573486328125,98.68243408203125
1686425622635252700,6.130252685546875,-90.70436096191406,-11.230255126953125,98.98060607910156
1686425622645326800,6.140326904296875,-92.90951538085938,-12.236862182617188,100.45201110839844
1686425622655399000,6.15039892578125,-93.29130554199219,-13.790420532226562,103.29890441894531
1686425622665472800,6.16047265625,-93.87399291992188,-14.8995361328125,104.85794067382812
1686425622675546600,6.170546630859375,-94.09672546386719,-14.83905029296875,104.49888610839844
1686425622685618700,6.18061865234375,-94.02638244628906,-14.159759521484375,103.13992309570312
1686425622695690800,6.190690673828125,-94.32273864746094,-13.291015625,101.35789489746094
1686425622705762800,6.2007626953125,-93.54228210449219,-12.464218139648438,99.80068969726562
1686425622715836000,6.2108359375,-92.6517333984375,-11.668472290039062,97.95806884765625
1686425622725905700,6.22090576171875,-91.46182250976562,-10.534027099609375,96.91331481933594
1686425622735976700,6.230976806640625,-89.83769226074219,-10.130203247070312,95.73805236816406
1686425622746047700,6.2410478515625,-88.71432495117188,-9.454193115234375,95.10429382324219
1686425622756119800,6.251119873046875,-86.86970520019531,-8.623870849609375,94.71875
1686425622766193700,6.261193603515625,-85.51911926269531,-8.633010864257812,94.47222900390625
1686425622776267800,6.271267822265625,-83.95326232910156,-7.942413330078125,94.36358642578125
1686425622786339800,6.28133984375,-82.04188537597656,-7.7041473388671875,94.58236694335938
1686425622796411600,6.29141162109375,-81.07034301757812,-7.5995635986328125,94.65284729003906
1686425622806484700,6.301484619140625,-80.06382751464844,-7.45416259765625,94.00202941894531
1686425622816557600,6.3115576171875,-77.97161865234375,-7.1845550537109375,93.27610778808594
1686425622826629600,6.321629638671875,-77.03152465820312,-7.0028533935546875,92.01690673828125
1686425622836701700,6.33170166015625,-75.61979675292969,-6.603668212890625,91.17326354980469
1686425622846773800,6.341773681640625,-74.38011169433594,-6.7863616943359375,91.55989074707031
1686425622856844500,6.351844482421875,-74.48396301269531,-6.994049072265625,91.4864501953125
1686425622866916600,6.36191650390625,-74.40751647949219,-6.8607025146484375,91.2049560546875
1686425622876988700,6.37198876953125,-74.69525146484375,-6.8645477294921875,91.21714782714844
1686425622887060700,6.382060791015625,-75.27577209472656,-6.760406494140625,91.382568359375
1686425622897134800,6.392134765625,-75.56581115722656,-6.8691558837890625,91.22682189941406
1686425622907207700,6.402207763671875,-76.065185546875,-7.1244659423828125,91.37295532226562
1686425622917280800,6.41228076171875,-74.59768676757812,-6.58984375,91.47483825683594
1686425622927353900,6.422353759765625,-72.99757385253906,-6.8742218017578125,91.76287841796875
1686425622937427700,6.432427734375,-71.9031982421875,-7.1802520751953125,92.022216796875
1686425622947499800,6.442499755859375,-71.08609008789062,-7.1902618408203125,92.54928588867188
1686425622957572600,6.452572509765625,-70.59243774414062,-7.2079010009765625,92.89888000488281
1686425622967646700,6.462646728515625,-71.57463073730469,-7.5872344970703125,93.58601379394531
1686425622977719800,6.4727197265625,-72.13377380371094,-7.5777435302734375,93.87188720703125
1686425622987793700,6.482793701171875,-72.76435852050781,-7.3123626708984375,94.50386047363281
1686425622997867800,6.49286767578125,-73.09184265136719,-7.719146728515625,94.58753967285156
1686425623007941600,6.502941650390625,-73.41142272949219,-7.530670166015625,95.01553344726562
1686425623018014700,6.5130146484375,-73.62269592285156,-7.4694976806640625,95.08563232421875
1686425623028088800,6.5230888671875,-73.74664306640625,-7.5579376220703125,95.10562133789062
1686425623038161700,6.53316162109375,-73.92694091796875,-7.163299560546875,95.16064453125
1686425623048236800,6.54323681640625,-73.3590087890625,-7.2373504638671875,95.04440307617188
1686425623058310000,6.553309814453125,-73.42481994628906,-7.5672454833984375,95.35308837890625
1686425623068382700,6.5633828125,-72.57357788085938,-7.901397705078125,95.08975219726562
1686425623078451700,6.57345166015625,-71.81900024414062,-7.6490478515625,95.32817077636719
1686425623088523800,6.583523681640625,-71.00689697265625,-7.8047943115234375,95.52044677734375
1686425623098595800,6.593595947265625,-71.27323913574219,-8.14141845703125,95.54801940917969
1686425623108669000,6.6036689453125,-71.76132202148438,-8.016738891601562,95.74114990234375
1686425623118741800,6.61374169921875,-72.11741638183594,-7.7982177734375,96.06129455566406
1686425623128815600,6.623815673828125,-72.92083740234375,-7.1769866943359375,94.78451538085938
1686425623138889700,6.6338896484375,-74.1785888671875,-7.0781707763671875,93.0389404296875
1686425623148961800,6.6439619140625,-75.1876220703125,-6.58233642578125,91.699462890625
1686425623159033900,6.654033935546875,-76.98463439941406,-6.8676300048828125,91.14971923828125
1686425623169104000,6.664103759765625,-79.00715637207031,-7.0713043212890625,92.19497680664062
1686425623179174700,6.674174560546875,-81.12054443359375,-7.530029296875,94.03636169433594
1686425623189247700,6.684247802734375,-83.34744262695312,-8.343276977539062,96.11134338378906
1686425623199320800,6.69432080078125,-84.47654724121094,-9.345474243164062,98.37539672851562
1686425623209393000,6.704392822265625,-86.64962768554688,-10.572433471679688,100.30177307128906
1686425623219465700,6.7144658203125,-88.9775390625,-11.651123046875,101.56414794921875
1686425623229537800,6.724537841796875,-90.78897094726562,-13.60870361328125,103.11239624023438
1686425623239608800,6.73460888671875,-92.00733947753906,-13.693527221679688,103.79264831542969
1686425623249681700,6.744681640625,-92.19541931152344,-13.692581176757812,103.38056945800781
1686425623259755800,6.754755859375,-92.39427185058594,-13.385360717773438,102.15849304199219
1686425623269830700,6.76483056640625,-92.52114868164062,-13.058273315429688,101.71658325195312
1686425623279905800,6.77490576171875,-91.94070434570312,-12.252120971679688,100.88800048828125
1686425623289979600,6.784979736328125,-91.24209594726562,-11.85137939453125,99.789794921875
1686425623300052700,6.795052734375,-90.20367431640625,-11.158843994140625,99.111572265625
1686425623310126800,6.805126953125,-90.09443664550781,-10.095840454101562,97.76457214355469
1686425623320199700,6.81519970703125,-89.19656372070312,-10.087738037109375,96.53445434570312
1686425623330272800,6.825272705078125,-87.906982421875,-9.158493041992188,95.52830505371094
1686425623340345300,6.835345458984375,-86.66102600097656,-8.740798950195312,94.927490234375
1686425623350417400,6.84541748046875,-85.44157409667969,-8.201156616210938,94.36936950683594
1686425623360491300,6.8554912109375,-83.7513427734375,-7.81256103515625,94.21142578125
1686425623370562300,6.865562255859375,-82.1837158203125,-7.7008209228515625,94.18418884277344
1686425623380636400,6.875636474609375,-80.48764038085938,-7.5561370849609375,94.759521484375
1686425623390709500,6.88570947265625,-77.92919921875,-7.33526611328125,94.80671691894531
1686425623400782300,6.8957822265625,-76.77960205078125,-7.54705810546875,95.02935791015625
1686425623410856400,6.9058564453125,-74.82261657714844,-7.7641754150390625,95.96807861328125
1686425623420931300,6.915931396484375,-73.48927307128906,-7.87481689453125,97.12667846679688
1686425623431005400,6.92600537109375,-72.68368530273438,-8.368484497070312,97.99906921386719
1686425623441080300,6.936080322265625,-73.06057739257812,-8.868972778320312,98.37010192871094
1686425623451153200,6.946153076171875,-74.45420837402344,-8.555755615234375,98.29347229003906
1686425623461226500,6.9562265625,-76.05998229980469,-8.347122192382812,96.85377502441406
1686425623471301400,6.96630126953125,-78.87422180175781,-7.675445556640625,95.19441223144531
1686425623481376500,6.97637646484375,-80.79829406738281,-7.5157318115234375,93.54421997070312
1686425623491451100,6.986451171875,-82.22286987304688,-7.6720733642578125,92.20484924316406
1686425623501527300,6.99652734375,-83.30155944824219,-7.7125396728515625,91.88003540039062
1686425623511602400,7.0066025390625,-82.18244934082031,-7.64727783203125,92.49882507324219
1686425623521677300,7.01667724609375,-80.79127502441406,-7.5685882568359375,92.80720520019531
1686425623531751400,7.02675146484375,-79.65843200683594,-7.30328369140625,93.27395629882812
1686425623541826600,7.03682666015625,-77.44343566894531,-7.571563720703125,93.97654724121094
1686425623551899400,7.0468994140625,-75.13929748535156,-7.64764404296875,94.44142150878906
1686425623561972500,7.056972412109375,-73.98880004882812,-7.5337677001953125,95.0296630859375
1686425623572046300,7.06704638671875,-73.39543151855469,-7.7039947509765625,95.05880737304688
1686425623582120400,7.077120361328125,-73.01618957519531,-7.739898681640625,95.68798828125
1686425623592194300,7.0871943359375,-72.76753234863281,-7.5329132080078125,96.28219604492188
1686425623602268400,7.097268310546875,-73.18971252441406,-7.8146514892578125,97.13238525390625
1686425623612341500,7.107341552734375,-73.99400329589844,-7.790283203125,97.07293701171875
1686425623622415400,7.117415283203125,-74.38182067871094,-7.6713409423828125,96.94630432128906
1686425623632488400,7.127488525390625,-74.38145446777344,-8.34173583984375,97.09681701660156
1686425623642562300,7.137562255859375,-74.78662109375,-7.8661956787109375,96.57435607910156
1686425623652637400,7.147637451171875,-75.73826599121094,-7.9687042236328125,96.15150451660156
1686425623662712300,7.15771240234375,-76.02046203613281,-7.429229736328125,95.62472534179688
1686425623672784400,7.167784423828125,-76.63140869140625,-7.3655242919921875,95.29939270019531
1686425623682858500,7.1778583984375,-77.79086303710938,-7.729217529296875,94.3424072265625
1686425623692932400,7.187932373046875,-78.818603515625,-7.3153076171875,94.16590881347656
1686425623703006200,7.198006103515625,-79.56771850585938,-7.638946533203125,93.88040161132812
1686425623713080300,7.208080322265625,-80.29212951660156,-7.5633544921875,93.72279357910156
1686425623723153400,7.2181533203125,-81.343017578125,-7.262420654296875,93.02818298339844
1686425623733226200,7.228226318359375,-82.21958923339844,-7.6696014404296875,92.94503784179688
1686425623743299600,7.238299560546875,-82.59854125976562,-8.063369750976562,92.66178894042969
1686425623753373400,7.24837353515625,-82.83033752441406,-7.5304107666015625,92.77323913574219
1686425623763448600,7.258448486328125,-83.65992736816406,-7.770233154296875,92.45150756835938
1686425623773521400,7.268521484375,-83.54728698730469,-7.910247802734375,92.10087585449219
1686425623783596300,7.27859619140625,-84.36929321289062,-7.9328460693359375,92.9168701171875
1686425623793670400,7.28867041015625,-83.96540832519531,-7.745758056640625,93.10275268554688
1686425623803744300,7.298744140625,-84.23135375976562,-8.166259765625,93.30519104003906
1686425623813818400,7.308818359375,-83.93759155273438,-7.7945556640625,93.34597778320312
1686425623823893200,7.318893310546875,-83.29005432128906,-7.7048797607421875,93.37455749511719
1686425623833968400,7.328968505859375,-82.59428405761719,-7.6096038818359375,93.50613403320312
1686425623844042200,7.339042236328125,-82.05177307128906,-7.3625030517578125,92.98307800292969
1686425623854116400,7.349116455078125,-81.49281311035156,-7.20745849609375,92.10142517089844
1686425623864189400,7.359189453125,-82.39837646484375,-7.2288055419921875,91.98745727539062
1686425623874263300,7.36926318359375,-84.15806579589844,-7.624359130859375,91.89649963378906
1686425623884335400,7.37933544921875,-85.724853515625,-8.124862670898438,91.59361267089844
1686425623894409500,7.389409423828125,-87.78279113769531,-8.41314697265625,92.13700866699219
1686425623904483300,7.3994833984375,-89.47727966308594,-9.315170288085938,92.48745727539062
1686425623914557400,7.409557373046875,-91.40786743164062,-9.9937744140625,92.79324340820312
1686425623924630500,7.419630615234375,-92.38038635253906,-10.660614013671875,93.29998779296875
1686425623934702300,7.429702392578125,-94.13865661621094,-11.125518798828125,94.0048828125
1686425623944776200,7.439776123046875,-94.58935546875,-11.304763793945312,93.77203369140625
1686425623954848300,7.44984814453125,-94.97320556640625,-11.577789306640625,94.333984375
1686425623964921600,7.459921630859375,-94.93977355957031,-11.476608276367188,94.50881958007812
1686425623974993400,7.469993408203125,-94.40519714355469,-11.211456298828125,94.34773254394531
1686425623985066500,7.48006640625,-94.20785522460938,-10.943832397460938,94.63595581054688
1686425623995139300,7.490139404296875,-93.1058349609375,-10.879714965820312,93.91157531738281
1686425624005212400,7.50021240234375,-92.51019287109375,-10.075210571289062,93.98030090332031
1686425624015285200,7.51028515625,-91.89537048339844,-10.23126220703125,93.52072143554688
1686425624025356300,7.520356201171875,-91.79148864746094,-10.095443725585938,93.11514282226562
1686425624035430400,7.530430419921875,-91.68215942382812,-9.925003051757812,93.02790832519531
1686425624045503500,7.54050341796875,-91.66189575195312,-9.871566772460938,92.83235168457031
1686425624055575300,7.5505751953125,-91.42604064941406,-10.08197021484375,93.25093078613281
1686425624065648400,7.5606484375,-90.82020568847656,-9.997848510742188,93.83708190917969
1686425624075721200,7.57072119140625,-89.63996887207031,-9.9873046875,94.6624755859375
1686425624085792300,7.580792236328125,-88.99148559570312,-10.011611938476562,95.86628723144531
1686425624095864300,7.5908642578125,-88.38371276855469,-9.92205810546875,96.1568603515625
1686425624105938400,7.6009384765625,-87.86225891113281,-9.444427490234375,96.05891418457031
1686425624116011300,7.61101123046875,-87.36970520019531,-9.218673706054688,95.5977783203125
1686425624126084400,7.62108447265625,-86.18238830566406,-8.98358154296875,94.93478393554688
1686425624136156400,7.631156494140625,-85.28749084472656,-8.7442626953125,94.78402709960938
1686425624146228200,7.641228271484375,-84.66987609863281,-8.6065673828125,94.80572509765625
1686425624156300300,7.65130029296875,-83.61616516113281,-8.340606689453125,94.63693237304688
1686425624166373400,7.661373291015625,-82.25407409667969,-8.219070434570312,94.69465637207031
1686425624176447500,7.671447509765625,-80.31831359863281,-7.977447509765625,94.84188842773438
1686425624186518500,7.6815185546875,-79.093017578125,-7.8381805419921875,95.63450622558594
1686425624196591400,7.69159130859375,-78.92547607421875,-8.113540649414062,95.90573120117188
1686425624206665200,7.701665283203125,-78.64717102050781,-8.074813842773438,95.7110595703125
1686425624216738600,7.711738525390625,-79.12321472167969,-8.118026733398438,95.68330383300781
1686425624226812400,7.7218125,-79.67942810058594,-8.128875732421875,95.81037902832031
1686425624236885200,7.73188525390625,-80.07203674316406,-8.028305053710938,95.69004821777344
1686425624246958300,7.741958251953125,-80.55964660644531,-7.8591766357421875,96.22282409667969
1686425624257031400,7.752031494140625,-81.08021545410156,-8.041839599609375,95.71121215820312
1686425624267103500,7.762103515625,-81.03805541992188,-7.917449951171875,96.22190856933594
1686425624277177300,7.77217724609375,-80.99801635742188,-8.178817749023438,95.85923767089844
1686425624287249400,7.78224951171875,-81.52667236328125,-8.17462158203125,95.92787170410156
1686425624297321200,7.7923212890625,-81.83450317382812,-8.534698486328125,95.748779296875
1686425624307395600,7.8023955078125,-82.65347290039062,-8.3995361328125,95.73971557617188
1686425624317469400,7.812469482421875,-83.10365295410156,-8.772109985351562,95.91859436035156
1686425624327543300,7.822543212890625,-84.07182312011719,-8.775421142578125,96.00115966796875
1686425624337618200,7.8326181640625,-84.10565185546875,-8.493881225585938,96.25425720214844
1686425624347690000,7.84268994140625,-84.43482971191406,-8.450881958007812,96.53419494628906
1686425624357762000,7.852761962890625,-84.60136413574219,-8.92205810546875,97.025390625
1686425624367834000,7.862834228515625,-85.02784729003906,-8.947052001953125,96.92997741699219
1686425624377907000,7.872906982421875,-85.6083984375,-9.384109497070312,97.56170654296875
1686425624387979000,7.88297900390625,-86.20016479492188,-9.659255981445312,97.14378356933594
1686425624398052000,7.893052001953125,-86.31642150878906,-9.77008056640625,97.31158447265625
1686425624408123100,7.903123046875,-85.92204284667969,-9.561676025390625,97.19584655761719
1686425624418196000,7.913196044921875,-86.2762451171875,-9.076461791992188,96.35165405273438
1686425624428268000,7.92326806640625,-86.48246765136719,-9.080520629882812,96.481201171875
1686425624438339000,7.933339111328125,-86.74429321289062,-9.362503051757812,97.18522644042969
1686425624448413200,7.9434130859375,-86.62591552734375,-9.469223022460938,97.931396484375
1686425624458485200,7.9534853515625,-86.29080200195312,-10.074554443359375,98.81204223632812
1686425624468558000,7.96355810546875,-86.38717651367188,-10.26171875,99.78465270996094
1686425624478630100,7.973630126953125,-86.47618103027344,-10.745193481445312,100.83135986328125
1686425624488701200,7.983701171875,-86.28770446777344,-11.18145751953125,101.64138793945312
1686425624498773000,7.99377294921875,-87.0081787109375,-11.513534545898438,102.3792724609375
1686425624508845000,8.003844970703126,-86.42767333984375,-11.711135864257812,102.78599548339844
1686425624518916000,8.013916015625,-86.78944396972656,-12.273681640625,104.17062377929688
1686425624528987000,8.02398681640625,-87.491943359375,-11.9976806640625,104.11003112792969
1686425624539061000,8.03406103515625,-87.141845703125,-12.75732421875,104.5633544921875
1686425624549132000,8.044132080078125,-87.61532592773438,-12.261474609375,104.17559814453125
1686425624559204000,8.0542041015625,-88.22482299804688,-12.114959716796875,103.81817626953125
1686425624569277000,8.06427685546875,-87.15299987792969,-12.078475952148438,103.27845764160156
1686425624579349000,8.074348876953126,-87.31864929199219,-11.524002075195312,103.15826416015625
1686425624589421000,8.084421142578124,-87.50967407226562,-11.71063232421875,102.68783569335938
1686425624599493000,8.0944931640625,-87.86198425292969,-11.632614135742188,102.18367004394531
1686425624609564200,8.104564208984375,-88.31951904296875,-11.866897583007812,102.03639221191406
1686425624619636000,8.114635986328125,-89.19459533691406,-11.64361572265625,101.80647277832031
1686425624629709000,8.124708984375,-89.15235900878906,-12.017929077148438,101.53627014160156
1686425624639783200,8.134783203125,-89.18281555175781,-11.651748657226562,101.57373046875
1686425624649856000,8.14485595703125,-89.07090759277344,-11.57611083984375,101.48756408691406
1686425624659928000,8.154927978515625,-89.20538330078125,-11.65716552734375,101.55783081054688
1686425624670001200,8.165001220703125,-89.50602722167969,-11.734848022460938,101.51368713378906
1686425624680075000,8.175074951171876,-89.79843139648438,-12.012008666992188,101.99372863769531
1686425624690149000,8.185149169921875,-89.91358947753906,-12.26348876953125,102.34463500976562
1686425624700223000,8.195222900390625,-90.49372863769531,-12.784439086914062,102.43601989746094
1686425624710297000,8.205297119140624,-90.51739501953125,-12.722000122070312,102.62374877929688
1686425624720371000,8.215370849609375,-91.0982666015625,-13.078628540039062,102.88668823242188
1686425624730446000,8.225446044921876,-91.19415283203125,-13.123992919921875,103.33445739746094
1686425624740520000,8.23552001953125,-92.35716247558594,-13.785247802734375,103.70994567871094
1686425624750593000,8.245593017578125,-93.14102172851562,-13.921218872070312,103.17405700683594
1686425624760666000,8.255666015625,-94.203369140625,-14.103668212890625,102.83348083496094
1686425624770739200,8.2657392578125,-94.44891357421875,-13.757049560546875,102.5596923828125
1686425624780812000,8.27581201171875,-94.41827392578125,-13.562423706054688,101.97482299804688
1686425624790884000,8.285884033203125,-93.33992004394531,-13.450302124023438,101.86711120605469
1686425624800956000,8.295955810546875,-92.3603515625,-13.073226928710938,101.78961181640625
1686425624811028000,8.306028076171875,-91.00732421875,-12.547393798828125,101.85697937011719
1686425624821101000,8.31610107421875,-89.52731323242188,-12.230865478515625,102.13697814941406
1686425624831172900,8.3261728515625,-87.83064270019531,-11.442459106445312,102.40391540527344
1686425624841245000,8.336244873046875,-85.87693786621094,-11.796295166015625,102.88545227050781
1686425624851318000,8.346318115234375,-84.54374694824219,-11.487167358398438,103.13926696777344
1686425624861391000,8.35639111328125,-83.36857604980469,-10.804168701171875,103.41748046875
1686425624871461000,8.366461181640625,-82.27806091308594,-10.58831787109375,102.98280334472656
1686425624881534200,8.3765341796875,-81.86402893066406,-10.763107299804688,103.00772094726562
1686425624891607000,8.38660693359375,-82.48477172851562,-10.734634399414062,102.95732116699219
1686425624901679900,8.396679931640625,-82.9949951171875,-10.476730346679688,102.83290100097656
1686425624911753000,8.4067529296875,-83.7381591796875,-10.631484985351562,102.97673034667969
1686425624921826000,8.416825927734376,-84.22416687011719,-11.174530029296875,103.189453125
1686425624931899100,8.426899169921874,-84.26441955566406,-10.854629516601562,103.26629638671875
1686425624941972000,8.436971923828125,-84.153564453125,-11.518539428710938,103.33090209960938
1686425624952045000,8.447045166015625,-84.59648132324219,-11.168106079101562,103.25291442871094
1686425624962120000,8.457119873046874,-84.24760437011719,-11.23248291015625,103.78131103515625
1686425624972193000,8.467193115234375,-83.59336853027344,-11.090911865234375,103.635009765625
1686425624982265900,8.477265869140625,-83.81568908691406,-11.144668579101562,104.14363098144531
1686425624992338000,8.487337890625,-83.16073608398438,-11.363876342773438,104.24966430664062
1686425625002412000,8.497412109375,-82.61875915527344,-11.544677734375,104.90940856933594
1686425625012482000,8.50748193359375,-82.1258544921875,-11.812103271484375,105.17642211914062
1686425625022553900,8.517553955078125,-82.54080200195312,-11.943359375,105.68170166015625
1686425625032626200,8.527626220703125,-81.93994140625,-12.032379150390625,105.92709350585938
1686425625042698200,8.5376982421875,-82.39924621582031,-12.392379760742188,105.85014343261719
1686425625052771000,8.54777099609375,-83.44621276855469,-12.625656127929688,106.22775268554688
1686425625062845000,8.557844970703124,-84.80702209472656,-12.639328002929688,106.15606689453125
1686425625072918000,8.56791796875,-86.17086791992188,-13.129928588867188,106.73890686035156
1686425625082991000,8.5779912109375,-87.34016418457031,-14.007186889648438,107.01850891113281
1686425625093063200,8.588063232421876,-88.44218444824219,-14.478866577148438,107.77882385253906
1686425625103136000,8.598135986328124,-88.73420715332031,-14.902587890625,108.573974609375
1686425625113208000,8.6082080078125,-88.87382507324219,-15.570785522460938,109.46012878417969
1686425625123279000,8.618279052734374,-89.58370971679688,-16.360549926757812,110.30300903320312
1686425625133351200,8.62835107421875,-89.5341796875,-17.05322265625,111.29132080078125
1686425625143422200,8.638422119140625,-89.36134338378906,-17.887039184570312,111.70811462402344
1686425625153494000,8.648493896484375,-89.94105529785156,-18.29388427734375,112.54953002929688
1686425625163567000,8.658567138671875,-89.54104614257812,-18.659927368164062,112.83580017089844
1686425625173640000,8.668639892578126,-90.83064270019531,-18.6168212890625,112.25856018066406
1686425625183712000,8.6787119140625,-91.54541015625,-18.6302490234375,112.15524291992188
1686425625193783000,8.688782958984374,-91.94889831542969,-18.591796875,111.53756713867188
1686425625203854000,8.69885400390625,-91.84298706054688,-18.087448120117188,111.29606628417969
1686425625213923800,8.708923828125,-91.6904296875,-18.187637329101562,110.86436462402344
1686425625223996000,8.718995849609374,-91.83094787597656,-17.551498413085938,110.38981628417969
1686425625234069000,8.729069091796875,-91.94114685058594,-17.159927368164062,109.59674072265625
1686425625244140000,8.73914013671875,-92.47193908691406,-17.004180908203125,109.14137268066406
1686425625254213000,8.749213134765625,-92.97785949707031,-16.645645141601562,108.44561767578125
1686425625264285200,8.75928515625,-93.66896057128906,-16.411407470703125,108.21107482910156
1686425625274358000,8.76935791015625,-94.16168212890625,-16.40045166015625,107.58987426757812
1686425625284431000,8.77943115234375,-94.51791381835938,-16.518508911132812,107.17961120605469
1686425625294504000,8.78950390625,-94.48924255371094,-16.347412109375,106.93377685546875
1686425625304575000,8.799574951171875,-94.585693359375,-16.61077880859375,106.86526489257812
1686425625314649000,8.809649169921874,-95.06498718261719,-16.644927978515625,106.82974243164062
1686425625324722200,8.81972216796875,-95.29452514648438,-16.880386352539062,107.15875244140625
1686425625334793500,8.82979345703125,-94.44375610351562,-16.50994873046875,107.36677551269531
1686425625344865500,8.839865478515625,-94.32965087890625,-16.98388671875,107.98924255371094
1686425625354938600,8.849938720703125,-94.20491027832031,-17.199737548828125,108.16966247558594
1686425625365012500,8.860012451171874,-93.02830505371094,-16.795166015625,108.6546630859375
1686425625375084300,8.870084228515625,-92.38072204589844,-16.82818603515625,108.76341247558594
1686425625385156400,8.88015625,-91.56362915039062,-16.59747314453125,109.55027770996094
1686425625395229700,8.890229736328125,-90.87431335449219,-16.627777099609375,109.92811584472656
1686425625405300500,8.900300537109375,-90.08692932128906,-16.478103637695312,109.32260131835938
1686425625415373600,8.91037353515625,-89.9329833984375,-16.408126831054688,109.63870239257812
1686425625425447400,8.920447509765625,-90.44142150878906,-16.164703369140625,109.20503234863281
1686425625435521500,8.930521484375,-90.88618469238281,-15.86553955078125,108.87519836425781
1686425625445594600,8.9405947265625,-90.36006164550781,-15.635971069335938,108.39862060546875
1686425625455666400,8.95066650390625,-88.47666931152344,-14.796401977539062,108.50851440429688
1686425625465739500,8.960739501953125,-86.36325073242188,-14.300872802734375,108.25384521484375
1686425625475812400,8.970812255859375,-83.91818237304688,-13.777923583984375,107.82449340820312
1686425625485885400,8.980885498046876,-82.20610046386719,-13.158920288085938,108.12223815917969
1686425625495958500,8.99095849609375,-81.50460815429688,-12.960784912109375,107.93450927734375
1686425625506031600,9.001031494140625,-81.51565551757812,-13.093124389648438,107.7373046875
1686425625516105500,9.01110546875,-81.62287902832031,-13.085586547851562,107.19950866699219
1686425625526179600,9.0211796875,-82.28511047363281,-13.1915283203125,107.41474914550781
1686425625536252400,9.03125244140625,-82.46224975585938,-12.952835083007812,107.31166076660156
1686425625546326300,9.041326171875,-82.53721618652344,-12.79046630859375,107.10490417480469
1686425625556400600,9.051400634765624,-83.08457946777344,-12.8170166015625,106.82115173339844
1686425625566474500,9.061474609375,-83.60807800292969,-12.568405151367188,106.66561889648438
1686425625576548600,9.071548583984375,-83.54682922363281,-13.047988891601562,107.05780029296875
1686425625586623500,9.08162353515625,-83.66810607910156,-13.047897338867188,106.85525512695312
1686425625596692500,9.0916923828125,-84.08055114746094,-12.9312744140625,107.52638244628906
1686425625606765600,9.101765625,-83.46768188476562,-13.005950927734375,107.31851196289062
1686425625616839400,9.11183935546875,-83.58216857910156,-13.201095581054688,108.09092712402344
1686425625626912500,9.12191259765625,-83.07048034667969,-13.169570922851562,108.27455139160156
1686425625636985600,9.131985595703124,-83.10968017578125,-13.451858520507812,108.68702697753906
1686425625647059500,9.1420595703125,-82.95936584472656,-13.4715576171875,108.99420166015625
1686425625657132300,9.15213232421875,-82.49652099609375,-13.722259521484375,109.48481750488281
1686425625667205600,9.16220556640625,-82.19261169433594,-14.135101318359375,109.42826843261719
1686425625677279500,9.172279541015625,-83.0277099609375,-14.2218017578125,109.57853698730469
1686425625687352300,9.182352294921875,-83.38833618164062,-14.385009765625,109.42097473144531
1686425625697422600,9.192422607421875,-85.07366943359375,-14.48455810546875,109.34455871582031
1686425625707496400,9.202496337890626,-85.98049926757812,-14.80291748046875,109.4114990234375
1686425625717569500,9.212569580078124,-86.75248718261719,-15.242279052734375,109.28089904785156
1686425625727643400,9.222643310546875,-87.552490234375,-15.521804809570312,109.54641723632812
1686425625737717500,9.232717529296876,-87.32429504394531,-15.63592529296875,109.84074401855469
1686425625747791600,9.24279150390625,-87.69204711914062,-16.23919677734375,110.23667907714844
1686425625757866500,9.252866455078125,-88.08218383789062,-16.527191162109375,111.18339538574219
1686425625767941400,9.26294140625,-88.04080200195312,-17.3729248046875,111.983642578125
1686425625778015500,9.273015380859375,-88.23384094238281,-18.2779541015625,112.70561218261719
1686425625788089600,9.283089599609376,-89.13088989257812,-19.066818237304688,113.92070007324219
1686425625798162400,9.293162353515624,-89.50180053710938,-19.539627075195312,114.02536010742188
1686425625808234500,9.303234375,-89.95303344726562,-20.227081298828125,114.1341552734375
1686425625818307300,9.313307373046875,-90.86004638671875,-19.85498046875,114.34465026855469
1686425625828380700,9.323380615234376,-90.73643493652344,-19.974838256835938,114.15928649902344
1686425625838453500,9.33345361328125,-90.83580017089844,-19.911392211914062,114.33511352539062
1686425625848526600,9.343526611328125,-90.64033508300781,-19.76287841796875,114.16252136230469
1686425625858598400,9.353598388671875,-90.17100524902344,-19.692825317382812,113.78822326660156
1686425625868669400,9.36366943359375,-90.07498168945312,-19.321929931640625,113.46638488769531
1686425625878743300,9.373743408203126,-90.08976745605469,-18.984603881835938,113.17686462402344
1686425625888817700,9.383817626953125,-90.98196411132812,-18.75970458984375,112.70500183105469
1686425625898891500,9.3938916015625,-90.89950561523438,-18.730484008789062,112.19783020019531
1686425625908965600,9.403965576171874,-91.30729675292969,-18.758193969726562,111.73146057128906
1686425625919039500,9.41403955078125,-91.63101196289062,-18.350753784179688,111.74945068359375
1686425625929110500,9.424110595703125,-91.70259094238281,-18.478240966796875,111.31529235839844
1686425625939183400,9.434183349609375,-92.06149291992188,-18.564697265625,111.19032287597656
1686425625949257700,9.4442578125,-91.58882141113281,-18.42474365234375,111.1754150390625
1686425625959329500,9.45432958984375,-91.98663330078125,-18.448165893554688,111.30755615234375
1686425625969402600,9.464402587890625,-91.25823974609375,-18.416671752929688,111.4559326171875
1686425625979472400,9.474472412109375,-91.62373352050781,-18.85125732421875,111.65159606933594
1686425625989544400,9.48454443359375,-91.45655822753906,-18.641693115234375,112.05563354492188
1686425625999617500,9.494617431640625,-90.91415405273438,-19.069290161132812,112.54180908203125
1686425626009690600,9.504690673828126,-90.65005493164062,-19.082687377929688,112.47639465332031
1686425626019764500,9.514764404296875,-90.28985595703125,-19.146835327148438,112.93267822265625
1686425626029837600,9.524837646484375,-89.54515075683594,-18.995269775390625,113.82707214355469
1686425626039911400,9.534911376953126,-88.36245727539062,-18.972259521484375,113.89591979980469
1686425626049985500,9.544985595703125,-88.03424072265625,-19.620712280273438,114.52188110351562
1686425626060058600,9.55505859375,-88.37306213378906,-19.592361450195312,114.24549865722656
1686425626070131500,9.56513134765625,-88.98936462402344,-19.563934326171875,113.97401428222656
1686425626080205600,9.57520556640625,-89.50346374511719,-19.211517333984375,113.23330688476562
1686425626090280400,9.585280517578125,-89.56378173828125,-18.832305908203125,113.13037109375
1686425626100355300,9.595355224609374,-88.7606201171875,-18.777618408203125,112.92622375488281
1686425626110427400,9.605427490234375,-86.88833618164062,-18.027786254882812,112.87258911132812
1686425626120502500,9.61550244140625,-85.44149780273438,-17.105072021484375,112.60079956054688
1686425626130575400,9.625575439453126,-84.40692138671875,-16.864700317382812,112.71710205078125
1686425626140649500,9.6356494140625,-83.77169799804688,-16.2447509765625,112.84654235839844
1686425626150723600,9.6457236328125,-83.09815979003906,-16.250137329101562,112.79190063476562
1686425626160797700,9.655797607421874,-83.16635131835938,-16.203948974609375,113.08979797363281
1686425626170871600,9.66587158203125,-83.45124816894531,-16.5101318359375,112.68849182128906
1686425626180946700,9.67594677734375,-83.18922424316406,-16.274917602539062,112.41908264160156
1686425626191019500,9.68601953125,-83.16082763671875,-16.630325317382812,112.84538269042969
1686425626201093400,9.69609326171875,-83.35304260253906,-16.166397094726562,112.5452880859375
1686425626211166500,9.70616650390625,-83.26846313476562,-16.264846801757812,112.34819030761719
1686425626221240600,9.716240478515624,-83.06503295898438,-16.3511962890625,112.47761535644531
1686425626231313400,9.7263134765625,-83.24449157714844,-16.654571533203125,113.03530883789062
1686425626241387500,9.736387451171876,-83.40164184570312,-16.8614501953125,113.26390075683594
1686425626251459600,9.74645947265625,-83.4327392578125,-17.230667114257812,112.94107055664062
1686425626261533400,9.756533447265625,-83.07701110839844,-17.18475341796875,113.17811584472656
1686425626271605500,9.76660546875,-83.24549865722656,-17.373062133789062,113.65457153320312
1686425626281677600,9.776677490234375,-83.00955200195312,-17.5052490234375,113.89617919921875
1686425626291750400,9.78675048828125,-82.365478515625,-17.394668579101562,114.14808654785156
1686425626301823700,9.79682373046875,-82.535888671875,-17.974472045898438,114.27571105957031
1686425626311896600,9.806896484375,-83.083251953125,-17.986709594726562,114.20263671875
1686425626321968600,9.81696875,-83.38136291503906,-18.204055786132812,114.75846862792969
1686425626332040400,9.82704052734375,-84.58534240722656,-18.186996459960938,114.68803405761719
1686425626342109000,9.83710888671875,-86.36607360839844,-18.74810791015625,114.47499084472656
1686425626352182300,9.847182373046875,-87.91700744628906,-19.0775146484375,114.07666015625
1686425626362255000,9.857255126953126,-88.91677856445312,-18.960540771484375,113.75274658203125
1686425626372327200,9.8673271484375,-90.06248474121094,-19.715179443359375,113.94656372070312
1686425626382399000,9.87739892578125,-90.65484619140625,-19.780563354492188,114.02066040039062
1686425626392472000,9.88747216796875,-90.77925109863281,-19.680145263671875,113.90869140625
1686425626402547200,9.897547119140626,-90.04898071289062,-19.83966064453125,113.45722961425781
1686425626412619000,9.907618896484376,-90.06216430664062,-19.980087280273438,114.33943176269531
1686425626422693000,9.917693115234375,-90.78981018066406,-20.190200805664062,114.39057922363281
1686425626432765000,9.927764892578125,-89.88543701171875,-20.741455078125,115.02513122558594
1686425626442837000,9.9378369140625,-89.543701171875,-20.921920776367188,115.63066101074219
1686425626452909800,9.947909912109376,-89.14645385742188,-21.715988159179688,116.40718078613281
1686425626462985000,9.95798486328125,-89.37605285644531,-22.331878662109375,117.05824279785156
1686425626473057000,9.96805712890625,-89.70166015625,-22.469757080078125,116.93338012695312
1686425626483128000,9.978128173828125,-89.68020629882812,-22.325836181640625,117.14682006835938
1686425626493200100,9.9882001953125,-90.198974609375,-22.369384765625,116.92781066894531
1686425626503274000,9.99827392578125,-89.76554870605469,-22.414901733398438,117.14535522460938
1686425626513346000,10.008345947265624,-91.0892333984375,-22.004913330078125,116.619384765625
1686425626523420200,10.018420166015625,-91.25692749023438,-22.044509887695312,116.05241394042969
1686425626533494000,10.028493896484376,-91.27239990234375,-21.839920043945312,116.07411193847656
1686425626543566000,10.038566162109374,-91.402099609375,-21.721755981445312,115.7220458984375
1686425626553640200,10.04864013671875,-91.91838073730469,-21.522628784179688,115.14247131347656
1686425626563712000,10.0587119140625,-92.25581359863281,-21.270401000976562,114.63749694824219
1686425626573785000,10.06878515625,-92.41081237792969,-21.328582763671875,114.50564575195312
1686425626583859000,10.07885888671875,-92.57868957519531,-21.33331298828125,113.95494079589844
1686425626593933000,10.08893310546875,-92.69490051269531,-20.89019775390625,113.99075317382812
1686425626604007000,10.0990068359375,-92.58486938476562,-20.844207763671875,114.03939819335938
1686425626614082000,10.10908203125,-92.91966247558594,-21.119308471679688,113.81813049316406
1686425626624155100,10.119155029296875,-92.91905212402344,-21.29229736328125,114.32278442382812
1686425626634229000,10.12922900390625,-93.19990539550781,-21.667999267578125,114.52250671386719
1686425626644300000,10.139300048828124,-92.97254943847656,-21.760772705078125,114.5894775390625
1686425626654372000,10.1493720703125,-92.69209289550781,-21.500686645507812,114.89103698730469
1686425626664447000,10.159447021484375,-92.38916015625,-21.740509033203125,115.41522216796875
1686425626674521900,10.16952197265625,-91.81716918945312,-21.784423828125,115.80723571777344
1686425626684595200,10.17959521484375,-90.1656494140625,-21.780166625976562,116.51271057128906
1686425626694669000,10.1896689453125,-89.57539367675781,-21.676254272460938,116.51225280761719
1686425626704742000,10.199741943359374,-88.83297729492188,-21.629043579101562,116.43948364257812
1686425626714816000,10.20981591796875,-88.68763732910156,-21.48980712890625,116.37992858886719
1686425626724890000,10.21989013671875,-88.50131225585938,-20.936309814453125,116.41639709472656
1686425626734963000,10.229962890625,-88.58784484863281,-20.601821899414062,115.92263793945312
1686425626745038000,10.2400380859375,-88.25717163085938,-20.084060668945312,115.1363525390625
1686425626755111000,10.25011083984375,-86.83058166503906,-19.374298095703125,115.55332946777344
1686425626765186000,10.26018603515625,-85.52163696289062,-18.82708740234375,115.05329895019531
1686425626775262200,10.27026220703125,-84.72969055175781,-18.319778442382812,114.879638671875
1686425626785334000,10.280333984375,-83.06326293945312,-17.85662841796875,114.71881103515625
1686425626795408100,10.290408203125,-83.36178588867188,-17.680313110351562,114.16841125488281
1686425626805479200,10.300479248046875,-83.14759826660156,-16.957351684570312,114.02632141113281
1686425626815553000,10.310552978515625,-83.35385131835938,-17.3399658203125,114.05537414550781
1686425626825627100,10.320627197265624,-83.39901733398438,-17.4505615234375,113.74201965332031
1686425626835702000,10.330701904296875,-84.18252563476562,-17.195419311523438,113.58699035644531
1686425626845777200,10.340777099609374,-84.81065368652344,-17.328262329101562,113.445556640625
1686425626855852000,10.35085205078125,-85.310791015625,-17.650833129882812,112.9813232421875
1686425626865927000,10.360927001953126,-85.30935668945312,-17.130722045898438,113.236572265625
1686425626876000000,10.371,-85.21693420410156,-17.449935913085938,113.51881408691406
1686425626886075100,10.3810751953125,-85.69322204589844,-17.706512451171875,114.08963012695312
1686425626896151000,10.391151123046875,-85.31626892089844,-18.208114624023438,114.49150085449219
1686425626906226200,10.40122607421875,-84.93919372558594,-18.75885009765625,114.75250244140625
1686425626916301000,10.411301025390625,-84.20663452148438,-18.883590698242188,115.17825317382812
1686425626926376200,10.421376220703126,-83.84977722167969,-18.807342529296875,115.8212890625
1686425626936450000,10.431449951171874,-83.31546020507812,-19.261138916015625,116.330810546875
1686425626946524200,10.441524169921875,-82.82162475585938,-19.681594848632812,116.37973022460938
1686425626956597000,10.451596923828125,-81.8031005859375,-19.941680908203125,116.92327880859375
1686425626966672000,10.461671875,-82.59223937988281,-20.45062255859375,117.74935913085938
1686425626976747000,10.4717470703125,-83.71940612792969,-20.788406372070312,117.26029968261719
1686425626986823200,10.4818232421875,-85.68740844726562,-20.653533935546875,116.84709167480469
1686425626996899000,10.491899169921876,-87.38456726074219,-20.779983520507812,116.29104614257812
1686425627006974000,10.501973876953125,-87.48776245117188,-20.827133178710938,116.1861572265625
1686425627017049000,10.512049072265626,-87.86427307128906,-20.917694091796875,116.46896362304688
1686425627027123000,10.522123046875,-87.7103271484375,-20.726974487304688,116.6640625
1686425627037197000,10.532197021484375,-88.45947265625,-21.245132446289062,116.52101135253906
1686425627047271000,10.54227099609375,-89.29928588867188,-21.770416259765625,116.68109130859375
1686425627057345000,10.552344970703125,-88.93222045898438,-21.741180419921875,117.15802001953125
1686425627067419100,10.562419189453125,-89.28047180175781,-22.038040161132812,116.80084228515625
1686425627077493000,10.572492919921874,-89.4927978515625,-22.625579833984375,117.56138610839844
1686425627087568100,10.582568115234375,-89.07159423828125,-22.8065185546875,117.89155578613281
1686425627097643300,10.592643310546874,-88.63078308105469,-23.1964111328125,118.56503295898438
1686425627107716000,10.602716064453125,-88.32815551757812,-23.2449951171875,118.57441711425781
1686425627117790000,10.6127900390625,-88.21417236328125,-23.268966674804688,118.62120056152344
1686425627127864000,10.622864013671874,-88.18443298339844,-23.4371337890625,118.33503723144531
1686425627137938000,10.63293798828125,-89.09378051757812,-22.868072509765625,117.93292236328125
1686425627148012000,10.643011962890625,-89.5928955078125,-22.994827270507812,117.39146423339844
1686425627158085000,10.653085205078124,-90.24468994140625,-22.983230590820312,117.28395080566406
1686425627168159000,10.663158935546875,-89.82513427734375,-22.69573974609375,117.23765563964844
1686425627178231000,10.67323095703125,-90.19049072265625,-22.006988525390625,117.35328674316406
1686425627188305200,10.68330517578125,-89.88827514648438,-22.343109130859375,116.71540832519531
1686425627198380000,10.693380126953125,-90.69923400878906,-22.195419311523438,116.52301025390625
1686425627208454100,10.7034541015625,-91.480712890625,-21.819229125976562,115.97796630859375
1686425627218528000,10.713528076171874,-91.60311889648438,-22.01031494140625,115.7713623046875
1686425627228603100,10.72360302734375,-92.19406127929688,-21.692626953125,115.36770629882812
1686425627238677000,10.733677001953126,-92.48503112792969,-21.642227172851562,115.23956298828125
1686425627248752000,10.743752197265625,-93.13047790527344,-21.267318725585938,114.77253723144531
1686425627258826000,10.753825927734376,-92.96284484863281,-21.358673095703125,114.50361633300781
1686425627268899000,10.763899169921874,-93.47111511230469,-21.339309692382812,114.00846862792969
1686425627278971000,10.773970947265624,-93.18939208984375,-21.523941040039062,114.52325439453125
1686425627289045000,10.784044921875,-93.61880493164062,-21.520950317382812,114.32582092285156
1686425627299119000,10.794119140625,-93.06309509277344,-21.769638061523438,114.67662048339844
1686425627309194000,10.804194091796875,-92.81719970703125,-21.985336303710938,114.84307861328125
1686425627319268000,10.81426806640625,-92.60859680175781,-21.850433349609375,114.98670959472656
1686425627329342200,10.82434228515625,-92.22616577148438,-22.012359619140625,115.33407592773438
1686425627339415800,10.834415771484375,-91.30674743652344,-21.684707641601562,115.77726745605469
1686425627349489700,10.84448974609375,-90.45564270019531,-21.691513061523438,116.08808898925781
1686425627359563800,10.854563720703124,-90.24371337890625,-21.803863525390625,116.88311767578125
1686425627369637600,10.8646376953125,-89.5504150390625,-21.42083740234375,116.234130859375
1686425627379710700,10.874710693359376,-89.74224853515625,-21.302474975585938,116.24102783203125
1686425627389786600,10.88478662109375,-89.57374572753906,-20.874404907226562,115.84022521972656
1686425627399862800,10.89486279296875,-89.1512451171875,-20.359146118164062,115.61544799804688
1686425627409938700,10.904938720703125,-88.54013061523438,-20.142822265625,114.87493896484375
1686425627420014800,10.915014892578125,-87.06669616699219,-19.428482055664062,114.43930053710938
1686425627430089700,10.92508984375,-85.21102905273438,-18.823776245117188,114.68118286132812
1686425627440164900,10.935164794921874,-84.02281188964844,-18.357879638671875,115.04386901855469
1686425627450238700,10.94523876953125,-83.14973449707031,-18.312423706054688,114.77503967285156
1686425627460313900,10.95531396484375,-82.64529418945312,-17.968841552734375,114.73521423339844
1686425627470389000,10.965388916015625,-82.83345031738281,-18.233978271484375,115.04789733886719
1686425627480463600,10.975463623046876,-83.40823364257812,-18.055801391601562,115.00930786132812
1686425627490538000,10.9855380859375,-83.96830749511719,-18.246597290039062,114.85076904296875
1686425627500611800,10.99561181640625,-84.50599670410156,-18.213226318359375,114.45399475097656
1686425627510687000,11.00568701171875,-85.17730712890625,-17.988418579101562,114.25479125976562
1686425627520760800,11.0157607421875,-85.33448791503906,-18.146286010742188,114.26014709472656
1686425627530833700,11.025833740234376,-85.76646423339844,-18.326690673828125,114.26885986328125
1686425627540908800,11.03590869140625,-85.52836608886719,-18.34759521484375,114.43331909179688
1686425627550982700,11.045982666015625,-85.21755981445312,-18.370254516601562,114.6998291015625
1686425627561054700,11.0560546875,-85.40457153320312,-18.710311889648438,114.871826171875
1686425627571129900,11.0661298828125,-84.9512939453125,-18.519454956054688,115.27381896972656
1686425627581205000,11.076205078125,-84.26173400878906,-18.885513305664062,115.45341491699219
1686425627591280600,11.08628076171875,-83.64456176757812,-19.2794189453125,115.86346435546875
1686425627601354000,11.09635400390625,-83.35958862304688,-19.1220703125,116.35662841796875
1686425627611428900,11.106428955078124,-82.96907043457031,-19.476974487304688,116.90824890136719
1686425627621503700,11.116503662109375,-82.86752319335938,-19.918731689453125,117.10873413085938
1686425627631578600,11.12657861328125,-82.82038879394531,-20.277236938476562,117.7601318359375
1686425627641654800,11.13665478515625,-83.70832824707031,-21.0440673828125,117.72708129882812
1686425627651730700,11.146730712890625,-85.41081237792969,-20.898757934570312,117.86500549316406
1686425627661805800,11.156805908203125,-87.15727233886719,-21.043731689453125,117.20208740234375
1686425627671881700,11.1668818359375,-88.13571166992188,-21.606048583984375,117.2066650390625
1686425627681955800,11.176955810546875,-88.32208251953125,-21.991302490234375,116.98724365234375
1686425627692031700,11.18703173828125,-88.15206909179688,-21.831039428710938,117.06010437011719
1686425627702108000,11.19710791015625,-89.37478637695312,-21.971328735351562,116.9779052734375
1686425627712182800,11.207182861328125,-89.55464172363281,-22.366683959960938,117.28619384765625
1686425627722257000,11.2172568359375,-89.5135498046875,-22.624114990234375,117.41912841796875
1686425627732331800,11.227331787109375,-89.85371398925781,-23.352523803710938,117.86239624023438
1686425627742406000,11.237406005859375,-89.93452453613281,-23.842758178710938,118.11750793457031
1686425627752479700,11.247479736328126,-89.95217895507812,-23.726028442382812,118.85678100585938
1686425627762555000,11.257554931640625,-90.02041625976562,-24.602127075195312,119.08041381835938
1686425627772628700,11.267628662109376,-89.46733093261719,-24.592376708984375,118.72317504882812
1686425627782702600,11.27770263671875,-89.63336181640625,-23.913986206054688,118.55415344238281
1686425627792776700,11.287776611328125,-89.84141540527344,-23.928482055664062,118.62815856933594
1686425627802851600,11.2978515625,-90.27659606933594,-23.364730834960938,118.2239990234375
1686425627812925700,11.30792578125,-90.44241333007812,-23.63104248046875,118.34698486328125
1686425627822998800,11.317998779296875,-91.21400451660156,-23.488204956054688,117.78843688964844
1686425627833074000,11.328073974609374,-90.35723876953125,-23.4822998046875,117.26072692871094
1686425627843147800,11.338147705078125,-90.94970703125,-22.836441040039062,117.23692321777344
1686425627853223000,11.348222900390626,-90.83576965332031,-22.702117919921875,117.19377136230469
1686425627863297800,11.3582978515625,-91.02165222167969,-22.599533081054688,116.5711669921875
1686425627873372000,11.368371826171876,-91.29966735839844,-22.328475952148438,116.39288330078125
1686425627883446800,11.37844677734375,-92.03340148925781,-22.339630126953125,116.12263488769531
1686425627893521000,11.38852099609375,-91.97677612304688,-22.538467407226562,115.64395141601562
1686425627903592700,11.3985927734375,-92.51629638671875,-22.58697509765625,116.20584106445312
1686425627913664800,11.408664794921876,-92.40437316894531,-22.4061279296875,116.01043701171875
1686425627923736800,11.41873681640625,-92.74919128417969,-22.311172485351562,115.60850524902344
1686425627933807900,11.428807861328124,-92.93553161621094,-22.506942749023438,115.69143676757812
1686425627943880700,11.438880615234375,-92.45060729980469,-22.552764892578125,116.19570922851562
1686425627953953800,11.448953857421875,-92.21705627441406,-22.597824096679688,116.37301635742188
1686425627964028000,11.45902783203125,-91.94212341308594,-22.83038330078125,116.33683776855469
1686425627974100000,11.469099853515624,-91.619384765625,-22.868759155273438,116.64013671875
1686425627984173800,11.479173828125,-90.75038146972656,-22.6610107421875,117.00010681152344
1686425627994246700,11.48924658203125,-89.85182189941406,-22.680587768554688,117.19255065917969
1686425628004320000,11.499320068359374,-88.42335510253906,-22.276107788085938,117.667236328125
1686425628014393900,11.509393798828125,-86.73591613769531,-21.774002075195312,117.71916198730469
1686425628024466700,11.519466796875,-86.42333984375,-22.082839965820312,117.70744323730469
1686425628034539800,11.529539794921876,-85.84066772460938,-21.690505981445312,117.72279357910156
1686425628044612900,11.53961279296875,-86.83528137207031,-21.531768798828125,117.81997680664062
1686425628054685000,11.549684814453125,-86.35395812988281,-21.796218872070312,116.9393310546875
1686425628064757800,11.5597578125,-86.2957763671875,-21.500595092773438,117.04994201660156
1686425628074832600,11.56983251953125,-85.64241027832031,-20.867385864257812,117.10720825195312
1686425628084906800,11.57990673828125,-85.292236328125,-20.90557861328125,117.09194946289062
1686425628094979800,11.589979736328125,-84.03408813476562,-20.4368896484375,116.892333984375
1686425628105052700,11.600052734375,-83.81317138671875,-20.387649536132812,116.93972778320312
1686425628115126800,11.610126708984374,-83.77998352050781,-20.195663452148438,116.77981567382812
1686425628125200600,11.62020068359375,-84.05450439453125,-20.431411743164062,116.47117614746094
1686425628135275000,11.63027490234375,-84.43798828125,-19.952072143554688,116.79701232910156
1686425628145349600,11.640349609375,-85.146484375,-19.962478637695312,116.42922973632812
1686425628155424000,11.650424072265626,-85.10890197753906,-19.852645874023438,116.36868286132812
1686425628165497900,11.660497802734374,-84.88618469238281,-19.903839111328125,116.40461730957031
1686425628175573000,11.670572998046875,-85.12260437011719,-19.563095092773438,116.25386047363281
1686425628185646800,11.680646728515624,-85.44171142578125,-19.463470458984375,116.19474792480469
1686425628195720700,11.690720703125,-85.20643615722656,-19.655654907226562,116.04998779296875
1686425628205794800,11.700794921875,-84.76914978027344,-19.793838500976562,116.38822937011719
1686425628215868700,11.71086865234375,-84.98861694335938,-19.589035034179688,116.30905151367188
1686425628225942000,11.72094189453125,-84.72540283203125,-19.61767578125,117.13104248046875
1686425628236015900,11.731015869140625,-83.83848571777344,-19.852645874023438,117.16244506835938
1686425628246087700,11.741087646484376,-83.66139221191406,-20.089401245117188,117.53244018554688
1686425628256161800,11.751161865234375,-82.83143615722656,-20.274826049804688,117.62252807617188
1686425628266236000,11.76123583984375,-83.38114929199219,-20.95574951171875,117.80059814453125
1686425628276309800,11.771309814453126,-82.97792053222656,-20.83013916015625,118.25108337402344
1686425628286382600,11.781382568359374,-83.27308654785156,-21.193099975585938,118.38948059082031
1686425628296456000,11.7914560546875,-84.03868103027344,-21.069366455078125,118.00607299804688
1686425628306528800,11.80152880859375,-85.60240173339844,-21.120849609375,117.92601013183594
1686425628316602600,11.8116025390625,-87.08001708984375,-21.086654663085938,117.01115417480469
1686425628326674700,11.8216748046875,-87.71897888183594,-21.110885620117188,116.98884582519531
1686425628336746500,11.83174658203125,-87.53854370117188,-21.380355834960938,116.55790710449219
1686425628346815200,11.841815185546874,-88.28546142578125,-20.962799072265625,116.34516906738281
1686425628356888300,11.851888427734375,-88.44830322265625,-20.96771240234375,116.20626831054688
1686425628366961400,11.86196142578125,-88.89646911621094,-21.226470947265625,116.28707885742188
1686425628377034500,11.872034423828126,-89.12173461914062,-21.474151611328125,116.23255920410156
1686425628387108400,11.8821083984375,-89.48960876464844,-21.58355712890625,116.73722839355469
1686425628397180400,11.892180419921875,-90.13143920898438,-22.506423950195312,117.44764709472656
1686425628407253200,11.902253173828125,-90.47950744628906,-23.384353637695312,117.71034240722656
1686425628417326300,11.912326416015626,-91.88888549804688,-24.084014892578125,118.13139343261719
1686425628427398400,11.9223984375,-92.41741943359375,-24.328125,117.80999755859375
1686425628437471500,11.932471435546875,-92.11256408691406,-23.96795654296875,117.80839538574219
1686425628447542500,11.94254248046875,-91.93768310546875,-23.915557861328125,117.50070190429688
1686425628457615400,11.952615478515625,-92.2598876953125,-23.5330810546875,116.97737121582031
1686425628467688400,11.9626884765625,-92.03500366210938,-23.35650634765625,116.60536193847656
1686425628477761300,11.97276123046875,-92.03375244140625,-22.60516357421875,116.14527893066406
1686425628487834400,11.98283447265625,-93.16549682617188,-22.271392822265625,115.4134521484375
1686425628497908500,11.992908447265625,-93.34011840820312,-21.798858642578125,114.84959411621094
1686425628507983400,12.0029833984375,-92.65347290039062,-21.393295288085938,114.58792114257812
1686425628518056400,12.013056396484375,-92.12190246582031,-20.8121337890625,114.20016479492188
1686425628528130300,12.02313037109375,-92.65582275390625,-20.372177124023438,113.41812133789062
1686425628538203400,12.033203369140624,-93.21621704101562,-19.755035400390625,112.77183532714844
1686425628548276500,12.0432763671875,-92.73724365234375,-19.390625,112.50680541992188
1686425628558350300,12.053350341796875,-92.41160583496094,-18.788528442382812,111.630859375
1686425628568422400,12.06342236328125,-92.3553466796875,-18.608383178710938,111.0963134765625
1686425628578494200,12.073494140625,-92.39163208007812,-18.38568115234375,110.9263916015625
1686425628588568600,12.083568603515625,-92.64085388183594,-17.614822387695312,110.86886596679688
1686425628598641400,12.093641357421875,-91.82817077636719,-17.7347412109375,110.42103576660156
1686425628608713500,12.10371337890625,-91.71798706054688,-17.358871459960938,110.27470397949219
1686425628618784500,12.113784423828125,-90.44841003417969,-16.865859985351562,110.76742553710938
1686425628628858400,12.1238583984375,-89.74456787109375,-16.749649047851562,111.05606079101562
1686425628638931200,12.13393115234375,-88.74929809570312,-16.785964965820312,111.204345703125
1686425628649005300,12.14400537109375,-86.38328552246094,-16.660018920898438,111.74977111816406
1686425628659079400,12.154079345703124,-85.12522888183594,-16.625442504882812,111.90756225585938
1686425628669154300,12.164154296875,-84.51371765136719,-16.394439697265625,112.40675354003906
1686425628679226400,12.174226318359375,-85.07131958007812,-15.813812255859375,111.29837036132812
1686425628689299500,12.184299560546876,-86.11962890625,-16.0220947265625,111.04627990722656
1686425628699370500,12.19437060546875,-87.11013793945312,-15.935012817382812,109.95330810546875
1686425628709444400,12.2044443359375,-87.75785827636719,-14.893478393554688,109.1112060546875
1686425628719517400,12.214517333984375,-86.31243896484375,-14.785842895507812,108.62417602539062
1686425628729587200,12.224587158203125,-84.486083984375,-13.865982055664062,108.00236511230469
1686425628739661600,12.23466162109375,-83.52493286132812,-13.274810791015625,107.67343139648438
1686425628749734400,12.244734375,-82.46522521972656,-12.860702514648438,107.1029052734375
1686425628759806500,12.254806396484375,-81.28874206542969,-12.56671142578125,107.1947021484375
1686425628769879300,12.26487939453125,-81.22784423828125,-12.2374267578125,106.57008361816406
1686425628779953400,12.274953369140626,-81.08644104003906,-12.045928955078125,106.11302185058594
1686425628790026500,12.285026611328124,-81.38084411621094,-11.843475341796875,105.88484191894531
1686425628800100400,12.295100341796875,-81.25236511230469,-11.34344482421875,105.28645324707031
1686425628810173200,12.305173095703125,-82.31416320800781,-11.462066650390625,105.25050354003906
1686425628820247300,12.315247314453124,-82.69355773925781,-11.62567138671875,104.58798217773438
1686425628830320400,12.3253203125,-83.39945983886719,-11.533782958984375,104.55857849121094
1686425628840393200,12.335393310546875,-83.92759704589844,-11.46246337890625,104.25282287597656
1686425628850467300,12.34546728515625,-84.12490844726562,-11.21112060546875,104.27400207519531
1686425628860539400,12.355539306640624,-83.98825073242188,-11.506317138671875,104.19401550292969
1686425628870612500,12.365612548828125,-83.35983276367188,-11.4578857421875,104.35830688476562
1686425628880684300,12.375684326171875,-83.1224365234375,-11.332427978515625,104.27656555175781
1686425628890758400,12.38575830078125,-82.47764587402344,-11.283554077148438,104.25358581542969
1686425628900833300,12.395833251953125,-82.51814270019531,-11.117431640625,104.87092590332031
1686425628910907400,12.405907470703125,-82.04103088378906,-11.76580810546875,104.64639282226562
1686425628920982300,12.415982177734374,-81.65228271484375,-11.488388061523438,105.38375854492188
1686425628931056400,12.426056396484375,-81.1883544921875,-11.982757568359375,105.8529052734375
1686425628941130500,12.436130615234376,-81.88746643066406,-12.394668579101562,106.19749450683594
1686425628951205400,12.446205322265625,-81.87806701660156,-12.326141357421875,106.44297790527344
1686425628961278500,12.456278564453125,-82.78944396972656,-12.566864013671875,106.54405212402344
1686425628971352300,12.466352294921874,-84.93696594238281,-12.814834594726562,106.28370666503906
1686425628981425400,12.47642529296875,-86.14735412597656,-12.612213134765625,105.02793884277344
1686425628991498500,12.48649853515625,-87.43490600585938,-12.718307495117188,104.296630859375
1686425629001571300,12.4965712890625,-88.56973266601562,-12.425918579101562,103.54609680175781
1686425629011644400,12.50664453125,-89.29216003417969,-12.436813354492188,103.20710754394531
1686425629021717200,12.51671728515625,-90.03996276855469,-12.485519409179688,102.42396545410156
1686425629031788300,12.526788330078125,-90.45193481445312,-12.109771728515625,102.14384460449219
1686425629041862400,12.5368623046875,-90.206298828125,-12.327407836914062,101.71084594726562
1686425629051936500,12.5469365234375,-90.48980712890625,-12.392608642578125,102.64486694335938
1686425629062011400,12.557011474609375,-90.15731811523438,-12.90447998046875,102.99070739746094
1686425629072086300,12.567086181640626,-90.83757019042969,-13.320022583007812,103.904541015625
1686425629082160400,12.577160400390625,-91.2808837890625,-13.961593627929688,104.80290222167969
1686425629092235300,12.5872353515625,-92.574462890625,-14.648773193359375,105.28305053710938
1686425629102310400,12.597310302734375,-92.75505065917969,-14.893386840820312,104.93849182128906
1686425629112384300,12.60738427734375,-92.84039306640625,-14.933670043945312,104.70259094238281
1686425629122458400,12.617458251953124,-92.8701171875,-14.736419677734375,104.38792419433594
1686425629132530400,12.627530517578125,-92.72810363769531,-14.262908935546875,103.99383544921875
1686425629142601500,12.6376015625,-91.53326416015625,-13.606216430664062,104.33392333984375
1686425629152675300,12.64767529296875,-90.84870910644531,-13.33746337890625,103.6497802734375
1686425629162747400,12.657747314453125,-90.45782470703125,-13.067245483398438,103.50202941894531
1686425629172819500,12.6678193359375,-90.23837280273438,-13.223037719726562,103.16621398925781
1686425629182893300,12.677893310546875,-90.10618591308594,-12.538818359375,102.32095336914062
1686425629192966400,12.68796630859375,-90.69720458984375,-12.082595825195312,101.79609680175781
1686425629203038500,12.69803857421875,-90.31703186035156,-12.11114501953125,101.62991333007812
1686425629213109200,12.708109130859375,-90.19366455078125,-11.761322021484375,100.40873718261719
1686425629223180300,12.71818017578125,-89.92987060546875,-11.62799072265625,100.30232238769531
1686425629233251300,12.728251220703125,-89.34848022460938,-10.935745239257812,99.97158813476562
1686425629243324200,12.73832421875,-88.47294616699219,-10.603363037109375,99.73075866699219
1686425629253395200,12.748395263671876,-87.5028076171875,-10.378753662109375,99.51222229003906
1686425629263466200,12.75846630859375,-86.47695922851562,-9.642410278320312,98.69111633300781
1686425629273538300,12.768538330078124,-85.37379455566406,-9.875595092773438,99.04486083984375
1686425629283610400,12.7786103515625,-84.62364196777344,-9.632476806640625,99.4520263671875
1686425629293683200,12.78868310546875,-84.11898803710938,-9.676544189453125,99.389404296875
1686425629303755300,12.79875537109375,-83.85826110839844,-9.545883178710938,99.91171264648438
1686425629313828400,12.808828369140626,-84.88963317871094,-10.082839965820312,99.86393737792969
1686425629323901400,12.8189013671875,-86.52085876464844,-10.281463623046875,99.77894592285156
1686425629333973500,12.828973388671875,-88.75271606445312,-10.4295654296875,98.21206665039062
1686425629344048000,12.839048095703125,-91.21449279785156,-10.807373046875,97.392333984375
1686425629354120000,12.849119873046876,-92.02328491210938,-11.03515625,95.96517944335938
1686425629364192000,12.85919189453125,-90.67800903320312,-10.452011108398438,95.97529602050781
1686425629374263000,12.869262939453124,-88.67066955566406,-9.70953369140625,95.81809997558594
1686425629384337200,12.879337158203125,-86.3848876953125,-9.151153564453125,95.11921691894531
1686425629394410200,12.88941015625,-84.62820434570312,-8.173004150390625,95.14328002929688
1686425629404483000,12.899483154296876,-83.068115234375,-7.739105224609375,94.58747863769531
1686425629414556000,12.909555908203124,-82.20741271972656,-7.6195526123046875,94.6727294921875
1686425629424630300,12.91963037109375,-81.56539916992188,-7.50946044921875,94.03373718261719
1686425629434704100,12.9297041015625,-82.03181457519531,-7.425018310546875,93.62554931640625
1686425629444777000,12.93977685546875,-82.10333251953125,-7.3558502197265625,94.012939453125
1686425629454849000,12.94984912109375,-81.99688720703125,-7.87109375,94.39524841308594
1686425629464922000,12.959922119140625,-82.36680603027344,-7.4824371337890625,94.595703125
1686425629474994200,12.969994140625,-82.15809631347656,-7.7838134765625,95.08529663085938
1686425629485065200,12.980065185546875,-82.76509094238281,-7.892364501953125,95.88475036621094
1686425629495137300,12.99013720703125,-83.11308288574219,-8.347274780273438,96.62078857421875
1686425629505209000,13.000208984375,-82.04010009765625,-8.134658813476562,97.04257202148438
1686425629515283200,13.010283203125,-82.2164306640625,-8.45355224609375,97.49887084960938
1686425629525356000,13.02035595703125,-81.69267272949219,-8.320159912109375,97.7860107421875
