time,seconds_elapsed,z,y,x
1686428459590271000,0.09927099609375,-0.5354156494140625,-0.3667449951171875,0.1208343505859375
1686428459600216800,0.109216796875,-0.5228118896484375,-0.3614501953125,0.1699981689453125
1686428459610163000,0.119162841796875,-0.50286865234375,-0.366485595703125,0.24261474609375
1686428459620108800,0.12910888671875,-0.4814910888671875,-0.3686065673828125,0.2818450927734375
1686428459630054000,0.139053955078125,-0.476654052734375,-0.344329833984375,0.2853240966796875
1686428459639999700,0.148999755859375,-0.4705352783203125,-0.318878173828125,0.2917633056640625
1686428459649945900,0.15894580078125,-0.4755706787109375,-0.2940826416015625,0.2913818359375
1686428459659892000,0.16889208984375,-0.490325927734375,-0.268524169921875,0.3416900634765625
1686428459669837000,0.178837158203125,-0.5021820068359375,-0.215484619140625,0.4281005859375
1686428459679783000,0.188782958984375,-0.5099639892578125,-0.2257537841796875,0.4689788818359375
1686428459689729000,0.19872900390625,-0.574249267578125,-0.31298828125,0.436309814453125
1686428459699673900,0.208673828125,-0.619232177734375,-0.2236175537109375,0.37225341796875
1686428459709620000,0.218619873046875,-0.626953125,-0.1345977783203125,0.438507080078125
1686428459719565800,0.22856591796875,-0.6114959716796875,-0.2648162841796875,0.5621185302734375
1686428459729512000,0.238511962890625,-0.5829315185546875,-0.3570556640625,0.48272705078125
1686428459739456800,0.248456787109375,-0.5871429443359375,-0.46295166015625,0.3343963623046875
1686428459749403000,0.25840283203125,-0.569091796875,-0.5309906005859375,0.2673797607421875
1686428459759349000,0.268348876953125,-0.57623291015625,-0.4652252197265625,0.2880706787109375
1686428459769295000,0.278295166015625,-0.613311767578125,-0.3108062744140625,0.37603759765625
1686428459779240000,0.288239990234375,-0.6725006103515625,-0.1638336181640625,0.50177001953125
1686428459789186000,0.29818603515625,-0.750274658203125,-0.0578765869140625,0.6021270751953125
1686428459799132000,0.3081318359375,-0.8159332275390625,0.0287322998046875,0.6741943359375
1686428459809077000,0.318076904296875,-0.83026123046875,0.13470458984375,0.7388458251953125
1686428459819022800,0.32802294921875,-0.8197479248046875,0.245513916015625,0.7563629150390625
1686428459828969000,0.337968994140625,-0.792938232421875,0.310211181640625,0.66754150390625
1686428459838914800,0.347914794921875,-0.80963134765625,0.3167877197265625,0.575958251953125
1686428459848860000,0.35785986328125,-0.827301025390625,0.2547760009765625,0.53277587890625
1686428459858806000,0.367805908203125,-0.828582763671875,0.1942291259765625,0.5665283203125
1686428459868752100,0.377752197265625,-0.8203125,0.212249755859375,0.6635589599609375
1686428459878698000,0.387697998046875,-0.7971343994140625,0.2996826171875,0.73529052734375
1686428459888643000,0.39764306640625,-0.767730712890625,0.381622314453125,0.74755859375
1686428459898589000,0.4075888671875,-0.7584686279296875,0.3773956298828125,0.7311248779296875
1686428459908535000,0.41753515625,-0.73773193359375,0.338287353515625,0.722564697265625
1686428459918480000,0.42747998046875,-0.6520233154296875,0.3387451171875,0.7568206787109375
1686428459928426000,0.437426025390625,-0.5042266845703125,0.375335693359375,0.8342437744140625
1686428459938371800,0.447371826171875,-0.349578857421875,0.43603515625,0.8735809326171875
1686428459948318000,0.45731787109375,-0.2252197265625,0.4670867919921875,0.914337158203125
1686428459958263000,0.467262939453125,-0.152099609375,0.46575927734375,0.9861907958984375
1686428459968209200,0.477209228515625,-0.1876983642578125,0.4605712890625,1.083343505859375
1686428459978155000,0.487155029296875,-0.2891998291015625,0.4378509521484375,1.1973419189453125
1686428459988101000,0.49710107421875,-0.3949737548828125,0.404449462890625,1.3113250732421875
1686428459998046000,0.5070458984375,-0.4510498046875,0.40118408203125,1.3880462646484375
1686428460007992000,0.516991943359375,-0.42364501953125,0.46893310546875,1.40673828125
1686428460017938000,0.52693798828125,-0.3826141357421875,0.552978515625,1.36883544921875
1686428460027883000,0.536883056640625,-0.3665618896484375,0.5801544189453125,1.3028717041015625
1686428460037828900,0.546828857421875,-0.3887176513671875,0.58563232421875,1.2348175048828125
1686428460047775000,0.55677490234375,-0.431182861328125,0.5975189208984375,1.1994476318359375
1686428460057720800,0.566720947265625,-0.4835052490234375,0.598785400390625,1.2438507080078125
1686428460067666200,0.576666259765625,-0.551483154296875,0.596221923828125,1.3550567626953125
1686428460077612000,0.586612060546875,-0.615142822265625,0.626983642578125,1.4568023681640625
1686428460087558100,0.59655810546875,-0.65728759765625,0.6494140625,1.5401611328125
1686428460097503000,0.6065029296875,-0.682891845703125,0.65399169921875,1.5903472900390625
1686428460107449000,0.616448974609375,-0.67547607421875,0.6421661376953125,1.58184814453125
1686428460117395000,0.62639501953125,-0.6378631591796875,0.6216278076171875,1.5420684814453125
1686428460127341000,0.636341064453125,-0.5689697265625,0.606781005859375,1.5066375732421875
1686428460137286000,0.646285888671875,-0.448974609375,0.5709228515625,1.528045654296875
1686428460147232000,0.65623193359375,-0.2786865234375,0.5220184326171875,1.6009368896484375
1686428460157177900,0.666177734375,-0.1190948486328125,0.507476806640625,1.6576995849609375
1686428460167124000,0.6761240234375,0.022308349609375,0.51611328125,1.6875762939453125
1686428460177069300,0.6860693359375,0.09356689453125,0.5810546875,1.679595947265625
1686428460187015200,0.69601513671875,0.0978546142578125,0.6005859375,1.6486968994140625
1686428460196961300,0.705961181640625,0.062469482421875,0.6233673095703125,1.5487213134765625
1686428460206906000,0.715906005859375,-0.00872802734375,0.66064453125,1.4365997314453125
1686428460216852200,0.725852294921875,-0.135406494140625,0.720245361328125,1.3021087646484375
1686428460226798000,0.735798095703125,-0.2924346923828125,0.7799530029296875,1.2075347900390625
1686428460236744200,0.745744140625,-0.5183258056640625,0.906005859375,1.1276092529296875
1686428460246689000,0.75568896484375,-0.5308990478515625,0.9628143310546875,1.025787353515625
1686428460256635100,0.76563525390625,0.45782470703125,0.84039306640625,0.969573974609375
1686428460266581000,0.7755810546875,0.465087890625,0.8842926025390625,0.8794097900390625
1686428460276527000,0.785527099609375,-0.00091552734375,0.916107177734375,0.778961181640625
1686428460286472200,0.79547216796875,-0.296875,0.8531341552734375,0.7127227783203125
1686428460296418300,0.805418212890625,-0.3952178955078125,0.8369140625,0.685699462890625
1686428460306364200,0.8153642578125,-0.4476776123046875,0.980621337890625,0.684234619140625
1686428460316310300,0.825310302734375,-0.44610595703125,1.1351165771484375,0.60333251953125
1686428460326255000,0.835255126953125,-0.528900146484375,1.2667388916015625,0.4379119873046875
1686428460336201200,0.845201171875,-0.624481201171875,1.232269287109375,0.217742919921875
1686428460346147000,0.85514697265625,-0.3744964599609375,1.023406982421875,0.2636566162109375
1686428460356092200,0.865092041015625,-0.176971435546875,1.018157958984375,0.5349578857421875
1686428460366038000,0.8750380859375,-0.2289276123046875,0.879913330078125,0.6875457763671875
1686428460375984000,0.884984130859375,-0.2249908447265625,0.74267578125,0.6943817138671875
1686428460385930000,0.894929931640625,-0.50732421875,0.77239990234375,0.6110992431640625
1686428460395875300,0.904875244140625,-1.57733154296875,1.0662689208984375,0.4384307861328125
1686428460405821200,0.9148212890625,-1.2054595947265625,1.0072784423828125,0.4318695068359375
1686428460415767300,0.924767333984375,0.47515869140625,0.6985015869140625,0.4283599853515625
1686428460425713200,0.934713134765625,0.29052734375,0.4408111572265625,0.3522796630859375
1686428460435658200,0.944658203125,-0.1005096435546875,0.48736572265625,0.4412384033203125
1686428460445604000,0.95460400390625,-0.1595458984375,0.4522552490234375,0.4837799072265625
1686428460455550200,0.96455029296875,-0.1373291015625,0.464996337890625,0.3658599853515625
1686428460465495000,0.9744951171875,-0.3832855224609375,0.7305908203125,0.1290130615234375
1686428460475441200,0.984441162109375,-0.292266845703125,0.8764495849609375,0.061431884765625
1686428460485387000,0.994386962890625,-0.189453125,0.9423065185546875,-0.07501220703125
1686428460495333000,1.0043330078125,-0.113739013671875,0.94061279296875,-0.0828857421875
1686428460505278200,1.0142783203125,-0.00250244140625,0.8618927001953125,0.0430755615234375
1686428460515224300,1.024224365234375,0.0449676513671875,0.801025390625,0.1220245361328125
1686428460525170200,1.034170166015625,-0.029296875,0.82818603515625,0.203125
1686428460535116300,1.0441162109375,-0.084564208984375,0.8146209716796875,0.273284912109375
1686428460545061000,1.05406103515625,-0.1473388671875,0.814605712890625,0.36297607421875
1686428460555007200,1.06400732421875,-0.349090576171875,1.0358123779296875,0.3538360595703125
1686428460564953000,1.073953125,-0.3178558349609375,1.1759033203125,0.2174072265625
1686428460574899200,1.083899169921875,-0.20672607421875,1.1262359619140625,0.148284912109375
1686428460584844000,1.093843994140625,-0.2239990234375,1.0582122802734375,0.162750244140625
1686428460594790100,1.1037900390625,-0.19525146484375,1.0009918212890625,0.100006103515625
1686428460604736000,1.113736083984375,-0.120208740234375,0.9243011474609375,0.022918701171875
1686428460614681000,1.12368115234375,-0.054656982421875,0.83758544921875,-0.005828857421875
1686428460624627200,1.133627197265625,0.0441436767578125,0.728485107421875,-0.0180816650390625
1686428460634573300,1.1435732421875,0.0973052978515625,0.5979156494140625,0.0052642822265625
1686428460644519200,1.153519287109375,-0.044189453125,0.518310546875,0.079345703125
1686428460654464000,1.163464111328125,-0.16461181640625,0.5244598388671875,0.1347503662109375
1686428460664410000,1.17341015625,-0.1395111083984375,0.6052398681640625,0.1739959716796875
1686428460674356200,1.183356201171875,-0.094207763671875,0.6037750244140625,0.2472381591796875
1686428460684302000,1.193302001953125,-0.0928497314453125,0.6021728515625,0.4063873291015625
1686428460694247000,1.203246826171875,-0.192352294921875,0.62554931640625,0.5799713134765625
1686428460704193000,1.213193115234375,-0.449798583984375,0.6827545166015625,0.751922607421875
1686428460714139100,1.22313916015625,-0.6143951416015625,0.860443115234375,0.72601318359375
1686428460724084200,1.233084228515625,-0.5346221923828125,1.173309326171875,0.4784698486328125
1686428460734030000,1.243030029296875,-0.3523712158203125,1.2360992431640625,0.3368988037109375
1686428460743976200,1.25297607421875,-0.236541748046875,1.17041015625,0.503936767578125
1686428460753922300,1.26292236328125,-0.0932159423828125,1.2547149658203125,0.5642242431640625
1686428460763867100,1.2728671875,0.1196441650390625,1.3748321533203125,0.2177886962890625
1686428460773813000,1.28281298828125,0.1563720703125,1.35711669921875,0.061553955078125
1686428460783759000,1.292759033203125,0.16900634765625,1.286773681640625,0.1100311279296875
1686428460793705200,1.302705322265625,0.149444580078125,1.245635986328125,0.187744140625
1686428460803650000,1.312650146484375,0.0430450439453125,1.24810791015625,0.2288055419921875
1686428460813596000,1.322595947265625,-0.04241943359375,1.2649993896484375,0.17877197265625
1686428460823542000,1.3325419921875,-0.05810546875,1.2521209716796875,0.1239166259765625
1686428460833488100,1.342488037109375,-0.125396728515625,1.26348876953125,0.1398162841796875
1686428460843433200,1.35243310546875,-0.2090911865234375,1.307403564453125,0.082855224609375
1686428460853379000,1.362379150390625,-0.268218994140625,1.3549346923828125,-0.1052703857421875
1686428460863325200,1.3723251953125,-0.2920989990234375,1.34881591796875,-0.200592041015625
1686428460873271300,1.382271240234375,-0.306365966796875,1.3122711181640625,-0.123992919921875
1686428460883216100,1.392216064453125,-0.2337493896484375,1.19598388671875,-0.0518035888671875
1686428460893162000,1.402161865234375,-0.13018798828125,1.074462890625,-0.0105133056640625
1686428460903108000,1.412108154296875,-0.2258453369140625,1.0884552001953125,0.0455169677734375
1686428460913053000,1.422052978515625,-0.2946014404296875,1.0641021728515625,-0.0524139404296875
1686428460922999000,1.4319990234375,0.2014923095703125,0.820465087890625,0.1200408935546875
1686428460932945000,1.44194482421875,-0.199462890625,0.928619384765625,0.245025634765625
1686428460942891000,1.45189111328125,-1.1582489013671875,1.1616668701171875,0.1597442626953125
1686428460952836000,1.461836181640625,-0.701385498046875,1.1663055419921875,0.1542205810546875
1686428460962782200,1.4717822265625,1.298553466796875,0.50579833984375,0.00762939453125
1686428460972728000,1.48172802734375,-0.024383544921875,0.617706298828125,0.1279754638671875
1686428460982674200,1.491674072265625,-0.4138946533203125,0.7494049072265625,0.3725738525390625
1686428460992619000,1.501618896484375,-0.362274169921875,0.6846771240234375,0.3249053955078125
1686428461002565000,1.511565185546875,-0.1569976806640625,0.627593994140625,0.232086181640625
1686428461012511000,1.521510986328125,0.0942535400390625,0.482208251953125,0.2333984375
1686428461022457000,1.53145703125,0.06439208984375,0.4267578125,0.2052764892578125
1686428461032402000,1.54140185546875,-0.0586700439453125,0.4680633544921875,0.1090545654296875
1686428461042348000,1.55134814453125,0.0075225830078125,0.42913818359375,0.062408447265625
1686428461052294000,1.5612939453125,-0.002838134765625,0.3954010009765625,0.062469482421875
1686428461062240000,1.571239990234375,-0.0782928466796875,0.3817291259765625,0.0399627685546875
1686428461072185000,1.58118505859375,-0.0926666259765625,0.391571044921875,0.01849365234375
1686428461082131200,1.591131103515625,-0.1237335205078125,0.4961090087890625,-0.0562286376953125
1686428461092077000,1.6010771484375,-0.0975189208984375,0.5820159912109375,-0.1510009765625
1686428461102022100,1.611022216796875,-0.0888671875,0.6083221435546875,-0.154388427734375
1686428461111968000,1.620968017578125,-0.158355712890625,0.7079620361328125,-0.1635589599609375
1686428461121914000,1.6309140625,-0.2188262939453125,0.8173370361328125,-0.220367431640625
1686428461131860000,1.64085986328125,-0.2043609619140625,0.8598175048828125,-0.292999267578125
1686428461141805000,1.65080517578125,-0.17498779296875,0.83551025390625,-0.2493743896484375
1686428461151751200,1.660751220703125,-0.1706695556640625,0.8243560791015625,-0.167510986328125
1686428461161697000,1.670697021484375,-0.19720458984375,0.861663818359375,-0.08367919921875
1686428461171643100,1.68064306640625,-0.1709136962890625,0.882537841796875,-0.0220794677734375
1686428461181588200,1.690588134765625,-0.198760986328125,0.8787078857421875,0.0120697021484375
1686428461191534000,1.7005341796875,-0.3498077392578125,0.889251708984375,0.1142578125
1686428461201480200,1.710480224609375,-0.3804779052734375,1.0228271484375,0.241790771484375
1686428461211426000,1.720426025390625,-0.2223052978515625,1.046875,0.261932373046875
1686428461221371100,1.73037109375,-0.1550140380859375,1.069122314453125,0.3634033203125
1686428461231317000,1.74031689453125,-0.0994110107421875,0.883392333984375,0.34930419921875
1686428461241263000,1.75026318359375,-0.0762939453125,0.88555908203125,0.399169921875
1686428461251209000,1.760208984375,-0.1478271484375,0.982574462890625,0.3865814208984375
1686428461261154000,1.770154052734375,-0.1218109130859375,0.9902496337890625,0.2974853515625
1686428461271100200,1.78010009765625,-0.0391082763671875,0.9580841064453125,0.368988037109375
1686428461281046300,1.79004638671875,-0.0774688720703125,1.0147552490234375,0.428863525390625
1686428461290991000,1.7999912109375,-0.04144287109375,1.111846923828125,0.3705902099609375
1686428461300937200,1.809937255859375,-0.0672607421875,1.2758636474609375,0.423492431640625
1686428461310883000,1.819883056640625,-0.0300445556640625,1.497802734375,0.458740234375
1686428461320829200,1.8298291015625,0.0233154296875,1.60791015625,0.4901580810546875
1686428461330774000,1.83977392578125,-0.003509521484375,1.6524200439453125,0.5796051025390625
1686428461340720000,1.84972021484375,-0.040740966796875,1.828582763671875,0.5097198486328125
1686428461350666000,1.859666015625,-0.0350189208984375,1.8425140380859375,0.3867034912109375
1686428461360612000,1.869612060546875,-0.0270233154296875,1.7420806884765625,0.369476318359375
1686428461370557200,1.87955712890625,-0.02496337890625,1.609466552734375,0.3958892822265625
1686428461380503300,1.88950341796875,0.00079345703125,1.467559814453125,0.3612060546875
1686428461390449200,1.89944921875,0.065155029296875,1.3194122314453125,0.25018310546875
1686428461400395300,1.909395263671875,0.1279296875,1.1995849609375,0.220062255859375
1686428461410340000,1.919340087890625,0.1882781982421875,1.0102691650390625,0.2829742431640625
1686428461420286200,1.9292861328125,0.20086669921875,0.9153289794921875,0.2594757080078125
1686428461430232000,1.939232177734375,0.1250457763671875,0.861480712890625,0.0995330810546875
1686428461440177200,1.94917724609375,0.0740509033203125,0.914154052734375,0.0321807861328125
1686428461450123000,1.959123046875,0.0169525146484375,0.9853515625,-0.0472564697265625
1686428461460069000,1.969069091796875,-0.0119171142578125,1.0345611572265625,-0.0188140869140625
1686428461470015000,1.979014892578125,-0.0750732421875,1.010040283203125,0.09271240234375
1686428461479960300,1.988960205078125,-0.1724090576171875,0.909393310546875,0.08990478515625
1686428461489906200,1.99890625,-0.1439666748046875,0.8037109375,-0.00146484375
1686428461499852300,2.008852294921875,-0.0393218994140625,0.6181793212890625,0.2091217041015625
1686428461509798100,2.018798095703125,-0.1353302001953125,0.4732208251953125,0.2259063720703125
1686428461519743200,2.0287431640625,-0.0976104736328125,1.1170501708984375,0.2421417236328125
1686428461529689000,2.038689208984375,-0.0059661865234375,1.2707061767578125,0.27490234375
1686428461539635200,2.04863525390625,0.0698394775390625,1.1807861328125,0.1104583740234375
1686428461549581000,2.0585810546875,0.0210113525390625,1.2408599853515625,0.151275634765625
1686428461559526100,2.068526123046875,-0.0915374755859375,1.1759796142578125,0.2947998046875
1686428461569472000,2.078471923828125,-0.124359130859375,1.09161376953125,0.288177490234375
1686428461579418000,2.088418212890625,-0.072357177734375,1.1060333251953125,0.16253662109375
1686428461589364000,2.098364013671875,-0.0601806640625,1.4123687744140625,0.08831787109375
1686428461599309300,2.108309326171875,-0.01971435546875,1.5159454345703125,0.0550384521484375
1686428461609255200,2.118255126953125,0.056365966796875,1.518951416015625,-0.058837890625
1686428461619201300,2.128201171875,-0.0260162353515625,1.1604461669921875,0.110748291015625
1686428461629146000,2.13814599609375,-0.1311492919921875,0.974212646484375,0.1951141357421875
1686428461639092200,2.14809228515625,-0.1636810302734375,0.864349365234375,0.08172607421875
1686428461649038000,2.1580380859375,-0.1678314208984375,0.4688568115234375,-0.2061614990234375
1686428461658984200,2.167984130859375,-0.1662445068359375,0.4470672607421875,-0.178314208984375
1686428461668929000,2.177928955078125,-0.1568603515625,0.5517730712890625,-0.049072265625
1686428461678875100,2.187875244140625,-0.0721282958984375,0.598907470703125,0.02056884765625
1686428461688821000,2.197821044921875,-0.079437255859375,0.6184539794921875,0.02899169921875
1686428461698767000,2.20776708984375,-0.1461181640625,0.5981903076171875,0.0265045166015625
1686428461708712200,2.217712158203125,-0.1244049072265625,0.6112060546875,0.079010009765625
1686428461718658300,2.227658203125,-0.0904541015625,0.6695098876953125,0.1348114013671875
1686428461728604200,2.237604248046875,-0.072174072265625,0.7472991943359375,0.1926422119140625
1686428461738550300,2.24755029296875,-0.022064208984375,0.856109619140625,0.2510986328125
1686428461748495000,2.2574951171875,-0.07037353515625,0.930206298828125,0.27392578125
1686428461758441200,2.267441162109375,-0.1345062255859375,0.9272003173828125,0.317962646484375
1686428461768387000,2.277386962890625,-0.139190673828125,0.8621978759765625,0.32720947265625
1686428461778333200,2.287333251953125,-0.1437530517578125,0.7975921630859375,0.2610626220703125
1686428461788278000,2.297278076171875,-0.1934967041015625,0.8126678466796875,0.2046661376953125
1686428461798224100,2.30722412109375,-0.2033538818359375,0.8983154296875,0.199554443359375
1686428461808170000,2.317169921875,-0.210296630859375,0.8675537109375,0.189208984375
1686428461818115300,2.327115234375,-0.20587158203125,0.8491363525390625,0.1087493896484375
1686428461828061200,2.337061279296875,-0.210662841796875,0.844940185546875,0.0531158447265625
1686428461838007300,2.34700732421875,-0.207855224609375,0.8073272705078125,0.0554656982421875
1686428461847953200,2.356953125,-0.201324462890625,0.792938232421875,0.04327392578125
1686428461857898200,2.366898193359375,-0.215606689453125,0.7494354248046875,0.02655029296875
1686428461867844000,2.376843994140625,-0.2506256103515625,0.7473602294921875,0.062469482421875
1686428461877790200,2.386790283203125,-0.3046875,0.8272552490234375,0.1100006103515625
1686428461887736000,2.396736083984375,-0.3790130615234375,0.897735595703125,0.116668701171875
1686428461897681200,2.40668115234375,-0.448486328125,0.9475860595703125,0.1243743896484375
1686428461907627000,2.416626953125,-0.4665985107421875,1.058990478515625,0.1798858642578125
1686428461917573000,2.426572998046875,-0.4696502685546875,1.1735687255859375,0.264007568359375
1686428461927519000,2.43651904296875,-0.475341796875,1.2190399169921875,0.325775146484375
1686428461937464300,2.44646435546875,-0.46240234375,1.196990966796875,0.3585968017578125
1686428461947410200,2.45641015625,-0.42584228515625,1.1816253662109375,0.383819580078125
1686428461957356300,2.466356201171875,-0.448822021484375,0.8591156005859375,0.3001251220703125
1686428461967301000,2.476301025390625,-0.3912353515625,0.776702880859375,0.264617919921875
1686428461977247000,2.4862470703125,-0.2766876220703125,1.084259033203125,0.4699859619140625
1686428461987193000,2.496193115234375,-0.2139739990234375,1.3049163818359375,0.610870361328125
1686428461997139200,2.50613916015625,-0.2291412353515625,1.35552978515625,0.5593719482421875
1686428462007084000,2.516083984375,-0.275360107421875,1.424591064453125,0.478179931640625
1686428462017030000,2.52602978515625,-0.2690582275390625,1.4970703125,0.3439788818359375
1686428462026976000,2.53597607421875,-0.2098388671875,1.6159210205078125,0.17822265625
1686428462036922000,2.545922119140625,-0.186004638671875,1.68499755859375,0.0574493408203125
1686428462046867200,2.5558671875,-0.193145751953125,1.60662841796875,0.0529022216796875
1686428462056813000,2.56581298828125,-0.35906982421875,1.3749847412109375,0.1440887451171875
1686428462066759200,2.57575927734375,-0.3015899658203125,1.2423248291015625,0.1752471923828125
1686428462076705300,2.585705322265625,-0.2516021728515625,1.07586669921875,0.1772613525390625
1686428462086650000,2.595650146484375,-0.1772003173828125,0.980987548828125,0.1994171142578125
1686428462096596000,2.605595947265625,-0.0536956787109375,0.9376220703125,0.1976776123046875
1686428462106542000,2.6155419921875,0.0058746337890625,0.930999755859375,0.15716552734375
1686428462116488200,2.62548828125,0.01910400390625,0.9515228271484375,0.067535400390625
1686428462126433000,2.63543310546875,-0.01348876953125,0.9760284423828125,0.0159454345703125
1686428462136379000,2.64537890625,-0.052398681640625,0.984375,-0.014862060546875
1686428462146325000,2.655324951171875,-0.1019287109375,0.9792022705078125,-0.0395355224609375
1686428462156271000,2.66527099609375,-0.1106109619140625,0.9635009765625,-0.0745086669921875
1686428462166216000,2.6752158203125,-0.0867919921875,0.970458984375,-0.0986175537109375
1686428462176162000,2.685162109375,-0.0437774658203125,0.965118408203125,-0.108154296875
1686428462186108000,2.69510791015625,0.0018157958984375,0.966796875,-0.116302490234375
1686428462196054000,2.705053955078125,-0.029052734375,0.9481658935546875,-0.1110687255859375
1686428462205998800,2.714998779296875,-0.0542449951171875,0.8993682861328125,-0.1429443359375
1686428462215945000,2.724945068359375,-0.0652923583984375,0.8842620849609375,-0.1586456298828125
1686428462225890800,2.734890869140625,-0.064361572265625,0.8567657470703125,-0.168731689453125
1686428462235836000,2.7448359375,-0.0744781494140625,0.8219757080078125,-0.17041015625
1686428462245782000,2.754781982421875,-0.1131591796875,0.795623779296875,-0.1753082275390625
1686428462255728000,2.76472802734375,-0.143829345703125,0.80291748046875,-0.137420654296875
1686428462265674000,2.774674072265625,-0.1368560791015625,0.83294677734375,-0.088348388671875
1686428462275619000,2.784619140625,-0.1190338134765625,0.8624114990234375,-0.0516204833984375
1686428462285565000,2.79456494140625,-0.0818328857421875,0.903900146484375,-0.00946044921875
1686428462295511000,2.804510986328125,-0.0382232666015625,0.966339111328125,0.0473785400390625
1686428462305457000,2.814456787109375,0.035797119140625,1.0526580810546875,0.1041412353515625
1686428462315402000,2.824402099609375,0.088409423828125,1.09515380859375,0.1361236572265625
1686428462325347800,2.834347900390625,0.07904052734375,0.954864501953125,-0.0097503662109375
1686428462335294000,2.8442939453125,0.0553741455078125,0.7611083984375,-0.21563720703125
1686428462345239800,2.85423974609375,0.0341796875,0.5574493408203125,-0.3255157470703125
1686428462355185200,2.86418505859375,-0.000457763671875,0.4551544189453125,-0.2599029541015625
1686428462365131000,2.874131103515625,-0.040130615234375,0.45135498046875,-0.1204071044921875
1686428462375077000,2.8840771484375,-0.1211090087890625,0.5313720703125,-0.0136871337890625
1686428462385023000,2.89402294921875,-0.180389404296875,0.5950469970703125,-0.0080413818359375
1686428462394968000,2.903968017578125,-0.1920318603515625,0.6382293701171875,-0.05987548828125
1686428462404914000,2.913913818359375,-0.208221435546875,0.6793365478515625,-0.0772552490234375
1686428462414860000,2.923860107421875,-0.211639404296875,0.7361297607421875,-0.0547027587890625
1686428462424804900,2.933804931640625,-0.201751708984375,0.8157501220703125,-0.032073974609375
1686428462434751000,2.9437509765625,-0.2109375,0.9100494384765625,-0.0270843505859375
1686428462444696800,2.95369677734375,-0.212249755859375,1.0086822509765625,-0.025970458984375
1686428462454643000,2.963642822265625,-0.1990203857421875,1.0712890625,-0.036834716796875
1686428462464588000,2.973588134765625,-0.1677093505859375,1.1067047119140625,-0.04119873046875
1686428462474534100,2.9835341796875,-0.1739654541015625,1.1136322021484375,-0.0497589111328125
1686428462484480000,2.99347998046875,-0.2314453125,1.1215057373046875,-0.041351318359375
1686428462494426000,3.003426025390625,-0.2545318603515625,1.1677093505859375,-0.0023040771484375
1686428462504371000,3.013370849609375,-0.2459564208984375,1.2183685302734375,0.038909912109375
1686428462514317000,3.023317138671875,-0.2518768310546875,1.2458648681640625,0.07501220703125
1686428462524263000,3.033262939453125,-0.2605133056640625,1.2439727783203125,0.0908660888671875
1686428462534209000,3.043208984375,-0.2651824951171875,1.222564697265625,0.0941314697265625
1686428462544153900,3.05315380859375,-0.2684173583984375,1.19757080078125,0.0976715087890625
1686428462554100000,3.063099853515625,-0.2698211669921875,1.18023681640625,0.085723876953125
1686428462564045800,3.0730458984375,-0.2604522705078125,1.200103759765625,0.0394439697265625
1686428462573992000,3.082991943359375,-0.2265777587890625,1.2743072509765625,-0.0434417724609375
1686428462583937000,3.09293701171875,-0.1834564208984375,1.381927490234375,-0.1331329345703125
1686428462593883100,3.102883056640625,-0.1639251708984375,1.48309326171875,-0.1974945068359375
1686428462603829000,3.1128291015625,-0.1404876708984375,1.5444183349609375,-0.2113800048828125
1686428462613775000,3.122775146484375,-0.117767333984375,1.53924560546875,-0.1870574951171875
1686428462623720000,3.132719970703125,-0.126434326171875,1.4736328125,-0.16748046875
1686428462633666000,3.142666015625,-0.165435791015625,1.3811187744140625,-0.140655517578125
1686428462643612000,3.15261181640625,-0.168701171875,1.27618408203125,-0.1022796630859375
1686428462653557000,3.162556884765625,-0.1100311279296875,1.176849365234375,-0.05902099609375
1686428462663502800,3.1725029296875,-0.017791748046875,1.0906829833984375,-0.01318359375
1686428462673449000,3.182448974609375,0.0652008056640625,1.0360107421875,0.0176849365234375
1686428462683394800,3.192394775390625,0.0838623046875,1.0168609619140625,0.0326080322265625
1686428462693340200,3.202340087890625,0.0657958984375,1.0091552734375,0.0329132080078125
1686428462703286000,3.2122861328125,0.04876708984375,1.002105712890625,0.0188446044921875
1686428462713232100,3.222232177734375,0.0411376953125,0.9894256591796875,-0.009033203125
1686428462723178000,3.232177978515625,0.046875,0.9609375,-0.035186767578125
1686428462733123000,3.242123046875,0.03936767578125,0.92559814453125,-0.0380706787109375
1686428462743069000,3.25206884765625,0.03662109375,0.8895721435546875,-0.015045166015625
1686428462753015000,3.26201513671875,0.0362091064453125,0.859344482421875,0.0083770751953125
1686428462762961000,3.2719609375,0.0495758056640625,0.8364105224609375,0.0313262939453125
1686428462772906000,3.281906005859375,0.057373046875,0.83843994140625,0.0582427978515625
1686428462782851800,3.291851806640625,0.030029296875,0.865570068359375,0.1030731201171875
1686428462792798000,3.3017978515625,0.0131072998046875,0.92535400390625,0.127960205078125
1686428462802743800,3.311743896484375,0.034027099609375,0.99554443359375,0.138824462890625
1686428462812689200,3.321689208984375,0.0408782958984375,1.0372161865234375,0.1381683349609375
1686428462822635000,3.331635009765625,0.0405731201171875,1.0434417724609375,0.1289215087890625
1686428462832581000,3.3415810546875,0.040374755859375,1.033111572265625,0.1068267822265625
1686428462842527000,3.35152685546875,0.043914794921875,1.0164947509765625,0.0838470458984375
1686428462852472000,3.36147216796875,0.0381011962890625,1.0059967041015625,0.0576019287109375
1686428462862418000,3.37141796875,0.024505615234375,0.997344970703125,0.0430908203125
1686428462872364000,3.381364013671875,0.0025634765625,0.9702301025390625,0.0371551513671875
1686428462882310000,3.391309814453125,-0.027008056640625,0.9183807373046875,0.041046142578125
1686428462892255000,3.4012548828125,-0.069671630859375,0.85003662109375,0.0384368896484375
1686428462902200800,3.411200927734375,-0.096405029296875,0.77752685546875,0.0198211669921875
1686428462912147000,3.42114697265625,-0.106658935546875,0.716094970703125,-0.004913330078125
1686428462922092800,3.4310927734375,-0.097930908203125,0.679229736328125,-0.020599365234375
1686428462932038100,3.4410380859375,-0.09912109375,0.6482391357421875,-0.02569580078125
1686428462941984000,3.45098388671875,-0.1081085205078125,0.6209716796875,0.0014495849609375
1686428462951930000,3.46093017578125,-0.1298065185546875,0.60699462890625,0.0453338623046875
1686428462961876000,3.4708759765625,-0.145660400390625,0.5911712646484375,0.0806732177734375
1686428462971821000,3.480821044921875,-0.166015625,0.6135711669921875,0.1363677978515625
1686428462981767000,3.490766845703125,-0.184844970703125,0.631378173828125,0.1715545654296875
1686428462991713000,3.500713134765625,-0.188507080078125,0.6688690185546875,0.2155303955078125
1686428463001659000,3.510658935546875,-0.184173583984375,0.7189483642578125,0.26324462890625
1686428463011604000,3.52060400390625,-0.1854248046875,0.7624053955078125,0.2832489013671875
1686428463021549800,3.5305498046875,-0.1941986083984375,0.7957305908203125,0.2805328369140625
1686428463031496000,3.540495849609375,-0.20062255859375,0.827301025390625,0.2422027587890625
1686428463041441800,3.55044189453125,-0.2098388671875,0.8498382568359375,0.2035675048828125
1686428463051387000,3.560386962890625,-0.21197509765625,0.8742523193359375,0.15673828125
1686428463061333000,3.5703330078125,-0.2216339111328125,0.8985137939453125,0.1287689208984375
1686428463071279000,3.580279052734375,-0.2273712158203125,0.929779052734375,0.1033935546875
1686428463081225000,3.590224853515625,-0.2249908447265625,0.9196929931640625,0.0941925048828125
1686428463091169800,3.600169677734375,-0.2368927001953125,0.8830718994140625,0.0933380126953125
1686428463101116000,3.610115966796875,-0.2503814697265625,0.862548828125,0.1012725830078125
1686428463111062000,3.62006201171875,-0.3012237548828125,0.8158416748046875,0.1423492431640625
1686428463121007900,3.6300078125,-0.3383026123046875,0.79296875,0.1681060791015625
1686428463130953000,3.639952880859375,-0.3825225830078125,0.7839202880859375,0.2218780517578125
1686428463140898800,3.64989892578125,-0.42437744140625,0.786102294921875,0.278106689453125
1686428463150845000,3.659844970703125,-0.480377197265625,0.7886199951171875,0.3390655517578125
1686428463160790000,3.6697900390625,-0.523345947265625,0.794464111328125,0.382598876953125
1686428463170736400,3.679736328125,-0.533477783203125,0.8415069580078125,0.412322998046875
1686428463180682500,3.6896826171875,-0.56219482421875,0.90216064453125,0.4503326416015625
1686428463190628400,3.69962841796875,-0.5918426513671875,0.95721435546875,0.5228424072265625
1686428463200573400,3.709573486328125,-0.58642578125,0.992767333984375,0.61114501953125
1686428463210519300,3.719519287109375,-0.5481414794921875,1.018310546875,0.700653076171875
1686428463220465400,3.72946533203125,-0.506317138671875,1.055694580078125,0.771759033203125
1686428463230411300,3.739411376953125,-0.4770050048828125,1.086639404296875,0.804473876953125
1686428463240356400,3.7493564453125,-0.4939422607421875,1.1049041748046875,0.8369903564453125
1686428463250302200,3.75930224609375,-0.5339508056640625,1.152984619140625,0.8646697998046875
1686428463260248300,3.769248291015625,-0.5560455322265625,1.295684814453125,0.8495635986328125
1686428463270194200,3.779194091796875,-0.5944366455078125,1.5496978759765625,0.7698211669921875
1686428463280139500,3.789139404296875,-0.575469970703125,1.78997802734375,0.6363372802734375
1686428463290085400,3.79908544921875,-0.525482177734375,1.8772125244140625,0.501220703125
1686428463300031500,3.809031494140625,-0.4100341796875,1.7769775390625,0.3726959228515625
1686428463309977300,3.818977294921875,-0.297210693359375,1.4576416015625,0.218963623046875
1686428463319923500,3.82892333984375,-0.2223358154296875,1.0752410888671875,0.1008758544921875
1686428463329868300,3.838868408203125,-0.1166839599609375,0.880615234375,0.0525054931640625
1686428463339814400,3.848814453125,-0.1482391357421875,0.8679351806640625,0.031158447265625
1686428463349760300,3.85876025390625,-0.2451171875,0.906982421875,0.0108489990234375
1686428463359705000,3.868705078125,-0.26690673828125,0.9065093994140625,-0.020477294921875
1686428463369651200,3.878651123046875,-0.25885009765625,0.909454345703125,-0.0546722412109375
1686428463379597300,3.888597412109375,-0.2716217041015625,0.923919677734375,-0.1259918212890625
1686428463389543200,3.898543212890625,-0.2663116455078125,0.9139251708984375,-0.22113037109375
1686428463399488300,3.90848828125,-0.1920013427734375,0.8885650634765625,-0.2919464111328125
1686428463409434400,3.918434326171875,-0.1014404296875,0.8826904296875,-0.31781005859375
1686428463419380500,3.92838037109375,-0.0494842529296875,0.8927459716796875,-0.3120574951171875
1686428463429326300,3.938326416015625,-0.0393218994140625,0.9147491455078125,-0.281158447265625
1686428463439271200,3.948271240234375,-0.061920166015625,0.9157867431640625,-0.2014617919921875
1686428463449217300,3.95821728515625,-0.1007843017578125,0.9029998779296875,-0.1065673828125
1686428463459163400,3.968163330078125,-0.122100830078125,0.8745269775390625,-0.0193328857421875
1686428463469109200,3.978109130859375,-0.129150390625,0.847625732421875,0.0511932373046875
1686428463479054300,3.988054443359375,-0.160858154296875,0.8337554931640625,0.0989837646484375
1686428463489000400,3.99800048828125,-0.195098876953125,0.8263092041015625,0.136016845703125
1686428463498946300,4.0079462890625,-0.22296142578125,0.8146514892578125,0.1472625732421875
1686428463508892400,4.017892333984375,-0.221588134765625,0.811187744140625,0.156951904296875
1686428463518837200,4.027837158203125,-0.192230224609375,0.801513671875,0.1422119140625
1686428463528783400,4.037783447265625,-0.149322509765625,0.801605224609375,0.154754638671875
1686428463538729500,4.0477294921875,-0.126708984375,0.797393798828125,0.16583251953125
1686428463548675300,4.05767529296875,-0.1205902099609375,0.803009033203125,0.160675048828125
1686428463558620200,4.0676201171875,-0.1220245361328125,0.8081512451171875,0.157867431640625
1686428463568566300,4.077566162109375,-0.14117431640625,0.808990478515625,0.1569671630859375
1686428463578512400,4.087512451171875,-0.1419525146484375,0.8139495849609375,0.1653594970703125
1686428463588458200,4.097458251953125,-0.1311798095703125,0.8249664306640625,0.1543426513671875
1686428463598403300,4.1074033203125,-0.1186981201171875,0.8404388427734375,0.140289306640625
1686428463608349400,4.117349365234375,-0.115509033203125,0.8471221923828125,0.1410980224609375
1686428463618295600,4.127295654296875,-0.1022491455078125,0.8457183837890625,0.1550140380859375
1686428463628241400,4.137241455078125,-0.093353271484375,0.8134613037109375,0.162872314453125
1686428463638186200,4.147186279296875,-0.08673095703125,0.77490234375,0.1624755859375
1686428463648132400,4.15713232421875,-0.0636444091796875,0.7401885986328125,0.1505279541015625
1686428463658078500,4.167078369140625,-0.0503387451171875,0.7094573974609375,0.1256103515625
1686428463668024300,4.1770244140625,-0.0413055419921875,0.6941680908203125,0.1083984375
1686428463677969200,4.18696923828125,-0.0377655029296875,0.6986541748046875,0.084869384765625
1686428463687915300,4.196915283203125,-0.0415191650390625,0.714874267578125,0.063385009765625
1686428463697861400,4.206861328125,-0.05291748046875,0.74957275390625,0.054168701171875
1686428463707807200,4.21680712890625,-0.0654144287109375,0.7882537841796875,0.0205841064453125
1686428463717752300,4.22675244140625,-0.0902099609375,0.8448028564453125,-0.00128173828125
1686428463727698400,4.236698486328125,-0.1146087646484375,0.88232421875,-0.031402587890625
1686428463737644500,4.24664453125,-0.1377716064453125,0.920501708984375,-0.0506744384765625
1686428463747590400,4.25659033203125,-0.134429931640625,0.95294189453125,-0.0797576904296875
1686428463757535200,4.26653515625,-0.1061859130859375,0.97821044921875,-0.114013671875
1686428463767481300,4.2764814453125,-0.0963287353515625,0.992034912109375,-0.1315765380859375
1686428463777427500,4.286427490234375,-0.115936279296875,0.9789276123046875,-0.128387451171875
1686428463787373300,4.296373291015625,-0.129486083984375,0.968231201171875,-0.131103515625
1686428463797318100,4.306318115234375,-0.130096435546875,0.9429931640625,-0.1380767822265625
1686428463807264300,4.31626416015625,-0.12152099609375,0.9366455078125,-0.1514739990234375
1686428463817210400,4.32621044921875,-0.12017822265625,0.936065673828125,-0.13275146484375
1686428463827156200,4.33615625,-0.111328125,0.9530181884765625,-0.094146728515625
1686428463837101300,4.346101318359375,-0.10430908203125,0.964111328125,-0.0685577392578125
1686428463847047400,4.35604736328125,-0.0988616943359375,0.9850311279296875,-0.064178466796875
1686428463856993500,4.36599365234375,-0.0861053466796875,1.008270263671875,-0.0695648193359375
1686428463866939400,4.375939453125,-0.109710693359375,1.0311126708984375,-0.0474700927734375
1686428463876884200,4.38588427734375,-0.140655517578125,1.0366973876953125,-0.02874755859375
1686428463886830300,4.395830322265625,-0.1546173095703125,1.03424072265625,-0.0420074462890625
1686428463896776400,4.4057763671875,-0.191650390625,1.019134521484375,-0.0421295166015625
1686428463906722300,4.415722412109375,-0.196136474609375,1.0090789794921875,-0.05950927734375
1686428463916667100,4.425667236328125,-0.1975250244140625,1.0083465576171875,-0.073883056640625
1686428463926613200,4.43561328125,-0.1997222900390625,1.0058135986328125,-0.075164794921875
1686428463936559400,4.445559326171875,-0.188232421875,1.0078277587890625,-0.070709228515625
1686428463946505200,4.455505126953125,-0.1736602783203125,1.011199951171875,-0.0771942138671875
1686428463956450300,4.4654501953125,-0.160064697265625,1.0070343017578125,-0.0878448486328125
1686428463966396400,4.475396484375,-0.14984130859375,1.0065155029296875,-0.096405029296875
1686428463976342500,4.485342529296875,-0.1443023681640625,1.01409912109375,-0.1074981689453125
1686428463986288400,4.495288330078125,-0.15325927734375,1.0169219970703125,-0.110504150390625
1686428463996233200,4.505233154296875,-0.165740966796875,1.0116424560546875,-0.1092071533203125
1686428464006179300,4.515179443359375,-0.1523590087890625,1.0096282958984375,-0.09759521484375
1686428464016125400,4.52512548828125,-0.155670166015625,1.005279541015625,-0.0712432861328125
1686428464026071300,4.5350712890625,-0.1753082275390625,1.01043701171875,-0.0550079345703125
1686428464036016000,4.54501611328125,-0.21221923828125,1.0293731689453125,-0.0497894287109375
1686428464045962200,4.554962158203125,-0.26300048828125,1.0453643798828125,-0.0266876220703125
1686428464055908400,4.564908447265625,-0.3082733154296875,1.058746337890625,0.00799560546875
1686428464065854200,4.574854248046875,-0.3155364990234375,1.0586395263671875,0.0250244140625
1686428464075799300,4.58479931640625,-0.2657012939453125,1.0604248046875,0.0494537353515625
1686428464085745400,4.594745361328125,-0.2072906494140625,1.068634033203125,0.1035003662109375
1686428464095691500,4.60469140625,-0.1824493408203125,1.0725555419921875,0.1720428466796875
1686428464105637400,4.614637451171875,-0.1672515869140625,1.0560302734375,0.2324371337890625
1686428464115582200,4.624582275390625,-0.0908203125,1.0413055419921875,0.258331298828125
1686428464125528300,4.6345283203125,0.013458251953125,1.03302001953125,0.25830078125
1686428464135474400,4.644474365234375,0.0718994140625,1.0218658447265625,0.21600341796875
1686428464145420300,4.654420166015625,0.0612030029296875,0.9995880126953125,0.1248779296875
1686428464155365000,4.664365234375,0.0769805908203125,0.960052490234375,0.0301055908203125
1686428464165311200,4.674311279296875,0.1479339599609375,0.9163818359375,-0.03656005859375
1686428464175256800,4.6842568359375,0.197509765625,0.88958740234375,-0.0690155029296875
1686428464185202700,4.69420263671875,0.2060089111328125,0.8657989501953125,-0.1093902587890625
1686428464195147500,4.7041474609375,0.1941070556640625,0.856903076171875,-0.1757965087890625
1686428464205093600,4.71409375,0.166961669921875,0.8785400390625,-0.2660064697265625
1686428464215039700,4.724039794921875,0.1490325927734375,0.940032958984375,-0.3438568115234375
1686428464224985600,4.733985595703125,0.1301727294921875,1.049835205078125,-0.384429931640625
1686428464234930400,4.743930419921875,0.10760498046875,1.20050048828125,-0.40447998046875
1686428464244876500,4.75387646484375,0.08856201171875,1.371612548828125,-0.4291229248046875
1686428464254822700,4.76382275390625,0.0926666259765625,1.531707763671875,-0.4243316650390625
1686428464264768500,4.7737685546875,0.13739013671875,1.6948394775390625,-0.376373291015625
1686428464274713600,4.783713623046875,0.2487030029296875,1.7987518310546875,-0.2597503662109375
1686428464284659700,4.79365966796875,0.3882904052734375,1.6555938720703125,-0.0760650634765625
1686428464294605800,4.803605712890625,0.4949188232421875,1.3910980224609375,0.0771636962890625
1686428464304551700,4.8135517578125,0.496551513671875,1.1266021728515625,0.1732940673828125
1686428464314496500,4.82349658203125,0.390777587890625,0.9271087646484375,0.2736358642578125
1686428464324442600,4.833442626953125,0.262237548828125,0.798370361328125,0.31134033203125
1686428464334388700,4.843388671875,0.0482025146484375,0.6741180419921875,0.2965240478515625
1686428464344334600,4.85333447265625,-0.1835784912109375,0.5945892333984375,0.27886962890625
1686428464354279400,4.863279541015625,-0.2839202880859375,0.61737060546875,0.2234344482421875
1686428464364225500,4.8732255859375,-0.328399658203125,0.70849609375,0.15521240234375
1686428464374171600,4.883171630859375,-0.3619842529296875,0.8484039306640625,0.09173583984375
1686428464384117500,4.893117431640625,-0.371246337890625,0.9962615966796875,0.03216552734375
1686428464394062600,4.9030625,-0.3579254150390625,1.111724853515625,-0.02923583984375
1686428464404008700,4.9130087890625,-0.310333251953125,1.1846160888671875,-0.0750885009765625
1686428464413954800,4.922954833984375,-0.2146759033203125,1.19134521484375,-0.1005096435546875
1686428464423900700,4.932900634765625,-0.106231689453125,1.1276397705078125,-0.0925140380859375
1686428464433845500,4.942845458984375,-0.0499114990234375,1.0079498291015625,-0.0639495849609375
1686428464443791600,4.95279150390625,-0.0546112060546875,0.89453125,-0.037933349609375
1686428464453737700,4.96273779296875,-0.1071929931640625,0.81964111328125,-0.010528564453125
1686428464463683600,4.97268359375,-0.1775360107421875,0.7649993896484375,0.0196685791015625
1686428464473628400,4.98262841796875,-0.2295379638671875,0.745635986328125,0.0460205078125
1686428464483574500,4.992574462890625,-0.2536468505859375,0.7416839599609375,0.0610809326171875
1686428464493520600,5.002520751953125,-0.26953125,0.7431488037109375,0.07550048828125
1686428464503466500,5.012466552734375,-0.289154052734375,0.7452239990234375,0.087188720703125
1686428464513412600,5.02241259765625,-0.31781005859375,0.7335052490234375,0.1010589599609375
1686428464523357700,5.032357666015625,-0.341888427734375,0.705108642578125,0.110015869140625
1686428464533303800,5.0423037109375,-0.3592987060546875,0.6859283447265625,0.1100921630859375
1686428464543249700,5.052249755859375,-0.37921142578125,0.6832275390625,0.1185150146484375
1686428464553194500,5.062194580078125,-0.399444580078125,0.702972412109375,0.1325836181640625
1686428464563140600,5.072140625,-0.4224700927734375,0.7418670654296875,0.1584320068359375
1686428464573086500,5.08208642578125,-0.443756103515625,0.7832794189453125,0.1968994140625
1686428464583032600,5.092032470703125,-0.4619903564453125,0.83343505859375,0.2462005615234375
1686428464592978700,5.101978759765625,-0.4825592041015625,0.88824462890625,0.2882080078125
1686428464602923500,5.111923583984375,-0.509918212890625,0.944549560546875,0.3276214599609375
1686428464612869400,5.121869384765625,-0.5425872802734375,0.999908447265625,0.363372802734375
1686428464622815500,5.1318154296875,-0.5640716552734375,1.041259765625,0.387054443359375
1686428464632761600,5.14176171875,-0.562164306640625,1.080322265625,0.40252685546875
1686428464642706700,5.151706787109375,-0.5506591796875,1.125762939453125,0.419342041015625
1686428464652652500,5.161652587890625,-0.572113037109375,1.1658477783203125,0.4403533935546875
1686428464662598700,5.1715986328125,-0.596435546875,1.198516845703125,0.464813232421875
1686428464672544800,5.181544677734375,-0.57647705078125,1.236053466796875,0.48187255859375
1686428464682489600,5.191489501953125,-0.534210205078125,1.3019561767578125,0.4810791015625
1686428464692435500,5.201435546875,-0.517486572265625,1.4037933349609375,0.469696044921875
1686428464702381600,5.211381591796875,-0.551055908203125,1.536468505859375,0.447662353515625
1686428464712327700,5.22132763671875,-0.60675048828125,1.670867919921875,0.4151611328125
1686428464722272500,5.2312724609375,-0.6614837646484375,1.775238037109375,0.367156982421875
1686428464732218600,5.241218505859375,-0.6069183349609375,1.8284149169921875,0.2852935791015625
1686428464742164700,5.251164794921875,-0.394500732421875,1.761688232421875,0.1861724853515625
1686428464752110600,5.261110595703125,-0.265380859375,1.5189666748046875,0.0930023193359375
1686428464762055700,5.2710556640625,-0.291046142578125,1.2089691162109375,0.0256805419921875
1686428464772001500,5.28100146484375,-0.2501068115234375,0.954345703125,-0.014984130859375
1686428464781947600,5.29094775390625,-0.111602783203125,0.8072052001953125,-0.0688323974609375
1686428464791893800,5.300893798828125,-0.15057373046875,0.8220062255859375,-0.13330078125
1686428464801838600,5.310838623046875,-0.2287445068359375,0.9040069580078125,-0.1722564697265625
1686428464811784400,5.320784423828125,-0.22955322265625,0.930908203125,-0.1832122802734375
1686428464821730600,5.33073046875,-0.2046661376953125,0.917694091796875,-0.1720733642578125
1686428464831676700,5.3406767578125,-0.155059814453125,0.8904266357421875,-0.1521453857421875
1686428464841621800,5.350621826171875,-0.08489990234375,0.872283935546875,-0.142730712890625
1686428464851567600,5.360567626953125,-0.043670654296875,0.8819122314453125,-0.150360107421875
1686428464861513700,5.370513671875,-0.0366363525390625,0.89691162109375,-0.1376800537109375
1686428464871459800,5.3804599609375,-0.0333099365234375,0.9185791015625,-0.1146697998046875
1686428464881404700,5.39040478515625,-0.0397491455078125,0.9237518310546875,-0.0675506591796875
1686428464891350500,5.4003505859375,-0.0575408935546875,0.9085693359375,-0.0113525390625
1686428464901296600,5.410296630859375,-0.0738372802734375,0.8818359375,0.0338592529296875
1686428464911242800,5.42024267578125,-0.0868988037109375,0.8461456298828125,0.065338134765625
1686428464921187600,5.4301875,-0.1038055419921875,0.8194580078125,0.0891265869140625
1686428464931133400,5.440133544921875,-0.114013671875,0.8007049560546875,0.1016693115234375
1686428464941079600,5.45007958984375,-0.104461669921875,0.8008575439453125,0.088165283203125
1686428464951025700,5.460025634765625,-0.109832763671875,0.7926177978515625,0.0948333740234375
1686428464960970800,5.469970703125,-0.110595703125,0.7741241455078125,0.098480224609375
1686428464970916600,5.47991650390625,-0.1038360595703125,0.75360107421875,0.1107025146484375
1686428464980862700,5.48986279296875,-0.1000823974609375,0.727020263671875,0.12451171875
1686428464990808800,5.499808837890625,-0.095428466796875,0.7066497802734375,0.122406005859375
1686428465000753700,5.509753662109375,-0.0967254638671875,0.6986083984375,0.099334716796875
1686428465010699500,5.519699462890625,-0.09735107421875,0.7095184326171875,0.0620574951171875
1686428465020645600,5.529645751953125,-0.0960845947265625,0.74554443359375,0.001800537109375
1686428465030591700,5.539591796875,-0.0942535400390625,0.788116455078125,-0.035430908203125
1686428465040536600,5.54953662109375,-0.0941162109375,0.8238677978515625,-0.050262451171875
1686428465050482400,5.559482421875,-0.10736083984375,0.83868408203125,-0.0468902587890625
1686428465060428500,5.569428466796875,-0.131103515625,0.838653564453125,-0.0445709228515625
1686428465070374700,5.579374755859375,-0.15411376953125,0.8204193115234375,-0.04876708984375
1686428465080319700,5.58931982421875,-0.1622467041015625,0.8138275146484375,-0.048126220703125
1686428465090265600,5.599265625,-0.156585693359375,0.8139801025390625,-0.040069580078125
1686428465100211700,5.609211669921875,-0.1458892822265625,0.80206298828125,-0.0247650146484375
1686428465110157800,5.61915771484375,-0.1460113525390625,0.8011016845703125,-0.0099945068359375
1686428465120102700,5.6291025390625,-0.13702392578125,0.815216064453125,-0.0266265869140625
1686428465130048500,5.639048583984375,-0.13909912109375,0.847137451171875,-0.04034423828125
1686428465139994600,5.64899462890625,-0.135894775390625,0.8769378662109375,-0.05731201171875
1686428465149940700,5.658940673828125,-0.16510009765625,0.898193359375,-0.0389404296875
1686428465159885600,5.668885498046875,-0.1938018798828125,0.905670166015625,-0.0306854248046875
1686428465169831400,5.67883154296875,-0.2104949951171875,0.8978424072265625,-0.034454345703125
1686428465179777500,5.688777587890625,-0.2194671630859375,0.8811492919921875,-0.035369873046875
1686428465189723600,5.6987236328125,-0.2347412109375,0.8700714111328125,-0.00347900390625
1686428465199668700,5.708668701171875,-0.2419281005859375,0.8719635009765625,0.0235748291015625
1686428465209614600,5.718614501953125,-0.262969970703125,0.8959503173828125,0.0361175537109375
1686428465219560700,5.728560791015625,-0.2975006103515625,0.945709228515625,0.0595855712890625
1686428465229506800,5.7385068359375,-0.3081207275390625,0.998504638671875,0.0774688720703125
1686428465239451600,5.74845166015625,-0.285552978515625,1.0540008544921875,0.0924224853515625
1686428465249397500,5.7583974609375,-0.261260986328125,1.1198883056640625,0.098175048828125
1686428465259343600,5.768343505859375,-0.2547760009765625,1.1851654052734375,0.0869903564453125
1686428465269289700,5.778289794921875,-0.251739501953125,1.24163818359375,0.0515899658203125
1686428465279234600,5.788234619140625,-0.2176971435546875,1.2949066162109375,-0.00543212890625
1686428465289180400,5.798180419921875,-0.1576995849609375,1.3446197509765625,-0.0801239013671875
1686428465299126500,5.80812646484375,-0.117401123046875,1.3825531005859375,-0.145294189453125
1686428465309072600,5.81807275390625,-0.1020050048828125,1.417999267578125,-0.1690826416015625
1686428465319018500,5.8280185546875,-0.072174072265625,1.41436767578125,-0.1974334716796875
1686428465328963600,5.837963623046875,-0.0776214599609375,1.43511962890625,-0.1804656982421875
1686428465338909700,5.84790966796875,-0.0908203125,1.4289703369140625,-0.1967926025390625
1686428465348855800,5.857855712890625,-0.10699462890625,1.4381561279296875,-0.2340240478515625
1686428465358801700,5.8678017578125,-0.13275146484375,1.4858551025390625,-0.2726593017578125
1686428465368746500,5.87774658203125,-0.1509246826171875,1.5578155517578125,-0.271575927734375
1686428465378692600,5.887692626953125,-0.0914154052734375,1.624969482421875,-0.2229461669921875
1686428465388638700,5.897638671875,0.022979736328125,1.62969970703125,-0.150604248046875
1686428465398584600,5.90758447265625,0.100433349609375,1.510223388671875,-0.0934600830078125
1686428465408529400,5.917529296875,0.111175537109375,1.346160888671875,-0.0588531494140625
1686428465418475500,5.9274755859375,0.0992431640625,1.2221221923828125,-0.0169219970703125
1686428465428421600,5.937421630859375,0.086334228515625,1.1068115234375,-0.0138397216796875
1686428465438367500,5.947367431640625,0.0548858642578125,1.0148773193359375,-0.0576324462890625
1686428465448312600,5.9573125,0.0418853759765625,0.90313720703125,-0.088470458984375
1686428465458258700,5.9672587890625,0.033294677734375,0.7923126220703125,-0.086395263671875
1686428465468204800,5.977204833984375,0.0046234130859375,0.7094268798828125,-0.0654449462890625
1686428465478150700,5.987150634765625,-0.01666259765625,0.640777587890625,-0.0267791748046875
1686428465488095500,5.997095458984375,-0.02691650390625,0.5998992919921875,0.00762939453125
1686428465498041600,6.00704150390625,-0.02569580078125,0.59259033203125,0.02276611328125
1686428465507987700,6.01698779296875,-0.0188446044921875,0.6143035888671875,0.0392303466796875
1686428465517933600,6.02693359375,-0.027252197265625,0.6839447021484375,0.0537261962890625
1686428465527878400,6.03687841796875,-0.0186004638671875,0.840057373046875,0.02362060546875
1686428465537824500,6.046824462890625,0.0099334716796875,1.04534912109375,-0.03851318359375
1686428465547770600,6.0567705078125,0.059051513671875,1.177490234375,-0.0802001953125
1686428465557716700,6.066716796875,0.12200927734375,1.1823883056640625,-0.065673828125
1686428465567661600,6.07666162109375,0.1699371337890625,1.097198486328125,-0.0122222900390625
1686428465577607700,6.086607666015625,0.1761932373046875,1.0163421630859375,-0.0071868896484375
1686428465587553500,6.096553466796875,0.1367950439453125,0.938140869140625,-0.0053863525390625
1686428465597499600,6.106499755859375,0.0926361083984375,0.8916168212890625,-0.0318145751953125
1686428465607444500,6.116444580078125,0.038177490234375,0.8696441650390625,-0.059539794921875
1686428465617390600,6.126390625,-0.0355987548828125,0.8387603759765625,-0.058563232421875
1686428465627336400,6.13633642578125,-0.09173583984375,0.782684326171875,-0.0719757080078125
1686428465637282600,6.146282470703125,-0.1293487548828125,0.7263641357421875,-0.0903472900390625
1686428465647227600,6.1562275390625,-0.1496124267578125,0.682098388671875,-0.11126708984375
1686428465657173800,6.166173828125,-0.14691162109375,0.6477813720703125,-0.11920166015625
1686428465667119600,6.17611962890625,-0.1363983154296875,0.62493896484375,-0.0966033935546875
1686428465677065700,6.186065673828125,-0.1369476318359375,0.6087493896484375,-0.0396575927734375
1686428465687010600,6.196010498046875,-0.1468505859375,0.6076202392578125,0.034454345703125
1686428465696956700,6.205956787109375,-0.1654205322265625,0.630706787109375,0.1074676513671875
1686428465706902500,6.215902587890625,-0.194244384765625,0.6629791259765625,0.171630859375
1686428465716848600,6.2258486328125,-0.210113525390625,0.701385498046875,0.2089691162109375
1686428465726794800,6.235794677734375,-0.19586181640625,0.76983642578125,0.2469024658203125
1686428465736739600,6.245739501953125,-0.165771484375,0.8291473388671875,0.263031005859375
1686428465746685400,6.255685546875,-0.14080810546875,0.8663787841796875,0.2640838623046875
1686428465756631600,6.265631591796875,-0.141693115234375,0.888641357421875,0.2437744140625
1686428465766577700,6.27557763671875,-0.1667633056640625,0.9080047607421875,0.1984710693359375
1686428465776522800,6.285522705078125,-0.215087890625,0.9267730712890625,0.1494903564453125
1686428465786468600,6.295468505859375,-0.26983642578125,0.8977508544921875,0.084930419921875
1686428465796414700,6.305414794921875,-0.2975616455078125,0.8956146240234375,0.0479736328125
1686428465806360800,6.31536083984375,-0.329864501953125,0.8928985595703125,0.02227783203125
1686428465816305700,6.3253056640625,-0.371734619140625,0.8745574951171875,0.0151519775390625
1686428465826251500,6.33525146484375,-0.4142913818359375,0.8608856201171875,0.033538818359375
1686428465836197600,6.34519775390625,-0.4434814453125,0.8549041748046875,0.0714111328125
1686428465846143700,6.355143798828125,-0.450286865234375,0.86376953125,0.1107330322265625
1686428465856088600,6.365088623046875,-0.4462738037109375,0.8958587646484375,0.1475372314453125
1686428465866034400,6.375034423828125,-0.446044921875,0.959197998046875,0.180145263671875
1686428465875980500,6.38498046875,-0.453521728515625,1.0618896484375,0.221038818359375
1686428465885926700,6.3949267578125,-0.4490509033203125,1.179046630859375,0.277557373046875
1686428465895871700,6.404871826171875,-0.404205322265625,1.26251220703125,0.3644561767578125
1686428465905817600,6.414817626953125,-0.3821563720703125,1.32635498046875,0.47100830078125
1686428465915763700,6.424763671875,-0.3973846435546875,1.453704833984375,0.5889892578125
1686428465925709800,6.434709716796875,-0.4200286865234375,1.658447265625,0.6579437255859375
1686428465935654700,6.444654541015625,-0.4010467529296875,1.8512420654296875,0.6330108642578125
1686428465945600500,6.4546005859375,-0.231658935546875,1.93695068359375,0.48956298828125
1686428465955546600,6.464546630859375,-0.12689208984375,1.822265625,0.249237060546875
1686428465965492700,6.47449267578125,-0.173431396484375,1.50653076171875,0.031097412109375
1686428465975437600,6.4844375,-0.198272705078125,1.20355224609375,-0.0561065673828125
1686428465985383400,6.494383544921875,-0.227294921875,1.048980712890625,-0.0687408447265625
1686428465995329500,6.50432958984375,-0.295562744140625,1.006439208984375,-0.0520477294921875
1686428466005275600,6.514275634765625,-0.2300872802734375,0.9685211181640625,-0.025177001953125
1686428466015220700,6.524220703125,-0.1500091552734375,0.91143798828125,-0.00909423828125
1686428466025166600,6.53416650390625,-0.13946533203125,0.85833740234375,-0.0201263427734375
1686428466035112700,6.54411279296875,-0.1367950439453125,0.8111114501953125,-0.041656494140625
1686428466045058800,6.554058837890625,-0.101348876953125,0.7704010009765625,-0.0775604248046875
1686428466055003600,6.564003662109375,-0.0797271728515625,0.75201416015625,-0.12799072265625
1686428466064949500,6.573949462890625,-0.0669403076171875,0.7765045166015625,-0.194580078125
1686428466074895600,6.5838955078125,-0.0626373291015625,0.82177734375,-0.2495880126953125
1686428466084841700,6.593841796875,-0.069091796875,0.88006591796875,-0.2805328369140625
1686428466094786600,6.60378662109375,-0.08203125,0.926788330078125,-0.27947998046875
1686428466104732400,6.613732421875,-0.0902252197265625,0.940673828125,-0.262725830078125
1686428466114678500,6.623678466796875,-0.0851593017578125,0.91668701171875,-0.2497711181640625
1686428466124624600,6.633624755859375,-0.0706939697265625,0.87115478515625,-0.234100341796875
1686428466134570500,6.643570556640625,-0.0781707763671875,0.817474365234375,-0.193359375
1686428466144515600,6.653515625,-0.0738983154296875,0.7684173583984375,-0.1623382568359375
1686428466154461700,6.663461669921875,-0.079742431640625,0.7394866943359375,-0.1275177001953125
1686428466164407800,6.67340771484375,-0.0939483642578125,0.730560302734375,-0.084930419921875
1686428466174354200,6.683354248046875,-0.1053009033203125,0.7392730712890625,-0.037750244140625
1686428466184299000,6.693299072265625,-0.115631103515625,0.7649383544921875,0.007659912109375
1686428466194245000,6.7032451171875,-0.12420654296875,0.8065338134765625,0.0483856201171875
1686428466204191000,6.71319091796875,-0.114898681640625,0.860198974609375,0.0810394287109375
1686428466214137000,6.72313720703125,-0.085205078125,0.9131927490234375,0.1149444580078125
1686428466224082000,6.73308203125,-0.0367584228515625,0.94537353515625,0.13018798828125
1686428466234028000,6.743028076171875,0.0170745849609375,0.9431304931640625,0.1128082275390625
1686428466243974000,6.752973876953125,0.061248779296875,0.899505615234375,0.0668182373046875
1686428466253920000,6.762919921875,0.068267822265625,0.8377532958984375,0.0205230712890625
1686428466263865000,6.772864990234375,0.0448455810546875,0.775604248046875,-0.0108795166015625
1686428466273811200,6.782811279296875,-0.0042572021484375,0.7264862060546875,-0.0279693603515625
1686428466283757000,6.792757080078125,-0.0766448974609375,0.68634033203125,-0.0310821533203125
1686428466293703200,6.802703125,-0.1312103271484375,0.6646881103515625,-0.0367889404296875
1686428466303648000,6.81264794921875,-0.1656646728515625,0.671661376953125,-0.0485992431640625
1686428466313594000,6.822593994140625,-0.1933746337890625,0.6953125,-0.05029296875
1686428466323540000,6.8325400390625,-0.210479736328125,0.7430267333984375,-0.0489044189453125
1686428466333486000,6.842486083984375,-0.213531494140625,0.812408447265625,-0.0597686767578125
1686428466343431000,6.852430908203125,-0.212066650390625,0.8762969970703125,-0.070281982421875
1686428466353377000,6.862376953125,-0.205352783203125,0.92120361328125,-0.0866546630859375
1686428466363323000,6.872322998046875,-0.210693359375,0.946075439453125,-0.0984649658203125
1686428466373269000,6.88226904296875,-0.2207794189453125,0.948089599609375,-0.0999603271484375
1686428466383214000,6.892214111328125,-0.237335205078125,0.944580078125,-0.088165283203125
1686428466393160200,6.90216015625,-0.2569122314453125,0.9599761962890625,-0.0628662109375
1686428466403106000,6.91210595703125,-0.2697296142578125,0.9873809814453125,-0.0185546875
1686428466413052200,6.92205224609375,-0.2817230224609375,1.04779052734375,0.048858642578125
1686428466422997000,6.9319970703125,-0.2870025634765625,1.1007537841796875,0.0933380126953125
1686428466432943000,6.941943115234375,-0.28668212890625,1.125244140625,0.107330322265625
1686428466442889000,6.951888916015625,-0.301971435546875,1.1385345458984375,0.1142120361328125
1686428466452835000,6.9618349609375,-0.2956390380859375,1.1352386474609375,0.091705322265625
1686428466462781200,6.97178125,-0.267578125,1.138916015625,0.0594635009765625
1686428466472726000,6.98172607421875,-0.2333984375,1.171905517578125,0.0042266845703125
1686428466482671900,6.991671875,-0.2051849365234375,1.2443389892578125,-0.071929931640625
1686428466492618000,7.001617919921875,-0.179718017578125,1.3535003662109375,-0.153594970703125
1686428466502564000,7.011564208984375,-0.15692138671875,1.4704742431640625,-0.2266387939453125
1686428466512509200,7.02150927734375,-0.1394805908203125,1.596466064453125,-0.2613525390625
1686428466522455000,7.031455078125,-0.115570068359375,1.6958465576171875,-0.2812347412109375
1686428466532401200,7.041401123046875,-0.0876617431640625,1.74322509765625,-0.274871826171875
1686428466542347300,7.05134716796875,-0.05194091796875,1.6873931884765625,-0.261688232421875
1686428466552292000,7.0612919921875,-0.0214080810546875,1.541534423828125,-0.2302093505859375
1686428466562238000,7.071238037109375,0.00006103515625,1.3963623046875,-0.1776580810546875
1686428466572184000,7.08118408203125,0.0088043212890625,1.291961669921875,-0.1183013916015625
1686428466582130200,7.091130126953125,0.0188446044921875,1.210906982421875,-0.0690460205078125
1686428466592075000,7.101074951171875,0.029541015625,1.1479644775390625,-0.036590576171875
1686428466602020900,7.111020751953125,0.028411865234375,1.09466552734375,-0.01763916015625
1686428466611967000,7.120967041015625,0.0123443603515625,1.042327880859375,0.0050506591796875
1686428466621913000,7.1309130859375,-0.003875732421875,0.9734039306640625,0.034881591796875
1686428466631858200,7.140858154296875,-0.00067138671875,0.886077880859375,0.0726470947265625
1686428466641804000,7.150803955078125,0.000701904296875,0.802398681640625,0.0993194580078125
1686428466651750100,7.160750244140625,-0.021636962890625,0.74139404296875,0.1104583740234375
1686428466661696300,7.1706962890625,-0.0360260009765625,0.705596923828125,0.1114501953125
1686428466671641000,7.18064111328125,-0.0217742919921875,0.704864501953125,0.0997314453125
1686428466681587000,7.1905869140625,-0.01239013671875,0.7566986083984375,0.083251953125
1686428466691533000,7.200532958984375,0.0098724365234375,0.82415771484375,0.072784423828125
1686428466701479000,7.21047900390625,0.036590576171875,0.8984832763671875,0.06304931640625
1686428466711424000,7.220424072265625,0.057037353515625,0.954071044921875,0.0578155517578125
1686428466721369900,7.230369873046875,0.058746337890625,1.0063934326171875,0.0449981689453125
1686428466731316000,7.24031591796875,0.082550048828125,1.0532379150390625,0.0201568603515625
1686428466741262000,7.250261962890625,0.0895843505859375,1.0567779541015625,0.0084381103515625
1686428466751207200,7.260207275390625,0.0670623779296875,0.997650146484375,0.0147552490234375
1686428466761153000,7.270153076171875,0.0364990234375,0.916412353515625,0.0229644775390625
1686428466771099100,7.28009912109375,0.0097198486328125,0.857330322265625,0.026123046875
1686428466781045000,7.290044921875,-0.0031890869140625,0.8308563232421875,-0.0002288818359375
1686428466790990000,7.299989990234375,-0.011505126953125,0.8451690673828125,-0.031524658203125
1686428466800936000,7.30993603515625,-0.0209197998046875,0.86944580078125,-0.039886474609375
1686428466810882000,7.319882080078125,-0.02685546875,0.8783416748046875,-0.0544891357421875
1686428466820828000,7.329827880859375,-0.03277587890625,0.8684539794921875,-0.067779541015625
1686428466830773000,7.33977294921875,-0.0430755615234375,0.837615966796875,-0.0686492919921875
1686428466840719000,7.349718994140625,-0.057403564453125,0.79833984375,-0.05908203125
1686428466850665200,7.359665283203125,-0.0740814208984375,0.758331298828125,-0.0416717529296875
1686428466860611000,7.369611083984375,-0.1010284423828125,0.7264862060546875,-0.0152740478515625
1686428466870557200,7.37955712890625,-0.126556396484375,0.7154998779296875,0.009918212890625
1686428466880502000,7.389501953125,-0.14324951171875,0.7073822021484375,0.026519775390625
1686428466890448100,7.3994482421875,-0.1553497314453125,0.7146759033203125,0.0579681396484375
1686428466900394000,7.40939404296875,-0.16766357421875,0.7332611083984375,0.1000518798828125
1686428466910340000,7.419340087890625,-0.175323486328125,0.7617034912109375,0.1420135498046875
1686428466920285000,7.429284912109375,-0.1728515625,0.808135986328125,0.175323486328125
1686428466930231000,7.43923095703125,-0.1811065673828125,0.8212738037109375,0.17913818359375
1686428466940177000,7.449177001953125,-0.1849212646484375,0.8456268310546875,0.1851348876953125
1686428466950123000,7.459123046875,-0.1729736328125,0.8827362060546875,0.180511474609375
1686428466960068000,7.469068115234375,-0.1735687255859375,0.9138641357421875,0.17218017578125
1686428466970014200,7.47901416015625,-0.17755126953125,0.95355224609375,0.143402099609375
1686428466979960000,7.4889599609375,-0.1984710693359375,0.9892578125,0.1154937744140625
1686428466989906200,7.49890625,-0.2222900390625,1.00506591796875,0.0875091552734375
1686428466999851000,7.50885107421875,-0.2413482666015625,0.991180419921875,0.0665740966796875
1686428467009797000,7.518797119140625,-0.257568359375,0.95892333984375,0.0596466064453125
1686428467019743000,7.528742919921875,-0.284332275390625,0.9297637939453125,0.06103515625
1686428467029689000,7.538689208984375,-0.322357177734375,0.8996734619140625,0.0660858154296875
1686428467039634000,7.548634033203125,-0.3616943359375,0.8697967529296875,0.0660400390625
1686428467049580000,7.558580078125,-0.394927978515625,0.857421875,0.0738983154296875
1686428467059526000,7.56852587890625,-0.409423828125,0.8631134033203125,0.0969085693359375
1686428467069472000,7.578471923828125,-0.4085845947265625,0.8876495361328125,0.1295013427734375
1686428467079418000,7.588418212890625,-0.4078369140625,0.923858642578125,0.16229248046875
1686428467089363200,7.59836328125,-0.422515869140625,0.96697998046875,0.197174072265625
1686428467099309000,7.60830908203125,-0.44384765625,1.01123046875,0.2299346923828125
1686428467109255200,7.618255126953125,-0.4498138427734375,1.04486083984375,0.27032470703125
1686428467119201300,7.628201171875,-0.404296875,1.128997802734375,0.325836181640625
1686428467129146000,7.63814599609375,-0.3574981689453125,1.3424224853515625,0.393829345703125
1686428467139092000,7.648092041015625,-0.369232177734375,1.6247711181640625,0.4722747802734375
1686428467149038000,7.6580380859375,-0.38287353515625,1.8336181640625,0.5406341552734375
1686428467158984200,7.667984130859375,-0.3379364013671875,1.8842926025390625,0.5339202880859375
1686428467168929000,7.677928955078125,-0.2410736083984375,1.778106689453125,0.4207611083984375
1686428467178874400,7.687874267578125,-0.136932373046875,1.5527496337890625,0.2140655517578125
1686428467188820500,7.697820556640625,-0.1287078857421875,1.324005126953125,0.02520751953125
1686428467198766600,7.7077666015625,-0.2067413330078125,1.1686248779296875,-0.0128936767578125
1686428467208711700,7.717711669921875,-0.2501373291015625,1.061492919921875,0.029510498046875
1686428467218657500,7.727657470703125,-0.2343902587890625,0.99267578125,0.0494842529296875
1686428467228603600,7.737603759765625,-0.2416534423828125,0.9738006591796875,0.024810791015625
1686428467238549500,7.747549560546875,-0.251220703125,0.97967529296875,-0.014190673828125
1686428467248494600,7.75749462890625,-0.210113525390625,0.94989013671875,-0.03399658203125
1686428467258440400,7.7674404296875,-0.1542816162109375,0.86962890625,-0.037200927734375
1686428467268386600,7.777386474609375,-0.107208251953125,0.775360107421875,-0.0401458740234375
1686428467278332400,7.78733251953125,-0.071014404296875,0.7019195556640625,-0.0571746826171875
1686428467288278500,7.797278564453125,-0.0486297607421875,0.6735687255859375,-0.1005096435546875
1686428467298223600,7.8072236328125,-0.0495147705078125,0.6909332275390625,-0.13775634765625
1686428467308169700,7.817169677734375,-0.071868896484375,0.75177001953125,-0.1595306396484375
1686428467318115600,7.827115478515625,-0.093475341796875,0.8352813720703125,-0.1700286865234375
1686428467328061700,7.837061767578125,-0.1227569580078125,0.9046783447265625,-0.1724853515625
1686428467338006500,7.847006591796875,-0.150238037109375,0.944549560546875,-0.18292236328125
1686428467347952600,7.85695263671875,-0.162841796875,0.9439239501953125,-0.1814727783203125
1686428467357898500,7.8668984375,-0.154388427734375,0.9109649658203125,-0.15142822265625
1686428467367844600,7.8768447265625,-0.1324310302734375,0.8584747314453125,-0.16070556640625
1686428467377789400,7.88678955078125,-0.1123199462890625,0.795013427734375,-0.13751220703125
1686428467387735600,7.896735595703125,-0.112640380859375,0.746612548828125,-0.0765380859375
1686428467397681400,7.906681396484375,-0.11737060546875,0.71807861328125,-0.03778076171875
1686428467407627500,7.91662744140625,-0.128143310546875,0.722503662109375,-0.0102691650390625
1686428467417572600,7.926572509765625,-0.1305999755859375,0.741851806640625,0.0134735107421875
1686428467427518700,7.936518798828125,-0.12689208984375,0.7822113037109375,0.0372772216796875
1686428467437464600,7.946464599609375,-0.102325439453125,0.821929931640625,0.06475830078125
1686428467447410700,7.95641064453125,-0.0600738525390625,0.8535614013671875,0.08270263671875
1686428467457356800,7.966356689453125,-0.0027008056640625,0.8661041259765625,0.081634521484375
1686428467467301600,7.976301513671875,0.0393218994140625,0.847137451171875,0.0617523193359375
1686428467477247500,7.98624755859375,0.0618743896484375,0.8095550537109375,0.0375213623046875
1686428467487193600,7.996193603515625,0.060089111328125,0.769622802734375,0.015106201171875
1686428467497139700,8.0061396484375,0.0081329345703125,0.7396697998046875,0.011383056640625
1686428467507084500,8.01608447265625,-0.0500030517578125,0.7269439697265625,0.0187225341796875
1686428467517030400,8.026030517578125,-0.0919952392578125,0.727783203125,0.029266357421875
1686428467526976500,8.0359765625,-0.13531494140625,0.7419281005859375,0.03472900390625
1686428467536922600,8.045922607421875,-0.1812744140625,0.77215576171875,0.03936767578125
1686428467546867700,8.05586767578125,-0.213623046875,0.81683349609375,0.0366973876953125
1686428467556813600,8.0658134765625,-0.225860595703125,0.876220703125,0.0245208740234375
1686428467566759700,8.075759765625,-0.229095458984375,0.9433135986328125,0.0057830810546875
1686428467576705800,8.085705810546875,-0.219573974609375,1.0062255859375,-0.0240020751953125
1686428467586650600,8.095650634765626,-0.2380523681640625,1.055328369140625,-0.0552520751953125
1686428467596596500,8.105596435546875,-0.2760467529296875,1.077850341796875,-0.0828857421875
1686428467606542600,8.11554248046875,-0.2861328125,1.0774383544921875,-0.09423828125
1686428467616488700,8.12548876953125,-0.278594970703125,1.0701446533203125,-0.0763092041015625
1686428467626434600,8.1354345703125,-0.282623291015625,1.0741119384765625,-0.0318450927734375
1686428467636379400,8.14537939453125,-0.2985992431640625,1.0899810791015625,0.0201416015625
1686428467646325500,8.155325439453126,-0.3053436279296875,1.1065673828125,0.070465087890625
1686428467656271600,8.165271728515625,-0.308624267578125,1.123992919921875,0.1051177978515625
1686428467666217500,8.175217529296875,-0.3013763427734375,1.1317901611328125,0.122711181640625
1686428467676162600,8.18516259765625,-0.2806243896484375,1.149505615234375,0.1109619140625
1686428467686108700,8.195108642578125,-0.2611083984375,1.18499755859375,0.06854248046875
1686428467696054500,8.205054443359375,-0.2413482666015625,1.220794677734375,-0.0040740966796875
1686428467706000600,8.215000732421874,-0.2079620361328125,1.2549591064453125,-0.1044769287109375
1686428467715945500,8.224945556640625,-0.1496124267578125,1.29522705078125,-0.2246551513671875
1686428467725891600,8.2348916015625,-0.1011199951171875,1.3629302978515625,-0.321868896484375
1686428467735837400,8.24483740234375,-0.092742919921875,1.461517333984375,-0.358428955078125
1686428467745783600,8.254783447265625,-0.111083984375,1.547271728515625,-0.353912353515625
1686428467755728400,8.264728271484374,-0.124481201171875,1.59912109375,-0.306976318359375
1686428467765674500,8.274674560546876,-0.07781982421875,1.57147216796875,-0.2449188232421875
1686428467775620400,8.284620361328125,-0.00341796875,1.462249755859375,-0.1812896728515625
1686428467785566500,8.29456640625,0.0616912841796875,1.35699462890625,-0.11968994140625
1686428467795512600,8.3045126953125,0.0777740478515625,1.297210693359375,-0.0628509521484375
1686428467805457700,8.314457763671875,0.0679473876953125,1.2489166259765625,-0.02142333984375
1686428467815403500,8.324403564453124,0.076080322265625,1.1943511962890625,0.0068511962890625
1686428467825349600,8.334349609375,0.09100341796875,1.139984130859375,0.0229644775390625
1686428467835295700,8.344295654296875,0.0941009521484375,1.081451416015625,0.031402587890625
1686428467845240600,8.354240478515624,0.092010498046875,1.0089874267578125,0.0416412353515625
1686428467855186400,8.3641865234375,0.091644287109375,0.9279327392578125,0.0590057373046875
1686428467865132500,8.374132568359375,0.0874481201171875,0.8609619140625,0.062896728515625
1686428467875078700,8.38407861328125,0.0501861572265625,0.8062286376953125,0.0659332275390625
1686428467885023500,8.3940234375,0.025482177734375,0.7642974853515625,0.072509765625
1686428467894969300,8.40396923828125,0.0257568359375,0.753173828125,0.0780487060546875
1686428467904915500,8.41391552734375,0.03271484375,0.77789306640625,0.0756683349609375
1686428467914861600,8.423861572265626,0.05657958984375,0.8037261962890625,0.089752197265625
1686428467924807400,8.433807373046875,0.0773162841796875,0.83392333984375,0.0998382568359375
1686428467934752500,8.44375244140625,0.0599822998046875,0.8710784912109375,0.1200714111328125
1686428467944698600,8.45369873046875,0.073944091796875,0.932647705078125,0.103912353515625
1686428467954644700,8.463644775390625,0.0862274169921875,0.9773406982421875,0.0722808837890625
1686428467964590600,8.473590576171874,0.0660858154296875,0.9702301025390625,0.0377349853515625
1686428467974535400,8.483535400390625,0.0467681884765625,0.925384521484375,0.01904296875
1686428467984481500,8.4934814453125,0.029083251953125,0.8824310302734375,-0.00091552734375
1686428467994427600,8.503427734375,0.031951904296875,0.88775634765625,-0.0379486083984375
1686428468004373500,8.51337353515625,0.0378570556640625,0.9126434326171875,-0.0627288818359375
1686428468014318600,8.523318603515625,0.04840087890625,0.9359283447265625,-0.08013916015625
1686428468024264400,8.533264404296874,0.0441741943359375,0.9369964599609375,-0.095672607421875
1686428468034210600,8.54321044921875,0.0198974609375,0.903289794921875,-0.11456298828125
1686428468044156700,8.55315673828125,-0.0120086669921875,0.8361663818359375,-0.13116455078125
1686428468054102800,8.563102783203124,-0.0480804443359375,0.75689697265625,-0.1375274658203125
1686428468064047600,8.573047607421875,-0.0720977783203125,0.6839752197265625,-0.131591796875
1686428468073993700,8.58299365234375,-0.081939697265625,0.6295318603515625,-0.1161041259765625
1686428468083939600,8.592939697265624,-0.094482421875,0.5897369384765625,-0.0811309814453125
1686428468093885700,8.6028857421875,-0.11956787109375,0.581390380859375,-0.0225830078125
1686428468103830500,8.61283056640625,-0.1639404296875,0.6101226806640625,0.0553131103515625
1686428468113776600,8.622776611328124,-0.21002197265625,0.6699676513671875,0.135345458984375
1686428468123722500,8.632722412109375,-0.2428436279296875,0.754730224609375,0.2024078369140625
1686428468133668600,8.642668701171875,-0.2576751708984375,0.8590850830078125,0.25201416015625
1686428468143613700,8.65261376953125,-0.261962890625,0.969573974609375,0.297698974609375
1686428468153559800,8.662559814453125,-0.274658203125,1.0223541259765625,0.325164794921875
1686428468163505700,8.672505615234375,-0.234130859375,1.0626373291015625,0.3354339599609375
1686428468173451800,8.68245166015625,-0.2059478759765625,1.0404815673828125,0.31964111328125
1686428468183397600,8.692397705078125,-0.2069244384765625,0.9933319091796875,0.2916717529296875
1686428468193342700,8.7023427734375,-0.2611236572265625,0.94219970703125,0.22833251953125
1686428468203288600,8.71228857421875,-0.32257080078125,0.91552734375,0.179229736328125
1686428468213234700,8.722234619140625,-0.3845672607421875,0.903411865234375,0.1363677978515625
1686428468223180500,8.7321806640625,-0.4278717041015625,0.8884124755859375,0.1159515380859375
1686428468233125600,8.742125732421876,-0.43585205078125,0.8632049560546875,0.13360595703125
1686428468243071500,8.752071533203125,-0.415771484375,0.8485870361328125,0.166778564453125
1686428468253017600,8.762017578125,-0.402252197265625,0.8496856689453125,0.206146240234375
1686428468262963500,8.77196337890625,-0.3913421630859375,0.871337890625,0.2363128662109375
1686428468272909600,8.78190966796875,-0.393310546875,0.9231414794921875,0.2776947021484375
1686428468282854700,8.791854736328125,-0.389556884765625,0.9942169189453125,0.3552703857421875
1686428468292800800,8.80180078125,-0.3386077880859375,1.0956878662109375,0.4540557861328125
1686428468302746600,8.81174658203125,-0.2967987060546875,1.3021240234375,0.5231781005859375
1686428468312692700,8.821692626953125,-0.36309814453125,1.6195831298828125,0.600372314453125
1686428468322637600,8.831637451171876,-0.4189453125,1.87542724609375,0.6705474853515625
1686428468332583700,8.841583740234375,-0.2869873046875,1.9596710205078125,0.6256866455078125
1686428468342529500,8.851529541015625,-0.0897369384765625,1.818603515625,0.375823974609375
1686428468352475600,8.8614755859375,-0.032867431640625,1.4717864990234375,0.014190673828125
1686428468362420500,8.87142041015625,-0.1028594970703125,1.1498565673828125,-0.1439056396484375
1686428468372366600,8.88136669921875,-0.205810546875,0.9908599853515625,-0.1117706298828125
1686428468382312400,8.8913125,-0.2731475830078125,0.9413909912109375,-0.0698394775390625
1686428468392258600,8.901258544921875,-0.286651611328125,0.9208831787109375,-0.052490234375
1686428468402204400,8.911204345703124,-0.255035400390625,0.8928070068359375,-0.051422119140625
1686428468412149800,8.921149658203126,-0.2063140869140625,0.857086181640625,-0.0572509765625
1686428468422095600,8.931095703125,-0.170806884765625,0.8159027099609375,-0.06243896484375
1686428468432041700,8.941041748046874,-0.1273345947265625,0.7794342041015625,-0.070709228515625
1686428468441987600,8.950987548828126,-0.0895538330078125,0.7612457275390625,-0.092193603515625
1686428468451932700,8.9609326171875,-0.0751495361328125,0.7861785888671875,-0.13165283203125
1686428468461878500,8.97087841796875,-0.0880279541015625,0.845733642578125,-0.1693572998046875
1686428468471824600,8.98082470703125,-0.090362548828125,0.931915283203125,-0.191314697265625
1686428468481770500,8.9907705078125,-0.0897064208984375,1.01739501953125,-0.195892333984375
1686428468491715600,9.000715576171874,-0.093170166015625,1.0692596435546875,-0.193817138671875
1686428468501661400,9.010661376953125,-0.1000518798828125,1.062591552734375,-0.1931915283203125
1686428468511607600,9.020607666015625,-0.09906005859375,0.99835205078125,-0.1935272216796875
1686428468521553400,9.030553466796874,-0.0886383056640625,0.9010467529296875,-0.1852569580078125
1686428468531499500,9.04049951171875,-0.100799560546875,0.8061065673828125,-0.1429595947265625
1686428468541444600,9.050444580078125,-0.0976104736328125,0.72613525390625,-0.1539306640625
1686428468551390700,9.060390625,-0.121429443359375,0.6932373046875,-0.10888671875
1686428468561336600,9.070336669921875,-0.158294677734375,0.6943206787109375,-0.067718505859375
1686428468571282700,9.08028271484375,-0.187255859375,0.7193603515625,-0.025543212890625
1686428468581227500,9.0902275390625,-0.1964874267578125,0.766693115234375,0.0203094482421875
1686428468591173600,9.100173583984375,-0.19329833984375,0.8178558349609375,0.069915771484375
1686428468601119500,9.110119384765625,-0.1648712158203125,0.8586273193359375,0.1117095947265625
1686428468611065600,9.120065673828124,-0.1057586669921875,0.89349365234375,0.128692626953125
1686428468621010400,9.130010498046875,-0.035369873046875,0.9170684814453125,0.1262664794921875
1686428468630956500,9.13995654296875,0.021759033203125,0.9110565185546875,0.1069793701171875
1686428468640902400,9.14990234375,0.0385284423828125,0.8828582763671875,0.08197021484375
1686428468650848500,9.1598486328125,0.013763427734375,0.8327484130859375,0.0612030029296875
1686428468660794600,9.169794677734375,-0.03033447265625,0.7840118408203125,0.0379638671875
1686428468670739700,9.17973974609375,-0.0773773193359375,0.75054931640625,0.018646240234375
1686428468680685600,9.189685546875,-0.128265380859375,0.7453155517578125,0.0066986083984375
1686428468690631700,9.199631591796875,-0.1716461181640625,0.75732421875,-0.0193634033203125
1686428468700577500,9.20957763671875,-0.2095794677734375,0.774383544921875,-0.0358428955078125
1686428468710522600,9.219522705078125,-0.233428955078125,0.7924652099609375,-0.0519866943359375
1686428468720468500,9.229468505859375,-0.2332611083984375,0.823486328125,-0.080413818359375
1686428468730414600,9.23941455078125,-0.2259521484375,0.875335693359375,-0.1015777587890625
1686428468740360400,9.2493603515625,-0.2154541015625,0.9308013916015625,-0.102569580078125
1686428468750305500,9.259305419921875,-0.2243804931640625,0.9747772216796875,-0.092803955078125
1686428468760251600,9.269251708984376,-0.2374267578125,1.0116729736328125,-0.099761962890625
1686428468770197500,9.279197509765625,-0.2438507080078125,1.0484771728515625,-0.093475341796875
1686428468780143600,9.2891435546875,-0.2319793701171875,1.082855224609375,-0.0635223388671875
1686428468790089700,9.29908984375,-0.1979827880859375,1.1019744873046875,-0.0298614501953125
1686428468800034600,9.30903466796875,-0.1943511962890625,1.1154327392578125,0.00518798828125
1686428468809980700,9.318980712890625,-0.216064453125,1.132080078125,0.035430908203125
1686428468819926500,9.328926513671876,-0.22967529296875,1.1551055908203125,0.0483856201171875
1686428468829872600,9.33887255859375,-0.2340545654296875,1.1975250244140625,0.04833984375
1686428468839817500,9.3488173828125,-0.22021484375,1.241973876953125,0.02874755859375
1686428468849763600,9.358763671875,-0.1960601806640625,1.275787353515625,-0.013427734375
1686428468859709400,9.36870947265625,-0.180755615234375,1.312347412109375,-0.08172607421875
1686428468869655600,9.378655517578125,-0.152496337890625,1.3680419921875,-0.168731689453125
1686428468879601400,9.388601318359376,-0.13275146484375,1.4362640380859375,-0.24163818359375
1686428468889546800,9.398546630859375,-0.1342010498046875,1.5034942626953125,-0.2613372802734375
1686428468899492600,9.40849267578125,-0.114471435546875,1.5161285400390625,-0.24322509765625
1686428468909438700,9.418438720703126,-0.07940673828125,1.4543609619140625,-0.2290802001953125
1686428468919384600,9.428384521484375,-0.061737060546875,1.3684539794921875,-0.2151641845703125
1686428468929329700,9.43832958984375,-0.0544281005859375,1.29315185546875,-0.1652374267578125
1686428468939275500,9.448275634765626,-0.0342559814453125,1.2367706298828125,-0.088043212890625
1686428468949221600,9.4582216796875,-0.0185089111328125,1.1903228759765625,-0.033660888671875
1686428468959167500,9.46816748046875,0.0071563720703125,1.133453369140625,-0.0070953369140625
1686428468969112600,9.478112548828125,0.0561370849609375,1.07373046875,0.0024261474609375
1686428468979058400,9.488058349609375,0.098052978515625,1.03271484375,-0.0070037841796875
1686428468989004500,9.498004638671874,0.12078857421875,1.0025482177734375,-0.0249786376953125
1686428468998950400,9.507950439453126,0.1230010986328125,0.96673583984375,-0.0392608642578125
1686428469008896500,9.517896484375,0.1062774658203125,0.9361724853515625,-0.0492401123046875
1686428469018841600,9.527841552734374,0.0781097412109375,0.907806396484375,-0.0443115234375
1686428469028787700,9.53778759765625,0.0421905517578125,0.872772216796875,-0.0151519775390625
1686428469038733600,9.547733642578125,0.0218353271484375,0.83209228515625,0.019134521484375
1686428469048679700,9.5576796875,0.0109710693359375,0.7989959716796875,0.0417633056640625
1686428469058624500,9.56762451171875,0.0191192626953125,0.7792510986328125,0.0708465576171875
1686428469068570600,9.577570556640625,0.0109405517578125,0.76422119140625,0.121063232421875
1686428469078516500,9.5875166015625,-0.02313232421875,0.772796630859375,0.183807373046875
1686428469088462600,9.597462646484376,-0.005950927734375,0.8334808349609375,0.1899566650390625
1686428469098408400,9.607408447265625,0.00640869140625,0.88153076171875,0.16644287109375
1686428469108353500,9.617353515625,0.02313232421875,0.91571044921875,0.1331939697265625
1686428469118299400,9.62729931640625,0.0477447509765625,0.943328857421875,0.1118316650390625
1686428469128245500,9.63724560546875,0.0529632568359375,0.967132568359375,0.08563232421875
1686428469138191400,9.64719140625,0.0379791259765625,0.9894866943359375,0.057403564453125
1686428469148136700,9.65713671875,0.0212554931640625,1.0222930908203125,0.026214599609375
1686428469158082600,9.66708251953125,-0.0008697509765625,1.045928955078125,-0.00970458984375
1686428469168028700,9.677028564453124,-0.0223541259765625,1.053466796875,-0.0487060546875
1686428469177975300,9.686975341796876,-0.0486907958984375,1.012847900390625,-0.0780181884765625
1686428469187921400,9.69692138671875,-0.0673370361328125,0.92449951171875,-0.101287841796875
1686428469197866200,9.7068662109375,-0.07940673828125,0.815765380859375,-0.1226654052734375
1686428469207812400,9.716812255859375,-0.085296630859375,0.7198028564453125,-0.1431884765625
1686428469217758200,9.72675830078125,-0.0815277099609375,0.6477203369140625,-0.1450347900390625
1686428469227704300,9.736704345703124,-0.0893707275390625,0.6028289794921875,-0.11260986328125
1686428469237649200,9.746649169921875,-0.1239471435546875,0.5895233154296875,-0.0498504638671875
1686428469247595300,9.75659521484375,-0.1697235107421875,0.613006591796875,0.025634765625
1686428469257541000,9.766541015625,-0.2191162109375,0.6623992919921875,0.09796142578125
1686428469267487200,9.7764873046875,-0.2556915283203125,0.7334442138671875,0.160552978515625
1686428469277432300,9.786432373046875,-0.267303466796875,0.80865478515625,0.21136474609375
1686428469287378400,9.79637841796875,-0.255950927734375,0.882110595703125,0.2462005615234375
1686428469297324300,9.80632421875,-0.2284393310546875,0.9514923095703125,0.273040771484375
1686428469307270400,9.8162705078125,-0.2072296142578125,0.9628753662109375,0.2802886962890625
1686428469317216300,9.82621630859375,-0.17340087890625,0.9838104248046875,0.276336669921875
1686428469327161300,9.836161376953125,-0.185943603515625,1.002655029296875,0.258697509765625
1686428469337107200,9.846107177734375,-0.25787353515625,0.97186279296875,0.209716796875
1686428469347053300,9.85605322265625,-0.3094024658203125,0.938018798828125,0.1803436279296875
1686428469356999200,9.865999267578125,-0.35394287109375,0.890167236328125,0.1645965576171875
1686428469366944300,9.8759443359375,-0.3741455078125,0.8529052734375,0.155364990234375
1686428469376890000,9.88589013671875,-0.3858795166015625,0.833221435546875,0.1463623046875
1686428469386836200,9.895836181640625,-0.3934783935546875,0.8285675048828125,0.1439666748046875
1686428469396782000,9.905781982421875,-0.3939361572265625,0.8380126953125,0.1634979248046875
1686428469406728200,9.915728271484374,-0.3786468505859375,0.8539886474609375,0.19317626953125
1686428469416673300,9.92567333984375,-0.362457275390625,0.8829193115234375,0.2234039306640625
1686428469426619400,9.935619384765625,-0.3447418212890625,0.9347686767578125,0.2762908935546875
1686428469436565200,9.945565185546876,-0.28167724609375,1.000091552734375,0.36383056640625
1686428469446511400,9.955511474609375,-0.2008209228515625,1.1128387451171875,0.4687347412109375
1686428469456456200,9.965456298828125,-0.1919403076171875,1.3567047119140625,0.5504913330078125
1686428469466402300,9.97540234375,-0.3141326904296875,1.6848602294921875,0.62762451171875
1686428469476348200,9.98534814453125,-0.44061279296875,1.9390411376953125,0.675201416015625
1686428469486294300,9.995294189453125,-0.337615966796875,1.9864044189453125,0.56414794921875
1686428469496240000,10.005240234375,-0.0914459228515625,1.804473876953125,0.2774810791015625
1686428469506185200,10.015185302734375,0.003875732421875,1.44952392578125,-0.0172271728515625
1686428469516131000,10.025131103515625,-0.1189117431640625,1.11273193359375,-0.128021240234375
1686428469526077200,10.0350771484375,-0.2198638916015625,0.911834716796875,-0.09375
1686428469536023000,10.04502294921875,-0.2092132568359375,0.84686279296875,-0.040985107421875
1686428469545969200,10.05496923828125,-0.261016845703125,0.86456298828125,-0.0241241455078125
1686428469555914200,10.064914306640626,-0.2624969482421875,0.8904266357421875,-0.028076171875
1686428469565860400,10.0748603515625,-0.2295379638671875,0.8939361572265625,-0.0281829833984375
1686428469575806200,10.08480615234375,-0.1959228515625,0.873565673828125,-0.028106689453125
1686428469585752300,10.09475244140625,-0.1741485595703125,0.84564208984375,-0.0475006103515625
1686428469595697200,10.104697265625,-0.142791748046875,0.834930419921875,-0.09136962890625
1686428469605643300,10.114643310546874,-0.1169586181640625,0.846893310546875,-0.1396026611328125
1686428469615589000,10.124589111328126,-0.1048431396484375,0.885894775390625,-0.1752166748046875
1686428469625535200,10.13453515625,-0.0990447998046875,0.94091796875,-0.194610595703125
1686428469635480000,10.14447998046875,-0.088348388671875,0.99835205078125,-0.19903564453125
1686428469645426200,10.15442626953125,-0.085052490234375,1.0238189697265625,-0.197021484375
1686428469655372000,10.1643720703125,-0.083251953125,1.0067291259765625,-0.1967926025390625
1686428469665318100,10.174318115234374,-0.093353271484375,0.9588775634765625,-0.15924072265625
1686428469675264000,10.184263916015626,-0.0881500244140625,0.8952484130859375,-0.1783905029296875
1686428469685209300,10.194209228515625,-0.0779876708984375,0.8325653076171875,-0.1731414794921875
1686428469695155200,10.2041552734375,-0.0919036865234375,0.7993316650390625,-0.1086883544921875
1686428469705101300,10.214101318359376,-0.1160125732421875,0.787506103515625,-0.0644683837890625
1686428469715047200,10.224047119140625,-0.15106201171875,0.7869873046875,-0.025299072265625
1686428469724993300,10.2339931640625,-0.178253173828125,0.82281494140625,0.010223388671875
1686428469734938000,10.243938232421876,-0.1716156005859375,0.8720245361328125,0.06134033203125
1686428469744884200,10.25388427734375,-0.150665283203125,0.905975341796875,0.1077423095703125
1686428469754830000,10.263830078125,-0.1279296875,0.9191436767578125,0.1301727294921875
1686428469764776200,10.273776123046876,-0.0943603515625,0.906707763671875,0.1402435302734375
1686428469774721000,10.283720947265625,-0.0591888427734375,0.872772216796875,0.1339569091796875
1686428469784667100,10.293667236328124,-0.03900146484375,0.816925048828125,0.1149444580078125
1686428469794613200,10.30361328125,-0.0331573486328125,0.758056640625,0.0848236083984375
1686428469804559000,10.31355908203125,-0.0587310791015625,0.70672607421875,0.0694427490234375
1686428469814505200,10.323505126953124,-0.0956878662109375,0.6796722412109375,0.0485687255859375
1686428469824450300,10.3334501953125,-0.12274169921875,0.6602325439453125,0.05035400390625
1686428469834396200,10.343396240234375,-0.1514892578125,0.6517181396484375,0.06103515625
1686428469844342300,10.35334228515625,-0.171630859375,0.659820556640625,0.0590362548828125
1686428469854288100,10.3632880859375,-0.1829833984375,0.69122314453125,0.0397186279296875
1686428469864233200,10.373233154296875,-0.1898193359375,0.74639892578125,0.0128326416015625
1686428469874179000,10.383178955078124,-0.190216064453125,0.8126678466796875,-0.0180511474609375
1686428469884125200,10.393125244140625,-0.19000244140625,0.87921142578125,-0.052093505859375
1686428469894071000,10.403071044921875,-0.1960296630859375,0.937164306640625,-0.090728759765625
1686428469904017200,10.41301708984375,-0.2092437744140625,0.969451904296875,-0.1351165771484375
1686428469913962200,10.422962158203125,-0.21697998046875,0.979034423828125,-0.1675262451171875
1686428469923908400,10.432908447265625,-0.21478271484375,0.9822998046875,-0.1772613525390625
1686428469933854200,10.442854248046874,-0.2291412353515625,0.9892425537109375,-0.1606292724609375
1686428469943800300,10.45280029296875,-0.2493133544921875,1.000518798828125,-0.1142425537109375
1686428469953745200,10.4627451171875,-0.2588043212890625,1.0013427734375,-0.06146240234375
1686428469963691300,10.472691162109374,-0.2604217529296875,0.996673583984375,-0.02032470703125
1686428469973637000,10.48263720703125,-0.2545928955078125,1.0009918212890625,0.0114288330078125
1686428469983583200,10.492583251953125,-0.2742156982421875,1.026763916015625,0.05194091796875
1686428469993529300,10.502529296875,-0.296722412109375,1.065521240234375,0.0722808837890625
1686428470003474200,10.51247412109375,-0.2997589111328125,1.1142578125,0.058197021484375
1686428470013420000,10.522419921875,-0.269378662109375,1.183990478515625,0.0130157470703125
1686428470023366100,10.5323662109375,-0.2279205322265625,1.2612457275390625,-0.05096435546875
1686428470033312300,10.542312255859375,-0.1993255615234375,1.326080322265625,-0.1157073974609375
1686428470043258000,10.552258056640625,-0.17303466796875,1.3860015869140625,-0.187103271484375
1686428470053203200,10.562203125,-0.1353759765625,1.44256591796875,-0.2548828125
1686428470063149300,10.5721494140625,-0.0972137451171875,1.4901275634765625,-0.288604736328125
1686428470073095200,10.58209521484375,-0.0831298828125,1.529388427734375,-0.28802490234375
1686428470083041300,10.592041259765624,-0.094146728515625,1.5309906005859375,-0.286041259765625
1686428470092986000,10.601986083984375,-0.1370697021484375,1.520904541015625,-0.262359619140625
1686428470102932200,10.61193212890625,-0.1578521728515625,1.5015411376953125,-0.24261474609375
1686428470112878000,10.621878173828126,-0.14910888671875,1.4627227783203125,-0.2296905517578125
1686428470122824200,10.63182421875,-0.106048583984375,1.4161834716796875,-0.1913299560546875
1686428470132770300,10.641770263671875,-0.0567169189453125,1.3443145751953125,-0.1413116455078125
1686428470142715100,10.651715087890626,-0.00982666015625,1.2489013671875,-0.0970001220703125
1686428470152661000,10.661660888671875,0.026214599609375,1.1700286865234375,-0.047332763671875
1686428470162607000,10.671607177734375,0.06451416015625,1.112213134765625,-0.0076751708984375
1686428470172552400,10.681552490234376,0.1043853759765625,1.0625152587890625,0.00341796875
1686428470182497300,10.691497314453125,0.1363525390625,1.0075836181640625,-0.00048828125
1686428470192443400,10.701443359375,0.1523895263671875,0.9564666748046875,-0.0169219970703125
1686428470202389200,10.71138916015625,0.1604461669921875,0.9061279296875,-0.0338134765625
1686428470212335400,10.72133544921875,0.1485748291015625,0.8531646728515625,-0.0595550537109375
1686428470222281200,10.73128125,0.1179351806640625,0.8078765869140625,-0.073333740234375
1686428470232226300,10.741226318359375,0.0987701416015625,0.7731781005859375,-0.0655059814453125
1686428470242172200,10.751172119140625,0.08148193359375,0.7625732421875,-0.048919677734375
1686428470252118300,10.7611181640625,0.0676422119140625,0.757965087890625,-0.02606201171875
1686428470262064000,10.771064208984376,0.0626983642578125,0.76666259765625,0.0001068115234375
1686428470272010200,10.78101025390625,0.025543212890625,0.805816650390625,0.035797119140625
1686428470281955300,10.790955322265624,-0.0068817138671875,0.8941650390625,0.0453948974609375
1686428470291901400,10.8009013671875,0.00384521484375,0.98095703125,0.0352630615234375
1686428470301847300,10.810847412109375,0.0214996337890625,1.0037078857421875,0.0379638671875
1686428470311793400,10.82079345703125,0.057037353515625,0.965667724609375,0.0374908447265625
1686428470321738200,10.83073828125,0.0968170166015625,0.8882598876953125,0.0215911865234375
1686428470331684400,10.840684326171875,0.11639404296875,0.8352203369140625,-0.00482177734375
1686428470341630200,10.850630126953124,0.11383056640625,0.805206298828125,-0.033477783203125
1686428470351576300,10.860576416015626,0.0941619873046875,0.8120269775390625,-0.060455322265625
1686428470361522400,10.8705224609375,0.0550079345703125,0.8376617431640625,-0.080047607421875
1686428470371467300,10.88046728515625,-0.001953125,0.8417510986328125,-0.091552734375
1686428470381413000,10.8904130859375,-0.0523223876953125,0.8153839111328125,-0.1021270751953125
1686428470391359200,10.900359130859375,-0.0822906494140625,0.7681732177734375,-0.1139373779296875
1686428470401305300,10.910305419921874,-0.09320068359375,0.71624755859375,-0.125244140625
1686428470411251200,10.920251220703125,-0.0870819091796875,0.6694488525390625,-0.1262359619140625
1686428470421196300,10.9301962890625,-0.0878448486328125,0.6363372802734375,-0.1065673828125
1686428470431142400,10.940142333984374,-0.1016845703125,0.6192474365234375,-0.05755615234375
1686428470441088500,10.950088623046875,-0.1336517333984375,0.630401611328125,0.0146331787109375
1686428470451034400,10.960034423828125,-0.1801605224609375,0.6747283935546875,0.0956878662109375
1686428470460979200,10.969979248046876,-0.2356414794921875,0.729339599609375,0.1608734130859375
1686428470470925300,10.97992529296875,-0.2587432861328125,0.8035125732421875,0.2176666259765625
1686428470480871400,10.989871337890625,-0.25054931640625,0.886260986328125,0.268096923828125
1686428470490817300,10.9998173828125,-0.2283172607421875,0.96026611328125,0.2982177734375
1686428470500763400,11.009763427734375,-0.207366943359375,0.99737548828125,0.299896240234375
1686428470510708200,11.019708251953125,-0.195587158203125,0.9866485595703125,0.283843994140625
1686428470520654300,11.029654296875,-0.1998748779296875,0.97137451171875,0.257049560546875
1686428470530600200,11.03960009765625,-0.24591064453125,0.9537811279296875,0.213043212890625
1686428470540546300,11.04954638671875,-0.3224029541015625,0.9090576171875,0.1549835205078125
1686428470550492200,11.0594921875,-0.3570404052734375,0.8990478515625,0.1190948486328125
1686428470560437500,11.0694375,-0.3793487548828125,0.8890228271484375,0.097381591796875
1686428470570383400,11.07938330078125,-0.401947021484375,0.859344482421875,0.102874755859375
1686428470580329500,11.08932958984375,-0.4149169921875,0.826873779296875,0.1327362060546875
1686428470590275300,11.099275390625,-0.414581298828125,0.81317138671875,0.1701507568359375
1686428470600220400,11.109220458984375,-0.411346435546875,0.830902099609375,0.2006683349609375
1686428470610166300,11.119166259765626,-0.4080047607421875,0.882476806640625,0.23162841796875
1686428470620112400,11.1291123046875,-0.4066925048828125,0.958892822265625,0.2810211181640625
1686428470630058200,11.139058349609375,-0.401763916015625,1.0442047119140625,0.3520660400390625
1686428470640004400,11.14900439453125,-0.3676605224609375,1.146636962890625,0.4415740966796875
1686428470649949400,11.158949462890625,-0.3233184814453125,1.3214111328125,0.543975830078125
1686428470659895300,11.168895263671875,-0.331634521484375,1.564727783203125,0.6478118896484375
1686428470669841400,11.17884130859375,-0.41473388671875,1.7820281982421875,0.7309722900390625
1686428470679787500,11.18878759765625,-0.3997955322265625,1.852783203125,0.6951904296875
1686428470689733400,11.1987333984375,-0.205780029296875,1.76312255859375,0.4706878662109375
1686428470699678500,11.208678466796876,-0.061737060546875,1.55780029296875,0.122802734375
1686428470709624300,11.218624267578125,-0.103729248046875,1.3166351318359375,-0.113677978515625
1686428470719570400,11.2285703125,-0.21551513671875,1.142791748046875,-0.1146392822265625
1686428470729516300,11.238516357421876,-0.29083251953125,1.0489501953125,-0.02484130859375
1686428470739462400,11.24846240234375,-0.31988525390625,1.0046234130859375,0.03131103515625
1686428470749407200,11.2584072265625,-0.286285400390625,0.97503662109375,0.0555572509765625
1686428470759353300,11.268353271484376,-0.2083587646484375,0.938751220703125,0.0663604736328125
1686428470769299200,11.27829931640625,-0.153411865234375,0.8907928466796875,0.067413330078125
1686428470779245300,11.288245361328125,-0.15289306640625,0.83990478515625,0.0534210205078125
1686428470789190400,11.2981904296875,-0.1611480712890625,0.7916107177734375,0.020751953125
1686428470799136500,11.308136474609375,-0.132110595703125,0.7561798095703125,-0.02850341796875
1686428470809082400,11.318082275390625,-0.088104248046875,0.744293212890625,-0.08673095703125
1686428470819028500,11.328028564453126,-0.063446044921875,0.77197265625,-0.1480865478515625
1686428470828974300,11.337974365234375,-0.0691070556640625,0.837005615234375,-0.1944732666015625
1686428470838919400,11.34791943359375,-0.083709716796875,0.9111785888671875,-0.21697998046875
1686428470848865300,11.357865234375,-0.103179931640625,0.968841552734375,-0.2180328369140625
1686428470858811400,11.367811279296875,-0.1135101318359375,0.9983062744140625,-0.2018280029296875
1686428470868757200,11.37775732421875,-0.1088714599609375,0.9910736083984375,-0.1794891357421875
1686428470878703400,11.387703369140626,-0.1050872802734375,0.948150634765625,-0.1466064453125
1686428470888648200,11.397648193359375,-0.111602783203125,0.893890380859375,-0.112823486328125
1686428470898594300,11.40759423828125,-0.1236572265625,0.846282958984375,-0.0869140625
1686428470908540200,11.4175400390625,-0.1468048095703125,0.8076324462890625,-0.0438079833984375
1686428470918486300,11.427486328125,-0.1658172607421875,0.789306640625,-0.003204345703125
1686428470928431400,11.437431396484374,-0.183868408203125,0.7933502197265625,0.01690673828125
1686428470938377500,11.44737744140625,-0.1934661865234375,0.811279296875,0.022674560546875
1686428470948323300,11.4573232421875,-0.202911376953125,0.8463287353515625,0.0464019775390625
1686428470958269400,11.46726953125,-0.1890716552734375,0.868560791015625,0.0749664306640625
1686428470968215300,11.47721533203125,-0.1497955322265625,0.8780975341796875,0.094482421875
1686428470978160400,11.487160400390625,-0.0973663330078125,0.8679351806640625,0.087249755859375
1686428470988106200,11.497106201171874,-0.039093017578125,0.8517303466796875,0.0654144287109375
1686428470998052400,11.50705224609375,0.00048828125,0.8312225341796875,0.04205322265625
1686428471007998200,11.516998291015625,0.0052032470703125,0.805145263671875,0.0241546630859375
1686428471017944300,11.5269443359375,-0.018463134765625,0.782440185546875,0.0145263671875
1686428471027889200,11.53688916015625,-0.0469818115234375,0.7639617919921875,0.0104217529296875
1686428471037835300,11.546835205078125,-0.0764923095703125,0.7456207275390625,0.004425048828125
1686428471047781000,11.556781005859374,-0.106109619140625,0.7307281494140625,-0.0018157958984375
1686428471057727200,11.566727294921876,-0.126190185546875,0.7343902587890625,-0.00616455078125
1686428471067673300,11.57667333984375,-0.1518402099609375,0.7576141357421875,-0.0084228515625
1686428471077618400,11.586618408203124,-0.177978515625,0.7965850830078125,-0.0110015869140625
1686428471087564300,11.596564208984375,-0.180877685546875,0.83966064453125,-0.0164642333984375
1686428471097510400,11.606510498046875,-0.1702423095703125,0.8707427978515625,-0.025634765625
1686428471107456500,11.61645654296875,-0.160430908203125,0.8940887451171875,-0.0411376953125
1686428471117401300,11.6264013671875,-0.1589202880859375,0.9150543212890625,-0.045135498046875
1686428471127347200,11.63634716796875,-0.1692047119140625,0.9403533935546875,-0.0374755859375
1686428471137293300,11.646293212890624,-0.16796875,0.971038818359375,-0.023651123046875
1686428471147239200,11.6562392578125,-0.1745452880859375,1.0008697509765625,0.00128173828125
1686428471157185300,11.666185302734375,-0.17193603515625,1.0244598388671875,0.01788330078125
1686428471167130000,11.676130126953124,-0.162353515625,1.0341033935546875,0.02703857421875
1686428471177076500,11.686076416015625,-0.1679229736328125,1.031707763671875,0.03692626953125
1686428471187022600,11.696022705078125,-0.1923675537109375,1.0205841064453125,0.050689697265625
1686428471196968400,11.705968505859374,-0.22210693359375,0.9996795654296875,0.067596435546875
1686428471206914600,11.71591455078125,-0.260040283203125,0.9755401611328125,0.075225830078125
1686428471216859600,11.725859619140625,-0.3003082275390625,0.965606689453125,0.0726165771484375
1686428471226805800,11.7358056640625,-0.322540283203125,0.97674560546875,0.065704345703125
1686428471236751600,11.745751708984375,-0.33099365234375,1.00213623046875,0.062896728515625
1686428471246697700,11.75569775390625,-0.32183837890625,1.04388427734375,0.0533447265625
1686428471256643600,11.7656435546875,-0.292694091796875,1.10418701171875,0.034759521484375
1686428471266588700,11.775588623046875,-0.263397216796875,1.188690185546875,0.0189056396484375
1686428471276534500,11.785534423828125,-0.233367919921875,1.2673492431640625,-0.016021728515625
1686428471286480600,11.795480712890624,-0.1790008544921875,1.3336181640625,-0.0780029296875
1686428471296426500,11.805426513671875,-0.116729736328125,1.391876220703125,-0.1501007080078125
1686428471306372600,11.81537255859375,-0.0840606689453125,1.4136810302734375,-0.2136993408203125
1686428471316317400,11.8253173828125,-0.0825958251953125,1.3951416015625,-0.2522125244140625
1686428471326263600,11.835263671875,-0.082672119140625,1.3596649169921875,-0.2685394287109375
1686428471336209400,11.84520947265625,-0.0922698974609375,1.3516693115234375,-0.267333984375
1686428471346155500,11.855155517578124,-0.103790283203125,1.3850860595703125,-0.2595062255859375
1686428471356100600,11.8651005859375,-0.1326446533203125,1.4401702880859375,-0.2421417236328125
1686428471366046700,11.875046630859375,-0.1285858154296875,1.486541748046875,-0.218017578125
1686428471375992600,11.88499267578125,-0.0860443115234375,1.5193939208984375,-0.17620849609375
1686428471385938700,11.894938720703125,-0.0038604736328125,1.505615234375,-0.1444854736328125
1686428471395884500,11.904884521484375,0.08660888671875,1.4137420654296875,-0.1521759033203125
1686428471405829600,11.91482958984375,0.13726806640625,1.28424072265625,-0.1525115966796875
1686428471415775500,11.924775390625,0.143646240234375,1.1905517578125,-0.1084442138671875
1686428471425721600,11.9347216796875,0.117950439453125,1.1172332763671875,-0.0713653564453125
1686428471435667500,11.94466748046875,0.0704803466796875,1.0497589111328125,-0.05902099609375
1686428471445613600,11.954613525390625,0.01885986328125,0.98541259765625,-0.0384063720703125
1686428471455558700,11.96455859375,-0.01861572265625,0.8843231201171875,-0.0069122314453125
1686428471465504800,11.9745048828125,-0.0678253173828125,0.7837371826171875,0.0368194580078125
1686428471475450600,11.98445068359375,-0.090484619140625,0.6970367431640625,0.0494232177734375
1686428471485396700,11.994396728515625,-0.0895843505859375,0.6511383056640625,0.0301666259765625
1686428471495342600,12.004342529296874,-0.069183349609375,0.6464080810546875,0.0173492431640625
1686428471505287700,12.01428759765625,-0.03289794921875,0.67401123046875,0.0122833251953125
1686428471515233500,12.024233642578125,0.0113983154296875,0.721160888671875,0.01800537109375
1686428471525179600,12.0341796875,0.05621337890625,0.7758636474609375,0.0384368896484375
1686428471535125500,12.04412548828125,0.088592529296875,0.8360443115234375,0.058837890625
1686428471545071600,12.054071533203125,0.0828704833984375,0.899078369140625,0.07958984375
1686428471555016400,12.064016357421876,0.0818328857421875,0.97430419921875,0.0813446044921875
1686428471564962600,12.073962646484375,0.0919647216796875,1.0163726806640625,0.0583953857421875
1686428471574908400,12.083908447265625,0.094329833984375,1.024078369140625,0.0274505615234375
1686428471584854500,12.0938544921875,0.0872039794921875,0.993743896484375,0.023956298828125
1686428471594800400,12.10380029296875,0.0747222900390625,0.94683837890625,0.0031280517578125
1686428471604745700,12.113745849609375,0.0585479736328125,0.9217376708984375,-0.02691650390625
1686428471614691600,12.123691650390626,0.0370330810546875,0.9123992919921875,-0.0560302734375
1686428471624637700,12.1336376953125,0.0096435546875,0.9099884033203125,-0.05169677734375
1686428471634583600,12.14358349609375,-0.014434814453125,0.90057373046875,-0.03997802734375
1686428471644529700,12.15352978515625,-0.0332183837890625,0.869964599609375,-0.039398193359375
1686428471654474500,12.163474609375,-0.0500335693359375,0.8223114013671875,-0.0427093505859375
1686428471664420600,12.173420654296875,-0.0693206787109375,0.770782470703125,-0.042877197265625
1686428471674366500,12.183366455078126,-0.0875244140625,0.7234649658203125,-0.039337158203125
1686428471684312600,12.1933125,-0.104217529296875,0.6855926513671875,-0.0348052978515625
1686428471694258700,12.2032587890625,-0.1251373291015625,0.665771484375,-0.02532958984375
1686428471704203500,12.21320361328125,-0.1504669189453125,0.6660308837890625,-0.0023651123046875
1686428471714149400,12.2231494140625,-0.1703643798828125,0.6841888427734375,0.0326080322265625
1686428471724095500,12.233095458984375,-0.1826629638671875,0.71136474609375,0.0730133056640625
1686428471734041600,12.24304150390625,-0.192626953125,0.755950927734375,0.1179962158203125
1686428471743987500,12.252987548828125,-0.204681396484375,0.8152313232421875,0.15606689453125
1686428471753932500,12.2629326171875,-0.2212066650390625,0.869476318359375,0.1868133544921875
1686428471763878700,12.272878662109376,-0.232391357421875,0.9123992919921875,0.2090606689453125
1686428471773824800,12.28282470703125,-0.2294158935546875,0.9618682861328125,0.218353271484375
1686428471783770600,12.2927705078125,-0.226715087890625,1.0074615478515625,0.208587646484375
1686428471793716700,12.302716796875,-0.2427978515625,1.0152587890625,0.1837005615234375
1686428471803661600,12.31266162109375,-0.2645721435546875,1.0050201416015625,0.1680908203125
1686428471813607700,12.322607666015625,-0.3053741455078125,0.98626708984375,0.15045166015625
1686428471823553500,12.332553466796876,-0.3502960205078125,0.947479248046875,0.13470458984375
1686428471833499600,12.342499755859375,-0.381988525390625,0.9304046630859375,0.1321258544921875
1686428471843445500,12.352445556640625,-0.4160003662109375,0.9088897705078125,0.143157958984375
1686428471853390600,12.362390625,-0.4376068115234375,0.880889892578125,0.1676177978515625
1686428471863336400,12.37233642578125,-0.445068359375,0.8558349609375,0.191375732421875
1686428471873282600,12.382282470703124,-0.444122314453125,0.863983154296875,0.2191162109375
1686428471883228400,12.392228515625,-0.4582672119140625,0.893829345703125,0.2486114501953125
1686428471893174500,12.402174560546875,-0.4698486328125,0.92742919921875,0.281463623046875
1686428471903119600,12.41211962890625,-0.4752655029296875,0.957763671875,0.33465576171875
1686428471913065700,12.422065673828126,-0.45379638671875,0.999542236328125,0.4162139892578125
1686428471923011600,12.432011474609375,-0.3831329345703125,1.1319580078125,0.5024261474609375
1686428471932957700,12.441957763671875,-0.3521881103515625,1.40936279296875,0.5596923828125
1686428471942903600,12.451903564453126,-0.4535369873046875,1.7073822021484375,0.627838134765625
1686428471952848600,12.4618486328125,-0.4366607666015625,1.8520355224609375,0.639129638671875
1686428471962794500,12.47179443359375,-0.2129974365234375,1.7942047119140625,0.479827880859375
1686428471972740600,12.48174072265625,-0.0272064208984375,1.5618743896484375,0.1526336669921875
1686428471982686500,12.4916865234375,-0.0294036865234375,1.2777557373046875,-0.142364501953125
1686428471992631600,12.501631591796874,-0.13507080078125,1.10382080078125,-0.198150634765625
1686428472002577700,12.51157763671875,-0.269744873046875,1.0429840087890625,-0.13543701171875
1686428472012523800,12.521523681640625,-0.325439453125,1.024139404296875,-0.0899505615234375
1686428472022469600,12.5314697265625,-0.265380859375,0.9870452880859375,-0.04412841796875
1686428472032415700,12.541415771484376,-0.205596923828125,0.93988037109375,0.0080108642578125
1686428472042361600,12.551361572265625,-0.17327880859375,0.8885650634765625,0.04229736328125
1686428472052306700,12.561306640625,-0.161590576171875,0.8382720947265625,0.0475006103515625
1686428472062252500,12.57125244140625,-0.1442718505859375,0.7998809814453125,0.0240631103515625
1686428472072198700,12.58119873046875,-0.111419677734375,0.7849884033203125,-0.0208282470703125
1686428472082144500,12.59114453125,-0.088287353515625,0.7988128662109375,-0.0707855224609375
1686428472092089600,12.601089599609375,-0.0749359130859375,0.850738525390625,-0.11395263671875
1686428472102035500,12.611035400390625,-0.0618438720703125,0.9344482421875,-0.146392822265625
1686428472111981600,12.620981689453124,-0.0624847412109375,1.023345947265625,-0.1649932861328125
1686428472121927400,12.630927490234376,-0.0617218017578125,1.0908203125,-0.171661376953125
1686428472131873500,12.64087353515625,-0.060150146484375,1.1194915771484375,-0.166229248046875
1686428472141819400,12.6508193359375,-0.0624542236328125,1.0933837890625,-0.15545654296875
1686428472151764700,12.6607646484375,-0.0765533447265625,1.015106201171875,-0.1517486572265625
1686428472161710600,12.670710693359375,-0.0968780517578125,0.920867919921875,-0.1378173828125
1686428472171656700,12.68065673828125,-0.1184539794921875,0.8419952392578125,-0.103515625
1686428472181603000,12.69060302734375,-0.1482086181640625,0.7923126220703125,-0.067535400390625
1686428472191548000,12.7005478515625,-0.1687774658203125,0.7719879150390625,-0.054656982421875
1686428472201494000,12.710493896484374,-0.1936492919921875,0.78265380859375,-0.0292205810546875
1686428472211439900,12.72043994140625,-0.2119903564453125,0.80126953125,0.0027923583984375
1686428472221386000,12.730385986328125,-0.199798583984375,0.820831298828125,0.0316009521484375
1686428472231332000,12.74033203125,-0.1706695556640625,0.8455657958984375,0.06561279296875
1686428472241277000,12.75027685546875,-0.119171142578125,0.859893798828125,0.0868988037109375
1686428472251222800,12.760222900390625,-0.0662384033203125,0.864654541015625,0.091552734375
1686428472261169000,12.7701689453125,-0.0255889892578125,0.856292724609375,0.0754241943359375
1686428472271115000,12.780114990234376,-0.0015411376953125,0.8414764404296875,0.0460357666015625
1686428472281060900,12.790060791015625,0.006927490234375,0.8173828125,0.02105712890625
1686428472291006000,12.800005859375,0.0040740966796875,0.7863922119140625,0.0043487548828125
1686428472300952000,12.8099521484375,-0.008148193359375,0.7453765869140625,-0.011077880859375
1686428472310898200,12.819898193359375,-0.0302734375,0.6998748779296875,-0.023956298828125
1686428472320844000,12.829843994140624,-0.05908203125,0.6741790771484375,-0.042633056640625
1686428472330790100,12.8397900390625,-0.1119232177734375,0.652923583984375,-0.0468292236328125
1686428472340735000,12.84973486328125,-0.152252197265625,0.6536865234375,-0.051361083984375
1686428472350681000,12.85968115234375,-0.162506103515625,0.68408203125,-0.061614990234375
1686428472360627000,12.869626953125,-0.1665496826171875,0.730194091796875,-0.06842041015625
1686428472370573000,12.879572998046875,-0.166473388671875,0.7876434326171875,-0.080718994140625
1686428472380519000,12.889518798828124,-0.16778564453125,0.8564605712890625,-0.095367431640625
1686428472390464000,12.899464111328125,-0.170440673828125,0.92138671875,-0.10150146484375
1686428472400409900,12.909409912109375,-0.1539306640625,0.9711456298828125,-0.096527099609375
1686428472410356000,12.91935595703125,-0.1183319091796875,0.994171142578125,-0.0899810791015625
1686428472420301800,12.9293017578125,-0.0970001220703125,0.988189697265625,-0.0788421630859375
1686428472430248000,12.939248046875,-0.114898681640625,0.9726409912109375,-0.06524658203125
1686428472440193800,12.94919384765625,-0.1482086181640625,0.96484375,-0.044525146484375
1686428472450139100,12.95913916015625,-0.1783599853515625,0.97381591796875,-0.0195465087890625
1686428472460085000,12.9690849609375,-0.214385986328125,0.994049072265625,0.005889892578125
1686428472470031000,12.979031005859374,-0.2378692626953125,1.0110626220703125,0.0314788818359375
1686428472479977000,12.98897705078125,-0.2537384033203125,1.0276641845703125,0.0478668212890625
