time,seconds_elapsed,z,y,x
1686428459600216800,0.109216796875,2.795761768630147,2.204071302488446,0.8905221676774322
1686428459610163000,0.119162841796875,3.0143846458107233,2.1261691476404665,1.3313666771829127
1686428459620108800,0.12910888671875,3.1234628601670265,2.1780630010068416,1.293674367648363
1686428459630054000,0.139053955078125,3.1778117054700847,2.3981956982284784,1.1874642560742794
1686428459639999700,0.148999755859375,3.219479932898283,2.587925073879957,1.0674848546057938
1686428459649945900,0.15894580078125,3.153941585060954,2.7211493029773233,1.0634425934776663
1686428459659892000,0.16889208984375,3.0410645629435775,3.0048300510019064,1.6478556159622966
1686428459669837000,0.178837158203125,2.988741085988283,3.295417509675026,2.2292110044419764
1686428459679783000,0.188782958984375,2.801959454226494,2.694173033246398,2.147474093736708
1686428459689729000,0.19872900390625,2.1331460009157657,1.9126468084692954,1.4661743760794401
1686428459699673900,0.208673828125,1.9041642268061636,3.396023079240322,0.7879115419000386
1686428459709620000,0.218619873046875,1.954943981450796,2.918577708698809,1.9364201905056833
1686428459719565800,0.22856591796875,2.275613274654746,1.5221642665877937,2.317618478952348
1686428459729512000,0.238511962890625,2.476711016538739,0.42535307199358935,0.909760975024104
1686428459739456800,0.248456787109375,2.553357618367672,-0.8391422551825642,-0.458396094417572
1686428459749403000,0.25840283203125,2.758463426849246,-1.2808502496495842,-0.9036647039756178
1686428459759349000,0.268348876953125,2.558711254355311,-0.4540452057316899,-0.6445695311531424
1686428459769295000,0.278295166015625,2.1373089658141136,0.8683663038402796,0.1834957419589162
1686428459779240000,0.288239990234375,1.4263655127823351,1.8970310139253734,1.1203291405647993
1686428459789186000,0.29818603515625,0.6053600950539112,2.5520824838653207,1.6633318559050558
1686428459799132000,0.3081318359375,0.058284431186318396,3.1871631789222357,2.062262492658198
1686428459809077000,0.318076904296875,-0.053882396835088726,4.038248385354876,2.349967381632328
1686428459819022800,0.32802294921875,0.04473170665204525,4.754983281269669,1.845924803805351
1686428459828969000,0.337968994140625,0.04284954616725445,4.938865684458613,0.5334107111304998
1686428459838914800,0.347914794921875,-0.4119587528914213,4.522484731210768,-0.5415776509732008
1686428459848860000,0.35785986328125,-0.7636667429596186,3.583316167655587,-1.08345691524148
1686428459858806000,0.367805908203125,-1.0803285540878773,3.0389500550076365,-0.8558435068756342
1686428459868752100,0.377752197265625,-1.3588912284463643,3.3643189042046666,-0.3225561298638582
1686428459878698000,0.387697998046875,-1.552763110730052,4.162672052881121,-0.2809329106211662
1686428459888643000,0.39764306640625,-1.879588588476181,4.602109472067654,-0.7334487148284912
1686428459898589000,0.4075888671875,-2.4403204372525216,4.190014817836881,-1.3201093701094389
1686428459908535000,0.41753515625,-2.699812208177149,3.83011563026756,-1.6465870573312043
1686428459918480000,0.42747998046875,-2.2732316402152177,3.8349247841149565,-1.4023849177360534
1686428459928426000,0.437426025390625,-1.3578037254706024,4.145403522694111,-0.9588497078418731
1686428459938371800,0.447371826171875,-0.5544539375506341,4.43558064700067,-0.8245674941241741
1686428459948318000,0.45731787109375,0.03450052775591612,4.264488167279959,-0.43085693010687826
1686428459958263000,0.467262939453125,-0.09597571780756116,3.877953193980455,0.33247079015672204
1686428459968209200,0.477209228515625,-1.173656753061339,3.3721830617085096,1.3208522974312304
1686428459978155000,0.487155029296875,-2.606052851244807,2.6953242491081357,2.5162574295073745
1686428459988101000,0.49710107421875,-3.847151228481531,2.013696760801226,3.5719478014230726
1686428459998046000,0.5070458984375,-4.304308721014857,1.8635840868756175,4.215133477002382
1686428460007992000,0.516991943359375,-4.059419183677434,2.3383488400310277,4.248831748464704
1686428460017938000,0.52693798828125,-3.836309516471624,2.6229732986465093,3.8577655614763495
1686428460027883000,0.536883056640625,-3.8673675025582313,2.3802672428280114,3.2867005347341296
1686428460037828900,0.546828857421875,-4.2230514105200765,2.0977055619612335,2.836360905522108
1686428460047775000,0.55677490234375,-4.698531910729408,1.8384329867452383,2.8932758019208906
1686428460057720800,0.566720947265625,-5.291123709625006,1.4187094450712203,3.8174534248322245
1686428460067666200,0.576666259765625,-6.019544367158413,1.163176348644495,5.140220615974068
1686428460077612000,0.586612060546875,-6.571340045285225,1.1568261028349398,6.234677064135671
1686428460087558100,0.59655810546875,-6.934641442513465,0.9762544316291808,7.1921005385667085
1686428460097503000,0.6065029296875,-7.032827091455459,0.6811252378731966,7.657931166899203
1686428460107449000,0.616448974609375,-6.758694508498906,0.22404022605419158,7.623720269739628
1686428460117395000,0.62639501953125,-6.162050803864002,-0.20716098744571207,7.408788648292422
1686428460127341000,0.636341064453125,-5.203621367260814,-0.630164865964651,7.41569126728773
1686428460137286000,0.646285888671875,-3.5500136175125836,-1.3387673088282346,8.090445216563344
1686428460147232000,0.65623193359375,-1.7461089233130216,-1.8676403765290974,9.019155806729197
1686428460157177900,0.666177734375,0.08704290815889835,-2.170320424056053,9.66451765730381
1686428460167124000,0.6761240234375,1.420491067790985,-1.9452151991188524,9.994237102925776
1686428460177069300,0.6860693359375,2.1266858649909497,-1.553803559693694,10.043175613617896
1686428460187015200,0.69601513671875,2.190925405189395,-1.524672157755494,9.643561963036657
1686428460196961300,0.705961181640625,1.9733609510205685,-1.3221663026392458,8.747618500962853
1686428460206906000,0.715906005859375,1.3364746678464114,-0.9953297189772129,7.7713681609869
1686428460216852200,0.725852294921875,0.171821086256206,-0.46093291941881176,6.670803459078073
1686428460226798000,0.735798095703125,-1.2914274655044078,0.22094752073585985,6.102087041288614
1686428460236744200,0.745744140625,-3.4600688504323363,1.485202901676297,5.387404401728511
1686428460246689000,0.75568896484375,0.728385586220026,1.0846703826844692,4.735731468310952
1686428460256635100,0.76563525390625,9.168374308294057,0.2067243495941162,4.373318836615979
1686428460266581000,0.7755810546875,5.752503788289427,0.848396698001027,3.6915196450039742
1686428460276527000,0.785527099609375,1.8638512133792042,0.5363303979694843,3.0434418134689327
1686428460286472200,0.79547216796875,-0.3009469401240349,-0.21390753909647464,2.853703669989109
1686428460296418300,0.805418212890625,-0.9603355624854564,0.06417699635624885,3.000466595095396
1686428460306364200,0.8153642578125,-1.3677628094270824,1.6311217771738766,2.9950869478836655
1686428460316310300,0.825310302734375,-1.4403192193329333,2.9295693505734204,2.0949735066488384
1686428460326255000,0.835255126953125,-2.5890298202514646,3.807812905305624,0.37964813639521594
1686428460336201200,0.845201171875,-2.7413509640067812,2.4388316599994897,-1.0769330664306878
1686428460346147000,0.85514697265625,0.5122334830671549,0.8833423391759395,0.8773518665894865
1686428460356092200,0.865092041015625,1.1562658386036753,0.7583288890630007,3.7161341540396213
1686428460366038000,0.8750380859375,0.8736319692835212,-1.1649848593711853,4.7043157548278565
1686428460375984000,0.884984130859375,0.3440186046093702,-2.052077490991354,4.69254114588201
1686428460385930000,0.894929931640625,-5.409812048369646,-0.5281675497800111,3.548124150504172
1686428460395875300,0.904875244140625,-14.519077165091037,1.6497680254548788,2.299257477353513
1686428460405821200,0.9148212890625,-1.3240166066810488,-0.21601532503068446,2.7828710151359437
1686428460415767300,0.924767333984375,9.123594670847059,-3.549018761256337,2.157585737906396
1686428460425713200,0.934713134765625,4.149532877583802,-4.72577589148581,2.17951656081602
1686428460435658200,0.944658203125,1.7752175288975238,-4.376808724558353,3.146311236312985
1686428460445604000,0.95460400390625,1.7642662190333007,-4.942077047720551,3.1927760503679514
1686428460455550200,0.96455029296875,0.7908569477021694,-3.8894448943316933,1.2515604422792792
1686428460465495000,0.9744951171875,-1.0928531046181917,-1.3564502650350332,-0.48230946944653985
1686428460475441200,0.984441162109375,0.47278877690732474,-0.4595850119411945,-1.1504739573292433
1686428460485387000,0.994386962890625,0.9001017507970333,-0.011343816313147544,-2.4347559349931776
1686428460495333000,1.0043330078125,1.8546768500596285,-0.4000140480756759,-1.7071407486237584
1686428460505278200,1.0142783203125,2.613058346092701,-1.2345821272104978,-0.5511300538249313
1686428460515224300,1.024224365234375,2.739520241448283,-1.652237045916915,0.08910875464752316
1686428460525170200,1.034170166015625,1.284223379344493,-1.0838000295907257,0.9909759076818824
1686428460535116300,1.0441162109375,1.420945387429744,-1.882865418189764,1.5487440843470395
1686428460545061000,1.05406103515625,-0.3019181232437491,-0.7331231361359357,2.3478581343933937
1686428460555007200,1.06400732421875,-1.6759584055051207,1.3821452627837658,1.4962430588677524
1686428460564953000,1.073953125,-0.7095334401033818,2.002459181341529,0.18533800882473586
1686428460574899200,1.083899169921875,-0.19266937462612985,1.2438029600203035,-0.060335810758173465
1686428460584844000,1.093843994140625,-0.4219925095193088,0.6540700576871633,-0.09912219913974404
1686428460594790100,1.1037900390625,0.11684534122645854,0.044884266865253444,-0.9389840007685124
1686428460604736000,1.113736083984375,0.7767682165950536,-0.7566203315794467,-1.484432063434273
1686428460614681000,1.12368115234375,1.4831938999414442,-1.6951105574816465,-1.703343256036937
1686428460624627200,1.133627197265625,2.4652672469824553,-2.8442706557333466,-1.8125939043506978
1686428460634573300,1.1435732421875,2.230575424662977,-4.114009436520933,-1.3627397205680607
1686428460644519200,1.153519287109375,0.5393864245392381,-4.443558201751113,-0.7622545380741358
1686428460654464000,1.163464111328125,-0.08866919418647885,-4.127075838842988,-0.36317251015156504
1686428460664410000,1.17341015625,0.32237419742569323,-3.4035680877923964,-0.043776597884297365
1686428460674356200,1.183356201171875,0.7030249349921941,-3.684567049387097,0.9807983586691319
1686428460684302000,1.193302001953125,0.13426526258289814,-3.407877183163166,2.565664434494078
1686428460694247000,1.203246826171875,-1.3931991562396286,-3.355501683759689,4.193448883938789
1686428460704193000,1.213193115234375,-4.093410300606489,-2.253537051925063,5.266276268616318
1686428460714139100,1.22313916015625,-4.926054133680463,0.3057102090030908,3.8370167879581447
1686428460724084200,1.233084228515625,-3.7202971189379688,2.482998133984208,1.185198503099382
1686428460734030000,1.243030029296875,-1.9367542447656392,2.7946692972183227,0.8951371141269803
1686428460743976200,1.25297607421875,-1.7675562004894017,1.6423925282508134,3.041680941276252
1686428460753922300,1.26292236328125,0.9365180490463971,3.893763342052698,1.5349132735237478
1686428460763867100,1.2728671875,1.7931027296781539,4.028521941110491,-1.6762439444482327
1686428460773813000,1.28281298828125,2.0530390294998884,3.737594875219464,-2.303662726575136
1686428460783759000,1.292759033203125,2.0730974826663733,3.0953754143238066,-1.614156906108558
1686428460793705200,1.302705322265625,1.6361597713410854,2.8742157121419907,-1.0297568892359732
1686428460803650000,1.312650146484375,0.5420610505759715,3.0687101102381944,-1.0053709282591938
1686428460813596000,1.322595947265625,0.29005780877582726,3.179579299664497,-1.8396353482723236
1686428460823542000,1.3325419921875,0.03676759590506554,3.0856776116520166,-2.12728149279654
1686428460833488100,1.342488037109375,-0.610701383016631,3.396908629903197,-2.0895354072481394
1686428460843433200,1.35243310546875,-1.3248551033318041,3.8953117405384776,-3.273091696098447
1686428460853379000,1.362379150390625,-1.6921066994905472,4.215477760395407,-4.989269591528177
1686428460863325200,1.3723251953125,-1.8366895040787756,3.939720791107416,-5.1618508485019206
1686428460873271300,1.382271240234375,-1.7754571828722954,3.2994314214915037,-3.9218662777259943
1686428460883216100,1.392216064453125,-0.6493770775653421,1.8755816909223795,-3.4696415654197335
1686428460893162000,1.402161865234375,-0.2528694301754236,1.1958873626351356,-2.4782304811909794
1686428460903108000,1.412108154296875,-1.6651112866677342,1.3625374759942293,-2.541552029761672
1686428460913053000,1.422052978515625,0.49758814099058507,0.20693068582117558,-2.576233467042446
1686428460922999000,1.4319990234375,3.1706641718029975,-1.8345716351419685,-0.508580659648031
1686428460932945000,1.44194482421875,-3.5413603554576634,0.5276689526081085,0.22217530896514653
1686428460942891000,1.45189111328125,-13.865045101326704,2.957722262868285,-0.6914756592348218
1686428460952836000,1.461836181640625,6.586992372447252,-0.6010989304780959,-0.6201910228304565
1686428460962782200,1.4717822265625,10.263958883702754,-5.097873758631945,-1.7100373468481003
1686428460972728000,1.48172802734375,-1.620712611362338,-2.532625795984268,0.8836892529174685
1686428460982674200,1.491674072265625,-2.237681165014952,-2.502573187547922,2.4309110961332916
1686428460992619000,1.501618896484375,-1.6570539446793495,-3.038937487787008,1.510403832297772
1686428461002565000,1.511565185546875,1.1610768921472132,-3.92589392580688,1.0489119638219475
1686428461012511000,1.521510986328125,2.7707524150580167,-5.299487048822641,1.215166282796487
1686428461022457000,1.53145703125,1.5899382645227014,-5.262391536137462,0.5704404651030898
1686428461032402000,1.54140185546875,1.1573942581117151,-5.082148950755596,-0.24578064095824956
1686428461042348000,1.55134814453125,1.8607256287045775,-5.596893539860845,-0.4544480874441564
1686428461052294000,1.5612939453125,1.2638923928469419,-5.765412369701266,-0.48365080105289815
1686428461062240000,1.571239990234375,0.8090075214207172,-5.921465101200342,-0.7854323653701692
1686428461072185000,1.58118505859375,0.6311546076543629,-5.452917030602693,-1.0862255762372166
1686428461082131200,1.591131103515625,0.4718636248864233,-4.315108931970596,-2.174535703663528
1686428461092077000,1.6010771484375,0.858402543708682,-3.780595812556147,-2.774483710540831
1686428461102022100,1.611022216796875,0.5901714398808777,-3.365205331650376,-2.80189164968729
1686428461111968000,1.620968017578125,-0.17593290548920631,-2.1594746203929183,-2.977554798324406
1686428461121914000,1.6309140625,-0.5827032959572971,-1.3460259016543625,-3.9397985325187443
1686428461131860000,1.64085986328125,-0.2766553794324398,-1.2053168697595595,-4.10508378726542
1686428461141805000,1.65080517578125,-0.12356602778360247,-1.482265679180622,-3.4803742640972137
1686428461151751200,1.660751220703125,-0.24702815680131315,-1.4105103565245867,-2.590420690087974
1686428461161697000,1.670697021484375,-0.4844165247283876,-1.025404539245367,-1.8267193142063916
1686428461171643100,1.68064306640625,-0.29076632237136363,-1.0236743544518947,-1.422052033497393
1686428461181588200,1.690588134765625,-1.209413126097247,-1.0035627097934483,-0.8551302440397441
1686428461191534000,1.7005341796875,-2.799132706367969,-0.6048761109292506,0.40390331059917806
1686428461201480200,1.710480224609375,-2.3233564380824565,0.638292642840743,1.2103868665002286
1686428461211426000,1.720426025390625,-0.9821510884523391,0.5710843159645795,1.5673364104837177
1686428461221371100,1.73037109375,-0.8512841630708425,0.48480888504683967,2.510137193061411
1686428461231317000,1.74031689453125,-0.2874479550709948,-1.5674766957372426,2.0700283043541012
1686428461241263000,1.75026318359375,-0.8665922799050807,-0.4808960955172777,2.7793665141463277
1686428461251209000,1.760208984375,-1.504393924358487,0.018933248528838157,1.9535256390854716
1686428461261154000,1.770154052734375,-0.8710919294118881,-0.09976093543469905,1.4220130166612566
1686428461271100200,1.78010009765625,-0.76489482344985,-0.14028174639344215,2.4971917867705224
1686428461281046300,1.79004638671875,-1.0270283410549164,0.5226882415860891,2.238076594073325
1686428461290991000,1.7999912109375,-0.7458312265396118,1.8689982208788394,1.8910047393731773
1686428461300937200,1.809937255859375,-1.0738578967690466,3.6824569253653285,2.5085347263008355
1686428461310883000,1.819883056640625,-0.4066343064656481,5.671328310859203,2.559310681553185
1686428461320829200,1.8298291015625,-0.19273674077391623,6.280339329636097,3.1001106261521576
1686428461330774000,1.83977392578125,-0.47129061077143997,7.159219428706169,3.6401463083803653
1686428461340720000,1.84972021484375,-0.573524694854021,8.753501129260659,2.327560611774027
1686428461350666000,1.859666015625,-0.4705705163359642,8.143995020443201,1.6273190238900481
1686428461360612000,1.869612060546875,-0.23722294823229312,6.984284302082657,1.592824341353029
1686428461370557200,1.87955712890625,-0.09204173935949801,5.689124664312601,1.9169664252340792
1686428461380503300,1.88950341796875,0.36866321652233597,4.221301351982355,1.2450326479457319
1686428461390449200,1.89944921875,1.0701397530287504,2.821769485589862,0.41031741542518135
1686428461400395300,1.909395263671875,1.5667016197115182,1.507405965656042,0.6785384362503886
1686428461410340000,1.919340087890625,2.0495546945154666,-0.32889000906050203,1.4172183297306298
1686428461420286200,1.9292861328125,1.5435902087152003,-0.9426227956622838,0.6150827399060129
1686428461430232000,1.939232177734375,0.6761059484064579,-1.214682079476118,-0.5277822767894714
1686428461440177200,1.94917724609375,-0.04619118474535644,-0.5707610753595829,-1.024618576499447
1686428461450123000,1.959123046875,-0.6815664788346737,0.3688642920523882,-1.3025196451440453
1686428461460069000,1.969069091796875,-0.9754794286686926,0.03674772216081619,-0.7282151250239461
1686428461470015000,1.979014892578125,-2.1219114901959895,0.20990531771779058,0.7440268805313855
1686428461479960300,1.988960205078125,-2.4661259096384045,-1.609516679087281,-0.3024173049375415
1686428461489906200,1.99890625,-1.759131486493349,-1.9333225167512893,-0.041546427679434415
1686428461499852300,2.008852294921875,-1.1520119805514812,-5.229705072066188,2.2185737289629874
1686428461509798100,2.018798095703125,-1.7649252674639224,-3.0398668775916096,1.4790259666070342
1686428461519743200,2.0287431640625,-0.5531950235307216,2.531010762003064,2.58674492418468
1686428461529689000,2.038689208984375,0.6148650055021048,2.206055754303932,1.8166098619937896
1686428461539635200,2.04863525390625,1.3468144216835498,1.924927028849721,0.7776401040587574
1686428461549581000,2.0585810546875,0.7084475445628166,2.404519056031108,1.838544484295696
1686428461559526100,2.068526123046875,-0.013662614649534225,1.4597615864276885,2.899830630391836
1686428461569472000,2.078471923828125,0.3477637824870646,0.5983318038523197,2.071850843606144
1686428461579418000,2.088418212890625,1.0320968764908611,2.3433044166117907,0.6284538242630661
1686428461589364000,2.098364013671875,1.1964547872595488,4.720048161488771,0.22624489649161694
1686428461599309300,2.108309326171875,2.130254663388431,5.674233969172835,-0.8238331154350191
1686428461609255200,2.118255126953125,2.33574216466397,4.180537964439392,-1.0410748404555021
1686428461619201300,2.128201171875,1.2526160888120532,0.7749310642957687,0.7987607796292752
1686428461629146000,2.13814599609375,0.4664458376213908,-0.2602121941536665,0.7219881402678787
1686428461639092200,2.14809228515625,0.38416853642910714,-2.289620757219195,-1.164659061482921
1686428461649038000,2.1580380859375,0.31446254751831293,-5.698111103844642,-3.477749176290631
1686428461658984200,2.167984130859375,0.31076544656604527,-4.601987599253654,-2.247363331726193
1686428461668929000,2.177928955078125,0.7606786670595407,-3.9511540392696856,-1.314789197999984
1686428461678875100,2.187875244140625,1.3514281990893184,-3.5489153008818626,-0.9104944769304245
1686428461688821000,2.197821044921875,0.9586166297383606,-3.4843174487650392,-0.9513143439009785
1686428461698767000,2.20776708984375,0.44567456001043315,-3.725903268381953,-0.9813616916403174
1686428461708712200,2.217712158203125,0.9999895274817943,-3.251535697850585,-0.31630379147082566
1686428461718658300,2.227658203125,0.9716095284327864,-2.748994172236323,-0.03326806335151195
1686428461728604200,2.237604248046875,1.4732337930716572,-1.735087763082981,0.6163606508873403
1686428461738550300,2.24755029296875,1.6007815839678048,-0.7427151403456926,0.8769465006589889
1686428461748495000,2.2574951171875,0.950697965568304,-0.27084114019572736,1.1607203337945042
1686428461758441200,2.267441162109375,0.622457068066299,-0.513617046380043,1.476319191866368
1686428461768387000,2.277386962890625,0.717498427633196,-1.2577461451768874,1.2541747164309025
1686428461778333200,2.287333251953125,0.5811252329856157,-1.647708754837513,0.5246715243577957
1686428461788278000,2.297278076171875,0.1721132010705769,-1.0741232697069645,0.11298077475279569
1686428461798224100,2.30722412109375,0.18155600606799124,-0.5694909092932939,0.1696780828781426
1686428461808170000,2.317169921875,0.08114742037951946,-1.0320879625320434,-0.22508388988822697
1686428461818115300,2.327115234375,0.047963528180122374,-1.0504653307437897,-1.0488068960122763
1686428461828061200,2.337061279296875,-0.048619654001295566,-1.2592881139218806,-1.365183460458368
1686428461838007300,2.34700732421875,-0.04188143178746104,-1.5812006851851939,-1.34942489644289
1686428461847953200,2.356953125,-0.037407647374272344,-1.7524352037250994,-1.5716970899112521
1686428461857898200,2.366898193359375,-0.2578492644146085,-2.186668916788697,-1.6149077244758605
1686428461867844000,2.376843994140625,-0.6335194370895624,-1.8227099324345588,-1.131841153051704
1686428461877790200,2.386790283203125,-1.2173209035471082,-0.9880483297973871,-0.7925738346226513
1686428461887736000,2.396736083984375,-1.9489945715270935,-0.4101905741751194,-0.7996284293092787
1686428461897681200,2.40668115234375,-2.475853522926569,0.21720015090107916,-0.6068358666948974
1686428461907627000,2.416626953125,-2.5383722306817766,1.4772832145929335,0.1625701505690813
1686428461917573000,2.426572998046875,-2.603967861664295,2.3688339946657417,0.9225481220133602
1686428461927519000,2.43651904296875,-2.6790654804855585,2.4973183357596396,1.4509047646246849
1686428461937464300,2.44646435546875,-2.4477678306490183,2.2752432722985745,1.738522998228669
1686428461947410200,2.45641015625,-2.3231401649832724,1.3196417525976896,1.7913843814529478
1686428461957356300,2.466356201171875,-2.4030443073034284,-1.8958575862318277,0.7881321989133954
1686428461967301000,2.476301025390625,-1.4731798709273338,-0.9509551551997661,1.3110802604794503
1686428461977247000,2.4862470703125,-0.4309598059594631,2.333596092545986,3.6452667201340194
1686428461987193000,2.496193115234375,-0.08063070302903652,3.5867227612286805,4.10385161512196
1686428461997139200,2.50613916015625,-0.47435646461546416,4.082661527577042,3.428237249624729
1686428462007084000,2.516083984375,-0.7977186501652002,4.79047252780199,2.4731629686683414
1686428462017030000,2.52602978515625,-0.5621919844567775,5.5984547978281975,0.962939899764955
1686428462026976000,2.53597607421875,0.008497194710373877,6.796348824110627,-0.5542234897956252
1686428462036922000,2.545922119140625,-0.07510770182386041,6.93937080912292,-1.3218490533836185
1686428462046867200,2.5558671875,-0.5800479591429233,5.457517802396416,-0.8361150163158774
1686428462056813000,2.56581298828125,-1.6932343883462249,3.4136271249920127,0.11238397790342569
1686428462066759200,2.57575927734375,-0.8030832459382712,2.1266659912467003,0.12351166724786161
1686428462076705300,2.585705322265625,-0.5178540994279086,0.49696167965531346,0.4849487319089472
1686428462086650000,2.595650146484375,0.6023463001906871,-0.08337269521355628,0.6794004599072039
1686428462096596000,2.605595947265625,1.5347839480556547,-0.4573813644170761,0.7123967205800116
1686428462106542000,2.6155419921875,1.8787188199043272,-0.4131085074484348,0.18734956784285603
1686428462116488200,2.62548828125,1.6837516897298395,-0.21242869871556758,-0.4839152972079813
1686428462126433000,2.63543310546875,1.2077071258969605,-0.02236556106507778,-0.7325411715295166
1686428462136379000,2.64537890625,0.6281641936667263,-0.06629939533770084,-0.9007633565109222
1686428462146325000,2.655324951171875,0.1378444362439215,-0.16401333511471747,-1.0256221275188029
1686428462156271000,2.66527099609375,0.13622165734767913,-0.27256957142353055,-1.296305885195732
1686428462166216000,2.6752158203125,0.34349706495329735,-0.2294552368402481,-1.3338264914251863
1686428462176162000,2.685162109375,0.8102771029651165,-0.3016150486439466,-1.3507212198637426
1686428462186108000,2.69510791015625,0.8949761514116078,-0.2878840449333191,-1.2966456385441123
1686428462196054000,2.705053955078125,0.47435361507125196,-0.6580161649644375,-1.2762749045580626
1686428462205998800,2.714998779296875,0.1890134094018489,-1.041566569495201,-1.5315940659731626
1686428462215945000,2.724945068359375,0.07133746257014573,-1.1724965501755475,-1.5650193657130003
1686428462225890800,2.734890869140625,-0.0433048887193203,-1.529899537014961,-1.589118764833361
1686428462235836000,2.7448359375,-0.3001969620069489,-1.8391145392686128,-1.5545695756301283
1686428462245782000,2.754781982421875,-0.8375584931224584,-2.016908562454581,-1.4375582301869987
1686428462255728000,2.76472802734375,-1.0089373885691166,-1.814514935541153,-0.8874519664518534
1686428462265674000,2.774674072265625,-0.9487649516791105,-1.523868440157175,-0.40492012295890595
1686428462275619000,2.784619140625,-0.7133055059880018,-1.1980898411154746,0.021730879890732465
1686428462285565000,2.79456494140625,-0.32202421494424344,-0.7305769587844609,0.5491210886226967
1686428462295511000,2.804510986328125,0.22243279085755346,-0.0005190554380416869,1.20730702066347
1686428462305457000,2.814456787109375,0.9850655145943165,0.8478338034212589,1.7926590775638818
1686428462315402000,2.824402099609375,1.2891647812694311,0.5955594165295363,1.603705654720962
1686428462325347800,2.834347900390625,1.0792015958845615,-1.1143658482462167,-0.37121856356095523
1686428462335294000,2.8442939453125,0.8712450741469859,-3.087563863790035,-2.222073846038431
1686428462345239800,2.85423974609375,0.5827724156707524,-4.85813444366455,-2.725497269053757
1686428462355185200,2.86418505859375,0.18587620735466479,-5.458754650714993,-1.6196790305308997
1686428462365131000,2.874131103515625,-0.3757791494747624,-5.106381474736333,-0.30542014001533385
1686428462375077000,2.8840771484375,-1.2676894470423459,-4.315200701907277,0.4452686095580458
1686428462385023000,2.89402294921875,-1.6317156514137983,-3.7843607180476186,0.16142043254468588
1686428462394968000,2.903968017578125,-1.745916031089425,-3.3946588051497932,-0.2668099849835038
1686428462404914000,2.913913818359375,-1.8668045102268456,-2.943824085897207,-0.2678448079239577
1686428462414860000,2.923860107421875,-1.7909411677300928,-2.3101532576382158,0.015373071829229592
1686428462424804900,2.933804931640625,-1.713630549034476,-1.4492811089456081,0.17701686480101197
1686428462434751000,2.9437509765625,-1.775537846893072,-0.49678281595706936,0.22231727471910415
1686428462444696800,2.95369677734375,-1.7036720495998858,0.38723113887012,0.21728983847852795
1686428462454643000,2.963642822265625,-1.4792822794556617,0.8776187008321285,0.15533285625930873
1686428462464588000,2.973588134765625,-1.2169956171154974,1.1265092905044556,0.14409122167900204
1686428462474534100,2.9835341796875,-1.539933439773321,1.1325965014636517,0.13642477870434522
1686428462484480000,2.99347998046875,-2.074363557079434,1.354578041422367,0.38624563496410846
1686428462494426000,3.003426025390625,-2.1405764431774617,1.8817858062595127,0.8509579267911612
1686428462504371000,3.013370849609375,-2.1056389853090045,2.3055735286325216,1.2683131318986416
1686428462514317000,3.023317138671875,-2.228894193577766,2.4733120217502114,1.5969462435886264
1686428462524263000,3.033262939453125,-2.307756133368611,2.357680732488632,1.7064089272178709
1686428462534209000,3.043208984375,-2.399924713978171,2.1316355963528153,1.7597880507059394
1686428462544153900,3.05315380859375,-2.4613170480519533,1.887840868514776,1.7896929212346673
1686428462554100000,3.063099853515625,-2.4964438910126683,1.8219675896346568,1.5775689045540988
1686428462564045800,3.0730458984375,-2.38362649012804,2.21614927829504,0.9942087521232664
1686428462573992000,3.082991943359375,-2.0007453631609677,3.1052269462525843,0.12175839383974671
1686428462583937000,3.09293701171875,-1.7092846287846564,4.18824371651113,-0.6711312287338078
1686428462593883100,3.102883056640625,-1.5812766730308532,5.070432209476828,-1.1097254750944674
1686428462603829000,3.1128291015625,-1.370551855623722,5.454195964497328,-1.0342176680371165
1686428462613775000,3.122775146484375,-1.2807844909369945,5.145146381938457,-0.7705932542871683
1686428462623720000,3.132719970703125,-1.5933914737164974,4.378143772554397,-0.5715181773371995
1686428462633666000,3.142666015625,-1.9849837304055689,3.4119460400372743,-0.2510162035241723
1686428462643612000,3.15261181640625,-1.8365081561625003,2.392733341169357,0.14308869357295334
1686428462653557000,3.162556884765625,-1.1572703394711017,1.450728385144472,0.6115712246537208
1686428462663502800,3.1725029296875,-0.2653379031369462,0.7065577852934598,1.013001788463816
1686428462673449000,3.182448974609375,0.2865419826745987,0.3169926505178213,1.2420938180148602
1686428462683394800,3.192394775390625,0.2234241399824619,0.1982154644459486,1.314256552428007
1686428462693340200,3.202340087890625,-0.0043301381587982175,0.12787410024106502,1.243298809890449
1686428462703286000,3.2122861328125,-0.16136895808577537,0.050637715825438495,1.0067080220818518
1686428462713232100,3.222232177734375,-0.16064539305157957,-0.13401976338922977,0.670641253259778
1686428462723178000,3.232177978515625,-0.1186508562784642,-0.4618523723512888,0.4219258740238845
1686428462733123000,3.242123046875,-0.14959310703091322,-0.8232605031788348,0.460325455044955
1686428462743069000,3.25206884765625,-0.09777418206427246,-1.1622241624861955,0.6250540988221764
1686428462753015000,3.26201513671875,0.021172588420845566,-1.4576409410119056,0.7864655808754265
1686428462762961000,3.2719609375,0.2871276736080646,-1.6061311283022164,0.9130142777316271
1686428462772906000,3.281906005859375,0.39336218897104264,-1.508524740552902,1.1607619809791445
1686428462782851800,3.291851806640625,0.21178104846179485,-1.1269301462650299,1.4803472783386706
1686428462792798000,3.3017978515625,0.4390729697883129,-0.45618367906510826,1.5445440023086965
1686428462802743800,3.311743896484375,0.8331190493702888,0.16927169403433798,1.5298505833067
1686428462812689200,3.321689208984375,1.080375315839052,0.4418991331249475,1.4033788972094654
1686428462822635000,3.331635009765625,1.277609368032217,0.43904082108438014,1.1657400616526603
1686428462832581000,3.3415810546875,1.5060159726023674,0.32760932160019873,0.8480974227935075
1686428462842527000,3.35152685546875,1.6927901517100632,0.19816110391020775,0.5122930312346666
1686428462852472000,3.36147216796875,1.7464356710493563,0.13881284288465975,0.18459522763341665
1686428462862418000,3.37141796875,1.6950443603776395,0.039026188486814495,0.014632263399288057
1686428462872364000,3.381364013671875,1.5527577039025724,-0.31717034517228604,-0.18149784613996744
1686428462882310000,3.391309814453125,1.244679888985306,-0.8702589857190847,-0.179304939205572
1686428462892255000,3.4012548828125,0.9398480702519416,-1.5637632281720637,-0.4139929621327668
1686428462902200800,3.411200927734375,0.798023916722089,-2.2209932111948727,-0.7329224989973008
1686428462912147000,3.42114697265625,0.8832413630194962,-2.716750775757432,-1.0814197833906858
1686428462922092800,3.4310927734375,1.0442509862735867,-2.9854852990627285,-1.309036479692161
1686428462932038100,3.4410380859375,1.1327066838398576,-3.2662977981746195,-1.3937940533928572
1686428462941984000,3.45098388671875,1.1009493173122404,-3.401144660037756,-1.1181808764897285
1686428462951930000,3.46093017578125,0.9954062913447618,-3.571932019332051,-0.9044060238622128
1686428462961876000,3.4708759765625,0.9592296470701694,-3.481434586805105,-0.5646975375369191
1686428462971821000,3.480821044921875,0.8221420205429196,-3.2492402803897855,-0.21830372822880745
1686428462981767000,3.490766845703125,0.7768728460133075,-2.966802810424566,-0.0263676363132894
1686428462991713000,3.500713134765625,0.8712363063186407,-2.468742229616642,0.336942236482352
1686428463001659000,3.510658935546875,0.979676515032351,-1.9504858329981565,0.6182527482442557
1686428463011604000,3.52060400390625,1.0515721229419113,-1.5065607470035551,0.5954580019816756
1686428463021549800,3.5305498046875,1.004531262564659,-1.1399819355398415,0.3319035116627812
1686428463031496000,3.540495849609375,1.0607526237413287,-0.8046908272653818,-0.18815847307294606
1686428463041441800,3.55044189453125,1.0030948000207542,-0.5242284567654133,-0.6969543829068541
1686428463051387000,3.560386962890625,1.0801198797732592,-0.2597112588942051,-1.196938332992792
1686428463061333000,3.5703330078125,0.967522259119153,0.06649988634586333,-1.5157438781514763
1686428463071279000,3.580279052734375,1.0435545284420251,0.3143237235695123,-1.82382636924386
1686428463081225000,3.590224853515625,0.9841744109734892,0.06812661076486111,-1.9095353984504937
1686428463091169800,3.600169677734375,0.8892699756592511,-0.22361177150905132,-1.9651064790248869
1686428463101116000,3.610115966796875,0.5910504146724939,-0.4852490300297737,-1.7801926869615912
1686428463111062000,3.62006201171875,0.0764294519469142,-0.9226350696444511,-1.4493682027071713
1686428463121007900,3.6300078125,-0.30287001714110373,-1.0528203694373368,-1.1649252381384372
1686428463130953000,3.639952880859375,-0.7677338462680577,-1.1154127269506453,-0.5851014431402087
1686428463140898800,3.64989892578125,-1.214581541711092,-1.076897410595417,-0.04122486757487059
1686428463150845000,3.659844970703125,-1.8013585168480872,-1.0734586683183909,0.5449754767179489
1686428463160790000,3.6697900390625,-2.072415053360164,-0.9114835610330104,0.8789546256110071
1686428463170736400,3.679736328125,-2.2279271021112796,-0.34069209053516386,1.2176374221503734
1686428463180682500,3.6896826171875,-2.5880916626185178,0.20655717633366583,1.7086843248039483
1686428463190628400,3.69962841796875,-2.8280604024276137,0.673634589856863,2.563771752615273
1686428463200573400,3.709573486328125,-2.6770161467403173,0.9189514126956463,3.4730379298597573
1686428463210519300,3.719519287109375,-2.313616549834609,1.1713912192821503,4.371360688285529
1686428463220465400,3.72946533203125,-2.005213740746677,1.512600027167797,4.967140761828422
1686428463230411300,3.739411376953125,-1.904682405461371,1.7119401117295026,5.299754759848118
1686428463240356400,3.7493564453125,-2.2939058871924876,1.890047438648343,5.713582229220867
1686428463250302200,3.75930224609375,-2.6215228075772523,2.6153976026952264,5.923339662900567
1686428463260248300,3.769248291015625,-2.915103310586512,4.452255887469649,5.62439120311737
1686428463270194200,3.779194091796875,-3.137085142806172,7.096050148087739,4.64202705643624
1686428463280139500,3.789139404296875,-2.763153630492091,8.96594093389213,3.3070088710084558
1686428463290085400,3.79908544921875,-2.1898165671646592,9.149438137155771,2.0413263798743486
1686428463300031500,3.809031494140625,-0.9112164345294237,7.34663175958693,0.699508597434312
1686428463309977300,3.818977294921875,-0.23714637586474419,3.605906769648194,-0.7941532127685844
1686428463319923500,3.82892333984375,0.6203881528377533,0.352463776871562,-1.6317878398671746
1686428463329868300,3.838868408203125,1.154656942102313,-0.8232078962087631,-1.9166817630738018
1686428463339814400,3.848814453125,0.2737842079102993,-0.6298363646626473,-2.0197066687405107
1686428463349760300,3.85876025390625,-0.5673701177470386,-0.4170698122948408,-2.1923576299495995
1686428463359705000,3.868705078125,-0.6807020440250635,-0.516815550160408,-2.413983634468913
1686428463369651200,3.878651123046875,-0.7556348276734351,-0.45168286051452156,-2.7443273494690654
1686428463379597300,3.888597412109375,-0.9789804955922067,-0.4000935430526733,-3.486511451677978
1686428463389543200,3.898543212890625,-0.7367780053816735,-0.6291121420413255,-4.272758567497134
1686428463399488300,3.90848828125,0.11433876523301005,-0.8561743462651967,-4.706878298792243
1686428463409434400,3.918434326171875,0.8495715869992971,-0.8569698805570601,-4.733600886023044
1686428463419380500,3.92838037109375,1.1539024704732,-0.7366507257401943,-4.515561946210265
1686428463429326300,3.938326416015625,1.095044623313099,-0.5665688843667507,-3.9890772349506616
1686428463439271200,3.948271240234375,0.7218006548717617,-0.6364245108813047,-3.0641391490608454
1686428463449217300,3.95821728515625,0.3315193346507847,-0.845403361403942,-2.089309635668248
1686428463459163400,3.968163330078125,0.1461823487393558,-1.1529729345381259,-1.2506823442704975
1686428463469109200,3.978109130859375,-0.046579526475816965,-1.38795599488914,-0.5998844401217996
1686428463479054300,3.988054443359375,-0.45968496518433094,-1.4984814854443071,-0.10881488724499941
1686428463489000400,3.99800048828125,-0.839081172645092,-1.6113275279015302,0.2423022973231971
1686428463498946300,4.0079462890625,-1.0678665473997593,-1.6853975572407245,0.3727924983467906
1686428463508892400,4.017892333984375,-1.0097848722439258,-1.7884470128268002,0.47662104854658244
1686428463518837200,4.027837158203125,-0.6782399647604673,-1.8467799593299625,0.45459626374319195
1686428463528783400,4.037783447265625,-0.35628998409621415,-1.8564543811261653,0.697671737395972
1686428463538729500,4.0477294921875,-0.2832370959103107,-1.9142612579286098,0.7854248396508395
1686428463548675300,4.05767529296875,-0.29659459013342854,-1.8276129020452498,0.7787911737900227
1686428463558620200,4.0676201171875,-0.4544803822785616,-1.8136077575683593,0.7680342174541205
1686428463568566300,4.077566162109375,-0.6629249797940254,-1.8072621879339217,0.8496165221195667
1686428463578512400,4.087512451171875,-0.6748264299899339,-1.743368684694171,0.8905589925564825
1686428463588458200,4.097458251953125,-0.5847877740811557,-1.6153396861523388,0.7679947622265666
1686428463598403300,4.1074033203125,-0.5572738172769546,-1.4931383708506822,0.6776587308064103
1686428463608349400,4.117349365234375,-0.5402765783119946,-1.4449883801877499,0.800391668766737
1686428463618295600,4.127295654296875,-0.4416063607234508,-1.5660709205925463,0.9521035215172916
1686428463628241400,4.137241455078125,-0.42319333667643366,-1.953424224537611,1.024370373892039
1686428463638186200,4.147186279296875,-0.3367325392544269,-2.295615613719821,1.0430674755774438
1686428463648132400,4.15713232421875,-0.15591883945371954,-2.6667390828758477,0.8825409596651792
1686428463658078500,4.167078369140625,-0.09205872702691703,-2.8964719676136967,0.6953229092475026
1686428463668024300,4.1770244140625,-0.05604107270631939,-2.993713029181957,0.5529196771880611
1686428463677969200,4.18696923828125,-0.0841957385668531,-2.9147254171848296,0.32603038184568284
1686428463687915300,4.196915283203125,-0.18691373370885847,-2.665920167708397,0.21708182175103574
1686428463697861400,4.206861328125,-0.33703707515895365,-2.3212077356159684,0.05660875305905938
1686428463707807200,4.21680712890625,-0.5166068758457899,-1.8693454268813132,-0.22235563396811484
1686428463717752300,4.22675244140625,-0.7917758161127567,-1.3359949215054512,-0.4333206533392891
1686428463727698400,4.236698486328125,-1.0396037449896336,-1.0327554865300654,-0.7021531936589628
1686428463737644500,4.24664453125,-1.2137018362671137,-0.6225596516579389,-0.8472410251598804
1686428463747590400,4.25659033203125,-1.054531849530339,-0.3767839791357517,-1.2000818917155265
1686428463757535200,4.26653515625,-0.8293295939594507,-0.11015256558954716,-1.4259740292467176
1686428463767481300,4.2764814453125,-0.8713800987035035,-0.11880582764446734,-1.5258794877186417
1686428463777427500,4.286427490234375,-1.137892269784212,-0.24098142398297787,-1.4480154729239643
1686428463787373300,4.296373291015625,-1.2531295912921427,-0.39888007560968397,-1.4927575548395513
1686428463797318100,4.306318115234375,-1.2830278859496116,-0.5950842002332211,-1.5515274314552545
1686428463807264300,4.31626416015625,-1.2502712792515753,-0.6505956595748662,-1.627701885727793
1686428463817210400,4.32621044921875,-1.3085212236464023,-0.5511836837083101,-1.2679255938857794
1686428463827156200,4.33615625,-1.2441337994098662,-0.43136721771657466,-0.8992626696243882
1686428463837101300,4.346101318359375,-1.2611270197868347,-0.2725952903866768,-0.7255513857074082
1686428463847047400,4.35604736328125,-1.2317068640351294,-0.05687105725705623,-0.693466102399677
1686428463856993500,4.36599365234375,-1.2326771703720092,0.1837234132349491,-0.6870876534089446
1686428463866939400,4.375939453125,-1.648448759549856,0.35286534340977666,-0.3689825481371954
1686428463876884200,4.38588427734375,-1.9073405187547205,0.37139351826906203,-0.3111857908699661
1686428463886830300,4.395830322265625,-2.2043501194298267,0.3076297788888216,-0.3840339867966249
1686428463896776400,4.4057763671875,-2.560582308924198,0.14968027385771274,-0.38611210824493314
1686428463906722300,4.415722412109375,-2.566678872233629,0.11557634420394897,-0.5962551802413538
1686428463916667100,4.425667236328125,-2.6999545392572877,0.09892974530756472,-0.658855757593736
1686428463926613200,4.43561328125,-2.746751361745596,0.08391571604907512,-0.5820081532999872
1686428463936559400,4.445559326171875,-2.649877379924059,0.13490005335509778,-0.5745601388489827
1686428463946505200,4.455505126953125,-2.570935360634327,0.15080723206102847,-0.668246101751551
1686428463956450300,4.4654501953125,-2.520050392049551,0.10018705189228057,-0.7301180360358208
1686428463966396400,4.475396484375,-2.4848563290715218,0.14916998624801636,-0.8352984392359852
1686428463976342500,4.485342529296875,-2.5364076526105404,0.219229610902071,-0.9033050768829881
1686428463986288400,4.495288330078125,-2.718870836651325,0.22431261325478552,-0.9249302679095417
1686428463996233200,4.505233154296875,-2.812050640130043,0.17400690586268902,-0.8810796549409627
1686428464006179300,4.515179443359375,-2.7064918320715425,0.1660334427654743,-0.7135919947791844
1686428464016125400,4.52512548828125,-2.874502127867937,0.13505261356830597,-0.48840647114738817
1686428464026071300,4.5350712890625,-3.150694565963745,0.2616308287799358,-0.43552726000547404
1686428464036016000,4.54501611328125,-3.64991016202569,0.442226465383172,-0.36611674690991636
1686428464045962200,4.554962158203125,-4.1950563191354275,0.60692895180583,-0.09606640089885331
1686428464055908400,4.564908447265625,-4.590792836022377,0.703715255343914,0.14386592502314596
1686428464065854200,4.574854248046875,-4.505281959736347,0.6888099471569061,0.25095736774271354
1686428464075799300,4.58479931640625,-3.9896903984129426,0.7414332838416099,0.5801632926182821
1686428464085745400,4.594745361328125,-3.5528599468544124,0.8623416367232799,1.1383888211295008
1686428464095691500,4.60469140625,-3.5090134986042973,0.8177619057625531,1.8106315182365476
1686428464105637400,4.614637451171875,-3.219246416403353,0.6477262416183948,2.2917259128049015
1686428464115582200,4.624582275390625,-2.3053289062216877,0.5425286680877208,2.482749712181091
1686428464125528300,4.6345283203125,-1.3743056551992892,0.4569809669226408,2.414856764041632
1686428464135474400,4.644474365234375,-1.054956650813669,0.30835926220715043,1.8682254829406737
1686428464145420300,4.654420166015625,-1.140358806028217,0.02262567330598831,0.9768369807574897
1686428464155365000,4.664365234375,-0.6068389354348183,-0.4301970048934221,0.22730284457933156
1686428464165311200,4.674311279296875,0.19628698060140012,-0.8179992216497659,-0.25356771463789046
1686428464175256800,4.6842568359375,0.6375470851704478,-1.0714742165029048,-0.4926883131850511
1686428464185202700,4.69420263671875,0.7969277920484542,-1.2934323755860329,-0.9516367077231407
1686428464195147500,4.7041474609375,0.7383551185052841,-1.3006897993683815,-1.7138390772186218
1686428464205093600,4.71409375,0.6542167726814746,-0.9672773444473742,-2.584623986507952
1686428464215039700,4.724039794921875,0.6532173133153468,-0.21147125186026094,-3.2238153317540883
1686428464224985600,4.733985595703125,0.5925532204508781,1.0306529612928628,-3.507727842707932
1686428464234930400,4.743930419921875,0.5365665082802996,2.6047394305586815,-3.7237463826090096
1686428464244876500,4.75387646484375,0.5697708952784538,4.265176734066009,-3.927316944347322
1686428464254822700,4.76382275390625,0.9288099588871002,5.79041470901072,-3.7199978437304493
1686428464264768500,4.7737685546875,1.8392887267917393,7.396007492652535,-3.098813572078943
1686428464274713600,4.783713623046875,3.368735843864083,7.600227750471234,-1.6978997498087585
1686428464284659700,4.79365966796875,4.963745274171233,5.51310700314939,0.03029870128505863
1686428464294605800,4.803605712890625,5.916463347390294,2.893666847065091,1.1851504992391912
1686428464304551700,4.8135517578125,5.576673174130916,0.43154140523970125,2.0276031210787595
1686428464314496500,4.82349658203125,4.635636770877242,-1.1342898613780736,2.7855998555779458
1686428464324442600,4.833442626953125,3.1951556389808653,-2.3551532598376275,2.767616455119848
1686428464334388700,4.843388671875,0.9143589703388512,-3.4798844347536564,2.520691612562537
1686428464344334600,4.85333447265625,-0.8034111627183854,-3.878201615783572,2.1210221401408313
1686428464354279400,4.863279541015625,-1.314343500059098,-3.3221734146535393,1.3611014518417417
1686428464364225500,4.8732255859375,-1.5473311488091945,-2.191725031134486,0.5813886331621557
1686428464374171600,4.883171630859375,-1.6132264933906495,-0.6816390326142311,-0.1475813288170844
1686428464384117500,4.893117431640625,-1.4052781549595295,0.7344511698693037,-0.8783850820947438
1686428464394062600,4.9030625,-0.9637380644053221,1.788131955528259,-1.5422480003260075
1686428464404008700,4.9130087890625,-0.12069149526059626,2.3521727827221155,-2.055236101152748
1686428464413954800,4.922954833984375,1.1112725584059953,2.218101581406593,-2.2953414729535577
1686428464423900700,4.932900634765625,2.1745886028945445,1.411632054030895,-2.2334641318418083
1686428464433845500,4.942845458984375,2.5787740914359687,0.21879005044102667,-2.0643318462781606
1686428464443791600,4.95279150390625,2.4061434423625467,-0.683701810362935,-1.9294263860955834
1686428464453737700,4.96273779296875,1.824459114189446,-1.3276888654530048,-1.7726489935837686
1686428464463683600,4.97268359375,1.196317278485,-1.685209925714135,-1.5698818571828306
1686428464473628400,4.98262841796875,0.8415338264942168,-1.7742016298532486,-1.4504720722958444
1686428464483574500,4.992574462890625,0.6900918036609888,-1.752479042866826,-1.3848992376670242
1686428464493520600,5.002520751953125,0.5864151560872792,-1.6975965290784836,-1.3226150693200527
1686428464503466500,5.012466552734375,0.40217034932672974,-1.6717144843250513,-1.2557080634780227
1686428464513412600,5.02241259765625,0.1671142237395048,-1.8432868565171956,-1.1677855960056185
1686428464523357700,5.032357666015625,0.011214636975526809,-2.0835580864042043,-1.1710073345310985
1686428464533303800,5.0423037109375,-0.13280600368529558,-2.1877596346348525,-1.1874646944656968
1686428464543249700,5.052249755859375,-0.30622634183168407,-2.124333164384961,-1.1123663449920713
1686428464553194500,5.062194580078125,-0.49872196732610463,-1.8297504985958337,-0.9774893802516161
1686428464563140600,5.072140625,-0.7076815286263823,-1.409614284467697,-0.7150413898698985
1686428464573086500,5.08208642578125,-0.8943240441784263,-0.972658452963829,-0.2972464781709015
1686428464583032600,5.092032470703125,-1.0616194697037338,-0.43894495949447154,0.1325119891747832
1686428464592978700,5.101978759765625,-1.2725658209070563,0.10820201604366302,0.5214937711045146
1686428464602923500,5.111923583984375,-1.56158822222054,0.6749351510614157,0.8845286263510584
1686428464612869400,5.121869384765625,-1.8610045917764304,1.1774240697056055,1.1944126139074562
1686428464622815500,5.1318154296875,-2.0023995601087807,1.545185368952155,1.3785513299450278
1686428464632761600,5.14176171875,-1.9254276718482375,1.9520237100899218,1.536416079302132
1686428464642706700,5.151706787109375,-1.9384505272895096,2.3737194286197423,1.7148872710973024
1686428464652652500,5.161652587890625,-2.279184411139786,2.712369199672341,1.9543311102494596
1686428464662598700,5.1715986328125,-2.42794873919636,3.012147096017003,2.1984059702031313
1686428464672544800,5.181544677734375,-2.1390309673011303,3.4206922410726546,2.335605824933201
1686428464682489600,5.191489501953125,-1.8087974346771836,4.194205255264044,2.296698294389993
1686428464692435500,5.201435546875,-1.875560063612461,5.279025275552272,2.2196252838425337
1686428464702381600,5.211381591796875,-2.3084014455348254,6.626277504131197,1.9989517577424645
1686428464712327700,5.22132763671875,-2.908228456380963,7.847023998212814,1.6917876966692507
1686428464722272500,5.2312724609375,-3.196764535482228,8.713957638901471,1.1373138853743672
1686428464732218600,5.241218505859375,-2.04045631904155,8.879483716666698,0.23053163390010595
1686428464742164700,5.251164794921875,0.02052285580784082,7.568416315668821,-0.7473195654012262
1686428464752110600,5.261110595703125,0.44700902348458765,4.683398054483533,-1.605869993147999
1686428464762055700,5.2710556640625,0.04095949463695287,1.7490145816266536,-2.1347633729845286
1686428464772001500,5.28100146484375,0.9283268515452742,-0.4799199439615011,-2.4818261675953863
1686428464781947600,5.29094775390625,1.6995546774089336,-1.3999784411162137,-3.027999914187193
1686428464791893800,5.300893798828125,0.7229325815111398,-0.8622159645169973,-3.4996412746250627
1686428464801838600,5.310838623046875,0.18376374524533748,-0.25579496223330495,-3.6803222514241933
1686428464811784400,5.320784423828125,0.1965378866225481,-0.22911212249100207,-3.6002462596684692
1686428464821730600,5.33073046875,0.44567046835720536,-0.4664467144042253,-3.3453684122800826
1686428464831676700,5.3406767578125,0.9759767837315797,-0.7705909892648458,-3.0472733544558284
1686428464841621800,5.350621826171875,1.5444921259909867,-0.8739093249201774,-2.953820871515572
1686428464851567600,5.360567626953125,1.763203412107378,-0.7634294270724058,-2.877560346394777
1686428464861513700,5.370513671875,1.7290680644020437,-0.6080301910459995,-2.6471090842545033
1686428464871459800,5.3804599609375,1.715975358594954,-0.4514069661825895,-2.265870902188867
1686428464881404700,5.39040478515625,1.5299229178905487,-0.5051327111512423,-1.699807483126223
1686428464891350500,5.4003505859375,1.299413203561306,-0.7160059971183538,-1.1073834420129656
1686428464901296600,5.410296630859375,1.071712701433897,-1.0427852976351977,-0.6528485530681908
1686428464911242800,5.42024267578125,0.88544895606637,-1.4104653483390808,-0.31412798180170354
1686428464921187600,5.4301875,0.6094635848499834,-1.66011640098989,0.0024181670576334
1686428464931133400,5.440133544921875,0.555267299760133,-1.7780705802410839,0.08194353919327259
1686428464941079600,5.45007958984375,0.5435154871679843,-1.814104601174593,0.07803542583882808
1686428464951025700,5.460025634765625,0.4024893521480262,-1.9464830270975828,0.25376667127609254
1686428464960970800,5.469970703125,0.39885742538645863,-2.1657050392150876,0.40814105776678766
1686428464970916600,5.47991650390625,0.3886398366242647,-2.3926146832257507,0.6361506623759865
1686428464980862700,5.48986279296875,0.39599253747463226,-2.6685300579458473,0.8109614319674671
1686428464990808800,5.499808837890625,0.3774064949482679,-2.82859787030518,0.7712357169091701
1686428465000753700,5.509753662109375,0.33007834206223485,-2.854954546833038,0.5213375210968777
1686428465010699500,5.519699462890625,0.29305370265617964,-2.655065011695027,0.11791969245970249
1686428465020645600,5.529645751953125,0.3005652473300695,-2.250816687050462,-0.4144251064723357
1686428465030591700,5.539591796875,0.29260113658308984,-1.8531044861763715,-0.6670289810467511
1686428465040536600,5.54953662109375,0.24195816006064413,-1.5822709447652101,-0.6957526059016585
1686428465050482400,5.559482421875,0.037958340059593317,-1.4869395162105559,-0.6158423261016607
1686428465060428500,5.569428466796875,-0.2334201949484646,-1.5641221246123314,-0.5864874176058917
1686428465070374700,5.579374755859375,-0.42017771518230435,-1.7515274412304163,-0.5953589255213737
1686428465080319700,5.58931982421875,-0.4770872047536075,-1.7458447194188833,-0.5257242848137393
1686428465090265600,5.599265625,-0.3850543793529272,-1.803462795650959,-0.4039262896159664
1686428465100211700,5.609211669921875,-0.3766321495749056,-1.9056477433621881,-0.14808722337945363
1686428465110157800,5.61915771484375,-0.34442075566947455,-1.8611264645904302,-0.15247061696229502
1686428465120102700,5.6291025390625,-0.3429248910885304,-1.6575526879817246,-0.26423927597897123
1686428465130048500,5.639048583984375,-0.35911205577962096,-1.3282418231606483,-0.4271953388594091
1686428465139994600,5.64899462890625,-0.4543669119667262,-1.0725403844296932,-0.44304892421457914
1686428465149940700,5.658940673828125,-0.8063063727032392,-0.9039075728207826,-0.23706779420319943
1686428465159885600,5.668885498046875,-1.0512070159565656,-0.8977993190735578,-0.20542882989086209
1686428465169831400,5.67883154296875,-1.1828998707681893,-1.0209691871464253,-0.23323102905191478
1686428465179777500,5.688777587890625,-1.2840683349132538,-1.1650514948666095,-0.11879339742115698
1686428465189723600,5.6987236328125,-1.4105132791340351,-1.2478764930695294,0.24316315193623303
1686428465199668700,5.708668701171875,-1.5058827016115188,-1.1478075145989657,0.45480647242777045
1686428465209614600,5.718614501953125,-1.7817765951521694,-0.8116811245441437,0.620472616250813
1686428465219560700,5.728560791015625,-2.0843781706154347,-0.28695465512871743,0.8745606284357607
1686428465229506800,5.7385068359375,-2.04057702281177,0.22514847955703735,1.0645600532002746
1686428465239451600,5.74845166015625,-1.774750495907664,0.8117682183057069,1.2177577605944125
1686428465249397500,5.7583974609375,-1.5941618735671041,1.4726134692162274,1.2657931119017303
1686428465259343600,5.768343505859375,-1.593860260272026,2.083256473109126,1.1093752003520727
1686428465269289700,5.778289794921875,-1.484350668761134,2.610678172957897,0.7270642014231532
1686428465279234600,5.788234619140625,-1.045482793090865,3.142985306760669,0.14766849564388393
1686428465289180400,5.798180419921875,-0.4972738874096423,3.5556104146063325,-0.5770511154145002
1686428465299126500,5.80812646484375,-0.2915115147154778,3.9720004279434677,-0.950728799097985
1686428465309072600,5.81807275390625,-0.11934643732719123,4.136812219959497,-1.1782416696988045
1686428465319018500,5.8280185546875,0.01677636275589466,4.184890898951888,-1.2004586891386657
1686428465328963600,5.837963623046875,-0.16217201809696852,4.327078186705708,-1.0363481772597878
1686428465338909700,5.84790966796875,-0.3559440202027559,4.238736470907926,-1.2650174513541161
1686428465348855800,5.857855712890625,-0.6323480552226305,4.50232895514965,-1.5584684827648103
1686428465358801700,5.8678017578125,-0.979751041573286,5.051403099358081,-1.8089765906363724
1686428465368746500,5.87774658203125,-1.0319856712013482,5.825637998083233,-1.4708964361652732
1686428465378692600,5.887692626953125,-0.21604858797946944,6.319744872829317,-0.8557750447493045
1686428465388638700,5.897638671875,0.7714028901696205,5.944095450681448,-0.08935827242918312
1686428465398584600,5.90758447265625,1.1583137110441923,4.440744313374162,0.3637740562412888
1686428465408529400,5.917529296875,1.0293068073809146,2.9683763433516024,0.7241836775507777
1686428465418475500,5.9274755859375,0.8075169906020164,1.8244722659319639,1.0717104364115744
1686428465428421600,5.937421630859375,0.5537643478512764,0.7441431273221969,0.855722510844469
1686428465438367500,5.947367431640625,0.19427523892018944,-0.1495990253150463,0.3735299457758665
1686428465448312600,5.9573125,0.14038458571340887,-1.3379729435801506,0.14014935218542812
1686428465458258700,5.9672587890625,-0.05313773421393707,-2.3070371714442968,0.19700754996091127
1686428465468204800,5.977204833984375,-0.2863000088785775,-3.086674221473932,0.41186603310666975
1686428465478150700,5.987150634765625,-0.43186815297603603,-3.6566643124610185,0.7351558110073209
1686428465488095500,5.997095458984375,-0.39626141754388805,-3.9588130295902486,0.9340439870830625
1686428465498041600,6.00704150390625,-0.24473113190531728,-3.931854295516014,0.9757819187466055
1686428465507987700,6.01698779296875,-0.06297112769782542,-3.575721474742889,1.0737808129448443
1686428465517933600,6.02693359375,0.01038636945784092,-2.61716285880208,1.000892175409943
1686428465527878400,6.03687841796875,0.44004627179987726,-0.7870680768132209,0.43228126382157206
1686428465537824500,6.046824462890625,1.0240835197746754,1.103210832503438,-0.25443784853592516
1686428465547770600,6.0567705078125,1.8435351321898399,1.962655578741431,-0.5689144245795905
1686428465557716700,6.066716796875,2.6687299644321203,1.5949018782794475,-0.25353982198396696
1686428465567661600,6.07666162109375,3.222918675175309,0.7625257562309503,-0.005800457306532189
1686428465577607700,6.086607666015625,3.2072207553058862,-0.01438917535841465,-0.0593088103645714
1686428465587553500,6.096553466796875,2.8572523023813963,-0.671747168675065,-0.21644250093419104
1686428465597499600,6.106499755859375,2.4633880091071125,-1.0068863012582063,-0.6349069459252059
1686428465607444500,6.116444580078125,1.8632288436971605,-1.1984031448483465,-0.8555091603547335
1686428465617390600,6.126390625,1.1928010870575905,-1.5989391709715126,-0.9667080201268196
1686428465627336400,6.13633642578125,0.7681172926276921,-2.169616075178981,-1.1960388999350369
1686428465637282600,6.146282470703125,0.5124294440306723,-2.665212896221876,-1.4719107277743517
1686428465647227600,6.1562275390625,0.48143736278712745,-3.039726007816195,-1.7117821446888148
1686428465657173800,6.166173828125,0.6630944911420344,-3.308835794174671,-1.7657985431671142
1686428465667119600,6.17611962890625,0.8272250228956342,-3.4831986738681793,-1.4669880305498837
1686428465677065700,6.186065673828125,0.8741618383765221,-3.575289513066411,-0.8825500928197055
1686428465687010600,6.196010498046875,0.8150000398337841,-3.4869355223089453,-0.21950645508207378
1686428465696956700,6.205956787109375,0.6666326021403074,-3.144073686519265,0.4372033034589141
1686428465706902500,6.215902587890625,0.41764790444374084,-2.8530495899945496,0.8528516315832734
1686428465716848600,6.2258486328125,0.4367351744905114,-2.3139555725306273,1.1567827020846306
1686428465726794800,6.235794677734375,0.6902028628200292,-1.6255401776492595,1.3994373199768364
1686428465736739600,6.245739501953125,1.048336794282496,-1.0941045659840107,1.3849233491949737
1686428465746685400,6.255685546875,1.2297870018884538,-0.7912012310951948,1.296661420635134
1686428465756631600,6.265631591796875,1.1764406116262078,-0.5730050548940897,0.9143849815629422
1686428465766577700,6.27557763671875,0.8670824015095829,-0.32352176002562044,0.40700332244113085
1686428465776522800,6.285522705078125,0.33121962105184793,-0.3339864554166794,-0.1923860276401043
1686428465786468600,6.295468505859375,-0.06977291666716337,-0.556426260536909,-0.8049079771474004
1686428465796414700,6.305414794921875,-0.32587183028310535,-0.510653520399332,-1.1090179113470018
1686428465806360800,6.31536083984375,-0.6633838294774294,-0.6057680913329124,-1.3491729675084352
1686428465816305700,6.3253056640625,-1.0974819334626198,-0.7869727997452021,-1.3345051213391124
1686428465826251500,6.33525146484375,-1.4863175849199295,-0.8840238916993141,-1.0827866147644818
1686428465836197600,6.34519775390625,-1.7024565363302826,-0.9138362616389989,-0.6884954743802547
1686428465846143700,6.355143798828125,-1.7313880317822097,-0.7442600317001342,-0.30394027672111984
1686428465856088600,6.365088623046875,-1.709083845515549,-0.3485340362071991,0.04943301621079445
1686428465866034400,6.375034423828125,-1.7718784476026892,0.41962008129954337,0.422172103869915
1686428465875980500,6.38498046875,-1.8723069070354104,1.502601780244708,0.8948536210104823
1686428465885926700,6.3949267578125,-1.7197510777413845,2.570231596279144,1.5985720912247896
1686428465895871700,6.404871826171875,-1.2855772781714796,3.211437496218085,2.5849273533686996
1686428465905817600,6.414817626953125,-1.2927610521957278,3.983738796532154,3.7558041933879256
1686428465915763700,6.424763671875,-1.44762720425874,5.545415281558037,4.86681605503112
1686428465925709800,6.434709716796875,-1.6528081238031387,7.659239326888322,5.277521885251999
1686428465935654700,6.444654541015625,-0.865150264403224,9.239225960108637,4.6366509163558485
1686428465945600500,6.4546005859375,0.887134717196226,9.46398865521848,2.826554089517891
1686428465955546600,6.464546630859375,1.1737673007637262,7.437959213197231,0.3786000886470079
1686428465965492700,6.47449267578125,0.5263442798756063,4.08887616430819,-1.2737328188598156
1686428465975437600,6.4844375,0.3407593105524778,1.5812421862393617,-1.731178772945702
1686428465985383400,6.494383544921875,-0.33195845672041174,0.5669874020397663,-1.6859774029552936
1686428465995329500,6.50432958984375,-0.6982581589818,0.237454418900609,-1.4165809086099266
1686428466005275600,6.514275634765625,0.1730421524837613,-0.2466957099765539,-1.10018110941872
1686428466015220700,6.524220703125,0.5899085511609912,-0.8341706042498349,-0.9684966571092605
1686428466025166600,6.53416650390625,0.5062311739124358,-1.3519266501307488,-1.046483056174591
1686428466035112700,6.54411279296875,0.5808261039085686,-1.8203659996569155,-1.1978346973106264
1686428466045058800,6.554058837890625,0.8700877208054065,-2.187892905625701,-1.5184613204166293
1686428466055003600,6.564003662109375,0.9501116901129484,-2.2174860798567533,-2.0238183418430387
1686428466064949500,6.573949462890625,1.0076654689371585,-1.9038363100260496,-2.588881351691484
1686428466074895600,6.5838955078125,0.9636815119124948,-1.3910674049079417,-3.020569179664552
1686428466084841700,6.593841796875,0.8236470182783902,-0.8550321904927491,-3.1603485294938087
1686428466094786600,6.60378662109375,0.6702427554614842,-0.48835284126400946,-3.0388758207276463
1686428466104732400,6.613732421875,0.5915842292882502,-0.5250193148821592,-2.8280755999967453
1686428466114678500,6.623678466796875,0.6647055796004832,-0.8519862469255923,-2.694120426276326
1686428466124624600,6.633624755859375,0.7002385191440582,-1.3548451679259539,-2.4169633809320628
1686428466134570500,6.643570556640625,0.5742817968316376,-1.895944679993391,-1.958144531057775
1686428466144515600,6.653515625,0.5400258914865553,-2.305997891524434,-1.610268374237418
1686428466154461700,6.663461669921875,0.4015063324600458,-2.5453631124824283,-1.2096281570874154
1686428466164407800,6.67340771484375,0.16433073050081728,-2.546521634867787,-0.6966995313629507
1686428466174354200,6.683354248046875,0.04780789922699332,-2.4371102430343625,-0.2112505765805952
1686428466184299000,6.693299072265625,-0.14217150566279887,-2.0964526392906904,0.29656284328829496
1686428466194245000,6.7032451171875,-0.17676351109445093,-1.6665975797027348,0.680546926528588
1686428466204191000,6.71319091796875,-0.037531127623468635,-1.1039350551247595,1.0618727138124406
1686428466214137000,6.72313720703125,0.34208266811072824,-0.6508101791083812,1.3909472856596112
1686428466224082000,6.73308203125,0.8539549166500567,-0.4395920252263546,1.459608880084008
1686428466234028000,6.743028076171875,1.3737236175276337,-0.6259311739176512,1.1769756683509796
1686428466243974000,6.752973876953125,1.6775912674039601,-1.1500491560459136,0.7266096625886858
1686428466253920000,6.762919921875,1.5662538759440183,-1.7785709309786557,0.34981987476665527
1686428466263865000,6.772864990234375,1.2177140675831586,-2.34337981993556,0.08321127584045752
1686428466273811200,6.782811279296875,0.5325778405029327,-2.80886674939692,0.03985222751479596
1686428466283757000,6.792757080078125,-0.19977913356609642,-3.1502292865395543,0.008371741699799895
1686428466293703200,6.802703125,-0.6994027259070426,-3.2510897076487537,-0.052567295648530125
1686428466303648000,6.81264794921875,-1.0522592284232377,-3.1258249131232496,-0.12035988868605345
1686428466313594000,6.822593994140625,-1.2920324456602335,-2.8129543109714983,-0.08861603922713547
1686428466323540000,6.8325400390625,-1.411962308898568,-2.2425550546616315,-0.12258929170593619
1686428466333486000,6.842486083984375,-1.40850836905241,-1.558831616988778,-0.2053963889259845
1686428466343431000,6.852430908203125,-1.353513042539358,-0.9805559282153844,-0.2972532001726329
1686428466353377000,6.862376953125,-1.3074462878912687,-0.6246206758409738,-0.44130993506014343
1686428466363323000,6.872322998046875,-1.3962076904058456,-0.4554430898308754,-0.4902999932764098
1686428466373269000,6.88226904296875,-1.5182833335012196,-0.4952671506971121,-0.4253519394824281
1686428466383214000,6.892214111328125,-1.7272317888855933,-0.4602437681108713,-0.23481387779656795
1686428466393160200,6.90216015625,-1.9293366619855163,-0.280045606392622,0.1150662392573431
1686428466403106000,6.91210595703125,-2.056961755901575,0.11294015048146247,0.6996979094613343
1686428466413052200,6.92205224609375,-2.180384721952677,0.7315431734681129,1.3250962186113
1686428466422997000,6.9319970703125,-2.2142384762376546,1.1500982558846473,1.673067067977786
1686428466432943000,6.941943115234375,-2.266067447674274,1.3296733172684907,1.7975735914818942
1686428466442889000,6.951888916015625,-2.402771335580945,1.407244048205018,1.7825183534301816
1686428466452835000,6.9618349609375,-2.2465333106428385,1.3555173680990933,1.5345748353496194
1686428466462781200,6.97178125,-1.9555162283807992,1.4964187076956033,1.1731858476139605
1686428466472726000,6.98172607421875,-1.645875109669566,1.9433382993310688,0.5652472803741693
1686428466482671900,6.991671875,-1.421211198759079,2.8148376405000683,-0.19554047308303416
1686428466492618000,7.001617919921875,-1.2017922027647494,3.9537364569783207,-0.9356305986873805
1686428466502564000,7.011564208984375,-1.009872623592615,5.105841376510262,-1.5195152133837342
1686428466512509200,7.02150927734375,-0.8448322835177182,6.322467575791478,-1.7100269715845584
1686428466522455000,7.031455078125,-0.6306470965236425,7.139910332602262,-1.7632649330362677
1686428466532401200,7.041401123046875,-0.3351858943343162,7.283285368835926,-1.6323115714803338
1686428466542347300,7.05134716796875,-0.061752436090447005,6.329689343738556,-1.4227118125803768
1686428466552292000,7.0612919921875,0.1564437401106581,4.791831541195512,-1.0174546031542122
1686428466562238000,7.071238037109375,0.22204585563289,3.5259734012335535,-0.44199777119383216
1686428466572184000,7.08118408203125,0.21993573161112143,2.6045839477360246,0.12417305376604199
1686428466582130200,7.091130126953125,0.25264964994490147,1.8797353034704922,0.544898246763274
1686428466592075000,7.101074951171875,0.2548714176476002,1.305718441185355,0.7938789989370852
1686428466602020900,7.111020751953125,0.1286509298324585,0.8019909206569195,0.9729523944091051
1686428466611967000,7.120967041015625,-0.09933481897711753,0.24844927564561364,1.195472279028222
1686428466621913000,7.1309130859375,-0.21371640043854712,-0.5198357747644186,1.503569748494029
1686428466631858200,7.140858154296875,-0.14356208323836325,-1.3799784401386976,1.8154571848273275
1686428466641804000,7.150803955078125,-0.19953120495332405,-2.1538117723256347,1.9645345243558285
1686428466651750100,7.160750244140625,-0.4101858980000019,-2.6556705763727426,1.9802721917137502
1686428466661696300,7.1706962890625,-0.34517537342905996,-2.9063159007579085,1.8483374179050325
1686428466671641000,7.18064111328125,-0.1016974564552307,-2.731355639693141,1.6449284764692187
1686428466681587000,7.1905869140625,0.11435293988883495,-2.1097446670621633,1.369903474717587
1686428466691533000,7.200532958984375,0.5483212800145149,-1.441041688388586,1.191552621366456
1686428466701479000,7.21047900390625,0.9476315637350082,-0.7436036136180162,0.999053342610225
1686428466711424000,7.220424072265625,1.2526678189992904,-0.23309505464732647,0.8430984454624354
1686428466721369900,7.230369873046875,1.5045967534542082,0.29576106191873547,0.581684693499282
1686428466731316000,7.24031591796875,1.9131861760430038,0.6633166094601154,0.28078049653843046
1686428466741262000,7.250261962890625,2.0146873792737723,0.4747212062746286,0.1788101779585704
1686428466751207200,7.260207275390625,1.8625737407892942,-0.2403080547660589,0.19470250615524126
1686428466761153000,7.270153076171875,1.6900016900353132,-0.9537602757483721,0.20894874764531848
1686428466771099100,7.28009912109375,1.5539621112562716,-1.4345558335006237,0.07719639946511014
1686428466781045000,7.290044921875,1.5461638585954904,-1.499207461631298,-0.3287184153532609
1686428466790990000,7.299989990234375,1.5312908452428877,-1.2814116829246283,-0.6124268916349858
1686428466800936000,7.30993603515625,1.5247903773076832,-1.060880926296115,-0.7735711741194129
1686428466810882000,7.319882080078125,1.5308336029946803,-1.0304179834932088,-0.9790968154482543
1686428466820828000,7.329827880859375,1.5519215453393755,-1.183657995659113,-1.1455727412842214
1686428466830773000,7.33977294921875,1.4984636575266719,-1.5186661953389644,-1.1737080448571593
1686428466840719000,7.349718994140625,1.4440521222509444,-1.888260555231571,-1.1095753990992903
1686428466850665200,7.359665283203125,1.3229608140178024,-2.2540771501511334,-0.9705721482090651
1686428466860611000,7.369611083984375,1.1271391128405928,-2.4456132829636332,-0.7385773829538375
1686428466870557200,7.37955712890625,0.983615315786004,-2.531418758282065,-0.6207945416815579
1686428466880502000,7.389501953125,0.9029401890933513,-2.536972885277867,-0.4648685053020715
1686428466890448100,7.3994482421875,0.8378577683299779,-2.4002783497214315,-0.16780191374272108
1686428466900394000,7.40939404296875,0.7672799650207162,-2.170169617408514,0.20155396121889352
1686428466910340000,7.419340087890625,0.7661448235109448,-1.7863111698418854,0.5490081663001328
1686428466920285000,7.429284912109375,0.7936676212087274,-1.428047766780853,0.6903262700039893
1686428466930231000,7.43923095703125,0.7292460024416446,-1.293971304768324,0.6821166600633413
1686428466940177000,7.449177001953125,0.7991916453272104,-0.9595096330553292,0.6401024687416851
1686428466950123000,7.459123046875,0.9332815513432026,-0.6092150169163942,0.5673627381581813
1686428466960068000,7.469068115234375,0.9509732753783464,-0.2531307114601135,0.3445635251410305
1686428466970014200,7.47901416015625,0.8994134762719274,0.15719371822774408,0.016268120972812175
1686428466979960000,7.4889599609375,0.70027242141366,0.46466742977201936,-0.2862384696833789
1686428466989906200,7.49890625,0.49708442925214763,0.5287766215890646,-0.5946064997188747
1686428466999851000,7.50885107421875,0.34388358005285263,0.30243863998651505,-0.7584491544418036
1686428467009797000,7.518797119140625,0.14275076685547827,-0.017542086431384087,-0.8264097609899937
1686428467019743000,7.528742919921875,-0.18553338526636362,-0.29235680643320083,-0.8070363674782216
1686428467029689000,7.538689208984375,-0.6027341304644942,-0.6144990947991609,-0.7928957600533961
1686428467039634000,7.548634033203125,-0.999154537962377,-0.8569464996814727,-0.7948537622533738
1686428467049580000,7.558580078125,-1.3014096380755305,-0.917976430183649,-0.6735745302326976
1686428467059526000,7.56852587890625,-1.400901401180029,-0.8023749515384435,-0.39170390037000175
1686428467069472000,7.578471923828125,-1.4036121214434503,-0.5135363823592662,-0.06726838650032878
1686428467079418000,7.588418212890625,-1.4867220740675926,-0.15274842925667761,0.2754014338485896
1686428467089363200,7.59836328125,-1.7190590038239955,0.2841191394418478,0.6242544728770851
1686428467099309000,7.60830908203125,-1.9481883697107434,0.6576338876485824,0.9768957982726395
1686428467109255200,7.618255126953125,-1.8817711932122707,1.0339373897910118,1.4561179692283273
1686428467119201300,7.628201171875,-1.3502414735227823,2.29791103118062,2.081052679454535
1686428467129146000,7.63814599609375,-1.1079057123214007,4.7662423419088125,2.834409771454334
1686428467139092000,7.648092041015625,-1.3426298294752836,7.432742939853668,3.6388700048342346
1686428467149038000,7.6580380859375,-1.2363210798323154,8.92951820590198,4.14589948951751
1686428467158984200,7.667984130859375,-0.5892071248933672,8.842837701314687,3.693272918412089
1686428467168928500,7.677928466796875,0.4915525140881538,7.2801464862883085,2.2140654577583074
1686428467178874400,7.687874267578125,1.2171440856754778,4.886858433845639,0.033003859457373615
1686428467188820500,7.697820556640625,0.7909092624112963,2.877017910081148,-1.2780902834169565
1686428467198766600,7.7077666015625,-0.08275456331521272,1.5397159976303576,-1.1875841561269014
1686428467208711700,7.717711669921875,-0.32587855228483675,0.5963233866393566,-0.7229366000991314
1686428467218657500,7.727657470703125,-0.2784282343238592,0.06734452047646046,-0.6446764255937188
1686428467228603600,7.737603759765625,-0.5370476063281298,0.007127659922838211,-0.9084748076710849
1686428467238549500,7.747549560546875,-0.5225181457161903,-0.02678454655110836,-1.1564049548134208
1686428467248494600,7.75749462890625,-0.06641381549760698,-0.5455652593046426,-1.1836754582505673
1686428467258440400,7.7674404296875,0.38700317533314227,-1.4500006553918123,-1.0952608233470469
1686428467268386600,7.777386474609375,0.7427462661363184,-2.352531094640493,-1.072729185000062
1686428467278332400,7.78733251953125,0.9874678995609283,-2.944928247746825,-1.2491133413881064
1686428467288278500,7.797278564453125,1.0869698917984962,-3.0450036559581757,-1.6475445041865109
1686428467298223600,7.8072236328125,0.9025542585156857,-2.740971024778485,-1.882870678886771
1686428467308169700,7.817169677734375,0.6467823848970234,-2.009938138920069,-2.02492995634675
1686428467318115600,7.827115478515625,0.3603941314794123,-1.2373977691531182,-2.039617968521267
1686428467328061700,7.837061767578125,0.03689779815599322,-0.6420476114600896,-2.066722979198396
1686428467338006500,7.847006591796875,-0.26045783947780726,-0.41800212470889087,-2.119707696541399
1686428467347952600,7.85695263671875,-0.29648470001816746,-0.5475158088505268,-1.9580511536858975
1686428467357898500,7.8668984375,-0.2595060917109251,-0.9642898530691861,-1.679268260705471
1686428467367844600,7.8768447265625,-0.031193522099778055,-1.5645558398544788,-1.7591333861894904
1686428467377789400,7.88678955078125,0.0018097528357058762,-2.1314923884898422,-1.2307776203610001
1686428467387735600,7.896735595703125,-0.07245207274854183,-2.5850427964419125,-0.6664578300952911
1686428467397681400,7.906681396484375,-0.21728505270555615,-2.7121640324890612,-0.27910578652555124
1686428467407627500,7.91662744140625,-0.34216976187229153,-2.637717571052909,0.009432434300449676
1686428467417572600,7.926572509765625,-0.3870294788181782,-2.3531407509714364,0.2835000942280516
1686428467427518700,7.936518798828125,-0.297835457039997,-1.9417811330169439,0.580349353242293
1686428467437464600,7.946464599609375,-0.00019566870257258415,-1.5772586695611477,0.8687228621929883
1686428467447410700,7.95641064453125,0.5008171860396862,-1.316781686991453,1.0094218841504305
1686428467457356800,7.966356689453125,1.044921725142002,-1.308542266434431,0.9465677338957786
1686428467467301600,7.976301513671875,1.3715817831933497,-1.5806331144303083,0.7525034708451479
1686428467477247500,7.98624755859375,1.5194132143139838,-1.9773995588868856,0.5411687048461288
1686428467487193600,7.996193603515625,1.29175888941586,-2.3455261843144894,0.41585049963295456
1686428467497139700,8.0061396484375,0.6645078650712967,-2.5792051763296127,0.4446215803587809
1686428467507084500,8.01608447265625,0.11110124461650847,-2.6499264797627924,0.5814294035639613
1686428467517030400,8.026030517578125,-0.3051859659332782,-2.6045453692913054,0.6892332140702754
1686428467526976500,8.0359765625,-0.7892712859459221,-2.3969670332163573,0.7610494731333106
1686428467536922600,8.045922607421875,-1.208361644282937,-2.058638164681196,0.8084300137937068
1686428467546867700,8.05586767578125,-1.453350550341606,-1.553225467544794,0.7606925494544208
1686428467556813600,8.0658134765625,-1.5205980401843786,-0.9352169033199548,0.6369615403674542
1686428467566759700,8.075759765625,-1.4876175616025924,-0.2745879255086183,0.4271772186808288
1686428467576705800,8.085705810546875,-1.4343226092666386,0.3085398794710636,0.14581457487288862
1686428467586650600,8.095650634765626,-1.7398849342316387,0.69587097158432,-0.13897789725326
1686428467596596500,8.105596435546875,-2.0563713887929915,0.8238128763645887,-0.33225389600303024
1686428467606542600,8.11554248046875,-2.0545809982448815,0.7719196075201034,-0.3355648837145418
1686428467616488700,8.12548876953125,-2.0250404309839007,0.7285960141003132,-0.014243410212174058
1686428467626434600,8.1354345703125,-2.139445393320918,0.8180302013099193,0.48419038782231505
1686428467636379400,8.14537939453125,-2.2968768658272922,0.981412837305665,1.0103735588520766
1686428467646325500,8.155325439453126,-2.3754607193291184,1.1661264306217431,1.5175912595838308
1686428467656271600,8.165271728515625,-2.388246551144123,1.2918658569216728,1.8056190969020127
1686428467666217500,8.175217529296875,-2.295650685033202,1.3794447716534137,1.920790075175464
1686428467676162600,8.18516259765625,-2.0995441755652426,1.6308406221449374,1.731374587778747
1686428467686108700,8.195108642578125,-1.963500797393918,2.0011247178673743,1.2361765567950904
1686428467696054500,8.205054443359375,-1.7707570423573253,2.337219543740153,0.4574522376962006
1686428467706000600,8.215000732421874,-1.3814923518329858,2.6837042462021112,-0.5884886744257062
1686428467715945500,8.224945556640625,-0.8484849608063697,3.150474785733223,-1.723591971078515
1686428467725891600,8.2348916015625,-0.5464980831753462,3.9480373685538765,-2.4287436889663336
1686428467735837400,8.24483740234375,-0.6654431000947952,4.94342261711061,-2.5632237633436916
1686428467745783600,8.254783447265625,-0.9212842395573854,5.6573190747290845,-2.3245468169108032
1686428467755728400,8.264728271484374,-0.9152893830567598,5.955162788140774,-1.7233166612684725
1686428467765674500,8.274674560546876,-0.3590063303828239,5.322064206811786,-1.0744571778364478
1686428467775620400,8.284620361328125,0.30966566863059997,4.161633942005038,-0.43438342373259364
1686428467785566500,8.29456640625,0.7206371640503406,3.3043437434524296,0.16982319043725727
1686428467795512600,8.3045126953125,0.6344084948837757,2.81149651337862,0.6858150761898607
1686428467805457700,8.314457763671875,0.5144365460693836,2.306362048661709,1.0406759042657912
1686428467815403500,8.324403564453124,0.6003039807081222,1.7791981229662894,1.2713137750193475
1686428467825349600,8.334349609375,0.6791898858964442,1.2275561740964651,1.3852831224180757
1686428467835295700,8.344295654296875,0.6576689589619636,0.6223182441174984,1.445899211422354
1686428467845240600,8.354240478515624,0.640465310704708,-0.1530371830701828,1.5709218677550554
1686428467855186400,8.3641865234375,0.6608990269243716,-0.9122931238502263,1.6642799504101276
1686428467865132500,8.374132568359375,0.5141606517374515,-1.5166437496006488,1.6440870572090147
1686428467875078700,8.38407861328125,0.18328500355137511,-2.0231448264956473,1.6277449942171573
1686428467885023500,8.3940234375,0.09004559710621833,-2.353710659813881,1.6509882148995993
1686428467894969300,8.40396923828125,0.22283377287387846,-2.321293075811863,1.6024208756074307
1686428467904915500,8.41391552734375,0.44785365761518475,-2.05103996463716,1.53686309241727
1686428467914861600,8.423861572265626,0.8505068220227956,-1.8015420567214488,1.5893731779858469
1686428467924807400,8.433807373046875,1.0504232451677322,-1.4812801752746105,1.631361723409593
1686428467934752500,8.44375244140625,1.1087059227883815,-1.0372755943030119,1.6480074455231428
1686428467944698600,8.45369873046875,1.525323315140605,-0.40985096695721146,1.3050319202259182
1686428467954644700,8.463644775390625,1.694663982757926,-0.14066636179685593,0.88975688239336
1686428467964590600,8.473590576171874,1.6696496607497333,-0.3644289399534464,0.5226776105942205
1686428467974535400,8.483535400390625,1.6453883490659296,-0.8456050214558839,0.315009806137532
1686428467984481500,8.4934814453125,1.6998171277374028,-1.0741443124949932,-0.060424009631434454
1686428467994427600,8.503427734375,1.8708932408452033,-0.9021884939432143,-0.46346309548355635
1686428468004373500,8.51337353515625,2.045698749739677,-0.6162310331583023,-0.7543519482560456
1686428468014318600,8.523318603515625,2.1921004403181374,-0.44273032325208184,-0.9984695513729005
1686428468024264400,8.533264404296874,2.1150164699852465,-0.5340098460674285,-1.2258841492310166
1686428468034210600,8.54321044921875,1.8998995550990103,-0.9954512995302677,-1.5071774175971746
1686428468044156700,8.55315673828125,1.6186282063037156,-1.7057570391803978,-1.7069915494114158
1686428468054102800,8.563102783203124,1.3610972140580415,-2.4654817665159703,-1.7970780630499124
1686428468064047600,8.573047607421875,1.2683331517733634,-3.0927848133087155,-1.779592382980883
1686428468073993700,8.58299365234375,1.2719810067564248,-3.5476135706335303,-1.636671520255506
1686428468083939600,8.592939697265624,1.1955036240145562,-3.8313913492918013,-1.2821715613812208
1686428468093885700,8.6028857421875,0.9609025487184524,-3.7402743235617875,-0.6968015304327011
1686428468103830500,8.61283056640625,0.5563265995547175,-3.317182182237506,0.029080475468561053
1686428468113776600,8.622776611328124,0.20784283223003147,-2.6086387760847805,0.6969326094664633
1686428468123722500,8.632722412109375,0.010320903006196022,-1.6713988425046205,1.2090497726775704
1686428468133668600,8.642668701171875,-0.020352467676997183,-0.564776155731082,1.5697130764871834
1686428468143613700,8.65261376953125,-0.05824029978364706,0.3712713531941175,1.9138269581645726
1686428468153559800,8.662559814453125,0.027641747902333733,0.8174684757739304,2.0109695277944204
1686428468163505700,8.672505615234375,0.5457216189101338,1.0883242290169,1.9710968054808675
1686428468173451800,8.68245166015625,0.7358788645848632,0.6962807214289903,1.7038462371230125
1686428468183397600,8.692397705078125,0.5551265761151909,0.23838322418332097,1.2542797842405735
1686428468193342700,8.7023427734375,-0.04136661413311958,-0.1902285573452711,0.5833509462110698
1686428468203288600,8.71228857421875,-0.6577580985501408,-0.37542204313278194,0.12215323837622999
1686428468213234700,8.722234619140625,-1.2245876796796917,-0.4721563242226839,-0.2943096940666437
1686428468223180500,8.7321806640625,-1.5494617310971022,-0.676226944437623,-0.35377588238343594
1686428468233125600,8.742125732421876,-1.5153741680562496,-0.9093424573510884,-0.1196845101751387
1686428468243071500,8.752071533203125,-1.339352122978866,-0.999385716369748,0.24719971397593615
1686428468253017600,8.762017578125,-1.2805340233072637,-0.9422814348787069,0.6136494922325014
1686428468262963500,8.77196337890625,-1.2268924494907258,-0.6345476110935211,0.9370995021961629
1686428468272909600,8.78190966796875,-1.3417206056758761,-0.05861936222910881,1.4965224603310225
1686428468282854700,8.791854736328125,-1.1703285584867,0.688289722675085,2.4327618385665115
1686428468292800800,8.80180078125,-0.6000590660363435,1.9477590383827685,3.3774750306367873
1686428468302746600,8.81174658203125,-0.5289972786024213,4.492308496394753,4.064335597291588
1686428468312692700,8.821692626953125,-1.3884464087545871,7.5945169716089955,4.953637721654773
1686428468322637600,8.831637451171876,-1.2553013823732733,9.54105377472043,5.37554328354299
1686428468332583700,8.841583740234375,0.5722369931310415,9.606362405455112,4.292876057374477
1686428468342529500,8.851529541015625,2.1086843443542715,7.316440619462728,1.1486033411517738
1686428468352475600,8.8614755859375,2.014180306534469,3.670602236920595,-1.8856392668172717
1686428468362420500,8.87142041015625,0.9861972951032221,1.0641349596560001,-2.462197922539711
1686428468372366600,8.88136669921875,-0.022281389912962912,-0.027023616003990173,-1.9225009707465768
1686428468382312400,8.8913125,-0.6001710019782185,-0.3507435289502144,-1.5751118667908013
1686428468392258600,8.901258544921875,-0.6219007493577897,-0.594459346333146,-1.4200374788045882
1686428468402204400,8.911204345703124,-0.27146862444430586,-0.9152262546926736,-1.4039770092330872
1686428468412149800,8.921149658203126,0.09502397004067897,-1.3170704408049583,-1.3695938242465258
1686428468422095600,8.931095703125,0.3835680863179266,-1.7318465892046688,-1.3541896266266702
1686428468432041700,8.941041748046874,0.768541801650077,-2.0696517261266707,-1.3791647856682538
1686428468441987600,8.950987548828126,1.0100450575500726,-2.116340412065387,-1.6038862719848752
1686428468451932700,8.9609326171875,0.9763095228172838,-1.7435294282138347,-1.9309801914088427
1686428468461878500,8.97087841796875,0.8166016298115253,-1.056872859698534,-2.214530444921553
1686428468471824600,8.98082470703125,0.7866789313651621,-0.1814268267303705,-2.3158514692798255
1686428468481770500,8.9907705078125,0.7376419287346303,0.5585094965517521,-2.2802738138116894
1686428468491715600,9.000715576171874,0.6542981673546135,0.8663228153139352,-2.219355380859971
1686428468501661400,9.010661376953125,0.5458607351198792,0.5606435859709977,-2.201675055001676
1686428468511607600,9.020607666015625,0.5629116770334541,-0.23238486055135726,-2.128799203883111
1686428468521553400,9.030553466796874,0.5253028079986573,-1.2398422396957873,-1.86215288502872
1686428468531499500,9.04049951171875,0.36752865953445435,-2.1193694044977427,-1.5878255101524292
1686428468541444600,9.050444580078125,0.26191315285265443,-2.789662282711267,-1.5033255644746124
1686428468551390700,9.060390625,-0.130602648422122,-2.954141481772065,-0.9497581274349242
1686428468561336600,9.070336669921875,-0.5572158765446394,-2.872522936749458,-0.535766772737354
1686428468571282700,9.08028271484375,-0.8151980466239154,-2.541037065976858,-0.05526055332049727
1686428468581227500,9.0902275390625,-0.9034538377039134,-2.036324041542411,0.45158352832589294
1686428468591173600,9.100173583984375,-0.799550541767478,-1.5681424661695955,0.9770837951254099
1686428468601119500,9.110119384765625,-0.41683651499561963,-1.2020663435310124,1.3410504513293504
1686428468611065600,9.120065673828124,0.24700141492486,-0.8766028017878532,1.4725437649808824
1686428468621010400,9.130010498046875,0.9065876056849956,-0.7468412803649902,1.4135605378754437
1686428468630956500,9.13995654296875,1.3296123808614908,-0.8978209463834762,1.2232401375282556
1686428468640902400,9.14990234375,1.2977519923508167,-1.2626058601677417,0.9966586294934153
1686428468650848500,9.1598486328125,0.8883160359352826,-1.7871219017028808,0.8401646570328622
1686428468660794600,9.169794677734375,0.3955663479518145,-2.2193372606813906,0.6207417885810137
1686428468670739700,9.17973974609375,-0.13310958974175155,-2.4622931996077297,0.4915242378417402
1686428468680685600,9.189685546875,-0.6815297270208597,-2.4272218862265347,0.3569527223212644
1686428468690631700,9.199631591796875,-1.1003127729743718,-2.2805957392424343,0.1429574684087187
1686428468700577500,9.20957763671875,-1.4621446821719408,-2.120148572176695,0.023921631400659678
1686428468710522600,9.219522705078125,-1.6116232959777115,-1.9047376427799463,-0.13794512013942004
1686428468720468500,9.229468505859375,-1.556920230409503,-1.5265958192944526,-0.4042505166016519
1686428468730414600,9.23941455078125,-1.4516770641714334,-0.9697995564013719,-0.5229276763651519
1686428468740360400,9.2493603515625,-1.4053367532789707,-0.4618599711358547,-0.4216812516130507
1686428468750305500,9.259305419921875,-1.5397405475497246,-0.062327569097280495,-0.3424505150424316
1686428468760251600,9.269251708984376,-1.6290607529908419,0.296030526509881,-0.4075962833655998
1686428468770197500,9.279197509765625,-1.67637955352664,0.6574047550678253,-0.18711276341229677
1686428468780143600,9.2891435546875,-1.4259773902475834,0.9503986903607845,0.15248656345009803
1686428468790089700,9.29908984375,-1.1735545347958802,1.0964607737213372,0.5151826882615685
1686428468800034600,9.30903466796875,-1.279295129162073,1.2410621368795633,0.9005153000339865
1686428468809980700,9.318980712890625,-1.49998721383214,1.4080430896282194,1.1362317161608486
1686428468819926500,9.328926513671876,-1.6378747585654259,1.7143559406995772,1.274882865677774
1686428468829872600,9.33887255859375,-1.64816175930202,2.1618279055207967,1.235280923129618
1686428468839817500,9.3488173828125,-1.495003580200672,2.5634347757458684,0.9864324920985847
1686428468849763600,9.358763671875,-1.3368015617132185,2.8756355158120392,0.5269825047139078
1686428468859709400,9.36870947265625,-1.2154314365386962,3.2953228171288966,-0.2259744820524007
1686428468869655600,9.378655517578125,-0.9807090729504823,3.9108307967096563,-1.0206902971398084
1686428468879601400,9.388601318359376,-0.9369967724740504,4.591405414962768,-1.5734956637658177
1686428468889546800,9.398546630859375,-0.96900109950006,5.138690922188759,-1.527009076270461
1686428468899492600,9.40849267578125,-0.7338526194542646,4.948920045483112,-1.319218412619084
1686428468909438700,9.418438720703126,-0.4852934536933899,4.1990129478067155,-1.1846898959901184
1686428468919384600,9.428384521484375,-0.45653263863325116,3.3738562556177376,-0.9344542483843863
1686428468929329700,9.43832958984375,-0.42330958346724507,2.7018057200819254,-0.2715139248907566
1686428468939275500,9.448275634765626,-0.2971335193157196,2.21158007068336,0.4656603132668882
1686428468949221600,9.4582216796875,-0.2239303359389305,1.7391957829236984,0.889246375587955
1686428468959167500,9.46816748046875,0.08049567847251891,1.1399328357011078,1.092138964999467
1686428468969112600,9.478112548828125,0.530499207597971,0.6130377900749444,1.1098155645307153
1686428468979058400,9.488058349609375,0.8654208980381488,0.27403029162585735,0.9547606118973344
1686428468989004500,9.498004638671874,1.017961237502098,-0.044540567994117736,0.7655895277157425
1686428468998950400,9.507950439453126,0.9831985516786574,-0.3892681976556778,0.6062031217493117
1686428469008896500,9.517896484375,0.8100339418590068,-0.6806015062600373,0.5188659068189561
1686428469018841600,9.527841552734374,0.5553904877483844,-0.9700614222079514,0.5903700311928988
1686428469028787700,9.53778759765625,0.2761246335566044,-1.3545195892333983,0.9063109807007014
1686428469038733600,9.547733642578125,0.22324819889366626,-1.7519307613343,1.1154896646443753
1686428469048679700,9.5576796875,0.2623281633943319,-2.0198715039134023,1.2640253715768455
1686428469058624500,9.56762451171875,0.46949853972289707,-2.1940438294708726,1.509798998272419
1686428469068570600,9.577570556640625,0.3488853703955188,-2.328281035003066,2.0562359258450567
1686428469078516500,9.5875166015625,0.34048524285145104,-1.998407860124111,2.3658834742970765
1686428469088462600,9.597462646484376,0.736976377497986,-1.394071262899041,2.2007509258940816
1686428469098408400,9.607408447265625,1.0390804517678915,-0.9763871180981397,1.8045526367142795
1686428469108353500,9.617353515625,1.445310451748967,-0.6569827302634715,1.4137616134054958
1686428469118299400,9.62729931640625,1.8638783936470746,-0.36358138321340083,1.134809501338005
1686428469128245500,9.63724560546875,1.9668232198148965,-0.1440127496153116,0.751794738053903
1686428469138191400,9.64719140625,1.9496802157036959,0.15435001923441885,0.39158684986159203
1686428469148136700,9.65713671875,1.867855480584502,0.4708043250918388,-0.011397080870345234
1686428469158082600,9.66708251953125,1.713843315002322,0.6838859347581863,-0.4562332903604954
1686428469168028700,9.677028564453124,1.5388672718465328,0.6176590201348066,-0.8825805610232055
1686428469177975300,9.686975341796876,1.327328215447068,0.039756840848922725,-1.2129771021891385
1686428469187921400,9.69692138671875,1.2242641468137503,-0.936111806333065,-1.4884263937674462
1686428469197866200,9.7068662109375,1.1688239991426468,-1.969569303652644,-1.78037184292078
1686428469207812400,9.716812255859375,1.214854659564048,-2.808113885203004,-2.002777453510463
1686428469217758200,9.72675830078125,1.3199470191545783,-3.402019689306617,-1.9897741795524955
1686428469227704300,9.736704345703124,1.191134907411039,-3.7133249418377874,-1.6137871960133314
1686428469237649200,9.746649169921875,0.8640398189432918,-3.685488840407133,-1.005907811614871
1686428469247595300,9.75659521484375,0.4421741506740451,-3.3290871395647526,-0.3452505575571209
1686428469257541000,9.766541015625,0.032118308794498444,-2.7386446276575325,0.2493378950484097
1686428469267487200,9.7764873046875,-0.1818237170934677,-1.9759487755566834,0.7292771282322704
1686428469277432300,9.786432373046875,-0.15737302031740547,-1.2340537194222212,1.0765273351740092
1686428469287378400,9.79637841796875,0.10092968695312737,-0.4431038327395916,1.2984781146682798
1686428469297324300,9.80632421875,0.3709092418834567,0.027346856608986853,1.3902324153885244
1686428469307270400,9.8162705078125,0.6967340181544422,0.1485135681658983,1.3569908016525207
1686428469317216300,9.82621630859375,0.95587156881392,0.4000339218199253,1.1998770167931914
1686428469327161300,9.836161376953125,0.5946183362871408,0.45763680048286914,0.8630714123025536
1686428469337107200,9.846107177734375,-0.09817308172136545,0.0820475840896368,0.3277221343249082
1686428469347053300,9.85605322265625,-0.5263005868643522,-0.24716917270720004,0.11293635108917952
1686428469356999200,9.865999267578125,-0.9093307669132947,-0.731253835132718,-0.08260916349515318
1686428469366944300,9.8759443359375,-1.0633028927460313,-1.0138999794125556,-0.17356325374841688
1686428469376890000,9.88589013671875,-1.1781070835337042,-1.1620838772326707,-0.2901788778722286
1686428469386836200,9.895836181640625,-1.277715458755195,-1.1450392189294099,-0.24729879043623804
1686428469396782000,9.905781982421875,-1.2499547606483101,-1.0423942524909973,0.00757321173325181
1686428469406728200,9.915728271484374,-1.1148396032378076,-0.8650514802038669,0.3074037150479853
1686428469416673300,9.92567333984375,-1.0238687079802156,-0.5129354938566685,0.6810980576053262
1686428469426619400,9.935619384765625,-0.7609487161725759,0.03731587743759155,1.3666905040204524
1686428469436565200,9.945565185546876,-0.032086744612455365,0.7441501415848731,2.379972497665137
1686428469446511400,9.955511474609375,0.5828264839455485,2.2600322591632604,3.403909740836918
1686428469456456200,9.965456298828125,0.18495704668313265,5.075593537762761,4.193646452337503
1686428469466402300,9.97540234375,-1.2840769566111265,8.244266828009486,5.022354699528217
1686428469476348200,9.98534814453125,-1.7939926642552018,10.05672600006461,5.067338335114717
1686428469486294300,9.995294189453125,0.08839782989919186,9.686379945021867,3.273762727227807
1686428469496240000,10.005240234375,2.203641094377637,7.11050303633213,0.16816694766283033
1686428469506185200,10.015185302734375,2.1763433376073835,3.4406612623900172,-2.135393633712083
1686428469516131000,10.025131103515625,0.580908375364542,0.5608253722786903,-2.513006318756938
1686428469526077200,10.0350771484375,0.10096095887422561,-0.9082195908010006,-1.9394336931079625
1686428469536023000,10.04502294921875,-0.07854805153608321,-1.1817992160499096,-1.4976400661841034
1686428469545969200,10.05496923828125,-0.6376407548032701,-0.9319096784681081,-1.4013143658950924
1686428469555914200,10.064914306640626,-0.5045965584479272,-0.771232209777832,-1.3895926561802625
1686428469565860400,10.0748603515625,-0.2497580201566219,-0.8604705821543931,-1.2748337658390403
1686428469575806200,10.08480615234375,-0.018778496358543634,-1.1330927605479955,-1.2655820994995535
1686428469585752300,10.09475244140625,0.1431979261010885,-1.3833768504053354,-1.4576286660522222
1686428469595697200,10.104697265625,0.4216213381193578,-1.4225152670949697,-1.8552023352384566
1686428469605643300,10.114643310546874,0.5784666813008487,-1.2179969031125306,-2.210482484705001
1686428469615589000,10.124589111328126,0.640059798643738,-0.7666904746949672,-2.445887569860369
1686428469625535200,10.13453515625,0.681986969269067,-0.21050795978605746,-2.503797176384926
1686428469635480000,10.14447998046875,0.7616365523062646,0.2814204018771648,-2.471263564787805
1686428469645426200,10.15442626953125,0.7298373924635351,0.3537643380761146,-2.4165415022581813
1686428469655372000,10.1643720703125,0.707736181423068,0.04414017049968243,-2.301378853421658
1686428469665318100,10.174318115234374,0.5163590385645628,-0.5139373643755912,-1.85013730693385
1686428469675264000,10.184263916015626,0.6064397069841623,-1.1746633728206157,-2.2124903173960746
1686428469685209300,10.194209228515625,0.5254711503028869,-1.701416964149475,-1.696907377770543
1686428469695155200,10.2041552734375,0.2727006504572928,-1.9472803149551152,-1.094950369158387
1686428469705101300,10.214101318359376,-0.08584514974169433,-2.0338807400435206,-0.6203728822033852
1686428469715047200,10.224047119140625,-0.5008148479521274,-1.9389958862125873,-0.20445713531449436
1686428469724993300,10.2339931640625,-0.7039112163074314,-1.4910364301353691,0.25320878166500477
1686428469734938000,10.243938232421876,-0.5812849535919725,-1.0518477250128984,0.8168498324189335
1686428469744884200,10.25388427734375,-0.3979917484678328,-0.7963502844214438,1.2515449524492024
1686428469754830000,10.263830078125,-0.15300152723491192,-0.7599088517308235,1.4570570036441086
1686428469764776200,10.273776123046876,0.1774579230993986,-0.9669809918493032,1.5548679740548133
1686428469774721000,10.283720947265625,0.4747662144601345,-1.3801836073219775,1.4700906727403402
1686428469784667100,10.293667236328124,0.566546818665415,-1.9756962621003389,1.2778611508361994
1686428469794613200,10.30361328125,0.5058312878746539,-2.5331197169810533,1.0471540873039513
1686428469804559000,10.31355908203125,0.09327559200339018,-2.954928832757473,0.9283148688465356
1686428469814505200,10.323505126953124,-0.26342816052548584,-3.1856735248863695,0.8169158103272318
1686428469824450300,10.3334501953125,-0.5784878702193498,-3.3416403316676613,0.9324247153181582
1686428469834396200,10.343396240234375,-0.8758375895690172,-3.376246365624666,1.042518609523028
1686428469844342300,10.35334228515625,-1.0467967982988804,-3.2170845621943474,0.9807468476776033
1686428469854288100,10.3632880859375,-1.1433096186578273,-2.8137206191688775,0.7801248335465788
1686428469864233200,10.373233154296875,-1.1871545325379818,-2.2082313447773454,0.5287698265220969
1686428469874179000,10.383178955078124,-1.1619716490298508,-1.5560884557604788,0.23306053132321683
1686428469884125200,10.393125244140625,-1.1695049671441315,-0.9061737641870975,-0.08112619492840022
1686428469894071000,10.403071044921875,-1.2512211273223162,-0.42415538664162156,-0.4749770441992208
1686428469904017200,10.41301708984375,-1.3813047203063964,-0.20025193870961666,-0.8611344528906046
1686428469913962200,10.422962158203125,-1.4049796104043721,-0.14693594358563422,-1.0910079151429235
1686428469923908400,10.432908447265625,-1.4286030625760555,-0.11194763231277464,-1.0720871607694775
1686428469933854200,10.442854248046874,-1.6358597654812037,-0.015173603734374045,-0.7814248102292418
1686428469943800300,10.45280029296875,-1.8038503336638212,0.0702004944294691,-0.2490396427541971
1686428469953745200,10.4627451171875,-1.8729314686745404,0.04457622382938862,0.2464223729278892
1686428469963691300,10.472691162109374,-1.8526222556173801,0.007846621847152709,0.6022355332925915
1686428469973637000,10.48263720703125,-1.8810949013859033,0.13490122239887714,0.9919087315525859
1686428469983583200,10.492583251953125,-2.1316391034841535,0.44113048684000966,1.3619295732289551
1686428469993529300,10.502529296875,-2.312755402960628,0.8567612062424421,1.4664426716268062
1686428470003474200,10.51247412109375,-2.2313334034234282,1.4032581934392452,1.2445897264838217
1686428470013420000,10.522419921875,-1.867239979034662,2.152798211368918,0.744112659118697
1686428470023366100,10.5323662109375,-1.5234873318850992,2.874138555252552,0.13935425628498196
1686428470033312300,10.542312255859375,-1.3033341763973236,3.4741999593764543,-0.46871224818341434
1686428470043258000,10.552258056640625,-1.049429557955265,4.062773170280456,-1.1619827549457549
1686428470053203200,10.562203125,-0.6950258259970694,4.5840924616009,-1.6922347097843884
1686428470063149300,10.5721494140625,-0.4413958232453093,5.031762579342723,-1.8529548485726117
1686428470073095200,10.58209521484375,-0.45023737441394474,5.316034278997779,-1.7822063648715614
1686428470083041300,10.592041259765624,-0.7396919931322335,5.215820923620462,-1.7090607569009064
1686428470092986000,10.601986083984375,-1.2039642861068247,5.129056832402944,-1.3978883369691668
1686428470102932200,10.61193212890625,-1.3530015858858824,4.851747957497835,-1.243752106615901
1686428470112878000,10.621878173828126,-1.201889817920327,4.44611957667172,-1.014755134937167
1686428470122824200,10.63182421875,-0.803219001147151,3.927811157605052,-0.5337145163826644
1686428470132770300,10.641770263671875,-0.3955003700435161,3.1029642620176077,-0.03999671401940286
1686428470142715100,10.651715087890626,-0.05554010091423988,2.1914970675975085,0.42266792456284163
1686428470152661000,10.661660888671875,0.21896776336180046,1.5125187786251306,0.920825243743509
1686428470162607000,10.671607177734375,0.5651859055757522,0.9908908597469329,1.2177736157506704
1686428470172552400,10.681552490234376,0.8982336188375949,0.5032300924003124,1.2404726465538143
1686428470182497300,10.691497314453125,1.1482254477500915,-0.0500929414242506,1.148628987049684
1686428470192443400,10.701443359375,1.2552934913277625,-0.5287140777468681,0.9520348401952534
1686428470202389200,10.71138916015625,1.2867244023799895,-1.0296925918281077,0.71989460205473
1686428470212335400,10.72133544921875,1.181841301625967,-1.5657207919806242,0.4307194943975657
1686428470222281200,10.73128125,0.873328310161829,-1.977844380044937,0.3088270258493721
1686428470232226300,10.741226318359375,0.8259773609220981,-2.2337521550029513,0.3717046300448477
1686428470242172200,10.751172119140625,0.7105798804163932,-2.312729245606065,0.4827210459221154
1686428470252118300,10.7611181640625,0.7366086401641369,-2.333658051866293,0.6218212543807924
1686428470262064000,10.771064208984376,0.7558581150352954,-2.158437094038725,0.8155600118041038
1686428470272010200,10.78101025390625,0.41915012570023535,-1.613888318300247,1.021643871537596
1686428470281955300,10.790955322265624,0.5105612024733797,-0.6300356866270304,0.8779713136620819
1686428470291901400,10.8009013671875,0.8352800998616963,-0.0004933364748954773,0.7243801499709487
1686428470301847300,10.810847412109375,1.2838966316081584,0.017260346880555152,0.6413649629581719
1686428470311793400,10.82079345703125,1.8750071059048175,-0.5403805501431227,0.5111145620398223
1686428470321738200,10.83073828125,2.394208236027509,-1.2404162401914596,0.17362471987837924
1686428470331684400,10.840684326171875,2.6363644028782844,-1.638771415144205,-0.16920129567924885
1686428470341630200,10.850630126953124,2.660406372722983,-1.807541589397192,-0.5671600917255506
1686428470351576300,10.860576416015626,2.462984104481339,-1.595460681205988,-0.8795771414235234
1686428470361522400,10.8705224609375,2.0619507963605224,-1.389774442487955,-1.109489035990089
1686428470371467300,10.88046728515625,1.532491453204304,-1.4484569330811499,-1.29408572492823
1686428470381413000,10.8904130859375,1.1655473155595362,-1.794865063175559,-1.4624354818120597
1686428470391359200,10.900359130859375,1.0025456417053937,-2.2701924186497924,-1.653417487873137
1686428470401305300,10.910305419921874,1.0588228247225284,-2.7521926760166884,-1.8020652038127183
1686428470411251200,10.920251220703125,1.209220453069359,-3.1433056247562168,-1.812885434643179
1686428470421196300,10.9301962890625,1.2446383879311382,-3.391131215545535,-1.584137907680869
1686428470431142400,10.940142333984374,1.143335483751446,-3.4410096374362706,-1.075479579686746
1686428470441088500,10.950088623046875,0.8364011397808789,-3.188620684254169,-0.38999512369073924
1686428470451034400,10.960034423828125,0.4088527497000992,-2.6529946351617575,0.28885340142212806
1686428470460979200,10.969979248046876,-0.0006184241592884064,-2.0484376731842757,0.786918366144225
1686428470470925300,10.97992529296875,-0.004476268631219864,-1.2238304315716027,1.244535365948081
1686428470480871400,10.989871337890625,0.17999241001307964,-0.4243360039055347,1.5789225111201404
1686428470490817300,10.9998173828125,0.5051382641091943,0.2828086413651705,1.7081709684543311
1686428470500763400,11.009763427734375,0.6930407165944575,0.421107104986906,1.5466086797535419
1686428470510708200,11.019708251953125,0.835013484814763,0.3153723558396101,1.2804706026822328
1686428470520654300,11.029654296875,0.6847539497643709,0.18636779026389122,0.9279853446312248
1686428470530600200,11.03960009765625,0.07060849070847033,-0.09703355629742146,0.347146673502028
1686428470540546300,11.04954638671875,-0.5393871551916003,-0.4321101450383663,-0.1811271131314337
1686428470550492200,11.0594921875,-0.7733034630939364,-0.45785716523528097,-0.5144650415115058
1686428470560437500,11.0694375,-1.0029226583242417,-0.6308803207576275,-0.6710726304143667
1686428470570383400,11.07938330078125,-1.1997595278933644,-0.9578501754105091,-0.5276249673359096
1686428470580329500,11.08932958984375,-1.2979027989983558,-1.2324077057808638,-0.19387626619786022
1686428470590275300,11.099275390625,-1.2817577198833225,-1.2659504944205284,0.15782880126088858
1686428470600220400,11.109220458984375,-1.2861015943065286,-0.9717331548124551,0.44038770564869045
1686428470610166300,11.119166259765626,-1.2789479231595993,-0.375315660148859,0.818169755911082
1686428470620112400,11.1291123046875,-1.3008277465343474,0.41896658582687374,1.4109287280671299
1686428470630058200,11.139058349609375,-1.2077882283091543,1.2561135755389927,2.210714101503789
1686428470640004400,11.14900439453125,-0.7776189882054925,2.467080433884263,3.191259800586104
1686428470649949400,11.158949462890625,-0.47392508746087547,4.466705853104591,4.241155807009339
1686428470659895300,11.168895263671875,-0.8660156490609049,6.926143663281202,5.295802222830057
1686428470669841400,11.17884130859375,-1.547098801358044,8.609270937502384,5.823655884355306
1686428470679787500,11.18878759765625,-0.603844137533009,8.689706994742155,4.820901276074349
1686428470689733400,11.1987333984375,1.4281547342866658,7.320493109723925,1.9902593327209352
1686428470699678500,11.208678466796876,2.090918093778193,5.029838917803764,-1.2875329422838986
1686428470709624300,11.218624267578125,1.1469570352494716,2.800755923655629,-2.6906735006928444
1686428470719570400,11.2285703125,0.02110153247863054,1.3820838879853485,-2.1047493429929016
1686428470729516300,11.238516357421876,-0.6185375565350055,0.6620329993903636,-1.256975599195808
1686428470739462400,11.24846240234375,-0.7728831918552518,0.29260405919253824,-0.817197988269478
1686428470749407200,11.2584072265625,-0.26654958048164845,-0.022262100690603255,-0.5979563946686685
1686428470759353300,11.268353271484376,0.4309381786495447,-0.445406264463067,-0.4483418064583093
1686428470769299200,11.27829931640625,0.7032623970098794,-0.9648819737434386,-0.4061402758710086
1686428470779245300,11.288245361328125,0.5290539772257209,-1.4813848046928644,-0.5171633406847715
1686428470789190400,11.2981904296875,0.5052776725798845,-1.9452058467686175,-0.8169732396028936
1686428470799136500,11.308136474609375,0.8378051613599061,-2.23961081790328,-1.2667758393287658
1686428470809082400,11.318082275390625,1.1756104444123805,-2.244606141972542,-1.7946023205861448
1686428470819028500,11.328028564453126,1.257773033183813,-1.8243062617152928,-2.302096938563138
1686428470828974300,11.337974365234375,1.1154776088804006,-1.1261597464144228,-2.6273449378594753
1686428470838919400,11.34791943359375,0.9276168035797774,-0.44401568688750265,-2.7097987646624446
1686428470848865300,11.357865234375,0.7220638358525931,0.015945172628760336,-2.612989372509718
1686428470858811400,11.367811279296875,0.6684691699177027,0.17949147475361824,-2.3596602158680557
1686428470868757200,11.37775732421875,0.6883370689481496,-0.04271978230774402,-2.078750686122477
1686428470878703400,11.387703369140626,0.6598147388190031,-0.5692231982678174,-1.6736882686160504
1686428470888648200,11.397648193359375,0.5021687467791139,-1.0721575225919484,-1.3486498204171657
1686428470898594300,11.40759423828125,0.2651383985094726,-1.5375310548067092,-0.9785122935585677
1686428470908540200,11.4175400390625,-0.02374503272473812,-1.864804276320338,-0.49233230282161383
1686428470918486300,11.427486328125,-0.2907067011386156,-1.9612568178594112,-0.10364893758287652
1686428470928431400,11.437431396484374,-0.4848170683532953,-1.8991700717806814,0.02566841113590635
1686428470938377500,11.44737744140625,-0.648759091797471,-1.628769661089778,0.2017563519231975
1686428470948323300,11.4573232421875,-0.7085954286009073,-1.328400813114643,0.4941993753351271
1686428470958269400,11.46726953125,-0.48396761191710824,-1.1579232504218817,0.8119616950511932
1686428470968215300,11.47721533203125,-0.048443859042972326,-1.1285492718994616,0.9417116721667349
1686428470978160400,11.487160400390625,0.5019423906773328,-1.2764075910270214,0.8100511852547526
1686428470988106200,11.497106201171874,1.0150245995283127,-1.4438357030212878,0.6219749105725437
1686428470998052400,11.50705224609375,1.271665657196939,-1.6786650341153144,0.4202670739661902
1686428471007998200,11.516998291015625,1.1544003369927405,-1.9243927758425472,0.30371881599016487
1686428471017944300,11.5269443359375,0.8358183714568614,-2.142653249451518,0.25899631555788216
1686428471027889200,11.53688916015625,0.5087596694767474,-2.3164035502046345,0.24287717460170385
1686428471037835300,11.546835205078125,0.15868899828679858,-2.509648825022578,0.19801285454593598
1686428471047781000,11.556781005859374,-0.13966390675604343,-2.600250886967778,0.1654020495267585
1686428471057727200,11.566727294921876,-0.36734453513920307,-2.4902397756755352,0.1547355296869762
1686428471067673300,11.57667333984375,-0.6773458654649556,-2.2048878795683384,0.15300625820895655
1686428471077618400,11.586618408203124,-0.8689877236742526,-1.7845336387753485,0.1416425133526325
1686428471087564300,11.596564208984375,-0.8376747399132698,-1.3928244777083396,0.09721362557206302
1686428471097510400,11.606510498046875,-0.7399433375447988,-1.1358452741265297,0.0049863735778257244
1686428471107456500,11.61645654296875,-0.6569470013629645,-0.9136153123646974,-0.11373926496990025
1686428471117401300,11.6264013671875,-0.7315904466759413,-0.7037099946469069,-0.06924125747587531
1686428471127347200,11.63634716796875,-0.8099205446124076,-0.43146717095971104,0.04705477930475026
1686428471137293300,11.646293212890624,-0.8188718397658318,-0.12720657624304293,0.2548938121424988
1686428471147239200,11.6562392578125,-0.8940641511332243,0.15340309377312658,0.4960849333534017
1686428471157185300,11.666185302734375,-0.8277689205139875,0.33446108719110484,0.6424579458266496
1686428471167130000,11.676130126953124,-0.7783101853400468,0.38167175117731095,0.7366002376619726
1686428471177076500,11.686076416015625,-0.9371340620528906,0.32021336612999435,0.8572980895981193
1686428471187022600,11.696022705078125,-1.2255781520217657,0.17826631687283515,1.0294965577993542
1686428471196968400,11.705968505859374,-1.5670605161517857,-0.056387657654285425,1.1861360031452028
1686428471206914600,11.71591455078125,-1.9921260033756494,-0.26161621573269367,1.236632922260463
1686428471216859600,11.725859619140625,-2.3569898276150227,-0.27788229087889194,1.200764467152208
1686428471226805800,11.7358056640625,-2.528405547940731,-0.11175064843595027,1.185834170654416
1686428471236751600,11.745751708984375,-2.5762322979986667,0.19211364043951035,1.170968609955907
1686428471246697700,11.75569775390625,-2.4044360539227725,0.6685977647334337,1.087526429702714
1686428471256643600,11.7656435546875,-2.094043824583292,1.3555132764458655,0.9367116719223558
1686428471266588700,11.775588623046875,-1.845790948292613,2.2068249851107598,0.7849975541494786
1686428471276534500,11.785534423828125,-1.4802654452741144,2.9190953028321265,0.370744041384384
1686428471286480600,11.795480712890624,-0.8986859657149762,3.5591771671772,-0.2705061360877007
1686428471296426500,11.805426513671875,-0.38093876072764393,4.024917194616794,-0.9345606313683092
1686428471306372600,11.81537255859375,-0.24778697581198064,4.080173217892646,-1.4443987437315284
1686428471316317400,11.8253173828125,-0.2988677592298016,3.7886622146338222,-1.6925912681370971
1686428471326263600,11.835263671875,-0.3941419046392664,3.5052556073755023,-1.7343901362076402
1686428471336209400,11.84520947265625,-0.5654161706676706,3.5831156766474246,-1.6343123899087308
1686428471346155500,11.855155517578124,-0.8265747422933578,4.0290158621072765,-1.4765643987990915
1686428471356100600,11.8651005859375,-1.1476152068972587,4.5769285613209005,-1.1971002455562352
1686428471366046700,11.875046630859375,-1.002910383364558,4.983155492562055,-0.8526326550703496
1686428471375992600,11.88499267578125,-0.5164455478042363,5.188984939143062,-0.3767556298241019
1686428471385938700,11.894938720703125,0.32658407020568847,4.798419687414169,-0.14938801291286943
1686428471395884500,11.904884521484375,1.0410814163267612,3.655550213739276,-0.27557167584896086
1686428471405829600,11.91482958984375,1.3030804938971996,2.478821725082397,-0.09041136167868971
1686428471415775500,11.924775390625,1.1713736836254596,1.6903858670473098,0.39583062491118903
1686428471425721600,11.9347216796875,0.7861433631837368,0.9514344631493091,0.6053839143209159
1686428471435667500,11.94466748046875,0.22725858531249685,0.3694681031644344,0.7206902094118297
1686428471445613600,11.954613525390625,-0.2605821965098381,-0.40700668344199653,0.9260062996432185
1686428471455558700,11.96455859375,-0.6783832456886768,-1.4478145435243843,1.2502895455606282
1686428471465504800,11.9745048828125,-1.1199497858583927,-2.3868770163565873,1.5644428809992967
1686428471475450600,11.98445068359375,-1.1812345679044722,-3.1512568760216233,1.4682190336495637
1686428471485396700,11.994396728515625,-1.0640893669486045,-3.4230852736890314,1.2080859691467136
1686428471495342600,12.004342529296874,-0.7100982343792915,-3.3518665421277283,1.0451247003681956
1686428471505287700,12.01428759765625,-0.21657237439155577,-3.00564370547235,0.9394439464304596
1686428471515233500,12.024233642578125,0.36195056714117524,-2.513323129621148,0.981972590080276
1686428471525179600,12.0341796875,0.9137830701470374,-1.9581214424431324,1.1014298673707992
1686428471535125500,12.04412548828125,1.2756219936072826,-1.3595511536598204,1.219254355827719
1686428471545071600,12.054071533203125,1.3095757011353968,-0.6949199544697999,1.3032656412057577
1686428471555016400,12.064016357421876,1.5907706236936152,0.0037830256700515743,1.1449036098510026
1686428471564962600,12.073962646484375,1.844070554240793,0.27559330315887925,0.748835376791656
1686428471574908400,12.083908447265625,2.014034468322992,0.2273901210039854,0.4999500843489542
1686428471584854500,12.0938544921875,2.0674146147243677,-0.15375439142882824,0.31651630171034484
1686428471594800400,12.10380029296875,2.083791310638189,-0.5434276627540588,-0.017493009425536728
1686428471604745700,12.113745849609375,2.0147494847245513,-0.6962865666478872,-0.44998204794600605
1686428471614691600,12.123691650390626,1.8663398153245447,-0.7407920633286237,-0.7225209319703281
1686428471624637700,12.1336376953125,1.672867746013403,-0.751412826064229,-0.6869141965381801
1686428471634583600,12.14358349609375,1.50511580889225,-0.9017273061722516,-0.6937566097788512
1686428471644529700,12.15352978515625,1.3904248692207037,-1.2696966952115296,-0.7995704155117273
1686428471654474500,12.163474609375,1.2590082740671933,-1.7519459589034319,-0.8991779870156198
1686428471664420600,12.173420654296875,1.13189580584839,-2.2294757928580045,-0.9536896947301924
1686428471674366500,12.183366455078126,1.0272406686313449,-2.654827111285925,-0.9839207284733652
1686428471684312600,12.1933125,0.9280290376424789,-2.9393934099733827,-0.9873816825821995
1686428471694258700,12.2032587890625,0.7814525750190019,-3.047971858114004,-0.9164079387579113
1686428471704203500,12.21320361328125,0.6250048528529704,-2.944176552596688,-0.7057810287673026
1686428471714149400,12.2231494140625,0.5313353661611676,-2.7081255707532166,-0.40454935341775417
1686428471724095500,12.233095458984375,0.5093804317235946,-2.3578104963481423,-0.06255268309004604
1686428471734041600,12.24304150390625,0.45721711376607416,-1.8502736466646192,0.29023396906033155
1686428471743987500,12.252987548828125,0.41917175301015375,-1.1930968551337717,0.5553654263723641
1686428471753932500,12.2629326171875,0.2820315195128322,-0.7379454417258501,0.7604471963912248
1686428471763878700,12.272878662109376,0.3264350171238184,-0.23803192652761934,0.855066092762351
1686428471773824800,12.28282470703125,0.395578988237679,0.249056593888998,0.8218934526093303
1686428471783770600,12.2927705078125,0.4381400728523731,0.6400275038093328,0.5862590887427329
1686428471793716700,12.302716796875,0.25503946769088504,0.5940040037810802,0.3080367522545159
1686428471803661600,12.31266162109375,0.03654781567454338,0.5250958872497081,0.14427680737897752
1686428471813607700,12.322607666015625,-0.43895811123698947,0.22236323275268077,-0.10766834755837917
1686428471823553500,12.332553466796876,-0.8073834273502231,-0.07405424724817275,-0.21739728090837596
1686428471833499600,12.342499755859375,-1.13292587954849,-0.2285574112176895,-0.23552754249125718
1686428471843445500,12.352445556640625,-1.448113818731904,-0.4741694176107645,-0.07414309457540512
1686428471853390600,12.362390625,-1.6203051996052265,-0.7642021650105715,0.16010390658602117
1686428471863336400,12.37233642578125,-1.6598866838872433,-0.9167220462083816,0.40156273882240057
1686428471873282600,12.382282470703124,-1.730249675402045,-0.7339099025994539,0.6946922831937671
1686428471883228400,12.392228515625,-1.9148805588707327,-0.4319885644853115,1.0006173039913178
1686428471893174500,12.402174560546875,-2.042575210891664,-0.12087912678718567,1.4041906519837677
1686428471903119600,12.41211962890625,-2.0835279835268854,0.1545709685087204,2.0648314663633704
1686428471913065700,12.422065673828126,-1.7090215939342974,0.760551241287589,2.9775352168411016
1686428471923011600,12.432011474609375,-1.0051213374122976,2.605515675628185,3.7554736462593077
1686428471932957700,12.441957763671875,-1.2307272053480147,5.614519797444343,4.3694455023139716
1686428471942903600,12.451903564453126,-2.1354975324779746,8.127430839133263,5.025437467974424
1686428471952848600,12.4618486328125,-1.0241989628478885,8.80323868137598,4.593872097337246
1686428471962794500,12.47179443359375,1.3472548589274287,7.530321270552277,2.3547717131741344
1686428471972740600,12.48174072265625,2.433237785515189,4.837331894132495,-1.0624484678737818
1686428471982686500,12.4916865234375,1.824773879227042,2.307612925505638,-3.1129949499055742
1686428471992631600,12.501631591796874,0.5040887550562619,1.0517986251741647,-2.9290327594786882
1686428472002577700,12.51157763671875,-0.7755125174455344,0.6796528272330761,-2.3038884981550276
1686428472012523800,12.521523681640625,-0.8676523103520274,0.4377998811125755,-1.8550097352758048
1686428472022469600,12.5314697265625,-0.24236191855594513,-0.005202244818210602,-1.3257237028598785
1686428472032415700,12.541415771484376,0.18664806850999593,-0.4997252991497516,-0.780170280123502
1686428472042361600,12.551361572265625,0.3483426052883267,-1.0354103849530218,-0.4624621017474681
1686428472052306700,12.561306640625,0.40512364617437124,-1.520082491877675,-0.4299587391581386
1686428472062252500,12.57125244140625,0.5829167925775051,-1.8316870196163653,-0.6704938806783407
1686428472072198700,12.58119873046875,0.868775761424005,-1.8964906234383583,-1.0686120320048182
1686428472082144500,12.59114453125,0.9869266322910785,-1.6411317145347595,-1.4791893404752015
