time,seconds_elapsed,z,y,x
1686428459600216800,0.109216796875,-7.872067838576435,-5.75736584136784,1.0264851740889251
1686428459610163000,0.119162841796875,-7.84274120632708,-5.749194809871912,1.2682874129354953
1686428459620108800,0.12910888671875,-7.825674920713901,-5.721780733245611,1.4800082556426524
1686428459630054000,0.139053955078125,-7.824358577418327,-5.677354147019982,1.6484676103807985
1686428459639999700,0.148999755859375,-7.838643123358487,-5.617487999600172,1.7804180201500652
1686428459649945900,0.15894580078125,-7.865431177040934,-5.5412195834338664,1.8974366721168159
1686428459659892000,0.16889208984375,-7.899199006608128,-5.445569005927443,2.0294884964339435
1686428459669837000,0.178837158203125,-7.933665339833498,-5.328693269562721,2.1982664156019687
1686428459679783000,0.188782958984375,-7.966102797579765,-5.191624639996886,2.3997134093150496
1686428459689729000,0.19872900390625,-7.996545866638422,-5.040820915067195,2.610702138355374
1686428459699673900,0.208673828125,-8.033170839202404,-4.873844053971768,2.807880368708074
1686428459709620000,0.218619873046875,-8.08170602979064,-4.688192010761798,2.979474368210137
1686428459719565800,0.22856591796875,-8.139761328396201,-4.490226137162745,3.12290551854521
1686428459729512000,0.238511962890625,-8.201845736387371,-4.284955785769224,3.246423469403386
1686428459739456800,0.248456787109375,-8.261583288991451,-4.070317886571586,3.3688474875450134
1686428459749403000,0.25840283203125,-8.308372512695193,-3.838701087783277,3.5221731321677563
1686428459759349000,0.268348876953125,-8.333375436526536,-3.590060381218791,3.719771633759141
1686428459769295000,0.278295166015625,-8.3323063459903,-3.331251624122262,3.9554803780362007
1686428459779240000,0.288239990234375,-8.301614270606636,-3.0682442462921142,4.223678310246766
1686428459789186000,0.29818603515625,-8.242414478141068,-2.8046707590118047,4.51296023927927
1686428459799132000,0.3081318359375,-8.164153426852822,-2.544768945981562,4.800118015764653
1686428459809077000,0.318076904296875,-8.076826441055536,-2.289732839291543,5.068765737569332
1686428459819022800,0.32802294921875,-7.97103499328494,-2.0398086687877774,5.33593140412271
1686428459828969000,0.337968994140625,-7.825202042505144,-1.800815349882096,5.629712690401077
1686428459838914800,0.347914794921875,-7.62552585785687,-1.5762700969152152,5.961302021548152
1686428459848860000,0.35785986328125,-7.361954416403174,-1.3668842730268835,6.332744055134057
1686428459858806000,0.367805908203125,-7.028832468861341,-1.1747648604337126,6.736900609841943
1686428459868752100,0.377752197265625,-6.622928193703293,-1.0072272967156022,7.1618924473077055
1686428459878698000,0.387697998046875,-6.144146313861012,-0.8703452757630497,7.593572968757152
1686428459888643000,0.39764306640625,-5.591667329645157,-0.7600143579319119,8.020351105117797
1686428459898589000,0.4075888671875,-4.971977680465579,-0.6618592502586543,8.426848085471986
1686428459908535000,0.41753515625,-4.306968295612931,-0.5560448965365067,8.792679877960682
1686428459918480000,0.42747998046875,-3.6313188588023184,-0.42258912370558827,9.099744424182177
1686428459928426000,0.437426025390625,-2.9840809852227568,-0.23881449174005537,9.338554933866858
1686428459938371800,0.447371826171875,-2.3926582301065324,0.010302233696699841,9.51028161983788
1686428459948318000,0.45731787109375,-1.8677105191558598,0.3225029018392786,9.621747021591663
1686428459958263000,0.467262939453125,-1.4087803178615868,0.6856944454848766,9.680680272075532
1686428459968209200,0.477209228515625,-1.0019241488061845,1.079086737333238,9.695467506840824
1686428459978155000,0.487155029296875,-0.6380904713321477,1.4795650419197977,9.673371410366892
1686428459988101000,0.49710107421875,-0.327887371356599,1.869848261836916,9.621151978307962
1686428459998046000,0.5070458984375,-0.08800409047440626,2.2442672654069957,9.545989477556944
1686428460007992000,0.516991943359375,0.0771142102075275,2.6074732394367457,9.453333990213274
1686428460017938000,0.52693798828125,0.17841774457488208,2.965542288969457,9.345807681474088
1686428460027883000,0.536883056640625,0.23491481742039322,3.324367125305533,9.223003139582277
1686428460037828900,0.546828857421875,0.26723184539107603,3.6871342695266005,9.083171475043892
1686428460047775000,0.55677490234375,0.2917040050802752,4.052798888754844,8.925250611585378
1686428460057720800,0.566720947265625,0.318965594558604,4.4162592759370805,8.75015941761732
1686428460067666200,0.576666259765625,0.34992508870679884,4.7687566628172995,8.561943369138241
1686428460077612000,0.586612060546875,0.3700582876099273,5.1041608760774135,8.36546393470466
1686428460087558100,0.59655810546875,0.3648027051692828,5.419556028270721,8.164907460090518
1686428460097503000,0.6065029296875,0.32382494422327723,5.714086671611667,7.963338009041547
1686428460107449000,0.616448974609375,0.24212611877238377,5.990110182881355,7.7608210480093955
1686428460117395000,0.62639501953125,0.1231258554012049,6.250125393158197,7.555870137828588
1686428460127341000,0.636341064453125,-0.026811573838640468,6.495359798410535,7.347105222317576
1686428460137286000,0.646285888671875,-0.21277367622833698,6.722727707582711,7.136527119904756
1686428460147232000,0.65623193359375,-0.42513278030641377,6.924643195590376,6.931016237753629
1686428460157177900,0.666177734375,-0.6477348633162677,7.098335628676414,6.735314801955223
1686428460167124000,0.6761240234375,-0.8747625076834112,7.244930211478471,6.551043691709637
1686428460177069300,0.6860693359375,-1.1045116129036991,7.367523740968108,6.377306250438094
1686428460187015200,0.69601513671875,-1.3367939629286527,7.473515095224976,6.2072501280277965
1686428460196961300,0.705961181640625,-1.574576737000793,7.567741777408123,6.034931321382523
1686428460206906000,0.715906005859375,-1.815764058819413,7.654503530538082,5.855081534710526
1686428460216852200,0.725852294921875,-2.0541127962112427,7.734967644828558,5.667565743455291
1686428460226798000,0.735798095703125,-2.291495611180365,7.807858108994364,5.473279435151815
1686428460236744200,0.745744140625,-2.5249860948860645,7.864303049793839,5.286544565141201
1686428460246689000,0.75568896484375,-2.7734830090656875,7.909597066503763,5.090820332989097
1686428460256635100,0.76563525390625,-2.9857974337518214,7.986533006668091,4.844656830193102
1686428460266581000,0.7755810546875,-3.1015240000814197,8.10457077254951,4.568027169723808
1686428460276527000,0.785527099609375,-3.1481904741883278,8.243805055716633,4.277727295820415
1686428460286472200,0.79547216796875,-3.144758453913033,8.384868892398476,3.996855467736721
1686428460296418300,0.805418212890625,-3.1125007366478443,8.512451900738478,3.744448394376039
1686428460306364200,0.8153642578125,-3.0763243846341966,8.619652046263218,3.522528229215741
1686428460316310300,0.825310302734375,-3.051652007931471,8.710590208294986,3.3141265940591693
1686428460326255000,0.835255126953125,-3.0352491546630858,8.789877680021524,3.113791068719327
1686428460336201200,0.845201171875,-3.022090982404351,8.866139666447044,2.903260020318627
1686428460346147000,0.85514697265625,-3.0354227576643225,8.943359099727868,2.640628197802603
1686428460356092200,0.865092041015625,-3.042447541734576,9.016896629625558,2.3684300900399684
1686428460366038000,0.8750380859375,-3.0194349149376154,9.083207715401054,2.1327758524291216
1686428460375984000,0.884984130859375,-2.9804835452526808,9.138166217035055,1.944485131278634
1686428460385930000,0.894929931640625,-2.967798835724592,9.168840756762027,1.8151868434533476
1686428460395875300,0.904875244140625,-3.0860859001919625,9.145686091145873,1.732877393557131
1686428460405821200,0.9148212890625,-3.2719521706745027,9.094013187053799,1.662413133624941
1686428460415767300,0.924767333984375,-3.3404005607396363,9.080821112525463,1.5971210156336426
1686428460425713200,0.934713134765625,-3.306474618001282,9.106417910596727,1.5201237006708979
1686428460435658200,0.944658203125,-3.216527220572531,9.150846834909915,1.4444206633023917
1686428460445604000,0.95460400390625,-3.090803576363623,9.201661660867929,1.3952625185102223
1686428460455550200,0.96455029296875,-2.9460876469150183,9.252307559999823,1.373232911401242
1686428460465495000,0.9744951171875,-2.8194217534199355,9.292480580434203,1.3678648084968328
1686428460475441200,0.984441162109375,-2.710319573666155,9.32426629627347,1.3720872484974562
1686428460485387000,0.994386962890625,-2.6088135481297967,9.353817969450354,1.3676903287127613
1686428460495333000,1.0043330078125,-2.508743108354509,9.383806865000723,1.349357238034159
1686428460505278200,1.0142783203125,-2.405510989677906,9.413025360700487,1.3337347214885056
1686428460515224300,1.024224365234375,-2.29629322072044,9.440275771197676,1.3336457280308007
1686428460525170200,1.034170166015625,-2.1922242128282785,9.462757067596911,1.3493560689903794
1686428460535116300,1.0441162109375,-2.0920700402922927,9.480714164569973,1.3819082391574977
1686428460545061000,1.05406103515625,-2.0016030029036105,9.492308740773796,1.4352797638610004
1686428460555007200,1.06400732421875,-1.9359940740481019,9.496506776985525,1.496209594989568
1686428460564953000,1.073953125,-1.882339348489046,9.499883559942244,1.5425271095283328
1686428460574899200,1.083899169921875,-1.830281536732614,9.506461184766888,1.564492857620865
1686428460584844000,1.093843994140625,-1.7848627245992421,9.51395358634889,1.5714064364016056
1686428460594790100,1.1037900390625,-1.7495410897187889,9.520250640666484,1.572998381768167
1686428460604736000,1.113736083984375,-1.7226275099605322,9.524486086279154,1.5770578862920404
1686428460614681000,1.12368115234375,-1.6991206699058412,9.52609585956335,1.5927610668584704
1686428460624627200,1.133627197265625,-1.66560403862074,9.5258889388144,1.6289885645374655
1686428460634573300,1.1435732421875,-1.6190060997053979,9.523557865518331,1.6885004916921258
1686428460644519200,1.153519287109375,-1.5778709562405944,9.516871519622207,1.7634797448307276
1686428460654464000,1.163464111328125,-1.5474688037142157,9.50729705106914,1.8403950805984437
1686428460664410000,1.17341015625,-1.5164821292981505,9.499057045990227,1.9075133911035953
1686428460674356200,1.183356201171875,-1.4684214243538676,9.493498827341199,1.971701054984331
1686428460684302000,1.193302001953125,-1.3865823684483767,9.486904835903644,2.0606813609465955
1686428460694247000,1.203246826171875,-1.2746896811932324,9.472836563062668,2.193383319735527
1686428460704193000,1.213193115234375,-1.1558769854165614,9.448113040694594,2.3595551480583845
1686428460714139100,1.22313916015625,-1.044037562718615,9.419087437218428,2.5221321667596697
1686428460724084200,1.233084228515625,-0.9358267788466066,9.396880866107344,2.6444769821852443
1686428460734030000,1.243030029296875,-0.8216654160071164,9.387477662467957,2.7148700765773652
1686428460743976200,1.25297607421875,-0.7050556371022015,9.382458373001217,2.7645576520711184
1686428460753922300,1.26292236328125,-0.5932492764236406,9.373106022766232,2.821934613023698
1686428460763867100,1.2728671875,-0.4960439437558874,9.360601930502057,2.8815748427331447
1686428460773813000,1.28281298828125,-0.4366537432847544,9.345968424993753,2.9381258742555976
1686428460783759000,1.292759033203125,-0.43381793533693996,9.32499461054802,3.0044398826405403
1686428460793705200,1.302705322265625,-0.4890377547882497,9.29401495039463,3.0907156058192253
1686428460803650000,1.312650146484375,-0.5879998679954558,9.253796921774745,3.192474144811928
1686428460813596000,1.322595947265625,-0.7078461446035653,9.209517635065316,3.2945620618894695
1686428460823542000,1.3325419921875,-0.8247589981082827,9.169492498669028,3.377952292759716
1686428460833488100,1.342488037109375,-0.9239815158173441,9.138532127737998,3.435674706149101
1686428460843433200,1.35243310546875,-1.001561087647453,9.12360869937241,3.453554938493669
1686428460853379000,1.362379150390625,-1.0573347050566226,9.134141783824562,3.4087969283565878
1686428460863325200,1.3723251953125,-1.0924666625838726,9.171377581763267,3.295870221878588
1686428460873271300,1.382271240234375,-1.1177858127575366,9.224038912370801,3.1365684254556894
1686428460883216100,1.392216064453125,-1.1365480886336414,9.280650441908836,2.95773161521852
1686428460893162000,1.402161865234375,-1.1546220169194041,9.333063350713253,2.780498440785706
1686428460903108000,1.412108154296875,-1.1904232520103455,9.37650560207665,2.6142764897108077
1686428460913053000,1.422052978515625,-1.2388931222774087,9.414917458057403,2.4484430995620787
1686428460922999000,1.4319990234375,-1.2533578470900655,9.452322767344116,2.2919616212569176
1686428460932945000,1.44194482421875,-1.280711133439839,9.48368470481336,2.142397813385725
1686428460942891000,1.45189111328125,-1.4364476385965943,9.495569203874469,1.9852428197331726
1686428460952836000,1.461836181640625,-1.5856547419846057,9.501245495945215,1.839139527579397
1686428460962782200,1.4717822265625,-1.5816851077012717,9.53178559563756,1.677416203097999
1686428460972728000,1.48172802734375,-1.5379878586634992,9.568735562372208,1.4980924861267209
1686428460982674200,1.491674072265625,-1.517624285070598,9.594646833220123,1.3453431800872087
1686428460992619000,1.501618896484375,-1.534266938444227,9.60757879550755,1.2291612712055444
1686428461002565000,1.511565185546875,-1.5630032035849988,9.612869887652993,1.1489650871362536
1686428461012511000,1.521510986328125,-1.5782903506964445,9.61563350714743,1.104066864810884
1686428461022457000,1.53145703125,-1.5885916722193358,9.616545945817231,1.081109621462971
1686428461032402000,1.54140185546875,-1.606755543810874,9.615569794261456,1.06280195748657
1686428461042348000,1.55134814453125,-1.6225022712580859,9.614363341081141,1.0497064021352678
1686428461052294000,1.5612939453125,-1.633646619476378,9.612146249553561,1.052722681216523
1686428461062240000,1.571239990234375,-1.6453320888340472,9.607488194614648,1.0767767798904329
1686428461072185000,1.58118505859375,-1.6585661028079688,9.600122634282707,1.1212407024517654
1686428461082131200,1.591131103515625,-1.6724056814596056,9.591330256018042,1.1746570892103017
1686428461092077000,1.6010771484375,-1.6787155952587722,9.584140636774897,1.2233402369018644
1686428461102022100,1.611022216796875,-1.6702555176883935,9.580252397164703,1.264664254002273
1686428461111968000,1.620968017578125,-1.6481494843423365,9.579254618299007,1.3007156644620002
1686428461121914000,1.6309140625,-1.6177178134605288,9.580881927239894,1.3266770580619573
1686428461131860000,1.64085986328125,-1.5818436592638492,9.586070143532753,1.3324486272007225
1686428461141805000,1.65080517578125,-1.539805575609952,9.594419454205035,1.321552554655075
1686428461151751200,1.660751220703125,-1.4904140604533254,9.604514731761812,1.3047342524535954
1686428461161697000,1.670697021484375,-1.426754658230394,9.61594914896786,1.2916150970309972
1686428461171643100,1.68064306640625,-1.3325025493450462,9.630530047506094,1.2836373961500822
1686428461181588200,1.690588134765625,-1.2049896105665714,9.648575407284497,1.2741153884366154
1686428461191534000,1.7005341796875,-1.0603201506081967,9.666779172495007,1.264705462795496
1686428461201480200,1.710480224609375,-0.9053742843724787,9.682961076489091,1.2613269262731075
1686428461211426000,1.720426025390625,-0.7353893275022506,9.697496966841817,1.2602157501608133
1686428461221371100,1.73037109375,-0.5527655460722745,9.708204238817094,1.2710554163441061
1686428461231317000,1.74031689453125,-0.3648218847937882,9.713297762563824,1.299660748581588
1686428461241263000,1.75026318359375,-0.18117044081650674,9.7106919639796,1.3564669239088891
1686428461251209000,1.760208984375,-0.018468114093475742,9.700627666082978,1.4380106501296162
1686428461261154000,1.770154052734375,0.1178158302264288,9.687040454757213,1.5224058202587067
1686428461271100200,1.78010009765625,0.23278361407797782,9.670250647997856,1.6132034047760069
1686428461281046300,1.79004638671875,0.31819256435949356,9.650722356185316,1.7125057827882468
1686428461290991000,1.7999912109375,0.37353312411364165,9.631549453681707,1.806690087134391
1686428461300937200,1.809937255859375,0.39405389756225045,9.613891631916164,1.8942524891227484
1686428461310883000,1.819883056640625,0.3853858763296157,9.599639234679938,1.9669278492331503
1686428461320829200,1.8298291015625,0.348360031347163,9.589925649917125,2.020487882246077
1686428461330774000,1.83977392578125,0.28588972931094464,9.583583587414026,2.059999370031804
1686428461340720000,1.84972021484375,0.20362015476739032,9.580546411675215,2.0837558009333907
1686428461350666000,1.859666015625,0.10455704713743179,9.582674071353674,2.0812992015615106
1686428461360612000,1.869612060546875,-0.006237549532565754,9.59092284426093,2.045613701804727
1686428461370557200,1.87955712890625,-0.1005416740162298,9.602790976709127,1.9866297440469263
1686428461380503300,1.88950341796875,-0.1573745546873659,9.618231706947087,1.906634708572924
1686428461390449200,1.89944921875,-0.16587923858445136,9.639900517919658,1.7930964460678398
1686428461400395300,1.909395263671875,-0.11776066597308962,9.666182375645636,1.6496727483868598
1686428461410340000,1.919340087890625,-0.007001475118257804,9.691116325893997,1.500864435058087
1686428461420286200,1.9292861328125,0.1565918981433846,9.712732529896497,1.344870594139397
1686428461430232000,1.939232177734375,0.3511564206000417,9.72951123073995,1.1763115784190594
1686428461440177200,1.94917724609375,0.5458314724927767,9.738460260871053,1.0172866261761635
1686428461450123000,1.959123046875,0.7035631335221231,9.742299400642514,0.873508927425742
1686428461460069000,1.969069091796875,0.8001040839970112,9.745659816986322,0.7431787392694502
1686428461470015000,1.979014892578125,0.8368234568461775,9.750572138947248,0.6296461758527905
1686428461479960300,1.988960205078125,0.8171191508796065,9.756836460039018,0.5539581899229437
1686428461489906200,1.99890625,0.7537170113533734,9.764158765751123,0.5133539384644479
1686428461499852300,2.008852294921875,0.602392367822118,9.777640763136745,0.4530561581617221
1686428461509798100,2.018798095703125,0.31074674186557527,9.79495722411871,0.3642101461036131
1686428461519743200,2.0287431640625,-0.02859584288992919,9.802419815084338,0.2865965441397391
1686428461529689000,2.038689208984375,-0.35150296901538963,9.797724350744485,0.2268412914821878
1686428461539635200,2.04863525390625,-0.6562369533974677,9.78286989596188,0.1876720777954906
1686428461549581000,2.0585810546875,-0.9330535147409885,9.760420163744687,0.18440631746519356
1686428461559526100,2.068526123046875,-1.1656317789725958,9.734178638029098,0.23971584276026114
1686428461569472000,2.078471923828125,-1.3970228061810135,9.69972750237286,0.36604485071748494
1686428461579418000,2.088418212890625,-1.622267293458432,9.657181323066354,0.5267483306318521
1686428461589364000,2.098364013671875,-1.7957536825783549,9.617330374193191,0.6727777538318187
1686428461599309300,2.108309326171875,-1.903105219272524,9.588204232951998,0.7841791504386812
1686428461609255200,2.118255126953125,-1.9454872940585015,9.574451017409562,0.8457978406142443
1686428461619201300,2.128201171875,-1.9551642000727354,9.56861748895049,0.8884032027620822
1686428461629146000,2.13814599609375,-1.9593802103325724,9.562731938043235,0.9409344772491604
1686428461639092200,2.14809228515625,-1.9664367047153413,9.554826864007115,1.0043972609214484
1686428461649038000,2.1580380859375,-1.9749911825709043,9.54813818002343,1.0501786227568983
1686428461658984200,2.167984130859375,-1.9793739276997744,9.543319381564855,1.0851280633240938
1686428461668929000,2.177928955078125,-1.976035284796357,9.539070491948722,1.1277423394307493
1686428461678875100,2.187875244140625,-1.9707779487900434,9.53352045660615,1.1825356405656784
1686428461688821000,2.197821044921875,-1.9682213961750268,9.525635840836166,1.2484943327069282
1686428461698767000,2.20776708984375,-1.9631496458686888,9.516728896281123,1.3222361530050635
1686428461708712200,2.217712158203125,-1.951236066843569,9.508033548650145,1.4001288093723356
1686428461718658300,2.227658203125,-1.9268955524437128,9.500342409625649,1.483555572860688
1686428461728604200,2.237604248046875,-1.900299368071556,9.492150919863581,1.5678991589330136
1686428461738550300,2.24755029296875,-1.899158819734305,9.479755548670887,1.6425016877137124
1686428461748495000,2.2574951171875,-1.9341160052165387,9.46292891703248,1.6978068108282982
1686428461758441200,2.267441162109375,-1.9989735311828551,9.442344394165277,1.7368492197975516
1686428461768387000,2.277386962890625,-2.075010476680845,9.420178155064582,1.7677563992366194
1686428461778333200,2.287333251953125,-2.1415461649924517,9.40028336802721,1.7941129296340048
1686428461788278000,2.297278076171875,-2.1805492648646236,9.387538452744483,1.8137527189970015
1686428461798224100,2.30722412109375,-2.178020915430784,9.386587435629963,1.821699001826346
1686428461808170000,2.317169921875,-2.1397120814330877,9.394286173439026,1.8274034970782695
1686428461818115300,2.327115234375,-2.079293853088468,9.405780211877822,1.8379956182412802
1686428461828061200,2.337061279296875,-2.0157810197293755,9.416184701514243,1.8553966887667774
1686428461838007300,2.34700732421875,-1.97014593449682,9.420564524033665,1.881984835962951
1686428461847953200,2.356953125,-1.954567987745255,9.417771093922854,1.9119731469914316
1686428461857898200,2.366898193359375,-1.9675616170920431,9.410425407335161,1.9346837221018969
1686428461867844000,2.376843994140625,-1.9969595610119402,9.401705509784817,1.9469173268616198
1686428461877790200,2.386790283203125,-2.0290672022819516,9.39409152764976,1.95046975864619
1686428461887736000,2.396736083984375,-2.0511177060484886,9.389792953673005,1.9480968920350075
1686428461897681200,2.40668115234375,-2.0551732650496066,9.390281613972782,1.9414536546282468
1686428461907627000,2.416626953125,-2.042034966535121,9.395085799384116,1.9320570268601178
1686428461917573000,2.426572998046875,-2.0168414885677395,9.403155708593129,1.919219757118821
1686428461927519000,2.43651904296875,-1.9831931937269864,9.414283836328982,1.8996306750297545
1686428461937464300,2.44646435546875,-1.9393075825102626,9.429260456186533,1.870436729249358
1686428461947410200,2.45641015625,-1.9017277934394776,9.443791085842252,1.8353822208724915
1686428461957356300,2.466356201171875,-1.9128034603357313,9.445673246327042,1.8140657304689287
1686428461967301000,2.476301025390625,-1.941100895667821,9.441841705340147,1.8039257369875907
1686428461977247000,2.4862470703125,-1.9668330105565488,9.438992745649815,1.7909180791154502
1686428461987193000,2.496193115234375,-1.9791310588546096,9.437883907625078,1.7831909919947384
1686428461997139200,2.50613916015625,-1.9735648030295967,9.438143435344099,1.7879799798369407
1686428462007084000,2.516083984375,-1.9491788420528173,9.441859240996838,1.7951001871056853
1686428462017030000,2.52602978515625,-1.9087734741672873,9.450748649895191,1.7917388939790426
1686428462026976000,2.53597607421875,-1.8656496411032975,9.463722113236784,1.7685327904365955
1686428462036922000,2.545922119140625,-1.836363486994803,9.478269694027304,1.7206334135338663
1686428462046867200,2.5558671875,-1.8348036903321743,9.49068026278913,1.6525377824291585
1686428462056813000,2.56581298828125,-1.8370162518151103,9.503241638198494,1.5761267429217696
1686428462066759200,2.57575927734375,-1.8371226347990333,9.516934063464403,1.491077931189537
1686428462076705300,2.585705322265625,-1.8369930170699953,9.532048630487918,1.391356889373809
1686428462086650000,2.595650146484375,-1.823389293000847,9.550494972282648,1.2781586724780498
1686428462096596000,2.605595947265625,-1.7827337497465312,9.573602876147627,1.1568759333260357
1686428462106542000,2.6155419921875,-1.7072342721261082,9.601755203920602,1.0305510352883487
1686428462116488200,2.62548828125,-1.5984581094563006,9.633462593826652,0.9009552988864481
1686428462126433000,2.63543310546875,-1.4701714828915893,9.665012162822485,0.7723445549339055
1686428462136379000,2.64537890625,-1.3392420867331325,9.692934773492812,0.6510181227706372
1686428462146325000,2.655324951171875,-1.2290018428601324,9.714482588434219,0.5373546629833057
1686428462156271000,2.66527099609375,-1.1437318626578896,9.730115041851997,0.43259763629436493
1686428462166216000,2.6752158203125,-1.0767217617675662,9.741469964081048,0.3388861370917409
1686428462176162000,2.685162109375,-1.0139338816821575,9.750780228739977,0.2541770421752706
1686428462186108000,2.69510791015625,-0.9443559761304408,9.759494865593314,0.1755605467791669
1686428462196054000,2.705053955078125,-0.8707437735613435,9.76735376240015,0.10476194945923052
1686428462205998800,2.714998779296875,-0.7898080231711267,9.774715815600752,0.03880915276922751
1686428462215945000,2.724945068359375,-0.7022098192170262,9.781446000638603,-0.024131951966381165
1686428462225890800,2.734890869140625,-0.6116590125350281,9.787201787686348,-0.08338065932430326
1686428462235836000,2.7448359375,-0.5243057597853243,9.791604406559467,-0.1412734425782226
1686428462245782000,2.754781982421875,-0.4487263487964868,9.79432184882462,-0.20067443843800573
1686428462255728000,2.76472802734375,-0.3892759791033342,9.795437116590142,-0.2613161368075758
1686428462265674000,2.774674072265625,-0.3502390865594148,9.79508698797822,-0.3224681227868423
1686428462275619000,2.784619140625,-0.33296029070671646,9.793424607723951,-0.38520080208629365
1686428462285565000,2.79456494140625,-0.3359324383853003,9.79053531602323,-0.45051012694071974
1686428462295511000,2.804510986328125,-0.35456253924909975,9.786519066119194,-0.5183756756165996
1686428462305457000,2.814456787109375,-0.37708829584456977,9.78242273671627,-0.5765543083408847
1686428462315402000,2.824402099609375,-0.3947812619887292,9.781510298046468,-0.5801844084715471
1686428462325347800,2.834347900390625,-0.40373730638250704,9.784068750357628,-0.5285523478465154
1686428462335294000,2.8442939453125,-0.39539760378878563,9.78773604069352,-0.4628738608861342
1686428462345239800,2.85423974609375,-0.3659471990292892,9.790788414001463,-0.4206331673322245
1686428462355185200,2.86418505859375,-0.31875447255857287,9.792858206012845,-0.41075339568965136
1686428462365131000,2.874131103515625,-0.26526819890160114,9.794077518674731,-0.41957426939643916
1686428462375077000,2.8840771484375,-0.22030686647845432,9.794779529464245,-0.42910782141722736
1686428462385023000,2.89402294921875,-0.1949103950185701,9.795153623473643,-0.4328628631018102
1686428462394968000,2.903968017578125,-0.1927888910862617,9.795108030766247,-0.43484059291556476
1686428462404914000,2.913913818359375,-0.21091323438500983,9.794534030270576,-0.4393424709120765
1686428462414860000,2.923860107421875,-0.2429332339041866,9.793380184060334,-0.44842400484904643
1686428462424804900,2.933804931640625,-0.28148782282387835,9.7917271561563,-0.4617772978210821
1686428462434751000,2.9437509765625,-0.3190894766665995,9.789726922249793,-0.4793947875762358
1686428462444696800,2.95369677734375,-0.3493563123755157,9.787527366378903,-0.5026485661853105
1686428462454643000,2.963642822265625,-0.36664738318789747,9.78510861479938,-0.5363102319642901
1686428462464588000,2.973588134765625,-0.3691629462053999,9.782520936393738,-0.5799853787681087
1686428462474534100,2.9835341796875,-0.3609127850586548,9.779875390321015,-0.6278345963861793
1686428462484480000,2.99347998046875,-0.34632421467062086,9.777410461512208,-0.672801426968351
1686428462494426000,3.003426025390625,-0.32799539830833674,9.775282217311858,-0.7117948822293431
1686428462504371000,3.013370849609375,-0.3071174454525113,9.773474291107059,-0.7451801422197372
1686428462514317000,3.023317138671875,-0.2836711216797121,9.771980837678909,-0.7734903639681637
1686428462524263000,3.033262939453125,-0.2558350750479847,9.770745158404111,-0.7984077284079044
1686428462534209000,3.043208984375,-0.2214267008212395,9.769642750120163,-0.8218597695354372
1686428462544153900,3.05315380859375,-0.17948749269824474,9.768629189163446,-0.8438335548039525
1686428462554100000,3.063099853515625,-0.13268871571486815,9.76776292772293,-0.8623009393867105
1686428462564045800,3.0730458984375,-0.08539376184553839,9.76697966839075,-0.8770422891836613
1686428462573992000,3.082991943359375,-0.040461564185330645,9.765851541143656,-0.8926911822795868
1686428462583937000,3.09293701171875,0.0022187379213901293,9.763966458049415,-0.9139796886976808
1686428462593883100,3.102883056640625,0.04494667827670928,9.761347215461731,-0.9404590417571366
1686428462603829000,3.1128291015625,0.09279678637734613,9.758561384135485,-0.9655391224779188
1686428462613775000,3.122775146484375,0.1496742003099527,9.756215113270283,-0.9819624340124428
1686428462623720000,3.132719970703125,0.21373304104609414,9.754229492411017,-0.9898007264226675
1686428462633666000,3.142666015625,0.2780678035136312,9.752121706476807,-0.9945672101721167
1686428462643612000,3.15261181640625,0.33744152777399866,9.749611184960603,-1.0008113652586936
1686428462653557000,3.162556884765625,0.39247261972017583,9.746953948450088,-1.0066143524490296
1686428462663502800,3.1725029296875,0.44625031407177446,9.744580789577961,-1.0071657027214764
1686428462673449000,3.182448974609375,0.49920514773316677,9.742844175043702,-0.999082422574237
1686428462683394800,3.192394775390625,0.5455637614673003,9.742209968793391,-0.9808636789903045
1686428462693340200,3.202340087890625,0.5777408147117122,9.743120069375633,-0.9530017855312675
1686428462703286000,3.2122861328125,0.5920261643694713,9.745836927118896,-0.9157286512568592
1686428462713232100,3.222232177734375,0.5872618360444903,9.750329562363028,-0.8698086846683174
1686428462723178000,3.232177978515625,0.5632246885053813,9.75629402372539,-0.8172683500919491
1686428462733123000,3.242123046875,0.5187483448538929,9.76350994645357,-0.7584036347996443
1686428462743069000,3.25206884765625,0.4528646541776135,9.77177274788618,-0.6911941388797015
1686428462753015000,3.26201513671875,0.3647424994146451,9.780635268777608,-0.613634075467661
1686428462762961000,3.2719609375,0.25366288210805504,9.78921312750876,-0.5266500213565305
1686428462772906000,3.281906005859375,0.11794986840225756,9.796353062391281,-0.43352333630453793
1686428462782851800,3.291851806640625,-0.04703000562309753,9.800673263677954,-0.3390614571260288
1686428462792798000,3.3017978515625,-0.24035428679427132,9.800603121051191,-0.2465875368943438
1686428462802743800,3.311743896484375,-0.4527402971455827,9.794947871768475,-0.15632710972735658
1686428462812689200,3.321689208984375,-0.6732110306825488,9.783287244591117,-0.06681578389462083
1686428462822635000,3.331635009765625,-0.8906464516442268,9.766094117727874,0.023429973142908418
1686428462832581000,3.3415810546875,-1.0936145905099808,9.744796478155255,0.1154191534813959
1686428462842527000,3.35152685546875,-1.2714103672616184,9.721614340010285,0.210007700380031
1686428462852472000,3.36147216796875,-1.4175317795939744,9.698812141093612,0.30666491591203954
1686428462862418000,3.37141796875,-1.5295454628802836,9.678141693508625,0.4055502375559881
1686428462872364000,3.381364013671875,-1.6118644112572074,9.659944942560792,0.5077080780645832
1686428462882310000,3.391309814453125,-1.6762348843589423,9.642762337091565,0.6146005093470216
1686428462892255000,3.4012548828125,-1.7377156273685395,9.624142392295598,0.7256880176991224
1686428462902200800,3.411200927734375,-1.8095738258771596,9.601568156915903,0.8400628771588206
1686428462912147000,3.42114697265625,-1.8989812712103127,9.573294833111763,0.9572203530743718
1686428462922092800,3.4310927734375,-2.0037278861030936,9.539164599972963,1.0769485562607646
1686428462932038100,3.4410380859375,-2.1174720464438197,9.500051902246474,1.198217851409316
1686428462941984000,3.45098388671875,-2.232359239339828,9.45727775940299,1.32168801760301
1686428462951930000,3.46093017578125,-2.3415463208980856,9.412287694075703,1.4478898007176815
1686428462961876000,3.4708759765625,-2.4416893875181676,9.366082992261648,1.576397230426222
1686428462971821000,3.480821044921875,-2.5332480195358396,9.318690541967749,1.7073473771117627
1686428462981767000,3.490766845703125,-2.620407832072675,9.269837955993413,1.8368330042026937
1686428462991713000,3.500713134765625,-2.7059426737561822,9.219493085634708,1.9619404162093996
1686428463001659000,3.510658935546875,-2.791039708544314,9.167656515413523,2.08195751933977
1686428463011604000,3.52060400390625,-2.87520530770123,9.114734488043188,2.196630046571791
1686428463021549800,3.5305498046875,-2.956852786557376,9.061048490563035,2.3075541810557243
1686428463031496000,3.540495849609375,-3.033275516502559,9.007973318457603,2.4137182615309953
1686428463041441800,3.55044189453125,-3.1016122628867624,8.956456481710076,2.5163977147608994
1686428463051387000,3.560386962890625,-3.1603818472415206,8.908615118604898,2.6113129637300965
1686428463061333000,3.5703330078125,-3.204604143066704,8.867014111194013,2.697581672646105
1686428463071279000,3.580279052734375,-3.232154121032357,8.834070457491277,2.7717805890619753
1686428463081225000,3.590224853515625,-3.241307441563904,8.811667487025261,2.8317516581609845
1686428463091169800,3.600169677734375,-3.2333430385559794,8.799342842981218,2.878793395321071
1686428463101116000,3.610115966796875,-3.212551887200773,8.794774804413318,2.915792461894452
1686428463111062000,3.62006201171875,-3.186497408489883,8.794170993301272,2.946043223251402
1686428463121007900,3.6300078125,-3.161839352573454,8.79566853838265,2.968058363443613
1686428463130953000,3.639952880859375,-3.1425960151821375,8.79825621678829,2.980799479334056
1686428463140898800,3.64989892578125,-3.1287995450198647,8.802088342297077,2.983997690853476
1686428463150845000,3.659844970703125,-3.117528501681983,8.807478218641876,2.97988791744709
1686428463160790000,3.6697900390625,-3.103848643636703,8.81593917299509,2.9691257004141804
1686428463170736400,3.679736328125,-3.083310005737841,8.829183854493499,2.951116288731992
1686428463180682500,3.6896826171875,-3.0523484657630324,8.848762415188551,2.9245448004096746
1686428463190628400,3.69962841796875,-3.009901070655882,8.874592437493801,2.8900702838778494
1686428463200573400,3.709573486328125,-2.9572885476261375,8.905505462151766,2.8490011913865803
1686428463210519300,3.719519287109375,-2.8963159002691508,8.940070579576492,2.803014223976433
1686428463220465400,3.72946533203125,-2.8298765119388696,8.977146803039313,2.751915612640977
1686428463230411300,3.739411376953125,-2.765507500141859,9.015131958040595,2.6925395868256685
1686428463240356400,3.7493564453125,-2.7149133311972022,9.050107409831881,2.6258713581755755
1686428463250302200,3.75930224609375,-2.68881647464931,9.0771351174891,2.5585686310142277
1686428463260248300,3.769248291015625,-2.6901713963896037,9.093687608361243,2.497638361494243
1686428463270194200,3.779194091796875,-2.70641262935549,9.101771546095609,2.450196957492083
1686428463280139500,3.789139404296875,-2.706100786927342,9.109683049872517,2.420969109442085
1686428463290085400,3.79908544921875,-2.6623320800885555,9.125054222005605,2.411589578939229
1686428463300031500,3.809031494140625,-2.574591545054316,9.148968766078353,2.4162455880515274
1686428463309977300,3.818977294921875,-2.4648601274862885,9.17957842387557,2.4145788238830863
1686428463319923500,3.82892333984375,-2.3494505181513725,9.21686039904356,2.3874578849844634
1686428463329868300,3.838868408203125,-2.2320476891726253,9.25947672097683,2.3346197365053
1686428463339814400,3.848814453125,-2.1170203571535646,9.303430428993702,2.266010164529085
1686428463349760300,3.85876025390625,-2.0060969533219932,9.346543594533204,2.188167484783381
1686428463359705000,3.868705078125,-1.8991995901361107,9.388829077076911,2.100792275930196
1686428463369651200,3.878651123046875,-1.8039165307678282,9.42874256979227,2.003770994592458
1686428463379597300,3.888597412109375,-1.7291610033825038,9.463941893467307,1.901101039843261
1686428463389543200,3.898543212890625,-1.6753798749648035,9.49379225732982,1.7976025253154337
1686428463399488300,3.90848828125,-1.635554498924315,9.518992749559878,1.698264199206978
1686428463409434400,3.918434326171875,-1.6004535210572182,9.54044002673626,1.609018228045851
1686428463419380500,3.92838037109375,-1.5637592826493083,9.558834346082806,1.5341821827702222
1686428463429326300,3.938326416015625,-1.5224091812595724,9.574901099264622,1.4744173037678003
1686428463439271200,3.948271240234375,-1.4758243940867484,9.589241174784302,1.427851513556391
1686428463449217300,3.95821728515625,-1.424023625831306,9.602942367878555,1.3878082569815218
1686428463459163400,3.968163330078125,-1.367824038095027,9.617074938127399,1.3458521525226532
1686428463469109200,3.978109130859375,-1.308389121699333,9.632240943077207,1.295549952261895
1686428463479054300,3.988054443359375,-1.2490268321484326,9.648045245930552,1.2351372768752276
1686428463489000400,3.99800048828125,-1.1925484274707734,9.663626845943927,1.1672840031590312
1686428463498946300,4.0079462890625,-1.140934048632905,9.678290162068604,1.0951524676017463
1686428463508892400,4.017892333984375,-1.0926236797764897,9.691855746084451,1.0219994069769978
1686428463518837200,4.027837158203125,-1.043789506241679,9.704549223440885,0.9500517035540192
1686428463528783400,4.037783447265625,-0.9905980142802,9.716318571689724,0.8844465010255574
1686428463538729500,4.0477294921875,-0.9327180722415447,9.726840550225972,0.8300628036048263
1686428463548675300,4.05767529296875,-0.8710277050692588,9.736109898352622,0.787315914094448
1686428463558620200,4.0676201171875,-0.8080122267730534,9.744101481628418,0.7549772405475378
1686428463568566300,4.077566162109375,-0.7478585676487535,9.75077438352108,0.7304069359797984
1686428463578512400,4.087512451171875,-0.6927117038358003,9.75631331294775,0.7105632946077733
1686428463588458200,4.097458251953125,-0.6423903604831546,9.76116133750081,0.6909717283006757
1686428463598403300,4.1074033203125,-0.5962828354332596,9.765703657105565,0.6677331107281148
1686428463608349400,4.117349365234375,-0.554023108385317,9.77007763440609,0.63957113834396
1686428463618295600,4.127295654296875,-0.5144286550238728,9.774293206274509,0.6074196579322219
1686428463628241400,4.137241455078125,-0.4768767403407022,9.778274384865163,0.5730110097108408
1686428463638186200,4.147186279296875,-0.44048524773903186,9.781984929820895,0.5377042070733383
1686428463648132400,4.15713232421875,-0.40357583221048116,9.785448222017287,0.5025046276699752
1686428463658078500,4.167078369140625,-0.36583226741272956,9.78863094370663,0.46825935331676155
1686428463668024300,4.1770244140625,-0.32747995959948745,9.791451261824369,0.4366338695405051
1686428463677969200,4.18696923828125,-0.2898980151042342,9.793866506272554,0.4080917752649635
1686428463687915300,4.196915283203125,-0.2554150595376268,9.795852711653708,0.38266573065072296
1686428463697861400,4.206861328125,-0.2257496237879619,9.797402863705157,0.36103001823015507
1686428463707807200,4.21680712890625,-0.20255153915518895,9.798642050111294,0.34056926787309344
1686428463717752300,4.22675244140625,-0.18595621378831564,9.799648012283443,0.3204938270391896
1686428463727698400,4.236698486328125,-0.17605214795470236,9.800472772669792,0.3002266264928505
1686428463737644500,4.24664453125,-0.1696978470245376,9.801180628678202,0.28011456170929594
1686428463747590400,4.25659033203125,-0.16157288316003976,9.801859258592128,0.26050735944164916
1686428463757535200,4.26653515625,-0.14511039039259777,9.802628489398955,0.24039525812547652
1686428463767481300,4.2764814453125,-0.11667719071847386,9.803502349624036,0.21939369715629145
1686428463777427500,4.286427490234375,-0.0768661354642827,9.804321849313379,0.19943932541878892
1686428463787373300,4.296373291015625,-0.027918165107362437,9.804949625822902,0.180435806399025
1686428463797318100,4.306318115234375,0.02667025425536558,9.805278127124906,0.16184291400676593
1686428463807264300,4.31626416015625,0.08324799112165346,9.805274035471678,0.1416507240585517
1686428463817210400,4.32621044921875,0.13910306713604367,9.804922737815975,0.12050440259012393
1686428463827156200,4.33615625,0.19397680396288633,9.804217804417014,0.10034743921891785
1686428463837101300,4.346101318359375,0.24867893794933332,9.803163911449909,0.08076299677235074
1686428463847047400,4.35604736328125,0.30515018223384394,9.801720142382383,0.05945167573424987
1686428463856993500,4.36599365234375,0.3647791050979867,9.799798234409094,0.03571521675832336
1686428463866939400,4.375939453125,0.4268067779332399,9.797352594822645,0.010750276575010502
1686428463876884200,4.38588427734375,0.49012317540477957,9.794386730754375,-0.012929237182444193
1686428463886830300,4.395830322265625,0.553398583278805,9.790963186046481,-0.034352764732122884
1686428463896776400,4.4057763671875,0.6155930275157093,9.787153856891393,-0.05516911674395669
1686428463906722300,4.415722412109375,0.6772052148852497,9.782950559982657,-0.07516860169824212
1686428463916667100,4.425667236328125,0.7385047561090439,9.778349203667045,-0.09427018339815549
1686428463926613200,4.43561328125,0.8001163589566945,9.773311794021724,-0.1121608275388833
1686428463936559400,4.445559326171875,0.8624565683398395,9.767817288258671,-0.12768917212821543
1686428463946505200,4.455505126953125,0.924771643281728,9.761935244482755,-0.14069474764112383
1686428463956450300,4.4654501953125,0.9868634308617561,9.755692550700902,-0.1513971790445037
1686428463966396400,4.475396484375,1.047736928693205,9.74920669581294,-0.15994135470176116
1686428463976342500,4.485342529296875,1.105423759312555,9.742745390844345,-0.16540681703342125
1686428463986288400,4.495288330078125,1.1568040371336041,9.736763393825292,-0.16622712044036014
1686428463996233200,4.505233154296875,1.2016502370107918,9.731404497140645,-0.1618943336667493
1686428464006179300,4.515179443359375,1.243334904117137,9.72636007323265,-0.14981686931680888
1686428464016125400,4.52512548828125,1.2857991042286157,9.721127433276175,-0.12959688717937096
1686428464026071300,4.5350712890625,1.3315502170562743,9.715306179776787,-0.10092351294066756
1686428464036016000,4.54501611328125,1.3787110505513847,9.709037767031788,-0.06409134563310072
1686428464045962200,4.554962158203125,1.4282574640087782,9.702054484015703,-0.02484071672366699
1686428464055908400,4.564908447265625,1.4820708872608839,9.69400327950716,0.012505233908491209
1686428464065854200,4.574854248046875,1.5402128412365912,9.684816348966956,0.04966469237508717
1686428464075799300,4.58479931640625,1.6028205424495041,9.674390816542505,0.08662185146892443
1686428464085745400,4.594745361328125,1.6699695403538644,9.662717329883575,0.11602320205545984
1686428464095691500,4.60469140625,1.7335633299946784,9.651333766081928,0.13001858319016174
1686428464105637400,4.614637451171875,1.7833239707246422,9.642401102563738,0.11923498544250614
1686428464115582200,4.624582275390625,1.8094294489704073,9.637914312538504,0.08323600842291488
1686428464125528300,4.6345283203125,1.8066091308526693,9.638768883541227,0.026331064879277253
1686428464135474400,4.644474365234375,1.7721692472428083,9.645086396124958,-0.04608840479089413
1686428464145420300,4.654420166015625,1.7046423559367656,9.65653425733447,-0.12629692318537272
1686428464155365000,4.664365234375,1.6079143584571778,9.671815413096546,-0.20246302062151952
1686428464165311200,4.674311279296875,1.4896793164379893,9.68926339150369,-0.26343016981948164
1686428464175256800,4.6842568359375,1.356223908933252,9.707657126328348,-0.3039823988297954
1686428464185202700,4.69420263671875,1.2124057320419699,9.725960260260104,-0.3258193329108879
1686428464195147500,4.7041474609375,1.0616359093818812,9.743242234450578,-0.3354479428039864
1686428464205093600,4.71409375,0.9063538699943572,9.758785256019234,-0.3391450072236359
1686428464215039700,4.724039794921875,0.7502337723474949,9.771968562719225,-0.3408515919458121
1686428464224985600,4.733985595703125,0.5955691342059523,9.78260919919908,-0.34095121639538556
1686428464234930400,4.743930419921875,0.4407170472009107,9.790939805170893,-0.33711883515827357
1686428464244876500,4.75387646484375,0.2753822176914662,9.797316354465485,-0.3273290798867121
1686428464254822700,4.76382275390625,0.08004667432969435,9.801524327549338,-0.3067501099774614
1686428464264768500,4.7737685546875,-0.15826012361655012,9.801692669853567,-0.26863102639820424
1686428464274713600,4.783713623046875,-0.4225212826337665,9.795292739683388,-0.20997982599241657
1686428464284659700,4.79365966796875,-0.6785729230418801,9.782249718236923,-0.13235143745136446
1686428464294605800,4.803605712890625,-0.8977676818262785,9.76537515580356,-0.04296669257378671
1686428464304551700,4.8135517578125,-1.0697381864905358,9.748006672373414,0.04936681910678744
1686428464314496500,4.82349658203125,-1.2002565176300704,9.731869192042947,0.1432571820076555
1686428464324442600,4.833442626953125,-1.3008930668555199,9.717023505088687,0.23980006871130316
1686428464334388700,4.843388671875,-1.3949948074847458,9.700917004418372,0.3414268345504999
1686428464344334600,4.85333447265625,-1.5074424982741474,9.679501291424035,0.4530438832020387
1686428464354279400,4.863279541015625,-1.6472836612932382,9.650197455528378,0.5749097925368696
1686428464364225500,4.8732255859375,-1.8139781983159482,9.611804304248095,0.7022027318891138
1686428464374171600,4.883171630859375,-2.004412068974972,9.563677694460749,0.8299286558311432
1686428464384117500,4.893117431640625,-2.2111635988369582,9.506296349593997,0.954700186946988
1686428464394062600,4.9030625,-2.4221117036059496,9.441871515956521,1.0746304155115038
1686428464404008700,4.9130087890625,-2.6217168688446284,9.374477311119437,1.190031476213783
1686428464413954800,4.922954833984375,-2.7942463956311343,9.30923122422695,1.3041419856488703
1686428464423900700,4.932900634765625,-2.9293603839978575,9.250346489059925,1.4213808562375605
1686428464433845500,4.942845458984375,-3.0258912514701484,9.199849058488011,1.5417971878185868
1686428464443791600,4.95279150390625,-3.0901369291484353,9.157679311278462,1.6608267412163316
1686428464453737700,4.96273779296875,-3.1330399590685962,9.122011785569786,1.7729481226608157
1686428464463683600,4.97268359375,-3.1665950226679445,9.090026163244247,1.8746935099110007
1686428464473628400,4.98262841796875,-3.2008699249744414,9.059009093689918,1.9644772412106393
1686428464483574500,4.992574462890625,-3.2412636024221775,9.027560062459111,2.0415090429648757
1686428464493520600,5.002520751953125,-3.288421659438312,8.995572102046012,2.1062672002099454
1686428464503466500,5.012466552734375,-3.3385090479046102,8.96415346595347,2.1607162910170854
1686428464513412600,5.02241259765625,-3.386567268630862,8.934612898692489,2.2077669421359896
1686428464523357700,5.032357666015625,-3.42818902656883,8.908229334157705,2.249744820035249
1686428464533303800,5.0423037109375,-3.4611893788948653,8.88583746960759,2.287450427442789
1686428464543249700,5.052249755859375,-3.4855908297017213,8.86715322740376,2.3226352842010556
1686428464553194500,5.062194580078125,-3.5028865401566027,8.851493885979055,2.356100331429392
1686428464563140600,5.072140625,-3.515839837493002,8.837923625788092,2.3875407409623266
1686428464573086500,5.08208642578125,-3.5274668546617027,8.825639313754438,2.415665888467431
1686428464583032600,5.092032470703125,-3.5394375707015393,8.814460332614184,2.438860301572084
1686428464592978700,5.101978759765625,-3.551152266153693,8.805112658554314,2.455546647956967
1686428464602923500,5.111923583984375,-3.5596091288536784,8.798771765094996,2.4660069594338534
1686428464612869400,5.121869384765625,-3.561113688197732,8.796520186775922,2.471858023549616
1686428464622815500,5.1318154296875,-3.552297636796534,8.79956145416796,2.473719141246378
1686428464632761600,5.14176171875,-3.5311075492516157,8.808715066960453,2.471477207538485
1686428464642706700,5.151706787109375,-3.497285066887736,8.824111373534798,2.4646406395167113
1686428464652652500,5.161652587890625,-3.4538805171862244,8.844441629379988,2.4529449410259723
1686428464662598700,5.1715986328125,-3.4055236057743428,8.867882710722089,2.4358709104977545
1686428464672544800,5.181544677734375,-3.356410323037207,8.893435669651627,2.410749474853277
1686428464682489600,5.191489501953125,-3.3132974497586485,8.918986290493606,2.375735736878216
1686428464692435500,5.201435546875,-3.284393134574592,8.941335484945773,2.331452796906978
1686428464702381600,5.211381591796875,-3.2760736345186827,8.957581101825832,2.2802347969755528
1686428464712327700,5.22132763671875,-3.2825781941071153,8.96715498585701,2.232757737138122
1686428464722272500,5.2312724609375,-3.282244432108104,8.974254004207253,2.204542573262006
1686428464732218600,5.241218505859375,-3.247736597828567,8.987247341293097,2.20272587922886
1686428464742164700,5.251164794921875,-3.169197314120829,9.011579233995079,2.217658513814211
1686428464752110600,5.261110595703125,-3.0619264414474365,9.045701868349314,2.2294098880149424
1686428464762055700,5.2710556640625,-2.9449758862808344,9.087141547718643,2.218410647355765
1686428464772001500,5.28100146484375,-2.825881012561917,9.135556911319494,2.174021470531076
1686428464781947600,5.29094775390625,-2.704221549052,9.189512957912683,2.100097133272886
1686428464791893800,5.300893798828125,-2.585921040581167,9.242968653768301,2.012692406064272
1686428464801838600,5.310838623046875,-2.478456398901343,9.291662249788642,1.9216313483051954
1686428464811784400,5.320784423828125,-2.3833421202287077,9.335756827580928,1.825843700415641
1686428464821730600,5.33073046875,-2.3025236395426094,9.375420144927501,1.723446425127983
1686428464831676700,5.3406767578125,-2.2363743202000856,9.410067679938674,1.6185336598880589
1686428464841621800,5.350621826171875,-2.181798826534301,9.439315401732921,1.5196942232124506
1686428464851567600,5.360567626953125,-2.1338557566203176,9.463808037954568,1.432958919698
1686428464861513700,5.370513671875,-2.0881983134254813,9.484681314635276,1.3603750372633336
1686428464871459800,5.3804599609375,-2.0399403323434293,9.503882274189591,1.2981643725439906
1686428464881404700,5.39040478515625,-1.9852702922619878,9.523192539337277,1.240120764376223
1686428464891350500,5.4003505859375,-1.922803314694017,9.543577155718207,1.1804066657129675
1686428464901296600,5.410296630859375,-1.8537186725519597,9.565095744565129,1.114929473478347
1686428464911242800,5.42024267578125,-1.7802821188107132,9.587262568187713,1.04181572195068
1686428464921187600,5.4301875,-1.7063072204090655,9.60916460339427,0.9606493776749819
1686428464931133400,5.440133544921875,-1.6355007229104637,9.629704118075967,0.8742406757663935
1686428464941079600,5.45007958984375,-1.5688320558689535,9.648680036702752,0.782380722714588
1686428464951025700,5.460025634765625,-1.5072637807063758,9.66568962369263,0.6877532777108252
1686428464960970800,5.469970703125,-1.4508096336871386,9.680504915508628,0.5944308508910239
1686428464970916600,5.47991650390625,-1.3995911953642963,9.692984457853436,0.5075295796925202
1686428464980862700,5.48986279296875,-1.3538229852713644,9.703143448296188,0.4319284683285281
1686428464990808800,5.499808837890625,-1.313688835542649,9.71117887071371,0.37094814912173896
1686428465000753700,5.509753662109375,-1.2799779968596994,9.717335055255889,0.32471345402821894
1686428465010699500,5.519699462890625,-1.2525301640942692,9.721999539935588,0.29029159926539283
1686428465020645600,5.529645751953125,-1.2302636794894932,9.725663907662033,0.26134585609240457
1686428465030591700,5.539591796875,-1.2107776924487204,9.728830847260355,0.23293021947443485
1686428465040536600,5.54953662109375,-1.1918574495319276,9.731834120729564,0.20314554125927387
1686428465050482400,5.559482421875,-1.1722113034933805,9.734814013323188,0.1723164320250973
1686428465060428500,5.569428466796875,-1.1516253923866897,9.737778123825787,0.14086671580770052
1686428465070374700,5.579374755859375,-1.1317140926059335,9.740529468360542,0.1081388968127314
1686428465080319700,5.58931982421875,-1.1123634954478592,9.743076230233907,0.07411796013414859
1686428465090265600,5.599265625,-1.0915692753527313,9.745628252804279,0.03985796770241577
1686428465100211700,5.609211669921875,-1.06811913392134,9.748305363059043,0.008325759691692655
1686428465110157800,5.61915771484375,-1.0410740367379039,9.751218035635352,-0.017218378893862244
1686428465120102700,5.6291025390625,-1.0112950576111674,9.754293205296992,-0.03772943580769934
1686428465130048500,5.639048583984375,-0.9807431944157927,9.757327458426357,-0.05553550693751313
1686428465139994600,5.64899462890625,-0.9535733018089085,9.759900523784756,-0.07364968503527343
1686428465149940700,5.658940673828125,-0.9333801894120871,9.761704942858218,-0.09108743430934846
1686428465159885600,5.668885498046875,-0.9219142080239952,9.762629656487702,-0.10731375283389352
1686428465169831400,5.67883154296875,-0.9181619428183883,9.762797998791932,-0.12305610550008714
1686428465179777500,5.688777587890625,-0.919195669780299,9.762479434362053,-0.13948109753504395
1686428465189723600,5.6987236328125,-0.9205413122355938,9.762106509396434,-0.1557747548079118
1686428465199668700,5.708668701171875,-0.9203411134883761,9.761845812633632,-0.17244024106785655
1686428465209614600,5.718614501953125,-0.9200804167255758,9.761507374459505,-0.19191055561546236
1686428465219560700,5.728560791015625,-0.920644334218651,9.760960261970759,-0.21555665801037102
1686428465229506800,5.7385068359375,-0.9219483294893056,9.760168234810232,-0.24394747071433812
1686428465239451600,5.74845166015625,-0.9223178203888237,9.759230077177286,-0.2777343703081831
1686428465249397500,5.7583974609375,-0.919600451188907,9.758286658847332,-0.31709063099958
1686428465259343600,5.768343505859375,-0.9127193133730441,9.757417474797368,-0.36073823220934714
1686428465269289700,5.778289794921875,-0.9005733868967741,9.756718971139192,-0.40713904111739246
1686428465279234600,5.788234619140625,-0.8808022262390702,9.756374103224276,-0.45577232178524135
1686428465289180400,5.798180419921875,-0.8503625912465155,9.756451260113716,-0.5088690846679732
1686428465299126500,5.80812646484375,-0.8104197993714362,9.756650582078098,-0.5668957051683217
1686428465309072600,5.81807275390625,-0.762318397090584,9.75688906700909,-0.6263878316439688
1686428465319018500,5.8280185546875,-0.7088505724057554,9.756993696427344,-0.6848254806306213
1686428465328963600,5.837963623046875,-0.6506591532651335,9.756961547723412,-0.7407479319259523
1686428465338909700,5.84790966796875,-0.584378608758375,9.756419111409782,-0.8007296685494482
1686428465348855800,5.857855712890625,-0.508339471303299,9.754692433747648,-0.8705988121327012
1686428465358801700,5.8678017578125,-0.42788986046221106,9.751197577369213,-0.9494429240059107
1686428465368746500,5.87774658203125,-0.3490195181692019,9.746398652654886,-1.0277521252848207
1686428465378692600,5.887692626953125,-0.26907654167599976,9.741904848366975,-1.0923566994033753
1686428465388638700,5.897638671875,-0.17943662102753297,9.739271577253938,-1.1334802254956216
1686428465398584600,5.90758447265625,-0.07807995910029858,9.738466106089948,-1.1517656776402145
1686428465408529400,5.917529296875,0.025189938870002513,9.738400055116415,-1.1546909905023872
1686428465418475500,5.9274755859375,0.11918829675656743,9.738772980082034,-1.1456313396036624
1686428465428421600,5.937421630859375,0.19367599438540636,9.74021499558389,-1.1229752711594103
1686428465438367500,5.947367431640625,0.24401392354667184,9.743166246604918,-1.087002113567665
1686428465448312600,5.9573125,0.271567426909972,9.747605105835198,-1.039620842254907
1686428465458258700,5.9672587890625,0.27654682275773956,9.753303025215864,-0.9833530846532433
1686428465468204800,5.977204833984375,0.2554740779821761,9.75991162970066,-0.9215316384471952
1686428465478150700,5.987150634765625,0.20561582209663465,9.767115861991048,-0.8553148068264126
1686428465488095500,5.997095458984375,0.12676415710463187,9.77447791519165,-0.7835085577007382
1686428465498041600,6.00704150390625,0.018777949510916367,9.781336695045232,-0.7038903927151113
1686428465507987700,6.01698779296875,-0.12183113028239458,9.78657985639572,-0.6151414843559265
1686428465517933600,6.02693359375,-0.302778265470732,9.788245743781328,-0.5186101419596001
1686428465527878400,6.03687841796875,-0.5250401750070974,9.78357892101407,-0.4198613061768934
1686428465537824500,6.046824462890625,-0.7770318359673023,9.77035528230369,-0.3267545679343864
1686428465547770600,6.0567705078125,-1.0348938137330115,9.748882286164164,-0.24227102540209888
1686428465557716700,6.066716796875,-1.2706659786351024,9.722639006882906,-0.1615548360466957
1686428465567661600,6.07666162109375,-1.4613846575848757,9.696844055891036,-0.07724839451382867
1686428465577607700,6.086607666015625,-1.5978681807391344,9.675591424503923,0.011724015836347825
1686428465587553500,6.096553466796875,-1.6828962419442832,9.660627079606055,0.1025682479403913
1686428465597499600,6.106499755859375,-1.7289663575932384,9.651150810730456,0.19063282729722558
1686428465607444500,6.116444580078125,-1.7544423057638108,9.644549220508337,0.27386786760576065
1686428465617390600,6.126390625,-1.7796799151338636,9.637321607342361,0.3537923951268196
1686428465627336400,6.13633642578125,-1.8193214590400457,9.6268060585469,0.4301936438925564
1686428465637282600,6.146282470703125,-1.8804161253415046,9.611539515832066,0.5027078586244955
1686428465647227600,6.1562275390625,-1.9624008733280003,9.591309213230014,0.5710947277607396
1686428465657173800,6.166173828125,-2.0575673205792904,9.567278349301219,0.6355857219696045
1686428465667119600,6.17611962890625,-2.1545107143752276,9.541577506333589,0.6977012557514012
1686428465677065700,6.186065673828125,-2.242747216232866,9.516500932744146,0.7593984179906547
1686428465687010600,6.196010498046875,-2.316314264485985,9.493538574829698,0.8232941862527281
1686428465696956700,6.205956787109375,-2.374895340531319,9.472845915412902,0.8918778931353241
1686428465706902500,6.215902587890625,-2.423839111920446,9.453115379026531,0.966442354927957
1686428465716848600,6.2258486328125,-2.4692627463594077,9.433114209005236,1.0437878257412463
1686428465726794800,6.235794677734375,-2.5135370646327733,9.412531439703702,1.1210584777526558
1686428465736739600,6.245739501953125,-2.5551871718823906,9.392257297959922,1.1945295913506297
1686428465746685400,6.255685546875,-2.5919378166526554,9.373366135007142,1.2618420361883937
1686428465756631600,6.265631591796875,-2.623735222929716,9.356282898259161,1.3214999476850031
1686428465766577700,6.27557763671875,-2.649566122017801,9.341433119651676,1.3739835836380718
1686428465776522800,6.285522705078125,-2.670952901178598,9.328402957686782,1.4203119118317962
1686428465786468600,6.295468505859375,-2.6886463787794113,9.317557154023646,1.457626912486553
1686428465796414700,6.305414794921875,-2.7029426151573657,9.308895124140381,1.4862541642948983
1686428465806360800,6.31536083984375,-2.7127400788113474,9.30255598424673,1.5079384650975465
1686428465816305700,6.3253056640625,-2.714087401767075,9.299407164826988,1.5248441533215342
1686428465826251500,6.33525146484375,-2.706528072428703,9.299792364752292,1.535889278949052
1686428465836197600,6.34519775390625,-2.693446764798462,9.303118294304609,1.5387361928127705
1686428465846143700,6.355143798828125,-2.675888311754167,9.309368002349137,1.5315673240967094
1686428465856088600,6.365088623046875,-2.653450562235713,9.31870866214633,1.5136812465332448
1686428465866034400,6.375034423828125,-2.625971311418712,9.330916986334323,1.4861564030088483
1686428465875980500,6.38498046875,-2.5939263601213693,9.34537571979761,1.4511645846046506
1686428465885926700,6.3949267578125,-2.5588366343006492,9.361421430191397,1.4094431656844912
1686428465895871700,6.404871826171875,-2.5243460434168576,9.378024189946055,1.3604178534917533
1686428465905817600,6.414817626953125,-2.5030957501173017,9.391468193408846,1.305837245259434
1686428465915763700,6.424763671875,-2.5092405364826322,9.397097723728418,1.2524644053816794
1686428465925709800,6.434709716796875,-2.541234926636517,9.394059963467717,1.2100162796221672
1686428465935654700,6.444654541015625,-2.57008049737066,9.389608829277753,1.1833541173417121
1686428465945600500,6.4546005859375,-2.5582877682462333,9.395137821832298,1.1648793531700967
1686428465955546600,6.464546630859375,-2.4958158222422004,9.414527581956982,1.1436632544010876
1686428465965492700,6.47449267578125,-2.402200696086138,9.442102986624837,1.116463405047357
1686428465975437600,6.4844375,-2.300263585656136,9.471140865060686,1.0847443247035145
1686428465985383400,6.494383544921875,-2.205296752630174,9.497788633489607,1.0483718655958771
1686428465995329500,6.50432958984375,-2.1233084975123404,9.521311547896266,1.0032819200906902
1686428466005275600,6.514275634765625,-2.047103209710121,9.544127775338291,0.9430614062752574
1686428466015220700,6.524220703125,-1.9697167492993175,9.567768763166665,0.8650969998460263
1686428466025166600,6.53416650390625,-1.8924736428819595,9.591122166225313,0.7741425442665815
1686428466035112700,6.54411279296875,-1.818778145943582,9.612444355717301,0.6806869925864041
1686428466045058800,6.554058837890625,-1.7501064685165881,9.630867316636442,0.5948979934787377
1686428466055003600,6.564003662109375,-1.6881243518561124,9.646095280906557,0.5229532126652077
1686428466064949500,6.573949462890625,-1.634048332145065,9.658356212064623,0.4652246617959812
1686428466074895600,6.5838955078125,-1.5879697409287095,9.668120650231838,0.41971795218344776
1686428466084841700,6.593841796875,-1.5487905538372695,9.676018710005282,0.38247612636275585
1686428466094786600,6.60378662109375,-1.513600290251523,9.682834819760918,0.34943916835337874
1686428466104732400,6.613732421875,-1.4781865931734441,9.689424719545245,0.31685722410250455
1686428466114678500,6.623678466796875,-1.4387807577192782,9.696465870228408,0.28076507977358994
1686428466124624600,6.633624755859375,-1.392611857870966,9.704324182513355,0.2389881312739104
1686428466134570500,6.643570556640625,-1.3392287888601422,9.712862878277898,0.1927200636337511
1686428466144515600,6.653515625,-1.279534637006372,9.721737674129008,0.14486730235172435
1686428466154461700,6.663461669921875,-1.2158341721206902,9.730511932215094,0.0963243851147592
1686428466164407800,6.67340771484375,-1.152687103334069,9.738554368895292,0.04772128038946539
1686428466174354200,6.683354248046875,-1.0955707660790532,9.745262342101334,-0.0001873061222830074
1686428466184299000,6.693299072265625,-1.0504400501720608,9.750116211873292,-0.046817719145864245
1686428466194245000,6.7032451171875,-1.0215343467485158,9.75286404927671,-0.09217185941203497
1686428466204191000,6.71319091796875,-1.009782461091131,9.753587687376141,-0.13516707939398473
1686428466214137000,6.72313720703125,-1.0114115235976875,9.752816703003644,-0.17319655759418381
1686428466224082000,6.73308203125,-1.0179576573055238,9.751540107196568,-0.2039997104031965
1686428466234028000,6.743028076171875,-1.0181845248639583,9.750980719748139,-0.22812365944292395
1686428466243974000,6.752973876953125,-1.0022766155056655,9.7521164457798,-0.24911603245865552
1686428466253920000,6.762919921875,-0.965159329380095,9.75530267460048,-0.2700630502290092
1686428466263865000,6.772864990234375,-0.909460457707569,9.760017428162694,-0.2921052976238541
1686428466273811200,6.782811279296875,-0.8439738400574773,9.765219088459014,-0.31398824453745033
1686428466283757000,6.792757080078125,-0.7794496376987546,9.769898770707846,-0.3345817178960889
1686428466293703200,6.802703125,-0.7260453797694295,9.773345111769437,-0.3535491974880919
1686428466303648000,6.81264794921875,-0.6904203049629927,9.775271111395954,-0.3711996396647766
1686428466313594000,6.822593994140625,-0.6745049429506063,9.775742820560932,-0.3876804170075804
1686428466323540000,6.8325400390625,-0.6757817579533905,9.775012752720713,-0.4035365596460178
1686428466333486000,6.842486083984375,-0.6874657660063356,9.77348715058863,-0.4203880334647372
1686428466343431000,6.852430908203125,-0.701460462154448,9.771614342454075,-0.4403105852918699
1686428466353377000,6.862376953125,-0.710117450536415,9.76987246722281,-0.4644464439650997
1686428466363323000,6.872322998046875,-0.7084452795404941,9.768589441674948,-0.4931184482306242
1686428466373269000,6.88226904296875,-0.695006609839946,9.767861127400398,-0.5255950689435005
1686428466383214000,6.892214111328125,-0.6737034173093736,9.767404031282663,-0.5606596968555823
1686428466393160200,6.90216015625,-0.6499670062825084,9.766920631679891,-0.5960014977412298
1686428466403106000,6.91210595703125,-0.6290334507819265,9.766284087342024,-0.6280214241951704
1686428466413052200,6.92205224609375,-0.6126011156907305,9.765532976713777,-0.6553183772478253
1686428466422997000,6.9319970703125,-0.5996965528668835,9.764767253038286,-0.678276205117628
1686428466432943000,6.941943115234375,-0.58856900965292,9.764009128147363,-0.6986349564049392
1686428466442889000,6.951888916015625,-0.5772616894252598,9.763203072461485,-0.7190438304442912
1686428466452835000,6.9618349609375,-0.5635110676987096,9.762406953647732,-0.740447999131307
1686428466462781200,6.97178125,-0.5456762453984468,9.761717217817901,-0.7625802628971636
1686428466472726000,6.98172607421875,-0.5237207995042205,9.761015207028388,-0.7865612232696264
1686428466482671900,6.991671875,-0.4996866476397961,9.759957806929945,-0.8148127005681395
1686428466492618000,7.001617919921875,-0.4762438492646441,9.758155141422153,-0.8496955787051469
1686428466502564000,7.011564208984375,-0.45642607298623766,9.7552676032871,-0.89264310535416
1686428466512509200,7.02150927734375,-0.43965698022134597,9.751454182478785,-0.9414015833042562
1686428466522455000,7.031455078125,-0.4196590981356799,9.747591077309846,-0.9893187150593846
1686428466532401200,7.041401123046875,-0.386964962214604,9.745024441692232,-1.027197706272453
1686428466542347300,7.05134716796875,-0.3356847837671637,9.744232999053597,-1.0524438642751426
1686428466552292000,7.0612919921875,-0.2668764560821466,9.744565007486939,-1.0689426521986722
1686428466562238000,7.071238037109375,-0.18643195980759336,9.74523545409441,-1.079816659042984
1686428466572184000,7.08118408203125,-0.10247017612708732,9.74590414713621,-1.0849958883117883
1686428466582130200,7.091130126953125,-0.022207562058349138,9.746509127292036,-1.0841922437787055
1686428466592075000,7.101074951171875,0.04829455479935277,9.747114107447862,-1.0778911708731205
1686428466602020900,7.111020751953125,0.10478365896753966,9.747909057217836,-1.0666255343627185
1686428466611967000,7.120967041015625,0.14422589004249312,9.749287359833717,-1.049276413220167
1686428466621913000,7.1309130859375,0.16493474254226312,9.751727738723158,-1.0232329673599452
1686428466631858200,7.140858154296875,0.16705546102328225,9.755494397780298,-0.9863151493292301
1686428466641804000,7.150803955078125,0.14865483980011193,9.76063994397521,-0.9371228830717504
1686428466651750100,7.160750244140625,0.10522479946431704,9.766898419848085,-0.8757970383629202
1686428466661696300,7.1706962890625,0.03452825829634676,9.773784087708592,-0.8014727420017123
1686428466671641000,7.18064111328125,-0.06305377817971165,9.78048329308629,-0.7131349717266857
1686428466681587000,7.1905869140625,-0.18737609052360057,9.78570482712686,-0.6125875620894133
1686428466691533000,7.200532958984375,-0.3359856664098799,9.787827226108313,-0.5059130844065919
1686428466701479000,7.21047900390625,-0.5035072653738781,9.785455820801854,-0.4021489046799019
1686428466711424000,7.220424072265625,-0.6823989110708236,9.778030054715275,-0.3079944840153679
1686428466721369900,7.230369873046875,-0.864447084569931,9.765871414887904,-0.22554721481734885
1686428466731316000,7.24031591796875,-1.0375072111018002,9.750413733515142,-0.15298997379443607
1686428466741262000,7.250261962890625,-1.1919795415416359,9.733554953172803,-0.08633414796818979
1686428466751207200,7.260207275390625,-1.3238785133846103,9.716857500872015,-0.02052427373008104
1686428466761153000,7.270153076171875,-1.4339718961328267,9.70112684777677,0.04767979760160669
1686428466771099100,7.28009912109375,-1.5259798793531953,9.686469961392879,0.11852950405427254
1686428466781045000,7.290044921875,-1.6049715830035507,9.672563016593456,0.18970508146043866
1686428466790990000,7.299989990234375,-1.6777859131932258,9.658572485163807,0.25958138543684034
1686428466800936000,7.30993603515625,-1.7492464906863867,9.643793433704971,0.3282496287977323
1686428466810882000,7.319882080078125,-1.822477438852936,9.627696869906783,0.3955102703830227
1686428466820828000,7.329827880859375,-1.8986317271202802,9.610050154057145,0.4609805944854393
1686428466830773000,7.33977294921875,-1.9774536271616816,9.590865561115741,0.5247296477532014
1686428466840719000,7.349718994140625,-2.0584639771580693,9.570206219446659,0.586741538497433
1686428466850665200,7.359665283203125,-2.1404311894878743,9.548311198502779,0.6470555758152157
1686428466860611000,7.369611083984375,-2.220690428856015,9.525715335813164,0.7068540648262948
1686428466870557200,7.37955712890625,-2.2942907948568463,9.503632683342694,0.7665415677435695
1686428466880502000,7.389501953125,-2.3572677677735685,9.483300089409946,0.8250462906170636
1686428466890448100,7.3994482421875,-2.4078555069774388,9.465417226716875,0.8823214716956019
1686428466900394000,7.40939404296875,-2.4475607637695966,9.44974093415737,0.9392833490412682
1686428466910340000,7.419340087890625,-2.479794369506836,9.435485614311695,0.9962992946617305
1686428466920285000,7.429284912109375,-2.508364338169992,9.421687975105643,1.0536999287508428
1686428466930231000,7.43923095703125,-2.5382147020325063,9.407471818226576,1.107848356110975
1686428466940177000,7.449177001953125,-2.5735943507105112,9.39188788012564,1.1573445006858556
1686428466950123000,7.459123046875,-2.6143106842413544,9.374985845163463,1.2022515639048068
1686428466960068000,7.469068115234375,-2.658937176953256,9.356932886600493,1.2442885515801607
1686428466970014200,7.47901416015625,-2.7020976887658237,9.339256360134481,1.2834839591540395
1686428466979960000,7.4889599609375,-2.7368405008450147,9.324026642298698,1.3200846740595995
1686428466989906200,7.49890625,-2.7582582596659657,9.31303821529448,1.3526706003658473
1686428466999851000,7.50885107421875,-2.763373702983558,9.307437911069393,1.3804926732711493
1686428467009797000,7.518797119140625,-2.7530291268408296,9.306894890233874,1.404609461917728
1686428467019743000,7.528742919921875,-2.732100905102491,9.309818668726086,1.4259376427590846
1686428467029689000,7.538689208984375,-2.7062016169533134,9.314578430473803,1.4441183193549514
1686428467039634000,7.548634033203125,-2.6793863830029965,9.320299146208166,1.4571495042331515
1686428467049580000,7.558580078125,-2.652314836204052,9.327160264149308,1.4627631063312292
1686428467059526000,7.56852587890625,-2.622703834055364,9.335758581146598,1.4613134920448063
1686428467069472000,7.578471923828125,-2.5878216135054823,9.34649507921636,1.4548580322951077
1686428467079418000,7.588418212890625,-2.5476570686385034,9.359051778450608,1.4449820965774356
1686428467089363200,7.59836328125,-2.5047616375029085,9.372743619194626,1.4311676523670553
1686428467099309000,7.60830908203125,-2.461931088297069,9.387090708976983,1.4113205038636922
1686428467109255200,7.618255126953125,-2.4222550575993953,9.401489821207523,1.3838541125282644
1686428467119201300,7.628201171875,-2.3912971708863973,9.414522905781865,1.3486411987192928
1686428467129146000,7.63814599609375,-2.3773038629777727,9.423442709818481,1.3105519988216459
1686428467139092000,7.648092041015625,-2.384693388707191,9.426177687740326,1.2770245538815854
1686428467149038000,7.6580380859375,-2.407803192268312,9.423384257629513,1.2540727173611521
1686428467158984200,7.667984130859375,-2.429432401882857,9.419085683652758,1.2446183680564165
1686428467168928500,7.677928466796875,-2.4262170930981632,9.420008059194684,1.2439099275261163
1686428467178874400,7.687874267578125,-2.382072830945253,9.431964454448222,1.2386164972931146
1686428467188820500,7.697820556640625,-2.300004788589477,9.454767822408675,1.2197318371463566
1686428467198766600,7.7077666015625,-2.198022231582552,9.483189030250907,1.1866865497000514
1686428467208711700,7.717711669921875,-2.0942104133218526,9.51229529774785,1.1405751521926373
1686428467218657500,7.727657470703125,-1.998008631673455,9.539988191315532,1.0802714901383965
1686428467228603600,7.737603759765625,-1.9140160509958861,9.565340074715017,1.005589685576409
1686428467238549500,7.747549560546875,-1.842953240648657,9.588028876385092,0.9184810917701571
1686428467248494600,7.75749462890625,-1.7789171140678226,9.608664837178587,0.8242457878891378
1686428467258440400,7.7674404296875,-1.715635751377046,9.627845338466763,0.7290976800121367
1686428467268386600,7.777386474609375,-1.6507470996201037,9.64556804216206,0.6390792631737887
1686428467278332400,7.78733251953125,-1.5855695479191838,9.661412677025794,0.559882611535862
1686428467288278500,7.797278564453125,-1.5234629280962049,9.67499696574211,0.49383861573133614
1686428467298223600,7.8072236328125,-1.4680349092543123,9.686101712602376,0.44126207733042533
1686428467308169700,7.817169677734375,-1.4210072006195782,9.69487597068846,0.40061362140402196
1686428467318115600,7.827115478515625,-1.3800249096289277,9.70209656959176,0.3677169121155515
1686428467328061700,7.837061767578125,-1.3415882114678621,9.708590607786178,0.33736126561202107
1686428467338006500,7.847006591796875,-1.3026565693967043,9.714987615346908,0.3041547414557077
1686428467347952600,7.85695263671875,-1.260644058575481,9.721647657757996,0.26594911210415884
1686428467357898500,7.8668984375,-1.2135265527654437,9.728713942882418,0.22329430305771528
1686428467367844600,7.8768447265625,-1.1596223824899643,9.73626538117528,0.17551860733358188
1686428467377789400,7.88678955078125,-1.09970077855587,9.744006204560398,0.1240578938206192
1686428467387735600,7.896735595703125,-1.0375593796804548,9.751337278100848,0.07269580011023208
1686428467397681400,7.906681396484375,-0.9783195474654436,9.757702136957645,0.023524825519241857
1686428467407627500,7.91662744140625,-0.9285529884513467,9.762563020992278,-0.023498339371115434
1686428467417572600,7.926572509765625,-0.8938683363001793,9.765589090815187,-0.06832118805546779
1686428467427518700,7.936518798828125,-0.8765203842014074,9.766779177382588,-0.11003837375850416
1686428467437464600,7.946464599609375,-0.8744361252732574,9.766474056956172,-0.1473200109997764
1686428467447410700,7.95641064453125,-0.881345539335534,9.76532021074593,-0.17923249502386895
1686428467457356800,7.966356689453125,-0.8885502100173384,9.764114342087506,-0.20720835198508575
1686428467467301600,7.976301513671875,-0.8878035563685,9.763566645076871,-0.23445808662883935
1686428467477247500,7.98624755859375,-0.8738767378248273,9.764091545733809,-0.2631420187941752
1686428467487193600,7.996193603515625,-0.8468861473076045,9.765605457428098,-0.2934469397574663
1686428467497139700,8.0061396484375,-0.8116017756976187,9.767646607866883,-0.32371432345565404
1686428467507084500,8.01608447265625,-0.7742950314145535,9.76968366665244,-0.35233419567514207
1686428467517030400,8.026030517578125,-0.7412297240935266,9.7712899328053,-0.3779869982499629
1686428467526976500,8.0359765625,-0.7177289484534413,9.772157363289594,-0.4002732470011338
1686428467536922600,8.045922607421875,-0.7065506249003112,9.772157363289594,-0.41967144616059954
1686428467546867700,8.05586767578125,-0.7075662316836416,9.771322666031121,-0.4370263759894296
1686428467556813600,8.0658134765625,-0.7173822539076209,9.769822198340297,-0.45425406270939855
1686428467566759700,8.075759765625,-0.7292636842288076,9.768046420839429,-0.4731158899698406
1686428467576705800,8.085705810546875,-0.7370688780870288,9.766409759548306,-0.49432051749676464
1686428467586650600,8.095650634765626,-0.7375152336150408,9.765144854179024,-0.518080893921107
1686428467596596500,8.105596435546875,-0.7318262281931937,9.764244105947018,-0.5425274990439415
1686428467606542600,8.11554248046875,-0.7205980010837316,9.763764213475584,-0.5657023671979085
1686428467616488700,8.12548876953125,-0.7043493885289878,9.763692901805042,-0.5870004816945642
1686428467626434600,8.1354345703125,-0.6852634336564689,9.763742001643775,-0.6083895989429206
1686428467636379400,8.14537939453125,-0.6653487728748471,9.763612822306156,-0.6320895504169166
1686428467646325500,8.155325439453126,-0.6448247480232269,9.763253925865888,-0.6583721387952566
1686428467656271600,8.165271728515625,-0.6224622556980699,9.762610951787233,-0.6887238032434135
1686428467666217500,8.175217529296875,-0.5969936505837365,9.761673378676175,-0.7236892450973391
1686428467676162600,8.18516259765625,-0.5680456423884257,9.76047160167098,-0.7621716820962726
1686428467686108700,8.195108642578125,-0.5360454800808802,9.759195005863905,-0.8007312029194086
1686428467696054500,8.205054443359375,-0.5004423613779246,9.758137021243572,-0.8358856645394116
1686428467706000600,8.215000732421874,-0.4596489805554971,9.757465990114211,-0.8665874575994909
1686428467715945500,8.224945556640625,-0.4120623228637501,9.75696505485475,-0.8956645720671862
1686428467725891600,8.2348916015625,-0.3592584785129875,9.75592226780355,-0.9291241394028067
1686428467735837400,8.24483740234375,-0.3055551645718515,9.75368296444416,-0.9709171622544527
1686428467745783600,8.254783447265625,-0.2538200088985264,9.750264680433272,-1.0189557284321635
1686428467755728400,8.264728271484374,-0.20145623646546154,9.746759887182712,-1.0632348690111189
1686428467765674500,8.274674560546876,-0.14168133839252403,9.744348149865866,-1.0945398886613547
1686428467775620400,8.284620361328125,-0.0708441078289412,9.742990890038012,-1.1133182388894258
1686428467785566500,8.29456640625,0.008696326020156266,9.741958624380826,-1.1245109562940896
1686428467795512600,8.3045126953125,0.08774289138810709,9.74085329348743,-1.1306875991024077
1686428467805457700,8.314457763671875,0.15608966597598045,9.739763160163163,-1.1327029575128107
1686428467815403500,8.324403564453124,0.20758940545823423,9.739006788837909,-1.130953556562215
1686428467825349600,8.334349609375,0.2403336275987327,9.738936061689257,-1.1250634025450794
1686428467835295700,8.344295654296875,0.2563173786722123,9.73993617864251,-1.1128059054531156
1686428467845240600,8.354240478515624,0.25825762601979074,9.742264913851022,-1.091782333581522
1686428467855186400,8.3641865234375,0.24874756447244434,9.74599942420423,-1.0601929440319537
1686428467865132500,8.374132568359375,0.22834090065648777,9.750901809293032,-1.018901148700714
1686428467875078700,8.38407861328125,0.1923057654781267,9.756714294964075,-0.9694890291474759
1686428467885023500,8.3940234375,0.13545862795277497,9.763315885186195,-0.910880699769035
1686428467894969300,8.40396923828125,0.05474407343203202,9.770402628576756,-0.8406159079317003
1686428467904915500,8.41391552734375,-0.05176312139248475,9.777128721961379,-0.7585978421974927
1686428467914861600,8.423861572265626,-0.18372176926713435,9.782163208997249,-0.6677551764294505
1686428467924807400,8.433807373046875,-0.33919564143233,9.783922035363316,-0.5746208925928921
1686428467934752500,8.44375244140625,-0.5176374975351616,9.781049110275507,-0.48322826479189096
1686428467944698600,8.45369873046875,-0.7105464165382087,9.772824887287616,-0.39673173846937715
1686428467954644700,8.463644775390625,-0.9065225045595318,9.75952058455646,-0.3167944245319813
1686428467964590600,8.473590576171874,-1.0957889388743787,9.742215814012289,-0.24255599808963013
1686428467974535400,8.483535400390625,-1.2691995593443512,9.72270564237833,-0.16881388553055002
1686428467984481500,8.4934814453125,-1.4190969830840825,9.702996733301877,-0.0917574059927836
1686428467994427600,8.503427734375,-1.5406429032169282,9.684867786893248,-0.011935576227796263
1686428468004373500,8.51337353515625,-1.634045263405144,9.669304891580342,0.06931093887833413
1686428468014318600,8.523318603515625,-1.7044314896650612,9.65621569290459,0.15092207234604282
1686428468024264400,8.533264404296874,-1.7605251328088343,9.644545713377,0.23169194638375193
1686428468034210600,8.54321044921875,-1.8126609782375394,9.632683426147699,0.30992691338267175
1686428468044156700,8.55315673828125,-1.8704684395618736,9.618892801204323,0.3855419071415439
1686428468054102800,8.563102783203124,-1.9400451030045747,9.601849311944841,0.4594675961066037
1686428468064047600,8.573047607421875,-2.021758048312366,9.581220365414023,0.5320636073704809
1686428468073993700,8.58299365234375,-2.1099514416806397,9.557957563248277,0.6032743382884189
1686428468083939600,8.592939697265624,-2.197027813717723,9.53363034672141,0.6732960786174982
1686428468093885700,8.6028857421875,-2.276516068713367,9.509701774123311,0.7439374486822634
1686428468103830500,8.61283056640625,-2.345842995178699,9.486741754296421,0.8180180724807083
1686428468113776600,8.622776611328124,-2.40676698108837,9.464285007816553,0.8973063479248434
1686428468123722500,8.632722412109375,-2.4631807960972187,9.441480470812321,0.9805972831390798
1686428468133668600,8.642668701171875,-2.5189973758652804,9.417636069366335,1.0645073731649666
1686428468143613700,8.65261376953125,-2.576429574136436,9.392433823570608,1.1465615331258625
1686428468153559800,8.662559814453125,-2.634179167793691,9.366716613990068,1.2231479292001575
1686428468163505700,8.672505615234375,-2.6850907321244475,9.343063935723901,1.2914521615542471
1686428468173451800,8.68245166015625,-2.720672040854394,9.324350467425583,1.3508556598983705
1686428468183397600,8.692397705078125,-2.7396859534040092,9.311188203513622,1.402236449176073
1686428468193342700,8.7023427734375,-2.7453344806849955,9.303008988711237,1.4448371351487934
1686428468203288600,8.71228857421875,-2.7429063767552373,9.298313524371386,1.4792686893217264
1686428468213234700,8.722234619140625,-2.7352728131368753,9.296137349376082,1.506823343462497
1686428468223180500,8.7321806640625,-2.7220933058291674,9.29669965943396,1.527084333463758
1686428468233125600,8.742125732421876,-2.7009645930826665,9.301019276198744,1.5382489938177168
1686428468243071500,8.752071533203125,-2.6698879022955895,9.309958369457721,1.5384256655588746
1686428468253017600,8.762017578125,-2.6303943885579706,9.32318376173377,1.5263177330054343
1686428468262963500,8.77196337890625,-2.586621590065956,9.339414765566588,1.5016940177500246
1686428468272909600,8.78190966796875,-2.5445176015689968,9.356800200131534,1.4649552095480263
1686428468282854700,8.791854736328125,-2.5106068563997743,9.373042894402145,1.4189100822098553
1686428468292800800,8.80180078125,-2.4919024481907486,9.38579307038188,1.3666355589628219
1686428468302746600,8.81174658203125,-2.4972736198350787,9.39226489674449,1.3112452417828142
1686428468312692700,8.821692626953125,-2.5317598268046972,9.3900992431432,1.2596148616582155
1686428468322637600,8.831637451171876,-2.5794614891782404,9.38241628742516,1.219434973091632
1686428468332583700,8.841583740234375,-2.6032681889623404,9.37950770650208,1.190893061479181
1686428468342529500,8.851529541015625,-2.574656134723127,9.391046753126382,1.1618012608990071
1686428468352475600,8.8614755859375,-2.4972101992100475,9.417150331676005,1.1187464014180004
1686428468362420500,8.87142041015625,-2.3942871464826165,9.450001046398281,1.0654802367851137
1686428468372366600,8.88136669921875,-2.289320166837424,9.481426696753502,1.0158467295661568
1686428468382312400,8.8913125,-2.195507910674065,9.507965159589052,0.9740174663573503
1686428468392258600,8.901258544921875,-2.1148210935436187,9.530666820740699,0.9296749051533639
1686428468402204400,8.911204345703124,-2.043424959588796,9.551709024247527,0.8715662689253687
1686428468412149800,8.921149658203126,-1.9771654578700661,9.572128127419948,0.7972299898654222
1686428468422095600,8.931095703125,-1.9145104103840886,9.591412089082597,0.7140400308076292
1686428468432041700,8.941041748046874,-1.8549108049459755,9.608843116354942,0.6323235053032636
1686428468441987600,8.950987548828126,-1.7990839960448444,9.623958267900347,0.5595653988128527
1686428468451932700,8.9609326171875,-1.7485890496909617,9.636613166812062,0.4984993375513702
1686428468461878500,8.97087841796875,-1.7045513166524469,9.646969141131638,0.44820820667389777
1686428468471824600,8.98082470703125,-1.6659491987966,9.655581486654281,0.4058770948901772
1686428468481770500,8.9907705078125,-1.6291830641962586,9.663386022925376,0.3676060356196016
1686428468491715600,9.000715576171874,-1.589682682326436,9.67130571000874,0.33033023446407167
1686428468501661400,9.010661376953125,-1.5439434060670434,9.679954295888543,0.2917005344815552
1686428468511607600,9.020607666015625,-1.4887196776255964,9.689780108854174,0.24950055653052403
1686428468521553400,9.030553466796874,-1.4225301724031567,9.700801269084215,0.20312086347574368
1686428468531499500,9.04049951171875,-1.3484030060492456,9.71228069447577,0.1542973209328018
1686428468541444600,9.050444580078125,-1.2694234312281012,9.723569565731287,0.1055606164230965
1686428468551390700,9.060390625,-1.1918947858676314,9.733772979837655,0.05881588944820687
1686428468561336600,9.070336669921875,-1.123363685955107,9.742085465630888,0.01427969281017431
1686428468571282700,9.08028271484375,-1.0702358338143676,9.74803180681467,-0.028985476961755192
1686428468581227500,9.0902275390625,-1.0361489283606409,9.751488084748386,-0.07240184953180141
1686428468591173600,9.100173583984375,-1.0204917788930237,9.752720256891847,-0.11591930328956805
1686428468601119500,9.110119384765625,-1.0183375234685839,9.75235843784213,-0.157716317329742
1686428468611065600,9.120065673828124,-1.0203286972858012,9.751459443175792,-0.19583576623518018
1686428468621010400,9.130010498046875,-1.0164215337794273,9.751134449005127,-0.2294782158570364
1686428468630956500,9.13995654296875,-0.9992128440208733,9.752178405100107,-0.25882585436180233
1686428468640902400,9.14990234375,-0.9655567311998456,9.75483973326385,-0.2849821312130429
1686428468650848500,9.1598486328125,-0.917346023325622,9.758766551318764,-0.30880152608193456
1686428468660794600,9.169794677734375,-0.8607896580409258,9.763168585669995,-0.3316419746497646
1686428468670739700,9.17973974609375,-0.8046691268902272,9.767151517826319,-0.35445619279779494
1686428468680685600,9.189685546875,-0.7566372827142477,9.770088155800103,-0.3785005007300526
1686428468690631700,9.199631591796875,-0.7230215019036084,9.771603821060062,-0.4042246515080333
1686428468700577500,9.20957763671875,-0.7056552834957838,9.771718971872328,-0.4312351888347417
1686428468710522600,9.219522705078125,-0.7022230440247803,9.770738728663325,-0.45821109323948617
1686428468720468500,9.229468505859375,-0.7073957704875617,9.769083947193621,-0.48474652386773376
1686428468730414600,9.23941455078125,-0.7150755844004452,9.767143919041752,-0.5118163171010092
1686428468740360400,9.2493603515625,-0.7201156243942678,9.765279878735543,-0.5395906418744474
1686428468750305500,9.259305419921875,-0.7209844431180507,9.763632696050404,-0.567495716888085
1686428468760251600,9.269251708984376,-0.7198007132261991,9.762011232328414,-0.5961727991875261
1686428468770197500,9.279197509765625,-0.718420949305594,9.760215581083298,-0.6264668882295489
1686428468780143600,9.2891435546875,-0.7157855593007058,9.758417591750622,-0.6567652881205082
1686428468790089700,9.29908984375,-0.7088863743714988,9.756904264578223,-0.6860688317552208
1686428468800034600,9.30903466796875,-0.6954725468512624,9.755806532469391,-0.7148150337681174
1686428468809980700,9.318980712890625,-0.6764914405927062,9.754922735372185,-0.7444804695177822
1686428468819926500,9.328926513671876,-0.6508324640054255,9.754318924260138,-0.7746443563088774
1686428468829872600,9.33887255859375,-0.6170519941523671,9.753964703994988,-0.8061203486118466
1686428468839817500,9.3488173828125,-0.5743350248562171,9.75383435561359,-0.8385904665187001
1686428468849763600,9.358763671875,-0.5243906981224193,9.753928463637829,-0.8696525442585349
1686428468859709400,9.36870947265625,-0.47053526235949245,9.754123693948983,-0.8978038491182029
1686428468869655600,9.378655517578125,-0.41570911840088665,9.75422423171401,-0.9234014509070664
1686428468879601400,9.388601318359376,-0.3632045492576435,9.753753107070922,-0.9501425236426293
1686428468889546800,9.398546630859375,-0.3133929455254227,9.752644269046186,-0.978822236290574
1686428468899492600,9.40849267578125,-0.2606389133994467,9.751477563354372,-1.0055512532621622
1686428468909438700,9.418438720703126,-0.19899932656632735,9.750652802968025,-1.0274028003904967
1686428468919384600,9.428384521484375,-0.1273532273052726,9.749808753359318,-1.0465979147259146
1686428468929329700,9.43832958984375,-0.04879730755656492,9.748341603416204,-1.066695092467591
1686428468939275500,9.448275634765626,0.03092785461762687,9.74626012096703,-1.0862073829934
1686428468949221600,9.4582216796875,0.10272339283633045,9.744143567204475,-1.1006842366352676
1686428468959167500,9.46816748046875,0.158026150463894,9.742761172935365,-1.1063545373566448
1686428468969112600,9.478112548828125,0.1924000013665296,9.742633747163415,-1.1020345552656798
1686428468979058400,9.488058349609375,0.20508675672123208,9.74390917392671,-1.0883871381852774
1686428468989004500,9.498004638671874,0.19859193307552486,9.74644599892795,-1.066660386480391
1686428468998950400,9.507950439453126,0.17604414731133727,9.749998138451575,-1.0377579709924758
1686428469008896500,9.517896484375,0.13926708945818245,9.754327692088484,-1.0020458024244754
1686428469018841600,9.527841552734374,0.08864931130907498,9.759325938767194,-0.9581791881691664
1686428469028787700,9.53778759765625,0.02389920722300885,9.764900524029136,-0.9036175038330256
1686428469038733600,9.547733642578125,-0.05490601796151604,9.77070950256884,-0.8370138648517429
1686428469048679700,9.5576796875,-0.14845420266147702,9.776037419593333,-0.7598961383797228
1686428469058624500,9.56762451171875,-0.258659393487405,9.779921567550302,-0.6757189949154854
1686428469068570600,9.577570556640625,-0.3901851663701236,9.781280580943822,-0.5870939321316778
1686428469078516500,9.5875166015625,-0.5492297000963241,9.778813898569345,-0.49346806538589294
1686428469088462600,9.597462646484376,-0.7320384827043861,9.77123206513822,-0.39686961257010694
1686428469098408400,9.607408447265625,-0.9313416693218052,9.757721426180005,-0.2997969663713127
1686428469108353500,9.617353515625,-1.1360095978427678,9.738488902443647,-0.20424089874792842
1686428469118299400,9.62729931640625,-1.3305699738472698,9.715333067783712,-0.11083934227731078
1686428469128245500,9.63724560546875,-1.5002533174224197,9.691191144695878,-0.021263915399531833
1686428469138191400,9.64719140625,-1.6357408152766524,9.669060561430454,0.06346118537024595
1686428469148136700,9.65713671875,-1.7345283756345509,9.650982468426227,0.1426292685008142
1686428469158082600,9.66708251953125,-1.8021296473510562,9.637218146967887,0.21621466526137664
1686428469168028700,9.677028564453124,-1.8498145047202705,9.626381695654988,0.2852272833468392
1686428469177975300,9.686975341796876,-1.8899656055837868,9.616357729768753,0.35226160536296663
1686428469187921400,9.69692138671875,-1.93294783822,9.605066520425677,0.4204628522666171
1686428469197866200,9.7068662109375,-1.9849471977874635,9.591061375948787,0.4918425100106746
1686428469207812400,9.716812255859375,-2.0460911100581285,9.574127192282676,0.5656579070016742
1686428469217758200,9.72675830078125,-2.1119784174636007,9.55511737138629,0.640042847508937
1686428469227704300,9.736704345703124,-2.1767976572461425,9.535274022275209,0.7144650512866676
1686428469237649200,9.746649169921875,-2.236815341965854,9.515369298365712,0.7904295160703361
1686428469247595300,9.75659521484375,-2.291544857149571,9.495352930775285,0.870328763019666
1686428469257541000,9.766541015625,-2.3434205903373657,9.474432307821512,0.9559930763017386
1686428469267487200,9.7764873046875,-2.3955345161952075,9.451693821790814,1.0475197788111865
1686428469277432300,9.786432373046875,-2.449014323578775,9.427011215955018,1.1419997051030397
1686428469287378400,9.79637841796875,-2.502463297432661,9.40130745037794,1.2342878204390406
1686428469297324300,9.80632421875,-2.5518773166820403,9.376178269818425,1.3212006724774836
1686428469307270400,9.8162705078125,-2.5935399911522863,9.353474270579218,1.3987351630568503
1686428469317216300,9.82621630859375,-2.6256775891691446,9.334341115564108,1.465019214694947
1686428469327161300,9.836161376953125,-2.6482451025471088,9.318786403557658,1.52230162923187
1686428469337107200,9.846107177734375,-2.6626401231244206,9.306664004087448,1.570580360841006
1686428469347053300,9.85605322265625,-2.6699583371832967,9.297700360909104,1.6107392066195607
1686428469356999200,9.865999267578125,-2.6679054963067173,9.292321005958318,1.6448258928775787
1686428469366944300,9.8759443359375,-2.655490543630719,9.290804171654582,1.6732311724983155
1686428469376890000,9.88589013671875,-2.6334622516959905,9.293242796978355,1.6943782976843416
1686428469386836200,9.895836181640625,-2.6034356544837354,9.299691242465377,1.7053677476018667
1686428469396782000,9.905781982421875,-2.568049283803999,9.309723391658068,1.7042811214089393
1686428469406728200,9.915728271484374,-2.5291356157809495,9.322869288957119,1.6905577164828776
1686428469416673300,9.92567333984375,-2.4888734557583927,9.338411141481995,1.6643215975947676
1686428469426619400,9.935619384765625,-2.4495260724931955,9.355436510562896,1.626660121589899
1686428469436565200,9.945565185546876,-2.4122433666728433,9.373148108342289,1.579737773025781
1686428469446511400,9.955511474609375,-2.382817219571769,9.389555637785792,1.5260510448932647
1686428469456456200,9.965456298828125,-2.3766987366914747,9.400347665435076,1.4680416312560438
1686428469466402300,9.97540234375,-2.406285627312213,9.401149044945836,1.4137078373916447
1686428469476348200,9.98534814453125,-2.4578102089747786,9.393467842793465,1.3756078238390386
1686428469486294300,9.995294189453125,-2.4912781788125633,9.387476493424177,1.3561746629640459
1686428469496240000,10.005240234375,-2.47313812648803,9.394075745558737,1.3436217631220817
1686428469506185200,10.015185302734375,-2.405438362833112,9.414705276611446,1.3219637658044696
1686428469516131000,10.025131103515625,-2.312066105522215,9.44289735187292,1.2870252850227057
1686428469526077200,10.0350771484375,-2.2129459522090853,9.472279513701796,1.2446662988513708
1686428469536023000,10.04502294921875,-2.1170843623004854,9.499854333847761,1.2004597120519727
1686428469545969200,10.05496923828125,-2.0290506895385683,9.52484848985076,1.1535144210036843
1686428469555914200,10.064914306640626,-1.9491605757437644,9.548225858306884,1.0966021549534053
1686428469565860400,10.0748603515625,-1.8756943575166165,9.57087549701035,1.0249389675602316
1686428469575806200,10.08480615234375,-1.8090449796974657,9.592257307735085,0.9414672689516097
1686428469585752300,10.09475244140625,-1.7516523827843367,9.611050855532287,0.8542899207580834
1686428469595697200,10.104697265625,-1.7055122706390917,9.6263980622679,0.7707786938566714
1686428469605643300,10.114643310546874,-1.6705217674091457,9.638255673322082,0.6955514573063701
1686428469615589000,10.124589111328126,-1.6444269566878675,9.647232760503888,0.6301847397089004
1686428469625535200,10.13453515625,-1.6226089465029536,9.654435823750495,0.5739208545647562
1686428469635480000,10.14447998046875,-1.5987095999993384,9.661250764462352,0.5241792473288253
1686428469645426200,10.15442626953125,-1.5664615273453295,9.668963530796766,0.47723830366209147
1686428469655372000,10.1643720703125,-1.5223631501607595,9.678263858583568,0.4289635906409472
1686428469665318100,10.174318115234374,-1.4670067352503537,9.68896703890562,0.3771047355227172
1686428469675264000,10.184263916015626,-1.400566324006766,9.700864397448301,0.31942499223127957
1686428469685209300,10.194209228515625,-1.3258829850748182,9.713163907051086,0.258590785230603
1686428469695155200,10.2041552734375,-1.2483373885795472,9.724844407972693,0.1986211591700092
1686428469705101300,10.214101318359376,-1.1738044179037213,9.735129070621728,0.14078434388702735
1686428469715047200,10.224047119140625,-1.109285914633423,9.743345110303164,0.0842981851611752
1686428469724993300,10.2339931640625,-1.0592688149243592,9.749237675473093,0.026912887921801302
1686428469734938000,10.243938232421876,-1.0241772624727339,9.75297627747953,-0.030354557374853174
1686428469744884200,10.25388427734375,-1.0015686864320188,9.75500456843674,-0.08452120766155422
1686428469754830000,10.263830078125,-0.9866382438037544,9.755972536686063,-0.13396127466764302
1686428469764776200,10.273776123046876,-0.9724828041359782,9.756693836697936,-0.17775297878952695
1686428469774721000,10.283720947265625,-0.9518111144419759,9.757944129019975,-0.2167261219148524
1686428469784667100,10.293667236328124,-0.9196913443427532,9.760142515847086,-0.2532925326920114
1686428469794613200,10.30361328125,-0.8760349387720227,9.763159233319758,-0.2892396973259747
1686428469804559000,10.31355908203125,-0.8254524602651595,9.766433724945783,-0.325275252629444
1686428469814505200,10.323505126953124,-0.7752063010405749,9.769278008460997,-0.36141901754774153
1686428469824450300,10.3334501953125,-0.7318889181658625,9.77126889001727,-0.3962732175795361
1686428469834396200,10.343396240234375,-0.7005944199096411,9.772205878606439,-0.4284059567581862
1686428469844342300,10.35334228515625,-0.6834625217143446,9.77210943249464,-0.4573145097259432
1686428469854288100,10.3632880859375,-0.6794259596746415,9.77112042145729,-0.48369277703110125
1686428469864233200,10.373233154296875,-0.6852608763732015,9.769418293714523,-0.5091672273643314
1686428469874179000,10.383178955078124,-0.6962281144589185,9.767302324473857,-0.5342810642242432
1686428469884125200,10.393125244140625,-0.7072495669499039,9.765168819576502,-0.5582752859370783
1686428469894071000,10.403071044921875,-0.7144184356659651,9.763338681539892,-0.5807162137933075
1686428469904017200,10.41301708984375,-0.7163150630675256,9.76194518135488,-0.6014234862573444
1686428469913962200,10.422962158203125,-0.7128414686728268,9.761002932068704,-0.6205469966612756
1686428469923908400,10.432908447265625,-0.7053785854462534,9.760430685138703,-0.637821664328128
1686428469933854200,10.442854248046874,-0.6962422160495072,9.760021519815922,-0.6538989389039576
1686428469943800300,10.45280029296875,-0.687466277462989,9.759641580587624,-0.6686877811044454
1686428469953745200,10.4627451171875,-0.679137790383026,9.759230661699176,-0.6830649006988853
1686428469963691300,10.472691162109374,-0.6701181061685085,9.758699915823339,-0.6993504111979156
1686428469973637000,10.48263720703125,-0.660200815527141,9.757939452844857,-0.719119306833297
1686428469983583200,10.492583251953125,-0.6498246752023696,9.756821846991777,-0.7433276462208479
1686428469993529300,10.502529296875,-0.6395945922847837,9.755236623626947,-0.772423392323777
1686428470003474200,10.51247412109375,-0.6289894655097276,9.75327204555571,-0.8052536487799138
1686428470013420000,10.522419921875,-0.6144996793210507,9.751171273884177,-0.841077753289789
1686428470023366100,10.5323662109375,-0.591939435934089,9.749289113399385,-0.8782648167159408
1686428470033312300,10.542312255859375,-0.5608510181766003,9.747779293358326,-0.9146873985756188
1686428470043258000,10.552258056640625,-0.5226630340795964,9.746682730293273,-0.9483564439434558
1686428470053203200,10.562203125,-0.4779836786692962,9.746103469100595,-0.9774498519588262
1686428470063149300,10.5721494140625,-0.4282978567412123,9.74599767063856,-1.001232878606394
1686428470073095200,10.58209521484375,-0.3750138276580721,9.746039756214618,-1.0220023295864462
1686428470083041300,10.592041259765624,-0.31944303934462365,9.745545250695944,-1.0453186155050993
1686428470092986000,10.601986083984375,-0.2608381440322846,9.74432184638083,-1.0726285011045633
1686428470102932200,10.61193212890625,-0.1973938093321398,9.742556590273976,-1.101817332318425
1686428470112878000,10.621878173828126,-0.12898691118801944,9.74042191633284,-1.1304494064323602
1686428470122824200,10.63182421875,-0.054803146675508466,9.738142280963062,-1.1558436676688493
1686428470132770300,10.641770263671875,0.023201509565720334,9.735643449884652,-1.1777540323123334
1686428470142715100,10.651715087890626,0.09983325175223871,9.732824300810694,-1.196892886415869
1686428470152661000,10.661660888671875,0.16784489436792208,9.73005483609736,-1.2117208185177295
1686428470162607000,10.671607177734375,0.22041206215228884,9.728099610376358,-1.2189706435155123
1686428470172552400,10.681552490234376,0.253976167574618,9.727642514258623,-1.2160817902062087
1686428470182497300,10.691497314453125,0.26869293091958385,9.729103234460949,-1.2011518590345978
1686428470192443400,10.701443359375,0.2668205794427544,9.732474172198772,-1.1739473335057495
1686428470202389200,10.71138916015625,0.24945494555681944,9.737553667420148,-1.1349893148843198
1686428470212335400,10.72133544921875,0.2163724496389739,9.743866503828764,-1.0865811847418545
1686428470222281200,10.73128125,0.16590524980854243,9.751068398031592,-1.0293320148874074
1686428470232226300,10.741226318359375,0.0989324030555319,9.758878779521584,-0.9617257747348398
1686428470242172200,10.751172119140625,0.014564341270719887,9.766927645942568,-0.8816549706108867
1686428470252118300,10.7611181640625,-0.08852789515280164,9.774389067864417,-0.7898642834030092
1686428470262064000,10.771064208984376,-0.212972961660102,9.780078803938627,-0.6892659472960978
1686428470272010200,10.78101025390625,-0.3655797174237668,9.782455469942093,-0.5833552570600062
1686428470281955300,10.790955322265624,-0.5472221961988136,9.779776021599769,-0.47634391210563476
1686428470291901400,10.8009013671875,-0.7492384776998311,9.770929867321252,-0.37138504270166156
1686428470301847300,10.810847412109375,-0.9596320173259824,9.755869076311587,-0.2692162241413258
1686428470311793400,10.82079345703125,-1.1624328368008137,9.736060213992,-0.16814517422243952
1686428470321738200,10.83073828125,-1.341357763712853,9.714243518981338,-0.06783094771995675
1686428470331684400,10.840684326171875,-1.4853518086276947,9.693464350324868,0.029589418221253435
1686428470341630200,10.850630126953124,-1.591245693859458,9.675935707896947,0.12079112884332426
1686428470351576300,10.860576416015626,-1.6640692302688955,9.662273093247412,0.20426259912308303
1686428470361522400,10.8705224609375,-1.7150905385844408,9.651415014624595,0.28109522504340856
1686428470371467300,10.88046728515625,-1.7591922767698764,9.641115154406428,0.3528651607466861
1686428470381413000,10.8904130859375,-1.8098866912186145,9.628991585892438,0.42095761351361866
1686428470391359200,10.900359130859375,-1.8759803348511457,9.61320891034901,0.487142113767378
1686428470401305300,10.910305419921874,-1.9578454019807279,9.593324060183763,0.5525912124186754
1686428470411251200,10.920251220703125,-2.0497345811270176,9.5700904841125,0.6183283707637339
1686428470421196300,10.9301962890625,-2.143361397720873,9.544977085644007,0.6854144594997167
1686428470431142400,10.940142333984374,-2.2316499220266937,9.51943815523982,0.7552550345756113
1686428470441088500,10.950088623046875,-2.3112293624371287,9.494199669086932,0.8299296787444501
1686428470451034400,10.960034423828125,-2.383171001445502,9.468837264293432,0.9121379332885146
1686428470460979200,10.969979248046876,-2.451193567313999,9.442480587765575,1.0008020859736948
1686428470470925300,10.97992529296875,-2.517515612874925,9.414842639255523,1.0923550919681786
1686428470480871400,10.989871337890625,-2.581376967410743,9.386581005889177,1.1827891038700937
1686428470490817300,10.9998173828125,-2.6392697689309714,9.359239409977198,1.2685697370082138
1686428470500763400,11.009763427734375,-2.6874106995046136,9.334666109734773,1.346185476130247
1686428470510708200,11.019708251953125,-2.725834538184106,9.313807446101308,1.4118091641634702
1686428470520654300,11.029654296875,-2.7552897652491923,9.296765710407495,1.4659170403175055
1686428470530600200,11.03960009765625,-2.778450568345189,9.282537863090633,1.5116516404017806
1686428470540546300,11.04954638671875,-2.79618496247828,9.27090470844209,1.5498624208524823
1686428470550492200,11.0594921875,-2.8070760665878653,9.26223566429615,1.5816805776566265
1686428470560437500,11.0694375,-2.808646384644508,9.257337955382466,1.6073551171392202
1686428470570383400,11.07938330078125,-2.8011013760924337,9.25645357376337,1.6255163583822547
1686428470580329500,11.08932958984375,-2.786305958020687,9.25926804666221,1.634886390404403
1686428470590275300,11.099275390625,-2.7657898242145773,9.265427153813839,1.634829837911576
1686428470600220400,11.109220458984375,-2.74049639300406,9.27452465250492,1.6258081809356808
1686428470610166300,11.119166259765626,-2.7121859520599245,9.285933935269712,1.6080539130583404
1686428470620112400,11.1291123046875,-2.6831238159656525,9.298798093017934,1.5822722599394619
1686428470630058200,11.139058349609375,-2.6566031810477373,9.311892552390693,1.5496788809791207
1686428470640004400,11.14900439453125,-2.637560042403638,9.32361396984458,1.5112513890378176
1686428470649949400,11.158949462890625,-2.6344968554407355,9.331227951979637,1.4690151524633168
1686428470659895300,11.168895263671875,-2.6551073895320294,9.331384603846073,1.43040821230188
1686428470669841400,11.17884130859375,-2.6945290070772168,9.324048854130506,1.404289582313597
1686428470679787500,11.18878759765625,-2.7287352280616757,9.315887759506701,1.3923514533691108
1686428470689733400,11.1987333984375,-2.723417832431197,9.318609877946972,1.3845175448730587
1686428470699678500,11.208678466796876,-2.6658257674232124,9.33776641383767,1.3674395688220857
1686428470709624300,11.218624267578125,-2.5733026742875573,9.36777401408851,1.3391465174041688
1686428470719570400,11.2285703125,-2.4753075794816017,9.398705743446946,1.3067318560115992
1686428470729516300,11.238516357421876,-2.391572626826912,9.424738594847916,1.2747826201736927
1686428470739462400,11.24846240234375,-2.325363247860223,9.446109299656749,1.2385773343265056
1686428470749407200,11.2584072265625,-2.2693587443046273,9.46619054917693,1.1881271038971841
1686428470759353300,11.268353271484376,-2.212972255694121,9.488006659665704,1.1184189960945397
1686428470769299200,11.27829931640625,-2.1510060672551394,9.511882040771841,1.0332714001629502
1686428470779245300,11.288245361328125,-2.0857342613995073,9.535779049187898,0.9428825425770133
1686428470789190400,11.2981904296875,-2.022752466177195,9.557420387631653,0.8570761904757469
1686428470799136500,11.308136474609375,-1.9654739971630275,9.575893617433309,0.7807530484475195
1686428470809082400,11.318082275390625,-1.9152691197969018,9.591213351640105,0.7146676611866801
1686428470819028500,11.328028564453126,-1.8738309017322956,9.603516368374228,0.6569811958935111
1686428470828974300,11.337974365234375,-1.84211766660735,9.61300666577518,0.6058904390709474
1686428470838919400,11.34791943359375,-1.8182598211579024,9.62039268437326,0.5589080308826639
1686428470848865300,11.357865234375,-1.7973595103397964,9.626852820298074,0.5134243002869189
1686428470858811400,11.367811279296875,-1.7735428736835717,9.63359294220805,0.467791991533339
1686428470868757200,11.37775732421875,-1.7402892772488294,9.641823010414837,0.4207661095295101
1686428470878703400,11.387703369140626,-1.6938102885380386,9.65207610888183,0.3725892673922702
1686428470888648200,11.397648193359375,-1.6343264184340833,9.664048870748282,0.3248292989602312
1686428470898594300,11.40759423828125,-1.5638431615404784,9.677218733444809,0.2761134911080822
1686428470908540200,11.4175400390625,-1.4880436780601738,9.69040262466669,0.2285212256594561
1686428470918486300,11.427486328125,-1.4138152432888746,9.702458973163365,0.18385467493180185
1686428470928431400,11.437431396484374,-1.3482438699647783,9.712497552096844,0.14147679226375184
1686428470938377500,11.44737744140625,-1.297128307494521,9.719974171587824,0.09976346531850286
1686428470948323300,11.4573232421875,-1.263628335083276,9.72471639767885,0.05931012553882319
1686428470958269400,11.46726953125,-1.2465909833036362,9.72707026732862,0.02241757894668262
1686428470968215300,11.47721533203125,-1.2400854008018969,9.727922500243782,-0.009319779693477902
1686428470978160400,11.487160400390625,-1.2359146909885108,9.728387779667973,-0.03687368434475502
1686428470988106200,11.497106201171874,-1.2255644888225943,9.72956909840703,-0.06218055727544706
1686428470998052400,11.50705224609375,-1.2032809800177813,9.732159699422121,-0.08687456585466861
1686428471007998200,11.516998291015625,-1.167867575200647,9.736223880121111,-0.11143452255832963
1686428471017944300,11.5269443359375,-1.1225241663910448,9.741250183850527,-0.135545283322921
1686428471027889200,11.53688916015625,-1.072743798047304,9.746508542770147,-0.15863116715233772
1686428471037835300,11.546835205078125,-1.0240429685685783,9.751360074454546,-0.18080453011356293
1686428471047781000,11.556781005859374,-0.9814213128730654,9.755322548344731,-0.20221282698642462
1686428471057727200,11.566727294921876,-0.9482692771166562,9.75813760576546,-0.2234191715463996
1686428471067673300,11.57667333984375,-0.9257219297438859,9.759792387235164,-0.24473416411262003
1686428471077618400,11.586618408203124,-0.9121486738782375,9.760518363422154,-0.2658417792721651
1686428471087564300,11.596564208984375,-0.9038074734471738,9.760708333036304,-0.2865051760618575
1686428471097510400,11.606510498046875,-0.8958949467569589,9.76080711723566,-0.3072543697051704
1686428471107456500,11.61645654296875,-0.8849185024514794,9.76108710322082,-0.32933771629538383
1686428471117401300,11.6264013671875,-0.8704294469151646,9.76157284091115,-0.35273671206142754
1686428471127347200,11.63634716796875,-0.8544985220074653,9.762119953399896,-0.3758085947649553
1686428471137293300,11.646293212890624,-0.8406091128647327,9.76252035089433,-0.3961517100917175
1686428471147239200,11.6562392578125,-0.8294619881674646,9.76278163217902,-0.412886425662972
1686428471157185300,11.666185302734375,-0.8186936336547136,9.763084414517879,-0.42697979641258715
1686428471167130000,11.676130126953124,-0.8056037043265998,9.763608146131038,-0.4397191952699795
1686428471177076500,11.686076416015625,-0.7880375794325023,9.76446271713376,-0.45237880688942966
1686428471187022600,11.696022705078125,-0.7657992249436676,9.76560136577487,-0.46581170443631703
1686428471196968400,11.705968505859374,-0.740501044492796,9.766820093914866,-0.4808939766254276
1686428471206914600,11.71591455078125,-0.7154167990535497,9.767792738339304,-0.49876989812105893
1686428471216859600,11.725859619140625,-0.6935222895663231,9.768197812008857,-0.5212600354138761
1686428471226805800,11.7358056640625,-0.6763830848474055,9.767863465487956,-0.549275767727755
1686428471236751600,11.745751708984375,-0.6653668930534273,9.766717218062281,-0.5821447122264654
1686428471246697700,11.75569775390625,-0.6595438129231334,9.764884157416224,-0.6184125419158488
1686428471256643600,11.7656435546875,-0.6552477231644094,9.762710320508479,-0.6561411648727953
1686428471266588700,11.775588623046875,-0.6480691367719322,9.760592013180256,-0.6937186158560216
1686428471276534500,11.785534423828125,-0.6360592577654868,9.758801038110256,-0.7291261023890226
1686428471286480600,11.795480712890624,-0.6183399150710552,9.75752210421562,-0.7607961559593677
1686428471296426500,11.805426513671875,-0.5929030568018555,9.75670611165762,-0.7909105775855482
1686428471306372600,11.81537255859375,-0.5571139140075072,9.75606781375408,-0.8241071831360459
1686428471316317400,11.8253173828125,-0.5085768967883662,9.755335992348193,-0.8632190040796994
1686428471326263600,11.835263671875,-0.4457740383295342,9.7542815148592,-0.9086587859358638
1686428471336209400,11.84520947265625,-0.37026772910952566,9.752436763775348,-0.9608525720968842
1686428471346155500,11.855155517578124,-0.2883749337228015,9.749166363802551,-1.0202886575363577
1686428471356100600,11.8651005859375,-0.20795184556245802,9.744139475551247,-1.0857711835332213
1686428471366046700,11.875046630859375,-0.13403633093154058,9.737892690116167,-1.151463699018955
1686428471375992600,11.88499267578125,-0.06833807069160976,9.731679806950687,-1.2083555068030953
1686428471385938700,11.894938720703125,-0.007855751576746116,9.72690075598061,-1.2480774224691091
1686428471395884500,11.904884521484375,0.051721661437512376,9.723845460063218,-1.270633537670225
1686428471405829600,11.91482958984375,0.11084479477056301,9.722029935073852,-1.2807178554415701
1686428471415775500,11.924775390625,0.16863135030418633,9.721426708483696,-1.2789917623013258
1686428471425721600,11.9347216796875,0.2224138121624477,9.722215813034772,-1.2646871964864432
1686428471435667500,11.94466748046875,0.2678919898002408,9.724485511532425,-1.2381368970826268
1686428471445613600,11.954613525390625,0.30203181275129315,9.728082074719667,-1.201489128164947
1686428471455558700,11.96455859375,0.32149792604781685,9.732948219451307,-1.156167346665263
1686428471465504800,11.9745048828125,0.3190894401339814,9.739320677092671,-1.1019130477778614
1686428471475450600,11.98445068359375,0.2902918915263377,9.746983174544573,-1.0404051245003938
1686428471485396700,11.994396728515625,0.23360090354392304,9.755450558638572,-0.9731550043091177
1686428471495342600,12.004342529296874,0.1512021953285206,9.764137138441205,-0.8995273119099437
1686428471505287700,12.01428759765625,0.04658369119428098,9.772254978445172,-0.8192848775461316
1686428471515233500,12.024233642578125,-0.07689079498150385,9.778826758050918,-0.734172645188868
1686428471525179600,12.0341796875,-0.21781859332667663,9.782820796123147,-0.64757901516743
1686428471535125500,12.04412548828125,-0.3757011888677254,9.783249835190176,-0.5632431740101427
1686428471545071600,12.054071533203125,-0.5506137018006295,9.779268656599521,-0.48280265979096293
1686428471555016400,12.064016357421876,-0.7367887459713965,9.77054349835217,-0.40494569579157974
1686428471564962600,12.073962646484375,-0.923799510313943,9.757609197977185,-0.3256601602938026
1686428471574908400,12.083908447265625,-1.1015442875307053,9.74161667907536,-0.24062809876697136
1686428471584854500,12.0938544921875,-1.2622149611540139,9.723977562010287,-0.146527947306633
1686428471594800400,12.10380029296875,-1.4003966665282845,9.706037416172027,-0.04610297673894092
1686428471604745700,12.113745849609375,-1.5131643830522894,9.689057055276631,0.05374163209095131
1686428471614691600,12.123691650390626,-1.6016311865344643,9.673857732579112,0.1471643911798019
1686428471624637700,12.1336376953125,-1.6701741230152547,9.660536478713155,0.2344101010349579
1686428471634583600,12.14358349609375,-1.725083232549578,9.64849474326372,0.3178669126017019
1686428471644529700,12.15352978515625,-1.7737968484446405,9.636684478482604,0.3979431235531345
1686428471654474500,12.163474609375,-1.8237402983956037,9.623930210849641,0.4736085688576102
1686428471664420600,12.173420654296875,-1.8802333161205051,9.609302550560235,0.5444307023167609
1686428471674366500,12.183366455078126,-1.9461651933200657,9.59217547467053,0.6107245446965098
1686428471684312600,12.1933125,-2.02068296642676,9.572529109436273,0.673741338166967
1686428471694258700,12.2032587890625,-2.1003582684271036,9.550773789224028,0.7359449886236339
1686428471704203500,12.21320361328125,-2.181086294350773,9.527481760963797,0.8002022836744784
1686428471714149400,12.2231494140625,-2.2589020860895515,9.503319379609822,0.8687254194762557
1686428471724095500,12.233095458984375,-2.3316668780490755,9.478764784067868,0.9416736782439052
1686428471734041600,12.24304150390625,-2.3993637190945445,9.45395884411335,1.0178979630075395
1686428471743987500,12.252987548828125,-2.463670625440776,9.428701068738102,1.0955863289743661
1686428471753932500,12.2629326171875,-2.5258476801514624,9.403011331686377,1.1721226022966205
1686428471763878700,12.272878662109376,-2.586710729654133,9.377148576155305,1.2443494879871606
1686428471773824800,12.28282470703125,-2.6429864513665438,9.352441420400142,1.3102929094940423
1686428471783770600,12.2927705078125,-2.6897370966255663,9.330625309911369,1.3693547547936438
1686428471793716700,12.302716796875,-2.721965295535326,9.31365196327865,1.420277571170777
1686428471803661600,12.31266162109375,-2.7400504028022286,9.30175518925786,1.462831057000905
1686428471813607700,12.322607666015625,-2.7468264728084204,9.294138869035244,1.4981008155636488
1686428471823553500,12.332553466796876,-2.7462103867366907,9.289784765478968,1.5259779796570538
1686428471833499600,12.342499755859375,-2.741042044188082,9.28776699591577,1.54740026852265
1686428471843445500,12.352445556640625,-2.731713367089629,9.287973916664718,1.5625883391737938
1686428471853390600,12.362390625,-2.71694074537158,9.290852102449536,1.571203168914467
1686428471863336400,12.37233642578125,-2.6950164983332154,9.297176044774055,1.5715588504843412
1686428471873282600,12.382282470703124,-2.6656539179876444,9.307097719329596,1.5628902447298167
1686428471883228400,12.392228515625,-2.6303622398540374,9.320013899526,1.5456163077153264
1686428471893174500,12.402174560546875,-2.5917010852873323,9.335113268980383,1.519578195617348
1686428471903119600,12.41211962890625,-2.5534420817807315,9.351156641286611,1.485320390576124
1686428471913065700,12.422065673828126,-2.5204855685964227,9.366472868362068,1.4445553955979644
1686428471923011600,12.432011474609375,-2.5019348896443843,9.378360874554515,1.3989429605886339
1686428471932957700,12.441957763671875,-2.5090160800769925,9.383059261503815,1.3540433500237763
1686428471942903600,12.451903564453126,-2.540677292753756,9.379270390614867,1.3208427989505231
1686428471952848600,12.4618486328125,-2.572639826464653,9.37294060307145,1.303794633515924
1686428471962794500,12.47179443359375,-2.569644444040954,9.375287458458542,1.2927946622043847
1686428471972740600,12.48174072265625,-2.5170351358816028,9.392456035402416,1.2714923464566468
1686428471982686500,12.4916865234375,-2.427514147171378,9.420683181977271,1.2362401235505938
1686428471992631600,12.501631591796874,-2.3280212150231003,9.450666232308745,1.1981746698547153
1686428472002577700,12.51157763671875,-2.2404333863325414,9.475801842609048,1.1661937967695295
1686428472012523800,12.521523681640625,-2.1702904673092065,9.496043251127004,1.1337565582189708
1686428472022469600,12.5314697265625,-2.1100907040208576,9.515120292040706,1.0864530283175409
1686428472032415700,12.541415771484376,-2.0526289873942734,9.535291557931899,1.0174953004907816
1686428472042361600,12.551361572265625,-1.9958520381614564,9.556074233719706,0.931874972480908
1686428472052306700,12.561306640625,-1.9416024154491722,9.575672083637118,0.8408635260172188
1686428472062252500,12.57125244140625,-1.8917970587946473,9.59279097622037,0.7548894891988486
1686428472072198700,12.58119873046875,-1.8477052574813364,9.607018239015341,0.6794046976909041
1686428472082144500,12.59114453125,-1.8100832367040216,9.618461424049734,0.6157804398465901
1686428472092089600,12.601089599609375,-1.7791593983910976,9.627488780114055,0.5625404691008851
1686428472102035500,12.611035400390625,-1.7533692697048187,9.634801733475923,0.516423591700755
1686428472111981600,12.620981689453124,-1.7294862898141146,9.64133376559317,0.4732373609250411
1686428472121927400,12.630927490234376,-1.7022103064842522,9.64823404650092,0.42948779717814173
1686428472131873500,12.64087353515625,-1.666310725585371,9.656399232777952,0.3843991303145885
1686428472141819400,12.6508193359375,-1.618635951218754,9.66623030644059,0.33825627822298554
1686428472151764700,12.6607646484375,-1.5583271745979785,9.677700964003801,0.2900415700270794
1686428472161710600,12.670710693359375,-1.4872174563691019,9.690261170369386,0.23957327421810476
1686428472171656700,12.68065673828125,-1.4089926454380153,9.703078566366434,0.1881003314112313
1686428472181603000,12.69060302734375,-1.330502753829956,9.714985861781239,0.138604990553949
1686428472191548000,12.7005478515625,-1.257443801229447,9.725268186342715,0.09163682095357216
1686428472201494000,12.710493896484374,-1.195204421872273,9.733432203575969,0.0465759508458199
1686428472211439900,12.72043994140625,-1.147398422341421,9.739294958129525,0.0033137190955370897
1686428472221386000,12.730385986328125,-1.1141269979890436,9.743084413540362,-0.03781692686148453
1686428472231332000,12.74033203125,-1.0930797529809175,9.745243637400865,-0.0760631804843666
1686428472241277000,12.75027685546875,-1.0796875527705996,9.746395730045437,-0.11152579017151147
1686428472251222800,12.760222900390625,-1.0687042403329163,9.747169052505493,-0.14476828982350415
