time,seconds_elapsed,z,y,x
1686428459590271000,0.09927099609375,0.5132920742034912,3.57605242729187,0.2470630556344986
1686428459600216800,0.109216796875,0.3987029194831848,3.4702281951904297,-0.021279189735651016
1686428459610163000,0.119162841796875,0.34407109022140503,3.205533742904663,-0.2845315933227539
1686428459620108800,0.12910888671875,0.29983413219451904,2.654684066772461,-0.5215476155281067
1686428459630054000,0.139053955078125,0.2204631268978119,2.045543909072876,-0.713554859161377
1686428459639999700,0.148999755859375,0.06588953733444214,1.5670686960220337,-0.8753752112388611
1686428459649945900,0.15894580078125,-0.1604573130607605,1.3935480117797852,-1.0488271713256836
1686428459659892000,0.16889208984375,-0.4191914200782776,1.5919677019119263,-1.237707257270813
1686428459669837000,0.178837158203125,-0.6050973534584045,1.9718891382217407,-1.4467790126800537
1686428459679783000,0.188782958984375,-0.6521679162979126,2.233220338821411,-1.6311867237091064
1686428459689729000,0.19872900390625,-0.6717749238014221,2.177611827850342,-1.7487304210662842
1686428459699673900,0.208673828125,-0.8975121974945068,1.7714729309082031,-1.9014067649841309
1686428459709620000,0.218619873046875,-0.9850375056266785,1.3680392503738403,-2.0310351848602295
1686428459719565800,0.22856591796875,-0.8775866627693176,1.1301294565200806,-2.1559033393859863
1686428459729512000,0.238511962890625,-0.6424479484558105,1.0958667993545532,-2.2994513511657715
1686428459739456800,0.248456787109375,-0.45964643359184265,1.3736566305160522,-2.5080883502960205
1686428459749403000,0.25840283203125,-0.49230557680130005,1.896623134613037,-2.7049684524536133
1686428459759349000,0.268348876953125,-0.6806376576423645,2.3310654163360596,-2.7680411338806152
1686428459769295000,0.278295166015625,-0.8479784727096558,2.70469069480896,-2.7493488788604736
1686428459779240000,0.288239990234375,-0.9417129158973694,3.0646681785583496,-2.7106235027313232
1686428459789186000,0.29818603515625,-0.9931966066360474,3.224849224090576,-2.6513288021087646
1686428459799132000,0.3081318359375,-1.0360780954360962,3.109440803527832,-2.546708345413208
1686428459809077000,0.318076904296875,-1.0975900888442993,2.9280033111572266,-2.4580185413360596
1686428459819022800,0.32802294921875,-1.1845282316207886,3.1936421394348145,-2.297999620437622
1686428459828969000,0.337968994140625,-1.2955349683761597,3.690213680267334,-2.0411243438720703
1686428459838914800,0.347914794921875,-1.4673486948013306,4.336484432220459,-1.7076712846755981
1686428459848860000,0.35785986328125,-1.664768099784851,5.003909587860107,-1.3135749101638794
1686428459858806000,0.367805908203125,-1.7690001726150513,5.665228366851807,-0.890110433101654
1686428459868752100,0.377752197265625,-1.7356984615325928,6.2667717933654785,-0.4276333749294281
1686428459878698000,0.387697998046875,-1.652299404144287,6.817723274230957,0.06131022796034813
1686428459888643000,0.39764306640625,-1.6700328588485718,7.3210930824279785,0.5925613045692444
1686428459898589000,0.4075888671875,-1.8376946449279785,7.637909889221191,1.1394078731536865
1686428459908535000,0.41753515625,-2.1187140941619873,7.638484001159668,1.6357406377792358
1686428459918480000,0.42747998046875,-2.4651103019714355,7.295724391937256,1.9354467391967773
1686428459928426000,0.437426025390625,-2.904648542404175,6.642364501953125,1.8554514646530151
1686428459938371800,0.447371826171875,-3.3276116847991943,5.913159370422363,1.4085493087768555
1686428459948318000,0.45731787109375,-3.701374053955078,5.145349502563477,0.7844955921173096
1686428459958263000,0.467262939453125,-3.9977498054504395,4.4746270179748535,0.21852540969848633
1686428459968209200,0.477209228515625,-4.134923934936523,3.9772040843963623,-0.14052489399909973
1686428459978155000,0.487155029296875,-4.1082892417907715,3.493637800216675,-0.27607446908950806
1686428459988101000,0.49710107421875,-3.9737613201141357,2.838651180267334,-0.2791570723056793
1686428459998046000,0.5070458984375,-3.8618977069854736,2.0564393997192383,-0.2775559723377228
1686428460007992000,0.516991943359375,-3.8158493041992188,1.2749310731887817,-0.37537094950675964
1686428460017938000,0.52693798828125,-3.8496172428131104,0.6238777041435242,-0.5616505742073059
1686428460027883000,0.536883056640625,-3.941091775894165,0.17455129325389862,-0.73380047082901
1686428460037828900,0.546828857421875,-4.052249908447266,-0.04591023549437523,-0.8093295693397522
1686428460047775000,0.55677490234375,-4.138845443725586,-0.06846534460783005,-0.7415431141853333
1686428460057720800,0.566720947265625,-4.142609596252441,0.059590358287096024,-0.5679036378860474
1686428460067666200,0.576666259765625,-4.053829669952393,0.15875928103923798,-0.3158903121948242
1686428460077612000,0.586612060546875,-3.907317638397217,0.11236275732517242,0.005893042776733637
1686428460087558100,0.59655810546875,-3.7279298305511475,-0.033075928688049316,0.3582553565502167
1686428460097503000,0.6065029296875,-3.5574331283569336,-0.24856241047382355,0.7391640543937683
1686428460107449000,0.616448974609375,-3.4209163188934326,-0.4465404748916626,1.138552188873291
1686428460117395000,0.62639501953125,-3.328216075897217,-0.5271381139755249,1.542627215385437
1686428460127341000,0.636341064453125,-3.248108148574829,-0.5634362101554871,1.9309481382369995
1686428460137286000,0.646285888671875,-3.1001675128936768,-0.8156647086143494,2.206251382827759
1686428460147232000,0.65623193359375,-2.842939615249634,-0.9665700793266296,2.194572925567627
1686428460157177900,0.666177734375,-2.5708954334259033,-1.3086174726486206,1.9582819938659668
1686428460167124000,0.6761240234375,-2.248760223388672,-1.755558967590332,1.5830844640731812
1686428460177069300,0.6860693359375,-1.9814352989196777,-2.2974512577056885,1.170586347579956
1686428460187015200,0.69601513671875,-1.7601829767227173,-2.893746852874756,0.7588637471199036
1686428460196961300,0.705961181640625,-1.5949962139129639,-3.5023531913757324,0.40892916917800903
1686428460206906000,0.715906005859375,-1.4814400672912598,-3.892364740371704,0.17312172055244446
1686428460216852200,0.725852294921875,-1.423065423965454,-4.022651672363281,0.14817242324352264
1686428460226798000,0.735798095703125,-1.3474282026290894,-3.8783159255981445,0.31662267446517944
1686428460236744200,0.745744140625,-1.1979016065597534,-3.3915345668792725,0.7358026504516602
1686428460246689000,0.75568896484375,-1.2817426919937134,-4.3609442710876465,0.4132400453090668
1686428460256635100,0.76563525390625,-1.4313420057296753,-5.094119548797607,-1.0414000749588013
1686428460266581000,0.7755810546875,-1.5420176982879639,-5.238932132720947,-2.020378351211548
1686428460276527000,0.785527099609375,-1.605756402015686,-5.042510509490967,-2.367171287536621
1686428460286472200,0.79547216796875,-1.5620944499969482,-4.43776273727417,-2.3842153549194336
1686428460296418300,0.805418212890625,-1.3769572973251343,-3.81790828704834,-2.107929229736328
1686428460306364200,0.8153642578125,-1.303292155265808,-3.251232147216797,-1.7057850360870361
1686428460316310300,0.825310302734375,-1.4024072885513306,-2.705881357192993,-1.2323637008666992
1686428460326255000,0.835255126953125,-1.697972059249878,-1.7059117555618286,-0.7467218637466431
1686428460336201200,0.845201171875,-2.303485870361328,-0.983276903629303,-0.3655433654785156
1686428460346147000,0.85514697265625,-2.610248327255249,-1.6195812225341797,-0.23859871923923492
1686428460356092200,0.865092041015625,-2.29860782623291,-1.6488245725631714,-0.5132912993431091
1686428460366038000,0.8750380859375,-1.8346524238586426,-1.6002713441848755,-0.7734906077384949
1686428460375984000,0.884984130859375,-1.3048256635665894,-1.3597466945648193,-0.7501559853553772
1686428460385930000,0.894929931640625,-0.8979976773262024,-0.6520757675170898,0.2718733251094818
1686428460395875300,0.904875244140625,-0.7025794386863708,-0.18402868509292603,2.0952634811401367
1686428460405821200,0.9148212890625,-0.5272084474563599,-0.5190786123275757,1.4619659185409546
1686428460415767300,0.924767333984375,-0.4340691566467285,-0.8970701098442078,-0.08988221734762192
1686428460425713200,0.934713134765625,-0.41119977831840515,-1.3432390689849854,-0.9737603664398193
1686428460435658200,0.944658203125,-0.16528137028217316,-1.556951880455017,-1.4456647634506226
1686428460445604000,0.95460400390625,0.182833731174469,-1.6212307214736938,-1.7866904735565186
1686428460455550200,0.96455029296875,0.31884855031967163,-1.4121845960617065,-1.7369741201400757
1686428460465495000,0.9744951171875,0.41921910643577576,-1.2860732078552246,-1.426649808883667
1686428460475441200,0.984441162109375,0.3737911581993103,-1.131148338317871,-1.2886149883270264
1686428460485387000,0.994386962890625,0.11986462026834488,-0.911771833896637,-1.20197331905365
1686428460495333000,1.0043330078125,-0.09015226364135742,-0.4832848906517029,-1.1507372856140137
1686428460505278200,1.0142783203125,-0.13093191385269165,0.1810038685798645,-1.1037482023239136
1686428460515224300,1.024224365234375,-0.10770915448665619,0.8552241325378418,-1.0633171796798706
1686428460525170200,1.034170166015625,-0.04825727641582489,1.2670683860778809,-0.8562406301498413
1686428460535116300,1.0441162109375,0.10173195600509644,1.6584765911102295,-0.8088331818580627
1686428460545061000,1.05406103515625,0.30319714546203613,1.6891636848449707,-0.5772162079811096
1686428460555007200,1.06400732421875,0.32754644751548767,1.4223666191101074,-0.35973286628723145
1686428460564953000,1.073953125,0.14864380657672882,1.0623642206192017,-0.3866574168205261
1686428460574899200,1.083899169921875,0.013002084568142891,0.657809853553772,-0.42103856801986694
1686428460584844000,1.093843994140625,-0.04423350840806961,0.42905309796333313,-0.35130956768989563
1686428460594790100,1.1037900390625,-0.06214113533496857,0.4661714434623718,-0.24431467056274414
1686428460604736000,1.113736083984375,-0.022714367136359215,0.6379671692848206,-0.13720445334911346
1686428460614681000,1.12368115234375,0.09336456656455994,0.9827687740325928,-0.10441375523805618
1686428460624627200,1.133627197265625,0.2520700693130493,1.5100599527359009,-0.18590009212493896
1686428460634573300,1.1435732421875,0.4206327199935913,1.9012794494628906,-0.1596951186656952
1686428460644519200,1.153519287109375,0.5128928422927856,1.9708858728408813,0.0014825817197561264
1686428460654464000,1.163464111328125,0.48913827538490295,1.808677077293396,0.057436395436525345
1686428460664410000,1.17341015625,0.43490856885910034,1.4080082178115845,-0.09132272005081177
1686428460674356200,1.183356201171875,0.5763485431671143,1.135932445526123,-0.43382227420806885
1686428460684302000,1.193302001953125,1.0321829319000244,0.9928836822509766,-0.8433458805084229
1686428460694247000,1.203246826171875,1.5837680101394653,0.4547949433326721,-1.1535016298294067
1686428460704193000,1.213193115234375,1.8474414348602295,-0.019107647240161896,-1.2439290285110474
1686428460714139100,1.22313916015625,1.634505271911621,-0.41217610239982605,-1.2648569345474243
1686428460724084200,1.233084228515625,1.0912762880325317,-0.7461844682693481,-1.378308653831482
1686428460734030000,1.243030029296875,0.6345266103744507,-0.9642539024353027,-1.5539307594299316
1686428460743976200,1.25297607421875,0.6414545774459839,-0.9007119536399841,-1.445719838142395
1686428460753922300,1.26292236328125,0.6981860399246216,-0.5869841575622559,-1.3461730480194092
1686428460763867100,1.2728671875,0.6128271818161011,0.13585929572582245,-0.8490445017814636
1686428460773813000,1.28281298828125,0.5916774272918701,0.8679079413414001,-0.08580758422613144
1686428460783759000,1.292759033203125,0.7632257342338562,1.3018969297409058,0.7205725312232971
1686428460793705200,1.302705322265625,0.9625306129455566,1.591609239578247,1.4037556648254395
1686428460803650000,1.312650146484375,1.0470808744430542,1.817213773727417,1.8760571479797363
1686428460813596000,1.322595947265625,0.9170930981636047,1.7328847646713257,1.959672451019287
1686428460823542000,1.3325419921875,0.6753267645835876,1.30435049533844,1.695047378540039
1686428460833488100,1.342488037109375,0.4069605767726898,0.6912655234336853,1.2442491054534912
1686428460843433200,1.35243310546875,-0.11589065194129944,0.1302269846200943,0.7965999245643616
1686428460853379000,1.362379150390625,-0.8508874177932739,-0.21100544929504395,0.41706299781799316
1686428460863325200,1.3723251953125,-1.5100072622299194,-0.37838804721832275,0.1793295443058014
1686428460873271300,1.382271240234375,-1.7927297353744507,-0.5497371554374695,0.06411933153867722
1686428460883216100,1.392216064453125,-1.8970732688903809,-0.6046584844589233,-0.021205153316259384
1686428460893162000,1.402161865234375,-1.7505301237106323,-0.5912590622901917,0.08049643784761429
1686428460903108000,1.412108154296875,-1.7286421060562134,-0.3696179986000061,0.47651407122612
1686428460913053000,1.422052978515625,-1.6934112310409546,-0.050756655633449554,0.269353449344635
1686428460922999000,1.4319990234375,-1.58191978931427,-0.3471939265727997,-0.030536336824297905
1686428460932945000,1.44194482421875,-1.4884103536605835,-0.4414181411266327,0.47184184193611145
1686428460942891000,1.45189111328125,-1.6442735195159912,-0.12609614431858063,2.4855237007141113
1686428460952836000,1.461836181640625,-1.438735008239746,-0.3425951600074768,0.4507881999015808
1686428460962782200,1.4717822265625,-1.6847505569458008,-1.2614725828170776,-0.6677780747413635
1686428460972728000,1.48172802734375,-1.5300214290618896,-1.6462633609771729,-0.6497516632080078
1686428460982674200,1.491674072265625,-1.1109943389892578,-1.777523398399353,-0.25844618678092957
1686428460992619000,1.501618896484375,-0.7984386086463928,-1.426444172859192,0.13168372213840485
1686428461002565000,1.511565185546875,-0.46355140209198,-1.081979751586914,0.1328243613243103
1686428461012511000,1.521510986328125,-0.15373016893863678,-0.9257395267486572,-0.022042717784643173
1686428461022457000,1.53145703125,-0.0217170137912035,-0.9893110990524292,0.05023174360394478
1686428461032402000,1.54140185546875,-0.02148718200623989,-0.9387900829315186,0.09985016286373138
1686428461042348000,1.55134814453125,0.06436434388160706,-0.7595508694648743,0.047572311013936996
1686428461052294000,1.5612939453125,0.2311442643404007,-0.4882791340351105,0.06446580588817596
1686428461062240000,1.571239990234375,0.4103766083717346,-0.21472269296646118,0.10400097072124481
1686428461072185000,1.58118505859375,0.5694770216941833,-0.07792489230632782,0.13764095306396484
1686428461082131200,1.591131103515625,0.5552560091018677,0.014914766885340214,0.13225364685058594
1686428461092077000,1.6010771484375,0.46449950337409973,0.08422113955020905,0.008371646516025066
1686428461102022100,1.611022216796875,0.37971803545951843,0.14062929153442383,-0.14934581518173218
1686428461111968000,1.620968017578125,0.33002397418022156,0.201943501830101,-0.2581782937049866
1686428461121914000,1.6309140625,0.12651826441287994,0.27012789249420166,-0.30450716614723206
1686428461131860000,1.64085986328125,-0.08748723566532135,0.28941184282302856,-0.36070331931114197
1686428461141805000,1.65080517578125,-0.1973375678062439,0.2401857078075409,-0.43777334690093994
1686428461151751200,1.660751220703125,-0.1911686211824417,0.18480686843395233,-0.5388475060462952
1686428461161697000,1.670697021484375,-0.1296623945236206,0.28289082646369934,-0.7537289261817932
1686428461171643100,1.68064306640625,-0.13952061533927917,0.4374614953994751,-1.1138724088668823
1686428461181588200,1.690588134765625,-0.1563563197851181,0.4482899010181427,-1.3954391479492188
1686428461191534000,1.7005341796875,-0.08823798596858978,0.26789164543151855,-1.510634422302246
1686428461201480200,1.710480224609375,0.004162520635873079,-0.1671450436115265,-1.7003614902496338
1686428461211426000,1.720426025390625,0.06409429758787155,-0.6276953220367432,-1.920020580291748
1686428461221371100,1.73037109375,0.27217772603034973,-0.9379546642303467,-2.059330463409424
1686428461231317000,1.74031689453125,0.4537416696548462,-1.1061575412750244,-2.0994374752044678
1686428461241263000,1.75026318359375,0.7852370142936707,-0.8675079345703125,-1.9556502103805542
1686428461251209000,1.760208984375,0.8939523100852966,-0.51643967628479,-1.6031992435455322
1686428461261154000,1.770154052734375,0.8876603245735168,-0.1368585228919983,-1.3406083583831787
1686428461271100200,1.78010009765625,1.0193160772323608,-0.0202791728079319,-1.0556384325027466
1686428461281046300,1.79004638671875,1.0420081615447998,-0.016102004796266556,-0.7224303483963013
1686428461290991000,1.7999912109375,0.9573571085929871,0.03181998059153557,-0.39647623896598816
1686428461300937200,1.809937255859375,0.8689798712730408,-0.034090325236320496,-0.047622114419937134
1686428461310883000,1.819883056640625,0.6566015481948853,-0.25215795636177063,0.18086059391498566
1686428461320829200,1.8298291015625,0.46834295988082886,-0.40169790387153625,0.458243191242218
1686428461330774000,1.83977392578125,0.34837237000465393,-0.21208882331848145,0.7158606052398682
1686428461340720000,1.84972021484375,0.1426282525062561,-0.06854097545146942,0.9358657002449036
1686428461350666000,1.859666015625,-0.1879003942012787,0.029885994270443916,1.1510400772094727
1686428461360612000,1.869612060546875,-0.5131876468658447,0.26047125458717346,1.1838552951812744
1686428461370557200,1.87955712890625,-0.7094544172286987,0.34982138872146606,0.9003859758377075
1686428461380503300,1.88950341796875,-0.9789971709251404,0.3205966651439667,0.41951364278793335
1686428461390449200,1.89944921875,-1.3825228214263916,0.19931736588478088,-0.14726108312606812
1686428461400395300,1.909395263671875,-1.5436995029449463,-0.04517360404133797,-0.832200825214386
1686428461410340000,1.919340087890625,-1.5407122373580933,-0.32108402252197266,-1.505186676979065
1686428461420286200,1.9292861328125,-1.7030304670333862,-0.5259886980056763,-1.9749506711959839
1686428461430232000,1.939232177734375,-1.7477154731750488,-0.5120601058006287,-2.1362993717193604
1686428461440177200,1.94917724609375,-1.5571355819702148,-0.285759836435318,-1.9205305576324463
1686428461450123000,1.959123046875,-1.4011808633804321,0.11041226238012314,-1.3171621561050415
1686428461460069000,1.969069091796875,-1.2220945358276367,0.6420484781265259,-0.6026334166526794
1686428461470015000,1.979014892578125,-0.9442309737205505,0.7220569849014282,-0.04378316551446915
1686428461479960300,1.988960205078125,-0.5417149066925049,-0.5858054161071777,0.4232631027698517
1686428461489906200,1.99890625,-0.441768616437912,-0.39054006338119507,0.8773922920227051
1686428461499852300,2.008852294921875,-0.7690945267677307,1.0016816854476929,2.400761604309082
1686428461509798100,2.018798095703125,-0.8798085451126099,0.40424174070358276,3.477572441101074
1686428461519743200,2.0287431640625,-0.6893733739852905,-0.5514447689056396,3.409691095352173
1686428461529689000,2.038689208984375,-0.49644356966018677,-0.52937251329422,3.2031075954437256
1686428461539635200,2.04863525390625,-0.21722473204135895,-0.5544834733009338,3.018627405166626
1686428461549581000,2.0585810546875,0.32720503211021423,-0.8443363308906555,2.586582899093628
1686428461559526100,2.068526123046875,0.991273045539856,-0.6288133263587952,2.282634973526001
1686428461569472000,2.078471923828125,1.6686456203460693,-0.15704181790351868,2.466603994369507
1686428461579418000,2.088418212890625,1.6305339336395264,0.049070075154304504,2.131833791732788
1686428461589364000,2.098364013671875,1.3522628545761108,0.35175296664237976,1.518856167793274
1686428461599309300,2.108309326171875,0.8733306527137756,0.08813118934631348,0.7548130750656128
1686428461609255200,2.118255126953125,0.47755804657936096,-0.014829546213150024,0.19423551857471466
1686428461619201300,2.128201171875,0.452674001455307,0.10342838615179062,0.059300340712070465
1686428461629146000,2.13814599609375,0.5989835262298584,0.2739785611629486,0.08473698794841766
1686428461639092200,2.14809228515625,0.5215739607810974,0.4437910318374634,0.13758769631385803
1686428461649038000,2.1580380859375,0.2449953705072403,0.6846409440040588,0.1626483052968979
1686428461658984200,2.167984130859375,0.20516246557235718,0.91080242395401,0.10180225968360901
1686428461668929000,2.177928955078125,0.3175816833972931,0.9660270810127258,0.056598298251628876
1686428461678875100,2.187875244140625,0.45243456959724426,0.9366441369056702,0.07923010736703873
1686428461688821000,2.197821044921875,0.5263580679893494,1.0791476964950562,0.1204473152756691
1686428461698767000,2.20776708984375,0.5423141121864319,1.3406656980514526,0.09536965936422348
1686428461708712200,2.217712158203125,0.5819835066795349,1.3010064363479614,0.02322090044617653
1686428461718658300,2.227658203125,0.6422556638717651,1.3613359928131104,-0.110825315117836
1686428461728604200,2.237604248046875,0.7189615964889526,0.7857379913330078,-0.056228119879961014
1686428461738550300,2.24755029296875,0.6825538277626038,0.07635815441608429,0.1915619820356369
1686428461748495000,2.2574951171875,0.5390781164169312,-0.20397044718265533,0.5246661901473999
1686428461758441200,2.267441162109375,0.41026556491851807,-0.23182843625545502,0.7489994168281555
1686428461768387000,2.277386962890625,0.3507172763347626,-0.18284492194652557,0.7684945464134216
1686428461778333200,2.287333251953125,0.28275421261787415,-0.07313572615385056,0.5930473804473877
1686428461788278000,2.297278076171875,0.1533844918012619,-0.020591028034687042,0.19816741347312927
1686428461798224100,2.30722412109375,0.01949593611061573,0.15862266719341278,-0.20822644233703613
1686428461808170000,2.317169921875,0.01587829925119877,0.3185542821884155,-0.49763694405555725
1686428461818115300,2.327115234375,0.05182165279984474,0.4556242525577545,-0.6166104674339294
1686428461828061200,2.337061279296875,0.13310718536376953,0.49578577280044556,-0.5226770639419556
1686428461838007300,2.34700732421875,0.2529720664024353,0.3904218077659607,-0.2598702013492584
1686428461847953200,2.356953125,0.273053377866745,0.13983726501464844,0.02581907995045185
1686428461857898200,2.366898193359375,0.21488061547279358,-0.10423851758241653,0.2316606640815735
1686428461867844000,2.376843994140625,0.14699770510196686,-0.30213722586631775,0.29568544030189514
1686428461877790200,2.386790283203125,0.08790934830904007,-0.36756229400634766,0.2422403246164322
1686428461887736000,2.396736083984375,0.026030268520116806,-0.29115408658981323,0.0883631482720375
1686428461897681200,2.40668115234375,-0.04493711516261101,-0.19147542119026184,-0.09642134606838226
1686428461907627000,2.416626953125,-0.08278755843639374,-0.09487458318471909,-0.23614968359470367
1686428461917573000,2.426572998046875,-0.15898938477039337,-0.017415208742022514,-0.3206011950969696
1686428461927519000,2.43651904296875,-0.2682788670063019,0.0990578755736351,-0.39362478256225586
1686428461937464300,2.44646435546875,-0.3990746736526489,0.17868639528751373,-0.49182993173599243
1686428461947410200,2.45641015625,-0.3294029235839844,-0.057740792632102966,-0.09157545864582062
1686428461957356300,2.466356201171875,-0.16656820476055145,0.24156628549098969,0.30385255813598633
1686428461967301000,2.476301025390625,-0.1596120297908783,0.2628262937068939,0.37062200903892517
1686428461977247000,2.4862470703125,-0.08678442984819412,-0.23394644260406494,0.17302477359771729
1686428461987193000,2.496193115234375,0.1436149626970291,-0.683967649936676,-0.08846595138311386
1686428461997139200,2.50613916015625,0.26393577456474304,-0.7966172695159912,-0.308804452419281
1686428462007084000,2.516083984375,0.1922815591096878,-0.6899613738059998,-0.4840622842311859
1686428462017030000,2.52602978515625,-0.005914614535868168,-0.5526311993598938,-0.5926414728164673
1686428462026976000,2.53597607421875,-0.27636873722076416,-0.4907172620296478,-0.498928040266037
1686428462036922000,2.545922119140625,-0.5429010987281799,-0.3874547779560089,-0.2593900263309479
1686428462046867200,2.5558671875,-0.726549506187439,-0.057546649128198624,0.014057761989533901
1686428462056813000,2.56581298828125,-0.8790152072906494,0.28966084122657776,0.05742068216204643
1686428462066759200,2.57575927734375,-1.017593264579773,0.2528844475746155,0.04682902246713638
1686428462076705300,2.585705322265625,-1.1877437829971313,0.3351098299026489,0.018213890492916107
1686428462086650000,2.595650146484375,-1.2941663265228271,0.3320612907409668,-0.2221563756465912
1686428462096596000,2.605595947265625,-1.3544245958328247,0.2890579104423523,-0.5602499842643738
1686428462106542000,2.6155419921875,-1.39213228225708,0.33483603596687317,-0.9485892057418823
1686428462116488200,2.62548828125,-1.4275709390640259,0.4427153766155243,-1.2209539413452148
1686428462126433000,2.63543310546875,-1.3848941326141357,0.5699324607849121,-1.344833493232727
1686428462136379000,2.64537890625,-1.305823564529419,0.6613339781761169,-1.2395440340042114
1686428462146325000,2.655324951171875,-1.2137739658355713,0.6935209631919861,-0.9556649923324585
1686428462156271000,2.66527099609375,-1.0942827463150024,0.632491409778595,-0.7443468570709229
1686428462166216000,2.6752158203125,-0.9688563942909241,0.5776393413543701,-0.6068577170372009
1686428462176162000,2.685162109375,-0.876657247543335,0.41866275668144226,-0.6796064972877502
1686428462186108000,2.69510791015625,-0.7814375162124634,0.1820630133152008,-0.7283913493156433
1686428462196054000,2.705053955078125,-0.6897773742675781,0.05236946418881416,-0.7893058061599731
1686428462205998800,2.714998779296875,-0.660504937171936,0.0335097573697567,-0.8666802048683167
1686428462215945000,2.724945068359375,-0.6184816360473633,-0.004343083128333092,-0.9227365851402283
1686428462225890800,2.734890869140625,-0.5862312316894531,0.00404667342081666,-0.9275949597358704
1686428462235836000,2.7448359375,-0.5946249961853027,0.05452369526028633,-0.8490727543830872
1686428462245782000,2.754781982421875,-0.6127869486808777,0.07641620934009552,-0.6985806822776794
1686428462255728000,2.76472802734375,-0.6148626208305359,-0.04440661147236824,-0.5100571513175964
1686428462265674000,2.774674072265625,-0.6150839328765869,-0.2700767517089844,-0.27717167139053345
1686428462275619000,2.784619140625,-0.6297771334648132,-0.5004135370254517,-0.04772544279694557
1686428462285565000,2.79456494140625,-0.6554990410804749,-0.7316246628761292,0.16253618896007538
1686428462295511000,2.804510986328125,-0.6524786949157715,-1.004366397857666,0.29364705085754395
1686428462305457000,2.814456787109375,-0.3314266800880432,-1.1897488832473755,0.2826007902622223
1686428462315402000,2.824402099609375,0.35191142559051514,-1.0752965211868286,0.21473440527915955
1686428462325347800,2.834347900390625,0.7362079620361328,-0.6476078033447266,0.05688485503196716
1686428462335294000,2.8442939453125,0.615144670009613,-0.22586321830749512,-0.1813114732503891
1686428462345239800,2.85423974609375,0.268531858921051,-0.10359323769807816,-0.40057724714279175
1686428462355185200,2.86418505859375,-0.017296697944402695,-0.23112323880195618,-0.5359816551208496
1686428462365131000,2.874131103515625,-0.10354050993919373,-0.3886129856109619,-0.5115770101547241
1686428462375077000,2.8840771484375,-0.046226616948843,-0.43372586369514465,-0.3557375967502594
1686428462385023000,2.89402294921875,-0.000639691308606416,-0.45616886019706726,-0.11859775334596634
1686428462394968000,2.903968017578125,-0.01182416919618845,-0.3906140923500061,0.10696479678153992
1686428462404914000,2.913913818359375,-0.05157797411084175,-0.27638766169548035,0.2838916480541229
1686428462414860000,2.923860107421875,-0.10335887968540192,-0.18445506691932678,0.38134682178497314
1686428462424804900,2.933804931640625,-0.14643390476703644,-0.11750079691410065,0.40525373816490173
1686428462434751000,2.9437509765625,-0.1919230967760086,-0.10020489990711212,0.36018455028533936
1686428462444696800,2.95369677734375,-0.2705260217189789,-0.13906733691692352,0.25487810373306274
1686428462454643000,2.963642822265625,-0.3920748233795166,-0.1372113823890686,0.0993255227804184
1686428462464588000,2.973588134765625,-0.47148844599723816,-0.11451326310634613,-0.03771861642599106
1686428462474534100,2.9835341796875,-0.481959730386734,0.03786215931177139,-0.13211223483085632
1686428462484480000,2.99347998046875,-0.43125632405281067,0.18977445363998413,-0.1873355358839035
1686428462494426000,3.003426025390625,-0.3716750144958496,0.25188523530960083,-0.21986418962478638
1686428462504371000,3.013370849609375,-0.31496647000312805,0.2734967768192291,-0.24799223244190216
1686428462514317000,3.023317138671875,-0.2687523663043976,0.25736096501350403,-0.2782164514064789
1686428462524263000,3.033262939453125,-0.2435370236635208,0.23262178897857666,-0.3340866267681122
1686428462534209000,3.043208984375,-0.23222976922988892,0.23069313168525696,-0.4141090214252472
1686428462544153900,3.05315380859375,-0.20870980620384216,0.2518801689147949,-0.48610466718673706
1686428462554100000,3.063099853515625,-0.1587984412908554,0.2418895959854126,-0.5133668780326843
1686428462564045800,3.0730458984375,-0.13834775984287262,0.17360427975654602,-0.48919498920440674
1686428462573992000,3.082991943359375,-0.17747224867343903,0.08817300200462341,-0.45646634697914124
1686428462583937000,3.09293701171875,-0.24430321156978607,0.06818944215774536,-0.4369365870952606
1686428462593883100,3.102883056640625,-0.2741814851760864,0.07698746025562286,-0.4625476598739624
1686428462603829000,3.1128291015625,-0.2136787325143814,0.09114348888397217,-0.5437615513801575
1686428462613775000,3.122775146484375,-0.10765162855386734,0.04754088819026947,-0.6370866894721985
1686428462623720000,3.132719970703125,-0.04326118901371956,0.053592123091220856,-0.678665041923523
1686428462633666000,3.142666015625,-0.040461406111717224,0.14492656290531158,-0.656691312789917
1686428462643612000,3.15261181640625,-0.05438254773616791,0.2598100006580353,-0.6117278337478638
1686428462653557000,3.162556884765625,-0.01876702904701233,0.3888087272644043,-0.5933941006660461
1686428462663502800,3.1725029296875,0.06720326840877533,0.49564889073371887,-0.6046430468559265
1686428462673449000,3.182448974609375,0.17786666750907898,0.6304091215133667,-0.5924036502838135
1686428462683394800,3.192394775390625,0.2922523617744446,0.8039910197257996,-0.4965064227581024
1686428462693340200,3.202340087890625,0.3991279602050781,0.9067147374153137,-0.33141493797302246
1686428462703286000,3.2122861328125,0.494223028421402,0.8530826568603516,-0.12848153710365295
1686428462713232100,3.222232177734375,0.5600425601005554,0.6950413584709167,0.0869857668876648
1686428462723178000,3.232177978515625,0.611713707447052,0.526611864566803,0.3084571659564972
1686428462733123000,3.242123046875,0.6758357286453247,0.42325645685195923,0.5350543856620789
1686428462743069000,3.25206884765625,0.7687464952468872,0.3723996579647064,0.7661277651786804
1686428462753015000,3.26201513671875,0.8725024461746216,0.3516770899295807,1.001224160194397
1686428462762961000,3.2719609375,0.9502707123756409,0.3343862295150757,1.2458070516586304
1686428462772906000,3.281906005859375,0.9842231273651123,0.3436894714832306,1.5215486288070679
1686428462782851800,3.291851806640625,0.9688406586647034,0.40164703130722046,1.8385885953903198
1686428462792798000,3.3017978515625,0.9316965341567993,0.4718618094921112,2.0927462577819824
1686428462802743800,3.311743896484375,0.9007338285446167,0.5894305109977722,2.2342233657836914
1686428462812689200,3.321689208984375,0.8788431286811829,0.7521427273750305,2.2680468559265137
1686428462822635000,3.331635009765625,0.8603951930999756,0.9043703675270081,2.190390110015869
1686428462832581000,3.3415810546875,0.8687213063240051,0.919768750667572,1.9943028688430786
1686428462842527000,3.35152685546875,0.8913517594337463,0.8194719552993774,1.7029684782028198
1686428462852472000,3.36147216796875,0.9144133925437927,0.7080391645431519,1.364997386932373
1686428462862418000,3.37141796875,0.94436115026474,0.6923978924751282,1.025858998298645
1686428462872364000,3.381364013671875,0.988063633441925,0.6238723993301392,0.7693161368370056
1686428462882310000,3.391309814453125,1.026005744934082,0.7023884654045105,0.6744745969772339
1686428462892255000,3.4012548828125,1.0683931112289429,0.6568257808685303,0.7266525626182556
1686428462902200800,3.411200927734375,1.1111115217208862,0.581669270992279,0.8942245244979858
1686428462912147000,3.42114697265625,1.1513787508010864,0.5066855549812317,1.0830678939819336
1686428462922092800,3.4310927734375,1.1861042976379395,0.44930508732795715,1.2204222679138184
1686428462932038100,3.4410380859375,1.1998316049575806,0.44388794898986816,1.2847353219985962
1686428462941984000,3.45098388671875,1.212812900543213,0.544987678527832,1.278957486152649
1686428462951930000,3.46093017578125,1.2061322927474976,0.6264321804046631,1.2220427989959717
1686428462961876000,3.4708759765625,1.2179445028305054,0.725881814956665,1.1482617855072021
1686428462971821000,3.480821044921875,1.2196226119995117,0.7509650588035583,1.094177007675171
1686428462981767000,3.490766845703125,1.200024962425232,0.6639212369918823,1.0656553506851196
1686428462991713000,3.500713134765625,1.1722077131271362,0.5751181840896606,1.0527483224868774
1686428463001659000,3.510658935546875,1.1436820030212402,0.48602184653282166,1.0447356700897217
1686428463011604000,3.52060400390625,1.1149518489837646,0.43470990657806396,1.0184340476989746
1686428463021549800,3.5305498046875,1.073706865310669,0.411202996969223,0.9962467551231384
1686428463031496000,3.540495849609375,1.0246357917785645,0.4388093054294586,0.9239848256111145
1686428463041441800,3.55044189453125,0.9526710510253906,0.47946327924728394,0.8582233786582947
1686428463051387000,3.560386962890625,0.8707756400108337,0.43408140540122986,0.7139591574668884
1686428463061333000,3.5703330078125,0.7457197308540344,0.5026833415031433,0.560686469078064
1686428463071279000,3.580279052734375,0.605963945388794,0.4252583384513855,0.3400491774082184
1686428463081225000,3.590224853515625,0.46455541253089905,0.3963409662246704,0.12433420121669769
1686428463091169800,3.600169677734375,0.3303225338459015,0.3874201476573944,-0.053163085132837296
1686428463101116000,3.610115966796875,0.24566994607448578,0.3877953886985779,-0.15482980012893677
1686428463111062000,3.62006201171875,0.1756644994020462,0.3672744035720825,-0.1767212450504303
1686428463121007900,3.6300078125,0.10285873711109161,0.2845401167869568,-0.15875981748104095
1686428463130953000,3.639952880859375,0.03394971042871475,0.1709408462047577,-0.12482155859470367
1686428463140898800,3.64989892578125,-0.026802320033311844,0.062557652592659,-0.11059601604938507
1686428463150845000,3.659844970703125,-0.08636311441659927,0.03074299916625023,-0.11746084690093994
1686428463160790000,3.6697900390625,-0.17487913370132446,0.04285239055752754,-0.17148493230342865
1686428463170736400,3.679736328125,-0.2773759365081787,0.09485913068056107,-0.2536144256591797
1686428463180682500,3.6896826171875,-0.41264188289642334,0.19455642998218536,-0.3521231710910797
1686428463190628400,3.69962841796875,-0.5334023833274841,0.32286912202835083,-0.4365118145942688
1686428463200573400,3.709573486328125,-0.6350592374801636,0.4370878338813782,-0.5099247694015503
1686428463210519300,3.719519287109375,-0.7092485427856445,0.529524028301239,-0.5625613331794739
1686428463220465400,3.72946533203125,-0.7841922640800476,0.5641147494316101,-0.5799075961112976
1686428463230411300,3.739411376953125,-0.8517037034034729,0.4800744652748108,-0.5224011540412903
1686428463240356400,3.7493564453125,-0.8471704721450806,0.3087945878505707,-0.3527231812477112
1686428463250302200,3.75930224609375,-0.7356460690498352,0.06022019684314728,-0.11170602589845657
1686428463260248300,3.769248291015625,-0.5513001680374146,-0.17927761375904083,0.10248935967683792
1686428463270194200,3.779194091796875,-0.36214011907577515,-0.2101079672574997,0.11176754534244537
1686428463280139500,3.789139404296875,-0.21568648517131805,0.033955302089452744,-0.20027370750904083
1686428463290085400,3.79908544921875,-0.09851512312889099,0.36120668053627014,-0.6588774919509888
1686428463300031500,3.809031494140625,-0.06982382386922836,0.5265895128250122,-0.9951950907707214
1686428463309977300,3.818977294921875,-0.262631356716156,0.49314337968826294,-1.1129158735275269
1686428463319923500,3.82892333984375,-0.5528889894485474,0.4241020083427429,-1.164481520652771
1686428463329868300,3.838868408203125,-0.7710669040679932,0.4044169783592224,-1.166408896446228
1686428463339814400,3.848814453125,-0.8990054130554199,0.476283460855484,-1.0970269441604614
1686428463349760300,3.85876025390625,-1.0108113288879395,0.6217517256736755,-1.030294418334961
1686428463359705000,3.868705078125,-1.1120686531066895,0.6276330351829529,-0.9590961933135986
1686428463369651200,3.878651123046875,-1.1603403091430664,0.4838944971561432,-0.8113730549812317
1686428463379597300,3.888597412109375,-1.1542155742645264,0.3146703243255615,-0.6086164712905884
1686428463389543200,3.898543212890625,-1.1061040163040161,0.16726435720920563,-0.44139364361763
1686428463399488300,3.90848828125,-0.9976006746292114,-0.017296964302659035,-0.3807460069656372
1686428463409434400,3.918434326171875,-0.8335702419281006,-0.17323116958141327,-0.39532655477523804
1686428463419380500,3.92838037109375,-0.6579283475875854,-0.2352825552225113,-0.44146981835365295
1686428463429326300,3.938326416015625,-0.507485032081604,-0.22852131724357605,-0.4964766204357147
1686428463439271200,3.948271240234375,-0.40741491317749023,-0.16086584329605103,-0.5370067358016968
1686428463449217300,3.95821728515625,-0.39260345697402954,-0.08844064921140671,-0.5770100355148315
1686428463459163400,3.968163330078125,-0.4573603570461273,-0.05212179198861122,-0.6150916814804077
1686428463469109200,3.978109130859375,-0.5623695850372314,-0.06606317311525345,-0.6296945810317993
1686428463479054300,3.988054443359375,-0.6650954484939575,-0.012804212048649788,-0.609989583492279
1686428463489000400,3.99800048828125,-0.7365459203720093,0.07231414318084717,-0.5520903468132019
1686428463498946300,4.0079462890625,-0.7656718492507935,0.13477538526058197,-0.4974561035633087
1686428463508892400,4.017892333984375,-0.7770209312438965,0.19904892146587372,-0.47073397040367126
1686428463518837200,4.027837158203125,-0.7452142238616943,0.2595852315425873,-0.497204452753067
1686428463528783400,4.037783447265625,-0.6467944979667664,0.2605495750904083,-0.5498836636543274
1686428463538729500,4.0477294921875,-0.5141069889068604,0.25251826643943787,-0.5968026518821716
1686428463548675300,4.05767529296875,-0.3971058130264282,0.25521498918533325,-0.6286886930465698
1686428463558620200,4.0676201171875,-0.30517375469207764,0.27899622917175293,-0.6204925775527954
1686428463568566300,4.077566162109375,-0.241972416639328,0.3559114933013916,-0.5678882002830505
1686428463578512400,4.087512451171875,-0.22041359543800354,0.4969349503517151,-0.5024548768997192
1686428463588458200,4.097458251953125,-0.2519339621067047,0.6920426487922668,-0.445281058549881
1686428463598403300,4.1074033203125,-0.31002870202064514,0.8663241863250732,-0.39247456192970276
1686428463608349400,4.117349365234375,-0.36659103631973267,1.0628366470336914,-0.3461776375770569
1686428463618295600,4.127295654296875,-0.3988914489746094,1.1838536262512207,-0.32214102149009705
1686428463628241400,4.137241455078125,-0.41509974002838135,1.2755934000015259,-0.2983272969722748
1686428463638186200,4.147186279296875,-0.41315481066703796,1.285654902458191,-0.3037598729133606
1686428463648132400,4.15713232421875,-0.40154609084129333,1.2409566640853882,-0.3167489171028137
1686428463658078500,4.167078369140625,-0.3790559768676758,1.2128016948699951,-0.33297184109687805
1686428463668024300,4.1770244140625,-0.34055784344673157,1.2227206230163574,-0.33942174911499023
1686428463677969200,4.18696923828125,-0.3093711733818054,1.255480408668518,-0.3183063268661499
1686428463687915300,4.196915283203125,-0.26989513635635376,1.3459956645965576,-0.28312012553215027
1686428463697861400,4.206861328125,-0.24407418072223663,1.449964165687561,-0.22657747566699982
1686428463707807200,4.21680712890625,-0.2348489910364151,1.5314041376113892,-0.15403270721435547
1686428463717752300,4.22675244140625,-0.2273561954498291,1.5536035299301147,-0.08660333603620529
1686428463727698400,4.236698486328125,-0.22972427308559418,1.4985804557800293,-0.03128362074494362
1686428463737644500,4.24664453125,-0.21918508410453796,1.4396907091140747,-0.020506873726844788
1686428463747590400,4.25659033203125,-0.21809397637844086,1.309814214706421,-0.07790838181972504
1686428463757535200,4.26653515625,-0.2249545454978943,1.2243491411209106,-0.19964599609375
1686428463767481300,4.2764814453125,-0.2185879945755005,1.1034296751022339,-0.3271277844905853
1686428463777427500,4.286427490234375,-0.2004856914281845,1.0461333990097046,-0.4408213198184967
1686428463787373300,4.296373291015625,-0.1852894276380539,0.9771026372909546,-0.5181214213371277
1686428463797318100,4.306318115234375,-0.18542978167533875,0.9097627401351929,-0.562781035900116
1686428463807264300,4.31626416015625,-0.20318160951137543,0.8138356804847717,-0.5664716958999634
1686428463817210400,4.32621044921875,-0.195290669798851,0.8034511804580688,-0.5580640435218811
1686428463827156200,4.33615625,-0.17564266920089722,0.7712575793266296,-0.5471203327178955
1686428463837101300,4.346101318359375,-0.1789654940366745,0.7890903353691101,-0.55731600522995
1686428463847047400,4.35604736328125,-0.19815143942832947,0.7488683462142944,-0.5897005796432495
1686428463856993500,4.36599365234375,-0.22284479439258575,0.6226838231086731,-0.6228547692298889
1686428463866939400,4.375939453125,-0.21890199184417725,0.6188797354698181,-0.6429065465927124
1686428463876884200,4.38588427734375,-0.19633328914642334,0.4848819971084595,-0.6526252031326294
1686428463886830300,4.395830322265625,-0.18631768226623535,0.3901200592517853,-0.6434926986694336
1686428463896776400,4.4057763671875,-0.18426518142223358,0.31632041931152344,-0.6346174478530884
1686428463906722300,4.415722412109375,-0.18303027749061584,0.11334972828626633,-0.6303835511207581
1686428463916667100,4.425667236328125,-0.1827772706747055,-0.004116714466363192,-0.630324125289917
1686428463926613200,4.43561328125,-0.17316113412380219,-0.043769851326942444,-0.6349157094955444
1686428463936559400,4.445559326171875,-0.15284228324890137,-0.15967807173728943,-0.6396670341491699
1686428463946505200,4.455505126953125,-0.14087483286857605,-0.29583030939102173,-0.6361469030380249
1686428463956450300,4.4654501953125,-0.12477735430002213,-0.34559839963912964,-0.630469024181366
1686428463966396400,4.475396484375,-0.10881782323122025,-0.3889389634132385,-0.6078132390975952
1686428463976342500,4.485342529296875,-0.07921652495861053,-0.44480010867118835,-0.5588648915290833
1686428463986288400,4.495288330078125,-0.029465479776263237,-0.47635188698768616,-0.4842279255390167
1686428463996233200,4.505233154296875,0.022597454488277435,-0.47198405861854553,-0.43162837624549866
1686428464006179300,4.515179443359375,0.11362270265817642,-0.5206075310707092,-0.41700467467308044
1686428464016125400,4.52512548828125,0.19532449543476105,-0.4596767723560333,-0.4506513178348541
1686428464026071300,4.5350712890625,0.2873699963092804,-0.557540237903595,-0.4761042296886444
1686428464036016000,4.54501611328125,0.3409520089626312,-0.5393505692481995,-0.4920027554035187
1686428464045962200,4.554962158203125,0.35116708278656006,-0.36573243141174316,-0.5332921743392944
1686428464055908400,4.564908447265625,0.35314634442329407,-0.23904719948768616,-0.5800444483757019
1686428464065854200,4.574854248046875,0.3752564489841461,-0.19496069848537445,-0.6256932020187378
1686428464075799300,4.58479931640625,0.3657452166080475,0.03971545398235321,-0.6812549829483032
1686428464085745400,4.594745361328125,0.31357336044311523,0.33570611476898193,-0.6973125338554382
1686428464095691500,4.60469140625,0.17411960661411285,0.7693483233451843,-0.599678099155426
1686428464105637400,4.614637451171875,-0.04295545816421509,1.0840357542037964,-0.39727333188056946
1686428464115582200,4.624582275390625,-0.2666841447353363,1.1637086868286133,-0.11912186443805695
1686428464125528300,4.6345283203125,-0.44583579897880554,1.2337913513183594,0.1907837986946106
1686428464135474400,4.644474365234375,-0.547674298286438,1.4025218486785889,0.5239875912666321
1686428464145420300,4.654420166015625,-0.5439594388008118,1.6329795122146606,0.8490914106369019
1686428464155365000,4.664365234375,-0.4153042435646057,1.832215666770935,1.0906531810760498
1686428464165311200,4.674311279296875,-0.20264391601085663,2.0730509757995605,1.2605631351470947
1686428464175256800,4.6842568359375,0.02027224749326706,2.3371922969818115,1.3717385530471802
1686428464185202700,4.69420263671875,0.17600537836551666,2.536968946456909,1.4423267841339111
1686428464195147500,4.7041474609375,0.23239755630493164,2.59806227684021,1.498020887374878
1686428464205093600,4.71409375,0.21436475217342377,2.479062795639038,1.525197148323059
1686428464215039700,4.724039794921875,0.1678537130355835,2.237945556640625,1.5237622261047363
1686428464224985600,4.733985595703125,0.13969850540161133,1.9186346530914307,1.5147114992141724
1686428464234930400,4.743930419921875,0.1431981772184372,1.5679906606674194,1.5589606761932373
1686428464244876500,4.75387646484375,0.1870332658290863,1.2868207693099976,1.7682782411575317
1686428464254822700,4.76382275390625,0.30317825078964233,1.1207401752471924,2.1816084384918213
1686428464264768500,4.7737685546875,0.48032987117767334,1.0691637992858887,2.6042842864990234
1686428464274713600,4.783713623046875,0.662897527217865,1.2299824953079224,2.7140681743621826
1686428464284659700,4.79365966796875,0.7656958103179932,1.7157180309295654,2.4622018337249756
1686428464294605800,4.803605712890625,0.7648659944534302,2.070746660232544,2.001411199569702
1686428464304551700,4.8135517578125,0.7197227478027344,2.2413084506988525,1.5603351593017578
1686428464314496500,4.82349658203125,0.7115446925163269,2.2566637992858887,1.196757197380066
1686428464324442600,4.833442626953125,0.7363126277923584,2.1395161151885986,1.0027168989181519
1686428464334388700,4.843388671875,0.8199055194854736,1.981120228767395,1.1088813543319702
1686428464344334600,4.85333447265625,0.9343833923339844,1.874306082725525,1.3967288732528687
1686428464354279400,4.863279541015625,1.006438970565796,1.8127708435058594,1.710872769355774
1686428464364225500,4.8732255859375,1.0227869749069214,1.7187713384628296,2.00284481048584
1686428464374171600,4.883171630859375,1.0107474327087402,1.5592502355575562,2.2439494132995605
1686428464384117500,4.893117431640625,0.9819112420082092,1.3683180809020996,2.376105546951294
1686428464394062600,4.9030625,0.9430378675460815,1.2227911949157715,2.360074281692505
1686428464404008700,4.9130087890625,0.8873945474624634,1.2175357341766357,2.181544303894043
1686428464413954800,4.922954833984375,0.8433861136436462,1.3570488691329956,1.8652948141098022
1686428464423900700,4.932900634765625,0.8232957124710083,1.5144484043121338,1.487121343612671
1686428464433845500,4.942845458984375,0.8029433488845825,1.5997570753097534,1.1299477815628052
1686428464443791600,4.95279150390625,0.7622438073158264,1.5608206987380981,0.8454923629760742
1686428464453737700,4.96273779296875,0.7155753970146179,1.3708547353744507,0.6675748229026794
1686428464463683600,4.97268359375,0.6394923329353333,1.2235400676727295,0.6111531257629395
1686428464473628400,4.98262841796875,0.5474423170089722,1.0823962688446045,0.643912672996521
1686428464483574500,4.992574462890625,0.4470667243003845,0.9488834738731384,0.7061009407043457
1686428464493520600,5.002520751953125,0.3544270694255829,0.8379178047180176,0.7463620901107788
1686428464503466500,5.012466552734375,0.27917224168777466,0.7710778117179871,0.7484142780303955
1686428464513412600,5.02241259765625,0.22275903820991516,0.7375525832176208,0.6950626969337463
1686428464523357700,5.032357666015625,0.1712697595357895,0.730731189250946,0.611783504486084
1686428464533303800,5.0423037109375,0.1250002533197403,0.7436043620109558,0.5175464749336243
1686428464543249700,5.052249755859375,0.09270596504211426,0.7689251899719238,0.43434879183769226
1686428464553194500,5.062194580078125,0.065676748752594,0.7905963659286499,0.38135695457458496
1686428464563140600,5.072140625,0.02997467666864395,0.7930033206939697,0.34793081879615784
1686428464573086500,5.08208642578125,-0.0021811288315802813,0.7601341009140015,0.34379759430885315
1686428464583032600,5.092032470703125,-0.0474383570253849,0.7039019465446472,0.3382195830345154
1686428464592978700,5.101978759765625,-0.0984666496515274,0.6394792795181274,0.3044259548187256
1686428464602923500,5.111923583984375,-0.14681820571422577,0.6016719937324524,0.23485858738422394
1686428464612869400,5.121869384765625,-0.19094118475914001,0.5934910178184509,0.1348976343870163
1686428464622815500,5.1318154296875,-0.24674667418003082,0.6198675036430359,0.010103500448167324
1686428464632761600,5.14176171875,-0.31333687901496887,0.6662049293518066,-0.12761041522026062
1686428464642706700,5.151706787109375,-0.3845926821231842,0.7153583765029907,-0.2479032725095749
1686428464652652500,5.161652587890625,-0.45543304085731506,0.7529323697090149,-0.3227226436138153
1686428464662598700,5.1715986328125,-0.5175999999046326,0.7401348352432251,-0.36066123843193054
1686428464672544800,5.181544677734375,-0.5753580927848816,0.6451952457427979,-0.3607880175113678
1686428464682489600,5.191489501953125,-0.6122742891311646,0.4475061297416687,-0.30102163553237915
1686428464692435500,5.201435546875,-0.5987702012062073,0.16137637197971344,-0.17032060027122498
1686428464702381600,5.211381591796875,-0.48553553223609924,-0.25809597969055176,-0.041183389723300934
1686428464712327700,5.22132763671875,-0.28687864542007446,-0.44349008798599243,-0.011949070729315281
1686428464722272500,5.2312724609375,-0.045638859272003174,-0.30565953254699707,-0.21951638162136078
1686428464732218600,5.241218505859375,0.1712186187505722,-0.15821893513202667,-0.6763409376144409
1686428464742164700,5.251164794921875,0.2483951598405838,-0.12152749300003052,-1.1122915744781494
1686428464752110600,5.261110595703125,0.04824209585785866,-0.016171246767044067,-1.2760906219482422
1686428464762055700,5.2710556640625,-0.32419273257255554,0.11146048456430435,-1.277152180671692
1686428464772001500,5.28100146484375,-0.6828728318214417,0.03855405002832413,-1.316655158996582
1686428464781947600,5.29094775390625,-0.920513391494751,0.04174664616584778,-1.3219507932662964
1686428464791893800,5.300893798828125,-1.0194905996322632,0.18092450499534607,-1.1925771236419678
1686428464801838600,5.310838623046875,-1.0798876285552979,0.30774611234664917,-1.0306510925292969
1686428464811784400,5.320784423828125,-1.1398992538452148,0.31779900193214417,-0.8865548968315125
1686428464821730600,5.33073046875,-1.1622586250305176,0.16474661231040955,-0.752190113067627
1686428464831676700,5.3406767578125,-1.0873034000396729,-0.03479872643947601,-0.6381032466888428
1686428464841621800,5.350621826171875,-0.9386433959007263,-0.22991761565208435,-0.5712235569953918
1686428464851567600,5.360567626953125,-0.764365017414093,-0.3181324303150177,-0.5338047742843628
1686428464861513700,5.370513671875,-0.6189069151878357,-0.3426596224308014,-0.5336053371429443
1686428464871459800,5.3804599609375,-0.5552278161048889,-0.27343660593032837,-0.5741729736328125
1686428464881404700,5.39040478515625,-0.5651158690452576,-0.18225529789924622,-0.6376161575317383
1686428464891350500,5.4003505859375,-0.6257666945457458,-0.11027377843856812,-0.7086389064788818
1686428464901296600,5.410296630859375,-0.7088666558265686,-0.0433402843773365,-0.7561012506484985
1686428464911242800,5.42024267578125,-0.8022685050964355,-0.018928417935967445,-0.7824399471282959
1686428464921187600,5.4301875,-0.8750407099723816,0.03483760729432106,-0.7577478885650635
1686428464931133400,5.440133544921875,-0.9490190744400024,0.16214309632778168,-0.7012845873832703
1686428464941079600,5.45007958984375,-1.0065771341323853,0.20282049477100372,-0.6523064374923706
1686428464951025700,5.460025634765625,-1.0153839588165283,0.22541767358779907,-0.5952886939048767
1686428464960970800,5.469970703125,-0.9688286781311035,0.19766195118427277,-0.5434515476226807
1686428464970916600,5.47991650390625,-0.8646405339241028,0.13839729130268097,-0.49424540996551514
1686428464980862700,5.48986279296875,-0.7133186459541321,0.07621194422245026,-0.4413723349571228
1686428464990808800,5.499808837890625,-0.5457735657691956,0.0254030954092741,-0.3803470730781555
1686428465000753700,5.509753662109375,-0.40188297629356384,-0.003177417442202568,-0.3133901357650757
1686428465010699500,5.519699462890625,-0.30956345796585083,0.01924879476428032,-0.24996936321258545
1686428465020645600,5.529645751953125,-0.2928853929042816,0.09470413625240326,-0.20785865187644958
1686428465030591700,5.539591796875,-0.31385940313339233,0.16876904666423798,-0.18827617168426514
1686428465040536600,5.54953662109375,-0.3384496867656708,0.262146919965744,-0.18713286519050598
1686428465050482400,5.559482421875,-0.3597813546657562,0.38094362616539,-0.2017246037721634
1686428465060428500,5.569428466796875,-0.37153521180152893,0.437397301197052,-0.20344500243663788
1686428465070374700,5.579374755859375,-0.3810139298439026,0.37091174721717834,-0.19285547733306885
1686428465080319700,5.58931982421875,-0.38664811849594116,0.3433903753757477,-0.2010473608970642
1686428465090265600,5.599265625,-0.3656775951385498,0.2121593952178955,-0.22080402076244354
1686428465100211700,5.609211669921875,-0.30026981234550476,0.12968742847442627,-0.25983768701553345
1686428465110157800,5.61915771484375,-0.23410438001155853,0.035592880100011826,-0.2947714626789093
1686428465120102700,5.6291025390625,-0.18665669858455658,0.033245570957660675,-0.3186344504356384
1686428465130048500,5.639048583984375,-0.17871329188346863,-0.01546391099691391,-0.3083447813987732
1686428465139994600,5.64899462890625,-0.18132691085338593,-0.001520398654974997,-0.25105807185173035
1686428465149940700,5.658940673828125,-0.17327484488487244,0.05985561013221741,-0.1664734035730362
1686428465159885600,5.668885498046875,-0.1638866662979126,0.08292204886674881,-0.07631634175777435
1686428465169831400,5.67883154296875,-0.1620488166809082,0.043890226632356644,-0.005036570131778717
1686428465179777500,5.688777587890625,-0.16756077110767365,0.04814329370856285,0.017589645460247993
1686428465189723600,5.6987236328125,-0.16660469770431519,0.08615165948867798,0.00469435378909111
1686428465199668700,5.708668701171875,-0.18563884496688843,0.09876865148544312,-0.007866711355745792
1686428465209614600,5.718614501953125,-0.2246759831905365,0.1309548169374466,-0.003237072378396988
1686428465219560700,5.728560791015625,-0.2821033298969269,0.237264484167099,0.0068312743678689
1686428465229506800,5.7385068359375,-0.3395754098892212,0.29143664240837097,0.007150054909288883
1686428465239451600,5.74845166015625,-0.3989202082157135,0.3161909878253937,-0.01606445387005806
1686428465249397500,5.7583974609375,-0.4545201063156128,0.3296511471271515,-0.05754078924655914
1686428465259343600,5.768343505859375,-0.4911305904388428,0.3324700891971588,-0.10820662975311279
1686428465269289700,5.778289794921875,-0.513460099697113,0.31628820300102234,-0.1747499704360962
1686428465279234600,5.788234619140625,-0.5377311110496521,0.26623275876045227,-0.27126452326774597
1686428465289180400,5.798180419921875,-0.5870800018310547,0.1585204005241394,-0.3701538145542145
1686428465299126500,5.80812646484375,-0.6105560660362244,0.09986934065818787,-0.46279799938201904
1686428465309072600,5.81807275390625,-0.6147484183311462,0.06327404081821442,-0.530340313911438
1686428465319018500,5.8280185546875,-0.5854602456092834,0.11894503235816956,-0.579209566116333
1686428465328963600,5.837963623046875,-0.5793704390525818,0.10231758654117584,-0.6395488381385803
1686428465338909700,5.84790966796875,-0.6541908979415894,-0.007603857666254044,-0.7362197041511536
1686428465348855800,5.857855712890625,-0.7631863355636597,-0.05012548342347145,-0.8146995902061462
1686428465358801700,5.8678017578125,-0.8260558247566223,-0.06776892393827438,-0.8193694353103638
1686428465368746500,5.87774658203125,-0.7534202337265015,0.06930290907621384,-0.8109975457191467
1686428465378692600,5.887692626953125,-0.5529462695121765,0.18192638456821442,-0.8778716325759888
1686428465388638700,5.897638671875,-0.2882499098777771,0.26447638869285583,-1.0228469371795654
1686428465398584600,5.90758447265625,-0.09048675745725632,0.34770655632019043,-1.1204850673675537
1686428465408529400,5.917529296875,0.042565569281578064,0.44404029846191406,-1.0860711336135864
1686428465418475500,5.9274755859375,0.1734098643064499,0.4726240038871765,-0.9394428730010986
1686428465428421600,5.937421630859375,0.3250614404678345,0.44939830899238586,-0.6975439190864563
1686428465438367500,5.947367431640625,0.44982123374938965,0.3183782398700714,-0.43224063515663147
1686428465448312600,5.9573125,0.5533143281936646,0.1769835650920868,-0.18775871396064758
1686428465458258700,5.9672587890625,0.6248236298561096,0.10199347883462906,0.06748849898576736
1686428465468204800,5.977204833984375,0.6720409989356995,0.15102998912334442,0.34639763832092285
1686428465478150700,5.987150634765625,0.7200071811676025,0.288779616355896,0.639725923538208
1686428465488095500,5.997095458984375,0.7887766361236572,0.44563233852386475,0.9260460734367371
1686428465498041600,6.00704150390625,0.8753035664558411,0.6022525429725647,1.225512146949768
1686428465507987700,6.01698779296875,0.9562151432037354,0.6944363117218018,1.5927993059158325
1686428465517933600,6.02693359375,1.0050522089004517,0.6593259572982788,2.0474367141723633
1686428465527878400,6.03687841796875,0.977601945400238,0.5373071432113647,2.4522716999053955
1686428465537824500,6.046824462890625,0.8820714354515076,0.46235191822052,2.6620476245880127
1686428465547770600,6.0567705078125,0.7920507192611694,0.4938502013683319,2.5889949798583984
1686428465557716700,6.066716796875,0.7925450205802917,0.4673490822315216,2.229921340942383
1686428465567661600,6.07666162109375,0.8403551578521729,0.4631929397583008,1.6984847784042358
1686428465577607700,6.086607666015625,0.8822216391563416,0.41129806637763977,1.1382358074188232
1686428465587553500,6.096553466796875,0.8880731463432312,0.33729439973831177,0.6572564244270325
1686428465597499600,6.106499755859375,0.8575666546821594,0.23707646131515503,0.33902066946029663
1686428465607444500,6.116444580078125,0.8093231916427612,0.26746711134910583,0.23690734803676605
1686428465617390600,6.126390625,0.7683765888214111,0.29730892181396484,0.3308357000350952
1686428465627336400,6.13633642578125,0.7325040698051453,0.2856610417366028,0.5333797335624695
1686428465637282600,6.146282470703125,0.69240403175354,0.26132774353027344,0.7724048495292664
1686428465647227600,6.1562275390625,0.656995415687561,0.225644052028656,0.9663589000701904
1686428465657173800,6.166173828125,0.6289142966270447,0.19064797461032867,1.0485059022903442
1686428465667119600,6.17611962890625,0.610131025314331,0.19139419496059418,1.0108121633529663
1686428465677065700,6.186065673828125,0.620154619216919,0.20804427564144135,0.879203736782074
1686428465687010600,6.196010498046875,0.6467577219009399,0.2260509729385376,0.7153274416923523
1686428465696956700,6.205956787109375,0.7046055793762207,0.2670047879219055,0.5831568837165833
1686428465706902500,6.215902587890625,0.7257689237594604,0.36664190888404846,0.5321099758148193
1686428465716848600,6.2258486328125,0.7313871383666992,0.39910823106765747,0.5259239673614502
1686428465726794800,6.235794677734375,0.7265644073486328,0.3608045279979706,0.5097095966339111
1686428465736739600,6.245739501953125,0.6991578340530396,0.2165360301733017,0.44893038272857666
1686428465746685400,6.255685546875,0.6571102142333984,0.11591115593910217,0.3854491412639618
1686428465756631600,6.265631591796875,0.616192102432251,-0.05904174968600273,0.3011648952960968
1686428465766577700,6.27557763671875,0.5932191014289856,-0.194488525390625,0.2237103283405304
1686428465776522800,6.285522705078125,0.5138604044914246,-0.19176384806632996,0.1791766732931137
1686428465786468600,6.295468505859375,0.3963678479194641,-0.15696485340595245,0.1478339284658432
1686428465796414700,6.305414794921875,0.27921193838119507,-0.028186896815896034,0.13601349294185638
1686428465806360800,6.31536083984375,0.2060953825712204,0.007734352257102728,0.06968214362859726
1686428465816305700,6.3253056640625,0.14519155025482178,0.05338199809193611,-0.029562951996922493
1686428465826251500,6.33525146484375,0.06817399710416794,0.054124221205711365,-0.10632643848657608
1686428465836197600,6.34519775390625,-0.013037770986557007,-0.012990899384021759,-0.16512396931648254
1686428465846143700,6.355143798828125,-0.10250294208526611,-0.09399547427892685,-0.22713088989257812
1686428465856088600,6.365088623046875,-0.19527281820774078,-0.1691131293773651,-0.29564523696899414
1686428465866034400,6.375034423828125,-0.27159610390663147,-0.22359713912010193,-0.3568928837776184
1686428465875980500,6.38498046875,-0.33085116744041443,-0.27781298756599426,-0.4056124687194824
1686428465885926700,6.3949267578125,-0.37005582451820374,-0.39949971437454224,-0.4480193257331848
1686428465895871700,6.404871826171875,-0.40353256464004517,-0.5784772038459778,-0.4152461886405945
1686428465905817600,6.414817626953125,-0.3659369647502899,-0.8328503370285034,-0.21479512751102448
1686428465915763700,6.424763671875,-0.2264896035194397,-1.1226691007614136,0.08635299652814865
1686428465925709800,6.434709716796875,-0.048469796776771545,-1.1589866876602173,0.26211124658584595
1686428465935654700,6.444654541015625,0.03804511949419975,-0.9064779877662659,0.03879799693822861
1686428465945600500,6.4546005859375,-0.018609371036291122,-0.6146189570426941,-0.49180808663368225
1686428465955546600,6.464546630859375,-0.14276647567749023,-0.41996586322784424,-0.9345048069953918
1686428465965492700,6.47449267578125,-0.25571247935295105,-0.2083611935377121,-1.1018972396850586
1686428465975437600,6.4844375,-0.352145254611969,0.0030120352748781443,-1.06597900390625
1686428465985383400,6.494383544921875,-0.46400946378707886,0.23460878431797028,-0.9064558744430542
1686428465995329500,6.50432958984375,-0.6148285269737244,0.34208250045776367,-0.7742205858230591
1686428466005275600,6.514275634765625,-0.7945317625999451,0.3411993980407715,-0.7679911851882935
1686428466015220700,6.524220703125,-0.952785849571228,0.28214913606643677,-0.7913878560066223
1686428466025166600,6.53416650390625,-1.0199390649795532,0.18915501236915588,-0.7798366546630859
1686428466035112700,6.54411279296875,-0.9697120785713196,0.11781291663646698,-0.7352790832519531
1686428466045058800,6.554058837890625,-0.831534206867218,0.05627019703388214,-0.6802208423614502
1686428466055003600,6.564003662109375,-0.6584511399269104,-0.033975012600421906,-0.6043165326118469
1686428466064949500,6.573949462890625,-0.5068445801734924,-0.10125871002674103,-0.5232269763946533
1686428466074895600,6.5838955078125,-0.38723108172416687,-0.1540641337633133,-0.44199737906455994
1686428466084841700,6.593841796875,-0.32573390007019043,-0.1521911323070526,-0.3840706944465637
1686428466094786600,6.60378662109375,-0.2951224446296692,-0.197307750582695,-0.3642232418060303
1686428466104732400,6.613732421875,-0.30704063177108765,-0.22278860211372375,-0.38605955243110657
1686428466114678500,6.623678466796875,-0.34541305899620056,-0.31977054476737976,-0.4487639367580414
1686428466124624600,6.633624755859375,-0.38849368691444397,-0.48125582933425903,-0.526753306388855
1686428466134570500,6.643570556640625,-0.40933796763420105,-0.5245020985603333,-0.5987206697463989
1686428466144515600,6.653515625,-0.42143991589546204,-0.5360794067382812,-0.6505218148231506
1686428466154461700,6.663461669921875,-0.42770659923553467,-0.5452883839607239,-0.6701213717460632
1686428466164407800,6.67340771484375,-0.4264746308326721,-0.550811231136322,-0.629270613193512
1686428466174354200,6.683354248046875,-0.41851603984832764,-0.540961503982544,-0.5393202304840088
1686428466184299000,6.693299072265625,-0.408515602350235,-0.5554296970367432,-0.38111618161201477
1686428466194245000,6.7032451171875,-0.39392414689064026,-0.530720591545105,-0.2008177936077118
1686428466204191000,6.71319091796875,-0.36844274401664734,-0.4640459716320038,-0.02799168787896633
1686428466214137000,6.72313720703125,-0.31389641761779785,-0.34036076068878174,0.06950690597295761
1686428466224082000,6.73308203125,-0.25097817182540894,-0.17345274984836578,0.0635688528418541
1686428466234028000,6.743028076171875,-0.20919130742549896,-0.06860622763633728,-0.06132674217224121
1686428466243974000,6.752973876953125,-0.2038029283285141,0.009433182887732983,-0.2688533067703247
1686428466253920000,6.762919921875,-0.21584734320640564,0.03201865404844284,-0.4891633093357086
1686428466263865000,6.772864990234375,-0.22928884625434875,0.051247742027044296,-0.6436668634414673
1686428466273811200,6.782811279296875,-0.22280564904212952,0.13152500987052917,-0.6928064227104187
1686428466283757000,6.792757080078125,-0.20881099998950958,0.1738215982913971,-0.6277168989181519
1686428466293703200,6.802703125,-0.19451382756233215,0.1574876308441162,-0.47023966908454895
1686428466303648000,6.81264794921875,-0.17710553109645844,0.1303502768278122,-0.26720160245895386
1686428466313594000,6.822593994140625,-0.1679791510105133,0.16164162755012512,-0.07274238020181656
1686428466323540000,6.8325400390625,-0.16662706434726715,0.15038657188415527,0.07723113894462585
1686428466333486000,6.842486083984375,-0.18817895650863647,0.15733742713928223,0.14434999227523804
1686428466343431000,6.852430908203125,-0.2284131944179535,0.14564748108386993,0.1200086921453476
1686428466353377000,6.862376953125,-0.2678804397583008,0.054066430777311325,0.04267928749322891
1686428466363323000,6.872322998046875,-0.30918607115745544,0.0023409186396747828,-0.07870413362979889
1686428466373269000,6.88226904296875,-0.34111496806144714,-0.012925918214023113,-0.18621328473091125
1686428466383214000,6.892214111328125,-0.36285197734832764,0.01449931412935257,-0.24466700851917267
1686428466393160200,6.90216015625,-0.3497835695743561,0.03164421394467354,-0.23505033552646637
1686428466403106000,6.91210595703125,-0.30288076400756836,0.12244229018688202,-0.19932882487773895
1686428466413052200,6.92205224609375,-0.2656138241291046,0.26066887378692627,-0.16267865896224976
1686428466422997000,6.9319970703125,-0.22709760069847107,0.2518889605998993,-0.1372089833021164
1686428466432943000,6.941943115234375,-0.21256285905838013,0.2590360939502716,-0.12840405106544495
1686428466442889000,6.951888916015625,-0.22573113441467285,0.28641071915626526,-0.14497503638267517
1686428466452835000,6.9618349609375,-0.2301519811153412,0.23039032518863678,-0.17866002023220062
1686428466462781200,6.97178125,-0.23702372610569,0.19213348627090454,-0.22375746071338654
1686428466472726000,6.98172607421875,-0.26824262738227844,0.1615835726261139,-0.2575487196445465
1686428466482671900,6.991671875,-0.31957292556762695,0.1175929456949234,-0.2604893743991852
1686428466492618000,7.001617919921875,-0.39276033639907837,0.05332713574171066,-0.23154427111148834
1686428466502564000,7.011564208984375,-0.4718351662158966,-0.0479680597782135,-0.17478646337985992
1686428466512509200,7.02150927734375,-0.5055444240570068,-0.10406115651130676,-0.16262966394424438
1686428466522455000,7.031455078125,-0.44253480434417725,-0.15760613977909088,-0.2338268756866455
1686428466532401200,7.041401123046875,-0.3037140667438507,-0.22270311415195465,-0.40455174446105957
1686428466542347300,7.05134716796875,-0.18787190318107605,-0.211729034781456,-0.6005635857582092
1686428466552292000,7.0612919921875,-0.12705035507678986,-0.15699441730976105,-0.7659123539924622
1686428466562238000,7.071238037109375,-0.07377142459154129,-0.02688993699848652,-0.8588089942932129
1686428466572184000,7.08118408203125,-0.01649428717792034,0.16911499202251434,-0.8766364455223083
1686428466582130200,7.091130126953125,0.0470103845000267,0.38587844371795654,-0.8287850618362427
1686428466592075000,7.101074951171875,0.1004650890827179,0.5636172890663147,-0.7227566242218018
1686428466602020900,7.111020751953125,0.1586170792579651,0.6539876461029053,-0.5691055655479431
1686428466611967000,7.120967041015625,0.23777393996715546,0.6272149085998535,-0.3764340877532959
1686428466621913000,7.1309130859375,0.33787232637405396,0.4679802358150482,-0.16475965082645416
1686428466631858200,7.140858154296875,0.45567697286605835,0.27466297149658203,0.05145519971847534
1686428466641804000,7.150803955078125,0.5797871947288513,0.1875230222940445,0.29373466968536377
1686428466651750100,7.160750244140625,0.7048114538192749,0.1250133067369461,0.575698733329773
1686428466661696300,7.1706962890625,0.843406081199646,0.1212792918086052,0.8589118123054504
1686428466671641000,7.18064111328125,0.9866237044334412,0.12461090087890625,1.1330996751785278
1686428466681587000,7.1905869140625,1.0831116437911987,0.13514317572116852,1.4042915105819702
1686428466691533000,7.200532958984375,1.1033884286880493,0.14989735186100006,1.6309754848480225
1686428466701479000,7.21047900390625,1.0242480039596558,0.1789335310459137,1.789039969444275
1686428466711424000,7.220424072265625,0.8996469974517822,0.21717040240764618,1.8718405961990356
1686428466721369900,7.230369873046875,0.7760581970214844,0.28057122230529785,1.8471075296401978
1686428466731316000,7.24031591796875,0.6759201288223267,0.37222015857696533,1.698917031288147
1686428466741262000,7.250261962890625,0.6262298226356506,0.4597628116607666,1.4781228303909302
1686428466751207200,7.260207275390625,0.6220648884773254,0.5461584329605103,1.248010516166687
1686428466761153000,7.270153076171875,0.6420838832855225,0.6173545718193054,1.045950174331665
1686428466771099100,7.28009912109375,0.6493881344795227,0.6202813982963562,0.8844861388206482
1686428466781045000,7.290044921875,0.6310865879058838,0.6666672229766846,0.7930992245674133
1686428466790990000,7.299989990234375,0.6155111193656921,0.6588194370269775,0.7631099224090576
1686428466800936000,7.30993603515625,0.6063895225524902,0.6023577451705933,0.7750038504600525
1686428466810882000,7.319882080078125,0.5973081588745117,0.5448119044303894,0.8044176697731018
1686428466820828000,7.329827880859375,0.5873761773109436,0.4834505617618561,0.8371707797050476
1686428466830773000,7.33977294921875,0.5771927833557129,0.43150827288627625,0.866801917552948
1686428466840719000,7.349718994140625,0.5682461261749268,0.3793606460094452,0.8830051422119141
1686428466850665200,7.359665283203125,0.5566771030426025,0.35521987080574036,0.8874363899230957
1686428466860611000,7.369611083984375,0.5432829856872559,0.41810378432273865,0.8554438352584839
1686428466870557200,7.37955712890625,0.5179377198219299,0.47790879011154175,0.7700706124305725
1686428466880502000,7.389501953125,0.48526841402053833,0.5387771725654602,0.6509974598884583
1686428466890448100,7.3994482421875,0.46870383620262146,0.5702062249183655,0.5287719368934631
1686428466900394000,7.40939404296875,0.4683813154697418,0.5549987554550171,0.4336073696613312
1686428466910340000,7.419340087890625,0.49063095450401306,0.5053499937057495,0.3693961501121521
1686428466920285000,7.429284912109375,0.4977780878543854,0.40305396914482117,0.3476325273513794
1686428466930231000,7.43923095703125,0.46842899918556213,0.3490900695323944,0.384795606136322
1686428466940177000,7.449177001953125,0.4356662631034851,0.251909464597702,0.4434109926223755
1686428466950123000,7.459123046875,0.3982882499694824,0.2600741982460022,0.4988816976547241
1686428466960068000,7.469068115234375,0.36594709753990173,0.25520193576812744,0.52189701795578
1686428466970014200,7.47901416015625,0.34106412529945374,0.25295290350914,0.4714849591255188
1686428466979960000,7.4889599609375,0.3082209527492523,0.24718235433101654,0.3477952480316162
1686428466989906200,7.49890625,0.27036118507385254,0.19254574179649353,0.17755959928035736
1686428466999851000,7.50885107421875,0.23765037953853607,0.14911597967147827,-0.009483782574534416
1686428467009797000,7.518797119140625,0.20686502754688263,0.14136219024658203,-0.15696164965629578
1686428467019743000,7.528742919921875,0.18410752713680267,0.12857848405838013,-0.24204058945178986
1686428467029689000,7.538689208984375,0.15537813305854797,0.08316706120967865,-0.2742222249507904
1686428467039634000,7.548634033203125,0.11156967282295227,-0.018869562074542046,-0.28887468576431274
1686428467049580000,7.558580078125,0.059306200593709946,-0.11812424659729004,-0.31540802121162415
1686428467059526000,7.56852587890625,0.011905661784112453,-0.1893313080072403,-0.36991599202156067
1686428467069472000,7.578471923828125,-0.02106214128434658,-0.22017870843410492,-0.43877363204956055
1686428467079418000,7.588418212890625,-0.053705304861068726,-0.23891803622245789,-0.4870905578136444
1686428467089363200,7.59836328125,-0.09652121365070343,-0.2755463421344757,-0.5043845772743225
1686428467099309000,7.60830908203125,-0.16067436337471008,-0.3205859959125519,-0.4954283833503723
1686428467109255200,7.618255126953125,-0.23405377566814423,-0.38465073704719543,-0.44726645946502686
1686428467119201300,7.628201171875,-0.2574179470539093,-0.56067955493927,-0.3354312479496002
1686428467129146000,7.63814599609375,-0.1837296187877655,-0.8162740468978882,-0.14587518572807312
1686428467139092000,7.648092041015625,-0.04380740225315094,-1.0256145000457764,0.04747510701417923
1686428467149038000,7.6580380859375,0.11148019134998322,-1.0887072086334229,0.13999837636947632
1686428467158984200,7.667984130859375,0.23000682890415192,-0.9883648753166199,0.01540798507630825
1686428467168929000,7.677928955078125,0.21994328498840332,-0.8370935916900635,-0.3464524745941162
1686428467178874400,7.687874267578125,0.03602537885308266,-0.6003859639167786,-0.7768869400024414
1686428467188820500,7.697820556640625,-0.21442574262619019,-0.2413463145494461,-1.049463152885437
1686428467198766600,7.7077666015625,-0.4262083172798157,0.06505170464515686,-1.1082611083984375
1686428467208711700,7.717711669921875,-0.5939685702323914,0.17899638414382935,-1.0442813634872437
1686428467218657500,7.727657470703125,-0.7485479712486267,0.2034205049276352,-0.9293656945228577
1686428467228603600,7.737603759765625,-0.8927890658378601,0.22557108104228973,-0.7822170257568359
1686428467238549500,7.747549560546875,-0.997178316116333,0.22148099541664124,-0.6674014925956726
1686428467248494600,7.75749462890625,-1.0374966859817505,0.21865057945251465,-0.6365759372711182
1686428467258440400,7.7674404296875,-1.0037072896957397,0.17397445440292358,-0.652810275554657
1686428467268386600,7.777386474609375,-0.8984120488166809,0.09458056837320328,-0.6741927862167358
1686428467278332400,7.78733251953125,-0.7516476511955261,0.028691831976175308,-0.6655846834182739
1686428467288278500,7.797278564453125,-0.5974538326263428,-0.0631379559636116,-0.6173444390296936
1686428467298223600,7.8072236328125,-0.45788952708244324,-0.07862130552530289,-0.5321936011314392
1686428467308169700,7.817169677734375,-0.350240558385849,-0.11401685327291489,-0.45293739438056946
1686428467318115600,7.827115478515625,-0.29704660177230835,-0.0773235484957695,-0.40541407465934753
1686428467328061700,7.837061767578125,-0.3029537498950958,-0.0718558132648468,-0.39732471108436584
1686428467338006500,7.847006591796875,-0.34978970885276794,-0.09649032354354858,-0.41203415393829346
1686428467347952600,7.85695263671875,-0.3812466859817505,-0.20845067501068115,-0.46286991238594055
1686428467357898500,7.8668984375,-0.41833972930908203,-0.33312442898750305,-0.5238653421401978
1686428467367844600,7.8768447265625,-0.46714669466018677,-0.3699820339679718,-0.5983710289001465
1686428467377789400,7.88678955078125,-0.48172909021377563,-0.4192947447299957,-0.6409384608268738
1686428467387735600,7.896735595703125,-0.4633050858974457,-0.44968539476394653,-0.6387559771537781
1686428467397681400,7.906681396484375,-0.4401227831840515,-0.4870556890964508,-0.5729242563247681
1686428467407627500,7.91662744140625,-0.41775277256965637,-0.5117682218551636,-0.4409409165382385
1686428467417572600,7.926572509765625,-0.3908407390117645,-0.535730242729187,-0.26246917247772217
1686428467427518700,7.936518798828125,-0.35321691632270813,-0.5328500866889954,-0.08455882966518402
1686428467437464600,7.946464599609375,-0.3061833679676056,-0.46699726581573486,0.048705752938985825
1686428467447410700,7.95641064453125,-0.2630409598350525,-0.3759307563304901,0.10080064833164215
1686428467457356800,7.966356689453125,-0.24269840121269226,-0.2897591292858124,0.056652359664440155
1686428467467301600,7.976301513671875,-0.2560458779335022,-0.22273986041545868,-0.060614343732595444
1686428467477247500,7.98624755859375,-0.2793767750263214,-0.21152690052986145,-0.20979183912277222
1686428467487193600,7.996193603515625,-0.28729915618896484,-0.23469479382038116,-0.3228249251842499
1686428467497139700,8.0061396484375,-0.2802377939224243,-0.23166517913341522,-0.3756215572357178
1686428467507084500,8.01608447265625,-0.25676894187927246,-0.19629468023777008,-0.3643883466720581
1686428467517030400,8.026030517578125,-0.22950030863285065,-0.148911714553833,-0.2925008535385132
1686428467526976500,8.0359765625,-0.19768591225147247,-0.09667833894491196,-0.17584346234798431
1686428467536922600,8.045922607421875,-0.17202262580394745,-0.06879691034555435,-0.04412991181015968
1686428467546867700,8.05586767578125,-0.16362568736076355,-0.03948535770177841,0.06936602294445038
1686428467556813600,8.0658134765625,-0.17634999752044678,0.006343649700284004,0.12544260919094086
1686428467566759700,8.075759765625,-0.19423818588256836,-0.03370203822851181,0.11398089677095413
1686428467576705800,8.085705810546875,-0.2180127501487732,-0.09791963547468185,0.04897420108318329
1686428467586650600,8.095650634765626,-0.23496298491954803,-0.12963229417800903,-0.02226562425494194
1686428467596596500,8.105596435546875,-0.2271101176738739,-0.14307619631290436,-0.07768414169549942
1686428467606542600,8.11554248046875,-0.21314769983291626,-0.10840903222560883,-0.13641908764839172
1686428467616488700,8.12548876953125,-0.20493583381175995,-0.011470501311123371,-0.18699385225772858
1686428467626434600,8.1354345703125,-0.23092429339885712,0.09930235147476196,-0.205677792429924
1686428467636379400,8.14537939453125,-0.2539166808128357,0.10442148149013519,-0.2132965624332428
1686428467646325500,8.155325439453126,-0.2951592206954956,0.20376457273960114,-0.23066917061805725
1686428467656271600,8.165271728515625,-0.34603917598724365,0.27514103055000305,-0.2635807693004608
1686428467666217500,8.175217529296875,-0.394025593996048,0.2883756160736084,-0.30110684037208557
1686428467676162600,8.18516259765625,-0.4125766456127167,0.23921604454517365,-0.33495429158210754
1686428467686108700,8.195108642578125,-0.38919490575790405,0.17379549145698547,-0.360809326171875
1686428467696054500,8.205054443359375,-0.3343457579612732,0.06963766366243362,-0.39398112893104553
1686428467706000600,8.215000732421874,-0.2865518629550934,-0.07500127702951431,-0.4475410282611847
1686428467715945500,8.224945556640625,-0.2945306897163391,-0.21554213762283325,-0.5016242265701294
1686428467725891600,8.2348916015625,-0.36612072587013245,-0.2913990914821625,-0.5285751819610596
1686428467735837400,8.24483740234375,-0.4604368507862091,-0.30222615599632263,-0.5131429433822632
1686428467745783600,8.254783447265625,-0.48308756947517395,-0.3015361428260803,-0.49229809641838074
1686428467755728400,8.264728271484374,-0.3835045099258423,-0.3327486515045166,-0.528700053691864
1686428467765674500,8.274674560546876,-0.23514673113822937,-0.3850715160369873,-0.625537633895874
1686428467775620400,8.284620361328125,-0.13451546430587769,-0.38391411304473877,-0.7439396381378174
1686428467785566500,8.29456640625,-0.07954995334148407,-0.28863525390625,-0.8032314777374268
1686428467795512600,8.3045126953125,-0.032578181475400925,-0.0831952840089798,-0.7662391066551208
1686428467805457700,8.314457763671875,0.009618272073566914,0.16624170541763306,-0.6441382169723511
1686428467815403500,8.324403564453124,0.0532539002597332,0.3535791039466858,-0.47200748324394226
1686428467825349600,8.334349609375,0.10674775391817093,0.42728474736213684,-0.2950763702392578
1686428467835295700,8.344295654296875,0.18566706776618958,0.3698262572288513,-0.12682558596134186
1686428467845240600,8.354240478515624,0.2858232259750366,0.2146041840314865,0.02177853137254715
1686428467855186400,8.3641865234375,0.39019784331321716,0.05618897080421448,0.1447334885597229
1686428467865132500,8.374132568359375,0.4795498251914978,-0.04030667617917061,0.2884941101074219
1686428467875078700,8.38407861328125,0.558812141418457,-0.03658704087138176,0.4756070077419281
1686428467885023500,8.3940234375,0.6673610210418701,0.0086041409522295,0.7057304978370667
1686428467894969300,8.40396923828125,0.7934909462928772,0.06846614181995392,0.9581180214881897
1686428467904915500,8.41391552734375,0.9067307114601135,0.1509796679019928,1.2221016883850098
1686428467914861600,8.423861572265626,0.961165726184845,0.20613665878772736,1.4635460376739502
1686428467924807400,8.433807373046875,0.9542756080627441,0.21926870942115784,1.7137662172317505
1686428467934752500,8.44375244140625,0.9148733019828796,0.23146039247512817,1.923429250717163
1686428467944698600,8.45369873046875,0.8490687608718872,0.23780536651611328,2.0142626762390137
1686428467954644700,8.463644775390625,0.7769540548324585,0.21918082237243652,1.9972703456878662
1686428467964590600,8.473590576171874,0.7404370903968811,0.1647932082414627,1.8876264095306396
1686428467974535400,8.483535400390625,0.7705100178718567,0.1260700523853302,1.6874414682388306
1686428467984481500,8.4934814453125,0.7923053503036499,0.20997454226016998,1.4111368656158447
1686428467994427600,8.503427734375,0.8053324222564697,0.27225416898727417,1.1125080585479736
1686428468004373500,8.51337353515625,0.8105016350746155,0.27129170298576355,0.8417269587516785
1686428468014318600,8.523318603515625,0.8167536854743958,0.21994221210479736,0.6451990008354187
1686428468024264400,8.533264404296874,0.7995419502258301,0.21379616856575012,0.5506447553634644
1686428468034210600,8.54321044921875,0.7835371494293213,0.13133564591407776,0.5626708269119263
1686428468044156700,8.55315673828125,0.7824699878692627,0.023257385939359665,0.6605033874511719
1686428468054102800,8.563102783203124,0.7896818518638611,-0.07349339127540588,0.798285186290741
1686428468064047600,8.573047607421875,0.7979557514190674,-0.164828360080719,0.8993907570838928
1686428468073993700,8.58299365234375,0.7947003245353699,-0.21074312925338745,0.9259648323059082
1686428468083939600,8.592939697265624,0.7907149195671082,-0.20476938784122467,0.8760343194007874
1686428468093885700,8.6028857421875,0.8064075708389282,-0.16395218670368195,0.7777170538902283
1686428468103830500,8.61283056640625,0.8471779227256775,-0.1132165715098381,0.6765579581260681
1686428468113776600,8.622776611328124,0.8977012634277344,-0.09602773189544678,0.6085435152053833
1686428468123722500,8.632722412109375,0.9294450879096985,-0.0929669588804245,0.5824037790298462
1686428468133668600,8.642668701171875,0.9393872022628784,-0.1616637259721756,0.5863676071166992
1686428468143613700,8.65261376953125,0.9032089710235596,-0.14094433188438416,0.6082928776741028
1686428468153559800,8.662559814453125,0.8409042954444885,-0.20857664942741394,0.5793011784553528
1686428468163505700,8.672505615234375,0.7746509909629822,-0.29079189896583557,0.43721887469291687
1686428468173451800,8.68245166015625,0.7103217840194702,-0.3791201412677765,0.23837769031524658
1686428468183397600,8.692397705078125,0.6337180733680725,-0.4055560231208801,0.06461627781391144
1686428468193342700,8.7023427734375,0.5292952656745911,-0.38176974654197693,-0.049548644572496414
1686428468203288600,8.71228857421875,0.43178337812423706,-0.310677707195282,-0.10311386734247208
1686428468213234700,8.722234619140625,0.32389897108078003,-0.19666671752929688,-0.1395653486251831
1686428468223180500,8.7321806640625,0.20687808096408844,-0.09171687066555023,-0.19334761798381805
1686428468233125600,8.742125732421876,0.07725111395120621,-0.03580433502793312,-0.2857401371002197
1686428468243071500,8.752071533203125,-0.05372181907296181,-0.01949726790189743,-0.3899429738521576
1686428468253017600,8.762017578125,-0.18157245218753815,-0.04217568412423134,-0.46320679783821106
1686428468262963500,8.77196337890625,-0.29731476306915283,-0.11368928104639053,-0.49552640318870544
1686428468272909600,8.78190966796875,-0.37578508257865906,-0.2672615349292755,-0.4609532356262207
1686428468282854700,8.791854736328125,-0.40187767148017883,-0.48020148277282715,-0.368393212556839
1686428468292800800,8.80180078125,-0.3938159942626953,-0.6974768042564392,-0.1923484057188034
1686428468302746600,8.81174658203125,-0.34327080845832825,-0.903408408164978,0.09279065579175949
1686428468312692700,8.821692626953125,-0.24691976606845856,-0.9244697690010071,0.37771347165107727
1686428468322637600,8.831637451171876,-0.1638595014810562,-0.6774767637252808,0.3810168504714966
1686428468332583700,8.841583740234375,-0.1779865175485611,-0.31427669525146484,-0.03675588220357895
1686428468342529500,8.851529541015625,-0.3295592665672302,-0.13227547705173492,-0.6165018081665039
1686428468352475600,8.8614755859375,-0.5257362127304077,-0.02917386405169964,-1.0191304683685303
1686428468362420500,8.87142041015625,-0.5940676331520081,0.11847498267889023,-1.1254849433898926
1686428468372366600,8.88136669921875,-0.5489352941513062,0.3444135785102844,-1.030503749847412
1686428468382312400,8.8913125,-0.5290076732635498,0.4675237834453583,-0.8674498796463013
1686428468392258600,8.901258544921875,-0.6198970675468445,0.4734589159488678,-0.7410528063774109
1686428468402204400,8.911204345703124,-0.7763093113899231,0.36232227087020874,-0.6828914880752563
1686428468412149800,8.921149658203126,-0.899216890335083,0.2918078899383545,-0.6472948789596558
1686428468422095600,8.931095703125,-0.9272226691246033,0.2521480917930603,-0.6178017258644104
1686428468432041700,8.941041748046874,-0.8590393662452698,0.2619043290615082,-0.5874451398849487
1686428468441987600,8.950987548828126,-0.7339770197868347,0.22145995497703552,-0.5448340177536011
1686428468451932700,8.9609326171875,-0.6039713621139526,0.18739093840122223,-0.4830295145511627
1686428468461878500,8.97087841796875,-0.49048155546188354,0.1295902132987976,-0.41661879420280457
1686428468471824600,8.98082470703125,-0.4181343913078308,0.07646334916353226,-0.37758296728134155
1686428468481770500,8.9907705078125,-0.38584089279174805,0.030477747321128845,-0.38450878858566284
1686428468491715600,9.000715576171874,-0.3737959563732147,-0.03916311636567116,-0.43496450781822205
1686428468501661400,9.010661376953125,-0.3914537727832794,-0.12474086880683899,-0.5196127891540527
1686428468511607600,9.020607666015625,-0.4156203866004944,-0.22956182062625885,-0.6346701383590698
1686428468521553400,9.030553466796874,-0.4314368963241577,-0.41013506054878235,-0.7400016188621521
1686428468531499500,9.04049951171875,-0.439973920583725,-0.44169777631759644,-0.8063388466835022
1686428468541444600,9.050444580078125,-0.4288592040538788,-0.4426724910736084,-0.8256097435951233
1686428468551390700,9.060390625,-0.407805860042572,-0.4348300099372864,-0.7681975960731506
1686428468561336600,9.070336669921875,-0.39296671748161316,-0.4249992370605469,-0.6358872056007385
1686428468571282700,9.08028271484375,-0.3915371298789978,-0.4309103786945343,-0.44827499985694885
1686428468581227500,9.0902275390625,-0.3985324800014496,-0.4073677659034729,-0.24566729366779327
1686428468591173600,9.100173583984375,-0.40052372217178345,-0.3448474109172821,-0.0721687376499176
1686428468601119500,9.110119384765625,-0.3811577260494232,-0.24558526277542114,0.026162095367908478
1686428468611065600,9.120065673828124,-0.3476612865924835,-0.13599617779254913,0.01438293419778347
1686428468621010400,9.130010498046875,-0.31054800748825073,-0.054426755756139755,-0.09711403399705887
1686428468630956500,9.13995654296875,-0.26989245414733887,-0.0418289378285408,-0.2584794759750366
1686428468640902400,9.14990234375,-0.24423743784427643,-0.02635038085281849,-0.42854201793670654
1686428468650848500,9.1598486328125,-0.23726262152194977,0.05271540954709053,-0.5568962693214417
1686428468660794600,9.169794677734375,-0.22723501920700073,0.033734794706106186,-0.5949406027793884
1686428468670739700,9.17973974609375,-0.23499946296215057,0.020015252754092216,-0.5499898791313171
1686428468680685600,9.189685546875,-0.25567224621772766,0.0711042732000351,-0.43028026819229126
1686428468690631700,9.199631591796875,-0.2748805582523346,0.0754883661866188,-0.26274746656417847
1686428468700577500,9.20957763671875,-0.28295978903770447,0.11226475238800049,-0.10180758684873581
1686428468710522600,9.219522705078125,-0.2746739089488983,0.1325170248746872,0.01672571711242199
1686428468720468500,9.229468505859375,-0.27127304673194885,0.060379453003406525,0.0762641429901123
1686428468730414600,9.23941455078125,-0.2747833728790283,-0.00851306039839983,0.07372375577688217
1686428468740360400,9.2493603515625,-0.2777080535888672,-0.022056566551327705,0.03383572772145271
1686428468750305500,9.259305419921875,-0.278098464012146,-0.019538015127182007,-0.005554554983973503
1686428468760251600,9.269251708984376,-0.29265478253364563,-0.07320177555084229,-0.008159925229847431
1686428468770197500,9.279197509765625,-0.3086598217487335,0.0028636970091611147,-0.014662565663456917
1686428468780143600,9.2891435546875,-0.3046445846557617,0.03894846513867378,-0.04339035227894783
1686428468790089700,9.29908984375,-0.2927525043487549,0.040472857654094696,-0.10694482177495956
1686428468800034600,9.30903466796875,-0.29697176814079285,0.09518617391586304,-0.17607063055038452
1686428468809980700,9.318980712890625,-0.3031228482723236,0.021498899906873703,-0.2279364913702011
1686428468819926500,9.328926513671876,-0.3117126226425171,-0.0005273058777675033,-0.30528295040130615
1686428468829872600,9.33887255859375,-0.3290218412876129,0.03283890709280968,-0.3956144452095032
1686428468839817500,9.3488173828125,-0.3242070972919464,-0.022551381960511208,-0.48035141825675964
1686428468849763600,9.358763671875,-0.29359912872314453,-0.10375702381134033,-0.5305823683738708
1686428468859709400,9.36870947265625,-0.25474920868873596,-0.22377504408359528,-0.5435407757759094
1686428468869655600,9.378655517578125,-0.24166855216026306,-0.32921889424324036,-0.5259420871734619
1686428468879601400,9.388601318359376,-0.2684021592140198,-0.37338343262672424,-0.48386839032173157
1686428468889546800,9.398546630859375,-0.27609363198280334,-0.3185470998287201,-0.4805980324745178
1686428468899492600,9.40849267578125,-0.23312805593013763,-0.2924878001213074,-0.549616277217865
1686428468909438700,9.418438720703126,-0.1876058429479599,-0.30102774500846863,-0.6559821367263794
1686428468919384600,9.428384521484375,-0.18689478933811188,-0.3147946894168854,-0.7495496273040771
1686428468929329700,9.43832958984375,-0.2025110274553299,-0.28605785965919495,-0.7985573410987854
1686428468939275500,9.448275634765626,-0.17603760957717896,-0.16500119864940643,-0.7792662382125854
1686428468949221600,9.4582216796875,-0.09947226196527481,0.027243871241807938,-0.6704606413841248
1686428468959167500,9.46816748046875,0.004849083721637726,0.2372192144393921,-0.4909502863883972
1686428468969112600,9.478112548828125,0.11206608265638351,0.38790377974510193,-0.2808915972709656
1686428468979058400,9.488058349609375,0.2021685391664505,0.40902185440063477,-0.06935137510299683
1686428468989004500,9.498004638671874,0.2761610150337219,0.25977271795272827,0.12409904599189758
1686428468998950400,9.507950439453126,0.3417789041996002,0.06289906799793243,0.30293136835098267
1686428469008896500,9.517896484375,0.41414952278137207,-0.11786085367202759,0.4647993743419647
1686428469018841600,9.527841552734374,0.5079612135887146,-0.23096343874931335,0.6158461570739746
1686428469028787700,9.53778759765625,0.6320967674255371,-0.19756047427654266,0.7605945467948914
1686428469038733600,9.547733642578125,0.7557489275932312,-0.0957089513540268,0.8956759572029114
1686428469048679700,9.5576796875,0.8456630706787109,0.005249623209238052,1.043271541595459
1686428469058624500,9.56762451171875,0.8924005031585693,0.10126190632581711,1.221415400505066
1686428469068570600,9.577570556640625,0.9376716017723083,0.19904252886772156,1.4832518100738525
1686428469078516500,9.5875166015625,0.9748133420944214,0.27517378330230713,1.7570961713790894
1686428469088462600,9.597462646484376,0.9833495616912842,0.35874804854393005,1.9705791473388672
1686428469098408400,9.607408447265625,0.9619289636611938,0.4330454468727112,2.095046043395996
1686428469108353500,9.617353515625,0.9288791418075562,0.4609593451023102,2.0890092849731445
1686428469118299400,9.62729931640625,0.8921986222267151,0.4896698296070099,1.9063849449157715
1686428469128245500,9.63724560546875,0.8396235704421997,0.47370418906211853,1.595077633857727
1686428469138191400,9.64719140625,0.7863616943359375,0.4534825384616852,1.2208387851715088
1686428469148136700,9.65713671875,0.7395268082618713,0.35592854022979736,0.8562560677528381
1686428469158082600,9.66708251953125,0.6999263763427734,0.2554283142089844,0.584955632686615
1686428469168028700,9.677028564453124,0.6690433025360107,0.21750888228416443,0.4433034062385559
1686428469177975300,9.686975341796876,0.6597265005111694,0.24486593902111053,0.42963019013404846
1686428469187921400,9.69692138671875,0.6828776597976685,0.2658625841140747,0.5065897107124329
1686428469197866200,9.7068662109375,0.7153375744819641,0.2766616940498352,0.6143443584442139
1686428469207812400,9.716812255859375,0.7442182302474976,0.2103835940361023,0.6957857012748718
1686428469217758200,9.72675830078125,0.7640260457992554,0.11034541577100754,0.7071489095687866
1686428469227704300,9.736704345703124,0.7789719700813293,0.08060456812381744,0.673572301864624
1686428469237649200,9.746649169921875,0.8048304319381714,0.0912361666560173,0.6134282350540161
1686428469247595300,9.75659521484375,0.8519737124443054,0.1178150475025177,0.5716763138771057
1686428469257541000,9.766541015625,0.9158698916435242,0.12795104086399078,0.5615085959434509
1686428469267487200,9.7764873046875,0.9765995144844055,0.09682294726371765,0.5736257433891296
1686428469277432300,9.786432373046875,1.0016058683395386,0.022338062524795532,0.5804620385169983
1686428469287378400,9.79637841796875,1.0023325681686401,-0.12111178040504456,0.5465967655181885
1686428469297324300,9.80632421875,0.9368348121643066,-0.1746881902217865,0.47033849358558655
1686428469307270400,9.8162705078125,0.8335326910018921,-0.20831964910030365,0.37397173047065735
1686428469317216300,9.82621630859375,0.7490132451057434,-0.30596017837524414,0.24519750475883484
1686428469327161300,9.836161376953125,0.6596247553825378,-0.2920590341091156,0.15364575386047363
1686428469337107200,9.846107177734375,0.5413718819618225,-0.2324734479188919,0.07858695089817047
1686428469347053300,9.85605322265625,0.44471779465675354,-0.14239256083965302,0.01284336019307375
1686428469356999200,9.865999267578125,0.34876570105552673,-0.02461053803563118,-0.0822535902261734
1686428469366944300,9.8759443359375,0.2622217535972595,0.05281740799546242,-0.17746266722679138
1686428469376890000,9.88589013671875,0.1593494415283203,0.08328636735677719,-0.26968953013420105
1686428469386836200,9.895836181640625,0.0420590378344059,0.06425861269235611,-0.3433810770511627
1686428469396782000,9.905781982421875,-0.07802928984165192,0.015064170584082603,-0.39959320425987244
1686428469406728200,9.915728271484374,-0.20512917637825012,-0.02678127959370613,-0.433208167552948
1686428469416673300,9.92567333984375,-0.32405105233192444,-0.06434756517410278,-0.4421699643135071
1686428469426619400,9.935619384765625,-0.4140118360519409,-0.15227022767066956,-0.439717173576355
1686428469436565200,9.945565185546876,-0.47161492705345154,-0.2565854489803314,-0.42160528898239136
1686428469446511400,9.955511474609375,-0.4952571392059326,-0.4185229539871216,-0.2902158498764038
1686428469456456200,9.965456298828125,-0.43337514996528625,-0.7514566779136658,0.003572630463168025
1686428469466402300,9.97540234375,-0.2629903554916382,-0.9496377110481262,0.35660234093666077
1686428469476348200,9.98534814453125,-0.08816155046224594,-0.7821261882781982,0.43971744179725647
1686428469486294300,9.995294189453125,-0.005678125657141209,-0.4542705714702606,0.05432795360684395
1686428469496240000,10.005240234375,-0.08090496808290482,-0.2628348171710968,-0.534008264541626
1686428469506185200,10.015185302734375,-0.27338919043540955,-0.10972409695386887,-0.9237129092216492
1686428469516131000,10.025131103515625,-0.44186291098594666,0.09370998293161392,-1.0351896286010742
1686428469526077200,10.0350771484375,-0.5111048221588135,0.226056307554245,-1.0139069557189941
1686428469536023000,10.04502294921875,-0.5476404428482056,0.37010136246681213,-0.9294778108596802
1686428469545969200,10.05496923828125,-0.630399763584137,0.5024303793907166,-0.8191108703613281
1686428469555914200,10.064914306640626,-0.7718408107757568,0.5069534778594971,-0.7443761825561523
1686428469565860400,10.0748603515625,-0.9128983020782471,0.47377821803092957,-0.6860960721969604
1686428469575806200,10.08480615234375,-0.9815279841423035,0.41271698474884033,-0.6130889654159546
1686428469585752300,10.09475244140625,-0.9703200459480286,0.3944234848022461,-0.5072261691093445
1686428469595697200,10.104697265625,-0.8842512369155884,0.32460817694664,-0.39281731843948364
1686428469605643300,10.114643310546874,-0.7638116478919983,0.23332540690898895,-0.29306331276893616
1686428469615589000,10.124589111328126,-0.6508060097694397,0.16269676387310028,-0.22564297914505005
1686428469625535200,10.13453515625,-0.5551409721374512,0.11852984130382538,-0.2148718237876892
1686428469635480000,10.14447998046875,-0.5011478066444397,0.07790198922157288,-0.27610722184181213
1686428469645426200,10.15442626953125,-0.49022749066352844,0.05758393555879593,-0.3893056809902191
1686428469655372000,10.1643720703125,-0.5075396299362183,-0.013017265126109123,-0.5195180177688599
1686428469665318100,10.174318115234374,-0.5328207612037659,-0.18591341376304626,-0.6374902129173279
1686428469675264000,10.184263916015626,-0.5900251865386963,-0.18862903118133545,-0.7446113228797913
1686428469685209300,10.194209228515625,-0.5917200446128845,-0.22349567711353302,-0.8036730289459229
1686428469695155200,10.2041552734375,-0.5708573460578918,-0.24874457716941833,-0.8018527626991272
1686428469705101300,10.214101318359376,-0.5473549962043762,-0.25560808181762695,-0.7328020334243774
1686428469715047200,10.224047119140625,-0.5467645525932312,-0.2688588798046112,-0.5950657725334167
1686428469724993300,10.2339931640625,-0.5588220357894897,-0.2659429907798767,-0.43636852502822876
1686428469734938000,10.243938232421876,-0.5413535237312317,-0.2764158844947815,-0.2852464020252228
1686428469744884200,10.25388427734375,-0.505622148513794,-0.222712442278862,-0.17793111503124237
1686428469754830000,10.263830078125,-0.4594288468360901,-0.13754960894584656,-0.1318110227584839
1686428469764776200,10.273776123046876,-0.40958672761917114,-0.037044305354356766,-0.16338999569416046
1686428469774721000,10.283720947265625,-0.376872718334198,0.006586796138435602,-0.2632737159729004
1686428469784667100,10.293667236328124,-0.3709612786769867,0.08044824004173279,-0.3958304226398468
1686428469794613200,10.30361328125,-0.3642306923866272,0.042087532579898834,-0.4979008734226227
1686428469804559000,10.31355908203125,-0.3735187351703644,0.10509605705738068,-0.5336801409721375
1686428469814505200,10.323505126953124,-0.3786093592643738,0.2255481779575348,-0.49958130717277527
1686428469824450300,10.3334501953125,-0.36486825346946716,0.31343114376068115,-0.4024904668331146
1686428469834396200,10.343396240234375,-0.33578598499298096,0.36504054069519043,-0.2630835473537445
1686428469844342300,10.35334228515625,-0.30250313878059387,0.3984954357147217,-0.119548499584198
1686428469854288100,10.3632880859375,-0.28700539469718933,0.41990432143211365,-0.00236302288249135
1686428469864233200,10.373233154296875,-0.2808130383491516,0.4117492139339447,0.07726309448480606
1686428469874179000,10.383178955078124,-0.2732965052127838,0.3691924214363098,0.10585799068212509
1686428469884125200,10.393125244140625,-0.2551470696926117,0.3222036063671112,0.08253695070743561
1686428469894071000,10.403071044921875,-0.23328492045402527,0.26066887378692627,0.03394651412963867
1686428469904017200,10.41301708984375,-0.21149253845214844,0.20207586884498596,-0.01902375929057598
1686428469913962200,10.422962158203125,-0.19279181957244873,0.1736607402563095,-0.07070213556289673
1686428469923908400,10.432908447265625,-0.17400935292243958,0.15423670411109924,-0.10069598257541656
1686428469933854200,10.442854248046874,-0.16295243799686432,0.1712748110294342,-0.10298417508602142
1686428469943800300,10.45280029296875,-0.15331073105335236,0.2003895491361618,-0.09809194505214691
1686428469953745200,10.4627451171875,-0.1606040596961975,0.2345147728919983,-0.10151943564414978
1686428469963691300,10.472691162109374,-0.1879536509513855,0.14854899048805237,-0.10736400634050369
1686428469973637000,10.48263720703125,-0.225422203540802,0.14478355646133423,-0.11551913619041443
1686428469983583200,10.492583251953125,-0.2814338207244873,0.23171818256378174,-0.12332113832235336
1686428469993529300,10.502529296875,-0.3322192132472992,0.2828492820262909,-0.12483780831098557
1686428470003474200,10.51247412109375,-0.36396169662475586,0.2456957846879959,-0.13945749402046204
1686428470013420000,10.522419921875,-0.38528990745544434,0.18401378393173218,-0.20098796486854553
1686428470023366100,10.5323662109375,-0.38210129737854004,0.11110708117485046,-0.2860506772994995
1686428470033312300,10.542312255859375,-0.3584926426410675,0.028489964082837105,-0.3616492748260498
1686428470043258000,10.552258056640625,-0.3174498677253723,-0.05734797939658165,-0.4227035939693451
1686428470053203200,10.562203125,-0.25843873620033264,-0.12420077621936798,-0.47630634903907776
1686428470063149300,10.5721494140625,-0.20670044422149658,-0.14002767205238342,-0.5177384614944458
1686428470073095200,10.58209521484375,-0.20421864092350006,-0.13445954024791718,-0.5471842288970947
1686428470083041300,10.592041259765624,-0.24926574528217316,-0.20509429275989532,-0.5602039098739624
1686428470092986000,10.601986083984375,-0.2804441750049591,-0.24571123719215393,-0.599166214466095
1686428470102932200,10.61193212890625,-0.2888437807559967,-0.2965046465396881,-0.6440948247909546
1686428470112878000,10.621878173828126,-0.27050524950027466,-0.28517821431159973,-0.6997966766357422
1686428470122824200,10.63182421875,-0.23370783030986786,-0.17647889256477356,-0.7694034576416016
1686428470132770300,10.641770263671875,-0.20286336541175842,-0.035112712532281876,-0.8043244481086731
1686428470142715100,10.651715087890626,-0.1709296703338623,0.11687761545181274,-0.7757428884506226
1686428470152661000,10.661660888671875,-0.10794271528720856,0.2880043685436249,-0.6697983145713806
1686428470162607000,10.671607177734375,-0.0073503246530890465,0.44664621353149414,-0.5001956820487976
1686428470172552400,10.681552490234376,0.11166980862617493,0.5118654370307922,-0.3088710308074951
1686428470182497300,10.691497314453125,0.23753586411476135,0.47224023938179016,-0.12099459767341614
1686428470192443400,10.701443359375,0.36265942454338074,0.33846327662467957,0.06174379214644432
1686428470202389200,10.71138916015625,0.4696769416332245,0.1808033436536789,0.24505528807640076
1686428470212335400,10.72133544921875,0.5565431118011475,0.010881143622100353,0.4281851649284363
1686428470222281200,10.73128125,0.6428990960121155,-0.09856651723384857,0.6188989281654358
1686428470232226300,10.741226318359375,0.7663067579269409,-0.13951902091503143,0.788712739944458
1686428470242172200,10.751172119140625,0.8971009850502014,-0.10806228965520859,0.9737313389778137
1686428470252118300,10.7611181640625,1.0049954652786255,-0.06173873320221901,1.1695442199707031
1686428470262064000,10.771064208984376,1.0761383771896362,-0.015015168115496635,1.4108213186264038
1686428470272010200,10.78101025390625,1.1113871335983276,0.01732918992638588,1.7296197414398193
1686428470281955300,10.790955322265624,1.0988894701004028,0.05155959725379944,1.9957475662231445
1686428470291901400,10.8009013671875,1.066383719444275,0.09409480541944504,2.145456075668335
1686428470301847300,10.810847412109375,1.033772587776184,0.16666461527347565,2.1606857776641846
1686428470311793400,10.82079345703125,1.0317003726959229,0.17012885212898254,1.9972422122955322
1686428470321738200,10.83073828125,1.010462999343872,0.18719331920146942,1.6872103214263916
1686428470331684400,10.840684326171875,0.9597246646881104,0.2108251452445984,1.2958201169967651
1686428470341630200,10.850630126953124,0.8807901740074158,0.19173134863376617,0.916401207447052
1686428470351576300,10.860576416015626,0.809718132019043,0.15643754601478577,0.6242377758026123
1686428470361522400,10.8705224609375,0.7570623755455017,0.13263633847236633,0.4711552858352661
1686428470371467300,10.88046728515625,0.7204979658126831,0.06986110657453537,0.474715918302536
1686428470381413000,10.8904130859375,0.7075473070144653,-0.01194134820252657,0.602745532989502
1686428470391359200,10.900359130859375,0.7120823860168457,-0.09204071015119553,0.7768001556396484
1686428470401305300,10.910305419921874,0.7274032831192017,-0.17483653128147125,0.9194337129592896
1686428470411251200,10.920251220703125,0.7536484599113464,-0.23713292181491852,0.9782176613807678
1686428470421196300,10.9301962890625,0.7797000408172607,-0.24275699257850647,0.9546796083450317
1686428470431142400,10.940142333984374,0.8132388591766357,-0.21294502913951874,0.8717458248138428
1686428470441088500,10.950088623046875,0.8707508444786072,-0.16321715712547302,0.7840819954872131
1686428470451034400,10.960034423828125,0.9368955492973328,-0.07045552134513855,0.7309485077857971
1686428470460979200,10.969979248046876,0.9734178781509399,0.005461610853672028,0.7183341979980469
1686428470470925300,10.97992529296875,0.9897768497467041,-0.015219166874885559,0.697864294052124
1686428470480871400,10.989871337890625,0.9842507839202881,-0.11057764291763306,0.6502006649971008
1686428470490817300,10.9998173828125,0.9635114073753357,-0.2444494217634201,0.5435266494750977
1686428470500763400,11.009763427734375,0.8710606098175049,-0.2883625626564026,0.4255254566669464
1686428470510708200,11.019708251953125,0.7654851675033569,-0.41540810465812683,0.30280327796936035
1686428470520654300,11.029654296875,0.6914823055267334,-0.49969983100891113,0.20466206967830658
1686428470530600200,11.03960009765625,0.5904281139373779,-0.4412575662136078,0.1541307121515274
1686428470540546300,11.04954638671875,0.48993080854415894,-0.3449834883213043,0.10694082826375961
1686428470550492200,11.0594921875,0.39312198758125305,-0.2420685589313507,0.03273051604628563
1686428470560437500,11.0694375,0.29218950867652893,-0.14988990128040314,-0.05867023766040802
1686428470570383400,11.07938330078125,0.1856130063533783,-0.0915517508983612,-0.13975603878498077
1686428470580329500,11.08932958984375,0.08312232047319412,-0.08506695926189423,-0.20600776374340057
1686428470590275300,11.099275390625,-0.008111190050840378,-0.11663633584976196,-0.26859763264656067
1686428470600220400,11.109220458984375,-0.08700600266456604,-0.17545092105865479,-0.32291120290756226
1686428470610166300,11.119166259765626,-0.16048261523246765,-0.23414964973926544,-0.35258761048316956
1686428470620112400,11.1291123046875,-0.22043463587760925,-0.3191750645637512,-0.36085325479507446
1686428470630058200,11.139058349609375,-0.2628965973854065,-0.4032236337661743,-0.3222006857395172
1686428470640004400,11.14900439453125,-0.2789176404476166,-0.5587629079818726,-0.22818949818611145
1686428470649949400,11.158949462890625,-0.22448983788490295,-0.8110010027885437,-0.038410771638154984
1686428470659895300,11.168895263671875,-0.08368238061666489,-0.9556617736816406,0.20588046312332153
1686428470669841400,11.17884130859375,0.06465009599924088,-0.8830738663673401,0.33569544553756714
1686428470679787500,11.18878759765625,0.12224867939949036,-0.6542025804519653,0.12192244082689285
1686428470689733400,11.1987333984375,0.025922143831849098,-0.4637729823589325,-0.41604116559028625
1686428470699678500,11.208678466796876,-0.1603665053844452,-0.29645031690597534,-0.9055871367454529
1686428470709624300,11.218624267578125,-0.3035193979740143,-0.11488503962755203,-1.092604398727417
1686428470719570400,11.2285703125,-0.34128543734550476,0.010371414013206959,-0.9897864460945129
1686428470729516300,11.238516357421876,-0.3772631287574768,0.15931588411331177,-0.7667847871780396
1686428470739462400,11.24846240234375,-0.5020556449890137,0.26802507042884827,-0.5917456150054932
1686428470749407200,11.2584072265625,-0.6941161751747131,0.2659667134284973,-0.5405846834182739
1686428470759353300,11.268353271484376,-0.8799986839294434,0.2231108397245407,-0.5970514416694641
1686428470769299200,11.27829931640625,-0.9906104207038879,0.2129354327917099,-0.6567413806915283
1686428470779245300,11.288245361328125,-0.9918102025985718,0.24785082042217255,-0.6591044068336487
1686428470789190400,11.2981904296875,-0.9131649136543274,0.29402709007263184,-0.6072350740432739
1686428470799136500,11.308136474609375,-0.8037630319595337,0.32100918889045715,-0.5371065735816956
1686428470809082400,11.318082275390625,-0.7019423842430115,0.3224174678325653,-0.4563574194908142
1686428470819028500,11.328028564453126,-0.614483654499054,0.2836911082267761,-0.3617906868457794
1686428470828974300,11.337974365234375,-0.5442259907722473,0.22865314781665802,-0.2684490382671356
1686428470838919400,11.34791943359375,-0.5027667284011841,0.16863667964935303,-0.21076682209968567
1686428470848865300,11.357865234375,-0.4841565489768982,0.09251608699560165,-0.21391281485557556
1686428470858811400,11.367811279296875,-0.4733164310455322,0.0024778051301836967,-0.28324422240257263
1686428470868757200,11.37775732421875,-0.4750368297100067,-0.13511121273040771,-0.41897088289260864
1686428470878703400,11.387703369140626,-0.4596698582172394,-0.15659067034721375,-0.559033989906311
1686428470888648200,11.397648193359375,-0.4607367217540741,-0.21348564326763153,-0.6897754669189453
1686428470898594300,11.40759423828125,-0.4566812515258789,-0.24275246262550354,-0.7768493890762329
1686428470908540200,11.4175400390625,-0.43290403485298157,-0.2638167440891266,-0.7967245578765869
1686428470918486300,11.427486328125,-0.39569512009620667,-0.2765181362628937,-0.738955557346344
1686428470928431400,11.437431396484374,-0.386965811252594,-0.29710811376571655,-0.6163542866706848
1686428470938377500,11.44737744140625,-0.37636643648147583,-0.3216345012187958,-0.4378487169742584
1686428470948323300,11.4573232421875,-0.35943540930747986,-0.292557030916214,-0.2542373538017273
1686428470958269400,11.46726953125,-0.3201489746570587,-0.2118009328842163,-0.10570059716701508
1686428470968215300,11.47721533203125,-0.2785471975803375,-0.12008566409349442,-0.03719796985387802
1686428470978160400,11.487160400390625,-0.24575623869895935,-0.1278197467327118,-0.057074204087257385
1686428470988106200,11.497106201171874,-0.23447854816913605,-0.11876633018255234,-0.15952974557876587
1686428470998052400,11.50705224609375,-0.23723278939723969,-0.0745442733168602,-0.29793769121170044
1686428471007998200,11.516998291015625,-0.24379615485668182,-0.016713732853531837,-0.4247627258300781
1686428471017944300,11.5269443359375,-0.2415822595357895,0.034323886036872864,-0.5004715919494629
1686428471027889200,11.53688916015625,-0.2340947836637497,0.07559702545404434,-0.5169339179992676
1686428471037835300,11.546835205078125,-0.2283972203731537,0.08002213388681412,-0.47586187720298767
1686428471047781000,11.556781005859374,-0.21717093884944916,0.07267154008150101,-0.39418113231658936
1686428471057727200,11.566727294921876,-0.2155461311340332,0.06023644283413887,-0.2853792905807495
1686428471067673300,11.57667333984375,-0.21718770265579224,0.06845548748970032,-0.17880569398403168
1686428471077618400,11.586618408203124,-0.21544280648231506,0.07052929699420929,-0.10212770104408264
1686428471087564300,11.596564208984375,-0.20769114792346954,0.049077797681093216,-0.07362096011638641
1686428471097510400,11.606510498046875,-0.21093301475048065,0.007951666601002216,-0.0899815559387207
1686428471107456500,11.61645654296875,-0.22482246160507202,-0.04735127091407776,-0.13038356602191925
1686428471117401300,11.6264013671875,-0.23579362034797668,-0.02310824953019619,-0.16106745600700378
1686428471127347200,11.63634716796875,-0.21530911326408386,-0.03893567994236946,-0.1545938402414322
1686428471137293300,11.646293212890624,-0.1832747459411621,0.008984173648059368,-0.12412328273057938
1686428471147239200,11.6562392578125,-0.1597185581922531,0.13790273666381836,-0.11129509657621384
1686428471157185300,11.666185302734375,-0.14459553360939026,0.19179819524288177,-0.12388385832309723
1686428471167130000,11.676130126953124,-0.13752643764019012,0.19980579614639282,-0.16168157756328583
1686428471177076500,11.686076416015625,-0.14190760254859924,0.2118736356496811,-0.21293917298316956
1686428471187022600,11.696022705078125,-0.1549738645553589,0.2291194647550583,-0.2605474293231964
1686428471196968400,11.705968505859374,-0.17856600880622864,0.25768426060676575,-0.2771189510822296
1686428471206914600,11.71591455078125,-0.21678131818771362,0.26915425062179565,-0.25966086983680725
1686428471216859600,11.725859619140625,-0.2686905860900879,0.23164574801921844,-0.21518367528915405
1686428471226805800,11.7358056640625,-0.3243274688720703,0.23995932936668396,-0.1582287847995758
1686428471236751600,11.745751708984375,-0.3659769296646118,0.24238814413547516,-0.09449108690023422
1686428471246697700,11.75569775390625,-0.3924785554409027,0.2163141965866089,-0.05229276418685913
1686428471256643600,11.7656435546875,-0.39183807373046875,0.14309696853160858,-0.06022685393691063
1686428471266588700,11.775588623046875,-0.3849964141845703,0.18308992683887482,-0.10807693749666214
1686428471276534500,11.785534423828125,-0.3452199697494507,0.11333587765693665,-0.15870974957942963
1686428471286480600,11.795480712890624,-0.3031518757343292,-0.0014775217277929187,-0.21583588421344757
1686428471296426500,11.805426513671875,-0.3073660731315613,-0.09505461156368256,-0.3046160936355591
1686428471306372600,11.81537255859375,-0.35483264923095703,-0.1358422487974167,-0.41993576288223267
1686428471316317400,11.8253173828125,-0.4186515808105469,-0.14545227587223053,-0.55858314037323
1686428471326263600,11.835263671875,-0.48746687173843384,-0.16139714419841766,-0.7030279040336609
1686428471336209400,11.84520947265625,-0.560914158821106,-0.18893396854400635,-0.8084763288497925
1686428471346155500,11.855155517578124,-0.636140763759613,-0.1878841519355774,-0.8292942643165588
1686428471356100600,11.8651005859375,-0.6790008544921875,-0.17552414536476135,-0.780491292476654
1686428471366046700,11.875046630859375,-0.6393610835075378,-0.15293468534946442,-0.6987999081611633
1686428471375992600,11.88499267578125,-0.5009453892707825,-0.060382649302482605,-0.6323010325431824
1686428471385938700,11.894938720703125,-0.3026174008846283,0.031206654384732246,-0.6185377836227417
1686428471395884500,11.904884521484375,-0.1529754400253296,0.09887252002954483,-0.628524124622345
1686428471405829600,11.91482958984375,-0.03485305607318878,0.18380099534988403,-0.6282570362091064
1686428471415775500,11.924775390625,0.0922287330031395,0.1537773162126541,-0.605663537979126
1686428471425721600,11.9347216796875,0.2251444309949875,0.1407288908958435,-0.5370288491249084
1686428471435667500,11.94466748046875,0.3371221125125885,0.0012412993237376213,-0.41710802912712097
1686428471445613600,11.954613525390625,0.42680805921554565,-0.18379539251327515,-0.2625024616718292
1686428471455558700,11.96455859375,0.5137749314308167,-0.28923314809799194,-0.06690526753664017
1686428471465504800,11.9745048828125,0.6035852432250977,-0.27514633536338806,0.18958404660224915
1686428471475450600,11.98445068359375,0.6677391529083252,-0.1923886239528656,0.46550750732421875
1686428471485396700,11.994396728515625,0.732379138469696,-0.09119835495948792,0.7324199080467224
1686428471495342600,12.004342529296874,0.800885796546936,-0.006311691831797361,0.9742088317871094
1686428471505287700,12.01428759765625,0.8625672459602356,0.0454242080450058,1.1737666130065918
1686428471515233500,12.024233642578125,0.89885413646698,0.056289639323949814,1.3607349395751953
1686428471525179600,12.0341796875,0.8939147591590881,0.017839716747403145,1.5361778736114502
1686428471535125500,12.04412548828125,0.8556931018829346,-0.05223630741238594,1.716791033744812
1686428471545071600,12.054071533203125,0.8222978711128235,-0.11081093549728394,1.88273024559021
1686428471555016400,12.064016357421876,0.8224999904632568,-0.15817232429981232,1.9482953548431396
1686428471564962600,12.073962646484375,0.8466939926147461,-0.01968475431203842,1.8993451595306396
1686428471574908400,12.083908447265625,0.9197676777839661,0.1298634558916092,1.7567096948623657
1686428471584854500,12.0938544921875,0.9948190450668335,0.2115018665790558,1.554282546043396
1686428471594800400,12.10380029296875,1.0221097469329834,0.2790316343307495,1.302555799484253
1686428471604745700,12.113745849609375,0.969230592250824,0.29474854469299316,1.042909860610962
1686428471614691600,12.123691650390626,0.8950327634811401,0.26530250906944275,0.8114745020866394
1686428471624637700,12.1336376953125,0.8514181971549988,0.24108824133872986,0.6370688676834106
1686428471634583600,12.14358349609375,0.8212160468101501,0.22593113780021667,0.5348154902458191
1686428471644529700,12.15352978515625,0.7925247550010681,0.16462969779968262,0.5097745656967163
1686428471654474500,12.163474609375,0.7534881830215454,0.09425140172243118,0.5534461736679077
1686428471664420600,12.173420654296875,0.7114898562431335,0.048233307898044586,0.6444674134254456
1686428471674366500,12.183366455078126,0.6760721802711487,0.0257535669952631,0.7469386458396912
1686428471684312600,12.1933125,0.6550297737121582,0.021313810721039772,0.8215590715408325
1686428471694258700,12.2032587890625,0.6600399613380432,0.02466406673192978,0.8589229583740234
1686428471704203500,12.21320361328125,0.6941614747047424,0.035890355706214905,0.8473515510559082
1686428471714149400,12.2231494140625,0.7504782676696777,0.018751850351691246,0.8030136227607727
1686428471724095500,12.233095458984375,0.8069630861282349,-0.019217636436223984,0.7436035871505737
1686428471734041600,12.24304150390625,0.8479853868484497,-0.07383241504430771,0.6927510499954224
1686428471743987500,12.252987548828125,0.8776609897613525,-0.17002366483211517,0.653101921081543
1686428471753932500,12.2629326171875,0.8532216548919678,-0.16643185913562775,0.6421067714691162
1686428471763878700,12.272878662109376,0.8109980821609497,-0.21757759153842926,0.6122913360595703
1686428471773824800,12.28282470703125,0.7587207555770874,-0.28011366724967957,0.5284435749053955
1686428471783770600,12.2927705078125,0.6958509683609009,-0.33182400465011597,0.3874334692955017
1686428471793716700,12.302716796875,0.6087765097618103,-0.3447541892528534,0.21424731612205505
1686428471803661600,12.31266162109375,0.5371529459953308,-0.36630210280418396,0.07310882955789566
1686428471813607700,12.322607666015625,0.43890705704689026,-0.31615984439849854,-0.02232900820672512
1686428471823553500,12.332553466796876,0.35106348991394043,-0.2640976905822754,-0.07370538264513016
1686428471833499600,12.342499755859375,0.26834648847579956,-0.21450191736221313,-0.11084449291229248
1686428471843445500,12.352445556640625,0.1930330991744995,-0.1850481480360031,-0.15346971154212952
1686428471853390600,12.362390625,0.11057977378368378,-0.17618700861930847,-0.22301070392131805
1686428471863336400,12.37233642578125,0.01486123725771904,-0.18786977231502533,-0.3077296018600464
1686428471873282600,12.382282470703124,-0.07657627016305923,-0.19646139442920685,-0.38404619693756104
1686428471883228400,12.392228515625,-0.17214086651802063,-0.19000615179538727,-0.43425557017326355
1686428471893174500,12.402174560546875,-0.2626025974750519,-0.20730657875537872,-0.45444685220718384
