time,seconds_elapsed,z,y,x
1686428459600216800,0.109216796875,0.39018285274505615,3.474313259124756,-0.023646311834454536
1686428459610163000,0.119162841796875,0.3355516791343689,3.20961856842041,-0.28690019249916077
1686428459620108800,0.12910888671875,0.2913147211074829,2.658768892288208,-0.5239162445068359
1686428459630054000,0.139053955078125,0.2119431495666504,2.049628973007202,-0.7159221768379211
1686428459639999700,0.148999755859375,0.05736956000328064,1.5711537599563599,-0.8777425289154053
1686428459649945900,0.15894580078125,-0.16897796094417572,1.3976333141326904,-1.0511929988861084
1686428459659892000,0.16889208984375,-0.4277120530605316,1.5960530042648315,-1.2400730848312378
1686428459669837000,0.178837158203125,-0.613617479801178,1.9759743213653564,-1.4491459131240845
1686428459679783000,0.188782958984375,-0.660688042640686,2.2373054027557373,-1.6335536241531372
1686428459689729000,0.19872900390625,-0.6802933216094971,2.1816964149475098,-1.7511012554168701
1686428459699673900,0.208673828125,-0.9060305953025818,1.7755573987960815,-1.9037775993347168
1686428459709620000,0.218619873046875,-0.9935564398765564,1.3721239566802979,-2.03340482711792
1686428459719565800,0.22856591796875,-0.8861055970191956,1.134214162826538,-2.1582729816436768
1686428459729512000,0.238511962890625,-0.6509682536125183,1.099951982498169,-2.3018178939819336
1686428459739456800,0.248456787109375,-0.4681667387485504,1.377741813659668,-2.5104548931121826
1686428459749403000,0.25840283203125,-0.5008252263069153,1.9007080793380737,-2.70733642578125
1686428459759349000,0.268348876953125,-0.6891573071479797,2.3351502418518066,-2.770409107208252
1686428459769295000,0.278295166015625,-0.8564983010292053,2.708775758743286,-2.7517166137695312
1686428459779240000,0.288239990234375,-0.950232744216919,3.068753242492676,-2.712991237640381
1686428459789186000,0.29818603515625,-1.0017166137695312,3.2289342880249023,-2.653696060180664
1686428459799132000,0.3081318359375,-1.04459810256958,3.113525867462158,-2.5490756034851074
1686428459809077000,0.318076904296875,-1.1061094999313354,2.9320881366729736,-2.4603872299194336
1686428459819022800,0.32802294921875,-1.1930476427078247,3.1977269649505615,-2.300368309020996
1686428459828969000,0.337968994140625,-1.304053783416748,3.694298267364502,-2.04349422454834
1686428459838914800,0.347914794921875,-1.475867509841919,4.340569019317627,-1.7100411653518677
1686428459848860000,0.35785986328125,-1.6732856035232544,5.007993698120117,-1.3159477710723877
1686428459858806000,0.367805908203125,-1.7775176763534546,5.669312477111816,-0.8924832940101624
1686428459868752100,0.377752197265625,-1.7442182302474976,6.270856857299805,-0.43000105023384094
1686428459878698000,0.387697998046875,-1.660819172859192,6.821808338165283,0.05894254893064499
1686428459888643000,0.39764306640625,-1.6785517930984497,7.3251776695251465,0.5901917815208435
1686428459898589000,0.4075888671875,-1.8462135791778564,7.641994476318359,1.1370383501052856
1686428459908535000,0.41753515625,-2.127232074737549,7.642568111419678,1.6333690881729126
1686428459918480000,0.42747998046875,-2.473628282546997,7.299808502197266,1.933075189590454
1686428459928426000,0.437426025390625,-2.913168430328369,6.646449565887451,1.8530837297439575
1686428459938371800,0.447371826171875,-3.3361315727233887,5.9172444343566895,1.4061815738677979
1686428459948318000,0.45731787109375,-3.7098934650421143,5.149434566497803,0.7821269631385803
1686428459958263000,0.467262939453125,-4.0062689781188965,4.47871208190918,0.21615681052207947
1686428459968209200,0.477209228515625,-4.143444061279297,3.9812891483306885,-0.14289239048957825
1686428459978155000,0.487155029296875,-4.116809368133545,3.497722864151001,-0.2784419655799866
1686428459988101000,0.49710107421875,-3.982280731201172,2.842736005783081,-0.2815256714820862
1686428459998046000,0.5070458984375,-3.8704171180725098,2.0605242252349854,-0.27992457151412964
1686428460007992000,0.516991943359375,-3.824368476867676,1.2790158987045288,-0.37773993611335754
1686428460017938000,0.52693798828125,-3.8581364154815674,0.6279624700546265,-0.5640195608139038
1686428460027883000,0.536883056640625,-3.949610710144043,0.17863598465919495,-0.7361699938774109
1686428460037828900,0.546828857421875,-4.060769081115723,-0.0418255478143692,-0.8116990923881531
1686428460047775000,0.55677490234375,-4.147365093231201,-0.06438034772872925,-0.7439107894897461
1686428460057720800,0.566720947265625,-4.151129245758057,0.06367535889148712,-0.5702713131904602
1686428460067666200,0.576666259765625,-4.062349319458008,0.16284415125846863,-0.31825873255729675
1686428460077612000,0.586612060546875,-3.915837049484253,0.11644763499498367,0.003524621482938528
1686428460087558100,0.59655810546875,-3.7364494800567627,-0.02899102307856083,0.35588711500167847
1686428460097503000,0.6065029296875,-3.565952777862549,-0.2444775104522705,0.7367958426475525
1686428460107449000,0.616448974609375,-3.4294381141662598,-0.4424547553062439,1.1361887454986572
1686428460117395000,0.62639501953125,-3.336737871170044,-0.5230523943901062,1.5402637720108032
1686428460127341000,0.636341064453125,-3.2566282749176025,-0.5593510270118713,1.9285813570022583
1686428460137286000,0.646285888671875,-3.10868763923645,-0.8115795254707336,2.2038846015930176
1686428460147232000,0.65623193359375,-2.851459503173828,-0.9624850749969482,2.1922051906585693
1686428460157177900,0.666177734375,-2.5794153213500977,-1.304532527923584,1.9559142589569092
1686428460167124000,0.6761240234375,-2.257280111312866,-1.7514740228652954,1.5807167291641235
1686428460177069300,0.6860693359375,-1.9899550676345825,-2.2933661937713623,1.1682186126708984
1686428460187015200,0.69601513671875,-1.7687029838562012,-2.8896617889404297,0.7564964294433594
1686428460196961300,0.705961181640625,-1.6035162210464478,-3.4982681274414062,0.40656185150146484
1686428460206906000,0.715906005859375,-1.4899592399597168,-3.888279914855957,0.17075255513191223
1686428460216852200,0.725852294921875,-1.4315845966339111,-4.018567085266113,0.14580325782299042
1686428460226798000,0.735798095703125,-1.3559486865997314,-3.8742306232452393,0.314256489276886
1686428460236744200,0.745744140625,-1.2064220905303955,-3.387449264526367,0.7334364652633667
1686428460246689000,0.75568896484375,-1.290263056755066,-4.35685920715332,0.4108736515045166
1686428460256635100,0.76563525390625,-1.4398623704910278,-5.090034484863281,-1.0437664985656738
1686428460266581000,0.7755810546875,-1.5505374670028687,-5.234847068786621,-2.0227463245391846
1686428460276527000,0.785527099609375,-1.6142761707305908,-5.038425445556641,-2.369539260864258
1686428460286472200,0.79547216796875,-1.570613980293274,-4.433677673339844,-2.3865838050842285
1686428460296418300,0.805418212890625,-1.38547682762146,-3.8138234615325928,-2.110297679901123
1686428460306364200,0.8153642578125,-1.3118122816085815,-3.2471470832824707,-1.708151936531067
1686428460316310300,0.825310302734375,-1.410927414894104,-2.701796293258667,-1.23473060131073
1686428460326255000,0.835255126953125,-1.7064893245697021,-1.7018277645111084,-0.7490953207015991
1686428460336201200,0.845201171875,-2.3120031356811523,-0.979192852973938,-0.3679167926311493
1686428460346147000,0.85514697265625,-2.618767499923706,-1.6154963970184326,-0.24096769094467163
1686428460356092200,0.865092041015625,-2.307126998901367,-1.6447397470474243,-0.515660285949707
1686428460366038000,0.8750380859375,-1.8431713581085205,-1.596186637878418,-0.7758601307868958
1686428460375984000,0.884984130859375,-1.3133445978164673,-1.3556619882583618,-0.7525255084037781
1686428460385930000,0.894929931640625,-0.9065188765525818,-0.6479902267456055,0.26950880885124207
1686428460395875300,0.904875244140625,-0.7111006379127502,-0.17994315922260284,2.0928988456726074
1686428460405821200,0.9148212890625,-0.5357284545898438,-0.5149935483932495,1.4595986604690552
1686428460415767300,0.924767333984375,-0.44258913397789,-0.8929850459098816,-0.09224952757358551
1686428460425713200,0.934713134765625,-0.41971784830093384,-1.3391547203063965,-0.9761319160461426
1686428460435658200,0.944658203125,-0.17379945516586304,-1.5528675317764282,-1.4480363130569458
1686428460445604000,0.95460400390625,0.17431358993053436,-1.6171455383300781,-1.7890573740005493
1686428460455550200,0.96455029296875,0.3103283941745758,-1.4080994129180908,-1.7393410205841064
1686428460465495000,0.9744951171875,0.41069698333740234,-1.2819873094558716,-1.4290122985839844
1686428460475441200,0.984441162109375,0.3652690052986145,-1.127062439918518,-1.2909774780273438
1686428460485387000,0.994386962890625,0.11134364455938339,-0.9076864123344421,-1.2043384313583374
1686428460495333000,1.0043330078125,-0.09867323935031891,-0.47919946908950806,-1.1531023979187012
1686428460505278200,1.0142783203125,-0.13945256173610687,0.18508918583393097,-1.1061140298843384
1686428460515224300,1.024224365234375,-0.11622979491949081,0.8593094348907471,-1.0656830072402954
1686428460525170200,1.034170166015625,-0.05677816644310951,1.2711538076400757,-0.8586059212684631
1686428460535116300,1.0441162109375,0.09321106225252151,1.6625620126724243,-0.8111984729766846
1686428460545061000,1.05406103515625,0.29467618465423584,1.6932491064071655,-0.5795812606811523
1686428460555007200,1.06400732421875,0.3190254867076874,1.4264520406723022,-0.36209794878959656
1686428460564953000,1.073953125,0.14012432098388672,1.0664490461349487,-0.38902583718299866
1686428460574899200,1.083899169921875,0.004482600837945938,0.6618947386741638,-0.4234069883823395
1686428460584844000,1.093843994140625,-0.05275332182645798,0.4331381022930145,-0.35367724299430847
1686428460594790100,1.1037900390625,-0.07066094875335693,0.4702564477920532,-0.24668234586715698
1686428460604736000,1.113736083984375,-0.031234927475452423,0.6420524716377258,-0.1395704597234726
1686428460614681000,1.12368115234375,0.08484400808811188,0.986854076385498,-0.10677976161241531
1686428460624627200,1.133627197265625,0.2435494214296341,1.5141452550888062,-0.18826591968536377
1686428460634573300,1.1435732421875,0.4121120870113373,1.905364751815796,-0.16206094622612
1686428460644519200,1.153519287109375,0.5043728351593018,1.9749709367752075,-0.0008847257122397423
1686428460654464000,1.163464111328125,0.48061829805374146,1.8127621412277222,0.05506908893585205
1686428460664410000,1.17341015625,0.42638909816741943,1.4120930433273315,-0.0936911404132843
1686428460674356200,1.183356201171875,0.5678290724754333,1.1400172710418701,-0.4361906945705414
1686428460684302000,1.193302001953125,1.0236610174179077,0.99696946144104,-0.8457089066505432
1686428460694247000,1.203246826171875,1.5752460956573486,0.4588807225227356,-1.1558647155761719
1686428460704193000,1.213193115234375,1.83892023563385,-0.015022148378193378,-1.2462937831878662
1686428460714139100,1.22313916015625,1.6259840726852417,-0.40809059143066406,-1.2672216892242432
1686428460724084200,1.233084228515625,1.0827556848526,-0.7420991659164429,-1.3806744813919067
1686428460734030000,1.243030029296875,0.6260059475898743,-0.9601686000823975,-1.5562965869903564
1686428460743976200,1.25297607421875,0.632933497428894,-0.8966264724731445,-1.4480847120285034
1686428460753922300,1.26292236328125,0.6896649599075317,-0.5828986763954163,-1.3485379219055176
1686428460763867100,1.2728671875,0.6043071746826172,0.13994435966014862,-0.8514118194580078
1686428460773813000,1.28281298828125,0.5831574201583862,0.8719930052757263,-0.08817489445209503
1686428460783759000,1.292759033203125,0.7547058463096619,1.305981993675232,0.7182050347328186
1686428460793705200,1.302705322265625,0.9540107250213623,1.5956943035125732,1.401388168334961
1686428460803650000,1.312650146484375,1.0385605096817017,1.8212989568710327,1.8736907243728638
1686428460813596000,1.322595947265625,0.9085727334022522,1.7369699478149414,1.9573060274124146
1686428460823542000,1.3325419921875,0.6668077111244202,1.3084352016448975,1.6926779747009277
1686428460833488100,1.342488037109375,0.39844149351119995,0.6953502297401428,1.2418797016143799
1686428460843433200,1.35243310546875,-0.12441154569387436,0.13431239128112793,0.7942346334457397
1686428460853379000,1.362379150390625,-0.8594083189964294,-0.20692004263401031,0.4146977365016937
1686428460863325200,1.3723251953125,-1.5185295343399048,-0.37430211901664734,0.17696744203567505
1686428460873271300,1.382271240234375,-1.801252007484436,-0.5456511974334717,0.061757225543260574
1686428460883216100,1.392216064453125,-1.9055932760238647,-0.6005734205245972,-0.023572275415062904
1686428460893162000,1.402161865234375,-1.7590501308441162,-0.5871739983558655,0.07812931388616562
1686428460903108000,1.412108154296875,-1.7371621131896973,-0.36553293466567993,0.4741467535495758
1686428460913053000,1.422052978515625,-1.7019312381744385,-0.04667159542441368,0.2669861316680908
1686428460922999000,1.4319990234375,-1.5904395580291748,-0.3431089222431183,-0.032904013991355896
1686428460932945000,1.44194482421875,-1.4969301223754883,-0.4373331367969513,0.4694741666316986
1686428460942891000,1.45189111328125,-1.652793288230896,-0.12201114743947983,2.4831559658050537
1686428460952836000,1.461836181640625,-1.4472547769546509,-0.3385101556777954,0.44842052459716797
1686428460962782200,1.4717822265625,-1.693272590637207,-1.2573866844177246,-0.6701407432556152
1686428460972728000,1.48172802734375,-1.538543462753296,-1.6421774625778198,-0.6521143317222595
1686428460982674200,1.491674072265625,-1.1195143461227417,-1.7734383344650269,-0.26081350445747375
1686428460992619000,1.501618896484375,-0.8069586157798767,-1.4223591089248657,0.12931641936302185
1686428461002565000,1.511565185546875,-0.47207123041152954,-1.0778948068618774,0.13045668601989746
1686428461012511000,1.521510986328125,-0.16224998235702515,-0.9216545224189758,-0.024410396814346313
1686428461022457000,1.53145703125,-0.030236002057790756,-0.9852263927459717,0.047862209379673004
1686428461032402000,1.54140185546875,-0.03000617027282715,-0.934705376625061,0.09748062491416931
1686428461042348000,1.55134814453125,0.055843286216259,-0.7554653882980347,0.045207418501377106
1686428461052294000,1.5612939453125,0.22262321412563324,-0.4841936528682709,0.062100913375616074
1686428461062240000,1.571239990234375,0.40185678005218506,-0.21063768863677979,0.10163329541683197
1686428461072185000,1.58118505859375,0.5609571933746338,-0.07383989542722702,0.135273277759552
1686428461082131200,1.591131103515625,0.546734094619751,0.019000548869371414,0.12989060580730438
1686428461092077000,1.6010771484375,0.4559776186943054,0.08830691874027252,0.006008610129356384
1686428461102022100,1.611022216796875,0.37119606137275696,0.1447151005268097,-0.1517086625099182
1686428461111968000,1.620968017578125,0.3215020000934601,0.20602931082248688,-0.2605411410331726
1686428461121914000,1.6309140625,0.11799720674753189,0.27421337366104126,-0.30687206983566284
1686428461131860000,1.64085986328125,-0.0960082933306694,0.29349732398986816,-0.36306822299957275
1686428461141805000,1.65080517578125,-0.20585763454437256,0.24427080154418945,-0.4401404559612274
1686428461151751200,1.660751220703125,-0.19968868792057037,0.1888919621706009,-0.541214644908905
1686428461161697000,1.670697021484375,-0.1381833702325821,0.28697627782821655,-0.7560939788818359
1686428461171643100,1.68064306640625,-0.14804159104824066,0.4415469169616699,-1.1162375211715698
1686428461181588200,1.690588134765625,-0.1648765504360199,0.45237505435943604,-1.39780592918396
1686428461191534000,1.7005341796875,-0.09675821661949158,0.2719767987728119,-1.5130012035369873
1686428461201480200,1.710480224609375,-0.004358204547315836,-0.16305969655513763,-1.7027270793914795
1686428461211426000,1.720426025390625,0.05557357147336006,-0.6236099600791931,-1.9223861694335938
1686428461221371100,1.73037109375,0.26365742087364197,-0.933869481086731,-2.061697006225586
1686428461231317000,1.74031689453125,0.4452213644981384,-1.1020723581314087,-2.10180401802063
1686428461241263000,1.75026318359375,0.7767184972763062,-0.8634234070777893,-1.958020806312561
1686428461251209000,1.760208984375,0.8854337930679321,-0.5123551487922668,-1.605569839477539
1686428461261154000,1.770154052734375,0.8791383504867554,-0.13277271389961243,-1.3429712057113647
1686428461271100200,1.78010009765625,1.0107941627502441,-0.016193360090255737,-1.0580012798309326
1686428461281046300,1.79004638671875,1.0334866046905518,-0.012016349472105503,-0.7247941493988037
1686428461290991000,1.7999912109375,0.948835551738739,0.035905636847019196,-0.3988400101661682
1686428461300937200,1.809937255859375,0.8604587316513062,-0.030004825443029404,-0.0499868243932724
1686428461310883000,1.819883056640625,0.6480804085731506,-0.24807246029376984,0.1784958839416504
1686428461320829200,1.8298291015625,0.45982107520103455,-0.3976121246814728,0.45588016510009766
1686428461330774000,1.83977392578125,0.3398504853248596,-0.20800304412841797,0.7134975790977478
1686428461340720000,1.84972021484375,0.13410720229148865,-0.06445550918579102,0.9335008263587952
1686428461350666000,1.859666015625,-0.19642144441604614,0.03397146239876747,1.1486752033233643
1686428461360612000,1.869612060546875,-0.5217095613479614,0.26455703377723694,1.1814922094345093
1686428461370557200,1.87955712890625,-0.7179763317108154,0.35390716791152954,0.8980229496955872
1686428461380503300,1.88950341796875,-0.9875165820121765,0.32468152046203613,0.4171450436115265
1686428461390449200,1.89944921875,-1.3910422325134277,0.20340220630168915,-0.14962968230247498
1686428461400395300,1.909395263671875,-1.5522215366363525,-0.041087761521339417,-0.8345634937286377
1686428461410340000,1.919340087890625,-1.5492342710494995,-0.3169981837272644,-1.5075492858886719
1686428461420286200,1.9292861328125,-1.7115511894226074,-0.5219033360481262,-1.9773162603378296
1686428461430232000,1.939232177734375,-1.75623619556427,-0.5079747438430786,-2.138664960861206
1686428461440177200,1.94917724609375,-1.565657138824463,-0.28167417645454407,-1.9228943586349487
1686428461450123000,1.959123046875,-1.4097024202346802,0.11449791491031647,-1.319525957107544
1686428461460069000,1.969069091796875,-1.2306157350540161,0.6461339592933655,-0.6049981117248535
1686428461470015000,1.979014892578125,-0.9527521133422852,0.7261424660682678,-0.04614787548780441
1686428461479960300,1.988960205078125,-0.5502347946166992,-0.5817204117774963,0.42089560627937317
1686428461489906200,1.99890625,-0.4502885043621063,-0.3864550292491913,0.8750247955322266
1686428461499852300,2.008852294921875,-0.777616024017334,1.0057673454284668,2.39839768409729
1686428461509798100,2.018798095703125,-0.8883300423622131,0.4083273708820343,3.4752085208892822
1686428461519743200,2.0287431640625,-0.6978939175605774,-0.5473594665527344,3.407325029373169
1686428461529689000,2.038689208984375,-0.5049641132354736,-0.5252872109413147,3.2007415294647217
1686428461539635200,2.04863525390625,-0.2257441282272339,-0.5503986477851868,3.016258716583252
1686428461549581000,2.0585810546875,0.3186856210231781,-0.8402515053749084,2.584214210510254
1686428461559526100,2.068526123046875,0.9827532172203064,-0.6247283220291138,2.2802672386169434
1686428461569472000,2.078471923828125,1.6601258516311646,-0.15295681357383728,2.464236259460449
1686428461579418000,2.088418212890625,1.6220123767852783,0.05315573140978813,2.129470109939575
1686428461589364000,2.098364013671875,1.3437412977218628,0.3558386266231537,1.5164923667907715
1686428461599309300,2.108309326171875,0.8648087382316589,0.09221696853637695,0.7524500489234924
1686428461609255200,2.118255126953125,0.46903616189956665,-0.010743765160441399,0.1918724775314331
1686428461619201300,2.128201171875,0.4441521167755127,0.1075141653418541,0.05693730339407921
1686428461629146000,2.13814599609375,0.5904616117477417,0.2780643403530121,0.0823739543557167
1686428461639092200,2.14809228515625,0.5130521655082703,0.44787678122520447,0.13522447645664215
1686428461649038000,2.1580380859375,0.23647356033325195,0.6887267231941223,0.160285085439682
1686428461658984200,2.167984130859375,0.19664207100868225,0.9148876667022705,0.09943588078022003
1686428461668929000,2.177928955078125,0.30906128883361816,0.9701123237609863,0.0542319193482399
1686428461678875100,2.187875244140625,0.4439135193824768,0.9407296180725098,0.07686521112918854
1686428461688821000,2.197821044921875,0.5178369879722595,1.083233118057251,0.11808241903781891
1686428461698767000,2.20776708984375,0.533793032169342,1.3447511196136475,0.09300476312637329
1686428461708712200,2.217712158203125,0.5734624266624451,1.3050918579101562,0.02085600607097149
1686428461718658300,2.227658203125,0.6337355971336365,1.3654210567474365,-0.11319243907928467
1686428461728604200,2.237604248046875,0.710441529750824,0.789823055267334,-0.058595240116119385
1686428461738550300,2.24755029296875,0.6740346550941467,0.08044290542602539,0.18919281661510468
1686428461748495000,2.2574951171875,0.5305589437484741,-0.19988569617271423,0.5222970247268677
1686428461758441200,2.267441162109375,0.40174591541290283,-0.2277435064315796,0.746631383895874
1686428461768387000,2.277386962890625,0.34219762682914734,-0.17875999212265015,0.7661265134811401
1686428461778333200,2.287333251953125,0.2742326557636261,-0.06905007362365723,0.5906835794448853
1686428461788278000,2.297278076171875,0.14486293494701385,-0.016505371779203415,0.19580362737178802
1686428461798224100,2.30722412109375,0.010975626297295094,0.1627078503370285,-0.21059301495552063
1686428461808170000,2.317169921875,0.007357989437878132,0.32263946533203125,-0.5000035166740417
1686428461818115300,2.327115234375,0.043301425874233246,0.45970940589904785,-0.6189771890640259
1686428461828061200,2.337061279296875,0.12458695471286774,0.4998709261417389,-0.525043785572052
1686428461838007300,2.34700732421875,0.2444515824317932,0.3945070505142212,-0.2622363865375519
1686428461847953200,2.356953125,0.2645328938961029,0.14392250776290894,0.023452885448932648
1686428461857898200,2.366898193359375,0.20635797083377838,-0.10015245527029037,0.22929930686950684
1686428461867844000,2.376843994140625,0.13847506046295166,-0.2980511486530304,0.2933240830898285
1686428461877790200,2.386790283203125,0.0793873742222786,-0.3634764850139618,0.23987747728824615
1686428461887736000,2.396736083984375,0.01750829815864563,-0.28706827759742737,0.08600030094385147
1686428461897681200,2.40668115234375,-0.05345834046602249,-0.18738989531993866,-0.0987858697772026
1686428461907627000,2.416626953125,-0.09130878001451492,-0.09078904986381531,-0.23851419985294342
1686428461917573000,2.426572998046875,-0.1675107777118683,-0.013329615816473961,-0.3229653537273407
1686428461927519000,2.43651904296875,-0.2768002450466156,0.10314346849918365,-0.39598894119262695
1686428461937464300,2.44646435546875,-0.4075957238674164,0.18277186155319214,-0.4941948354244232
1686428461947410200,2.45641015625,-0.33792397379875183,-0.05365532636642456,-0.0939403548836708
1686428461957356300,2.466356201171875,-0.1750892549753189,0.2456517517566681,0.30148765444755554
1686428461967301000,2.476301025390625,-0.16813308000564575,0.2669117748737335,0.3682571053504944
1686428461977247000,2.4862470703125,-0.09530565142631531,-0.22986091673374176,0.17066025733947754
1686428461987193000,2.496193115234375,0.13509373366832733,-0.6798821091651917,-0.0908304750919342
1686428461997139200,2.50613916015625,0.25541430711746216,-0.7925316691398621,-0.3111684322357178
1686428462007084000,2.516083984375,0.18376009166240692,-0.6858757734298706,-0.4864262640476227
1686428462017030000,2.52602978515625,-0.014437755569815636,-0.5485449433326721,-0.5950016975402832
1686428462026976000,2.53597607421875,-0.28489187359809875,-0.48663100600242615,-0.5012882947921753
1686428462036922000,2.545922119140625,-0.5514225959777832,-0.3833691477775574,-0.26175400614738464
1686428462046867200,2.5558671875,-0.7350710034370422,-0.053461022675037384,0.011693797074258327
1686428462056813000,2.56581298828125,-0.8875371813774109,0.2937466502189636,0.0550578311085701
1686428462066759200,2.57575927734375,-1.0261151790618896,0.25697025656700134,0.04446617141366005
1686428462076705300,2.585705322265625,-1.196266531944275,0.33919593691825867,0.015852712094783783
1686428462086650000,2.595650146484375,-1.3026890754699707,0.33614739775657654,-0.2245175540447235
1686428462096596000,2.605595947265625,-1.3629461526870728,0.2931435704231262,-0.5626137852668762
1686428462106542000,2.6155419921875,-1.4006538391113281,0.3389216959476471,-0.9509530067443848
1686428462116488200,2.62548828125,-1.4360932111740112,0.4468013048171997,-1.2233160734176636
1686428462126433000,2.63543310546875,-1.393416404724121,0.5740184187889099,-1.3471956253051758
1686428462136379000,2.64537890625,-1.3143458366394043,0.6654199361801147,-1.2419061660766602
1686428462146325000,2.655324951171875,-1.2222962379455566,0.6976069211959839,-0.9580271244049072
1686428462156271000,2.66527099609375,-1.102805733680725,0.6365776062011719,-0.7467074990272522
1686428462166216000,2.6752158203125,-0.9773793816566467,0.581725537776947,-0.6092183589935303
1686428462176162000,2.685162109375,-0.8851789832115173,0.42274847626686096,-0.6819698810577393
1686428462186108000,2.69510791015625,-0.7899592518806458,0.1861487329006195,-0.7307547330856323
1686428462196054000,2.705053955078125,-0.6982992887496948,0.05645524710416794,-0.7916688323020935
1686428462205998800,2.714998779296875,-0.6690268516540527,0.037595540285110474,-0.869043231010437
1686428462215945000,2.724945068359375,-0.6270031332969666,-0.00025745853781700134,-0.925100564956665
1686428462225890800,2.734890869140625,-0.5947527289390564,0.008132297545671463,-0.9299589395523071
1686428462235836000,2.7448359375,-0.6031489968299866,0.05861026793718338,-0.851431131362915
1686428462245782000,2.754781982421875,-0.6213109493255615,0.08050277829170227,-0.7009390592575073
1686428462255728000,2.76472802734375,-0.6233848333358765,-0.040320705622434616,-0.5124194622039795
1686428462265674000,2.774674072265625,-0.6236061453819275,-0.26599085330963135,-0.2795339524745941
1686428462275619000,2.784619140625,-0.6382997632026672,-0.4963274598121643,-0.05008680745959282
1686428462285565000,2.79456494140625,-0.6640216708183289,-0.7275385856628418,0.16017483174800873
1686428462295511000,2.804510986328125,-0.661001443862915,-1.0002802610397339,0.2912858724594116
1686428462305457000,2.814456787109375,-0.3399493992328644,-1.1856627464294434,0.28023961186408997
1686428462315402000,2.824402099609375,0.34338879585266113,-1.071210503578186,0.2123730480670929
1686428462325347800,2.834347900390625,0.7276853322982788,-0.6435217261314392,0.054523490369319916
1686428462335294000,2.8442939453125,0.6066216826438904,-0.2217770218849182,-0.18367210030555725
1686428462345239800,2.85423974609375,0.26000887155532837,-0.09950704872608185,-0.4029378592967987
1686428462355185200,2.86418505859375,-0.02581866830587387,-0.2270374298095703,-0.5383445024490356
1686428462365131000,2.874131103515625,-0.1120624840259552,-0.38452717661857605,-0.5139398574829102
1686428462375077000,2.8840771484375,-0.0547492578625679,-0.4296397864818573,-0.35809895396232605
1686428462385023000,2.89402294921875,-0.009162330068647861,-0.4520827829837799,-0.12095911800861359
1686428462394968000,2.903968017578125,-0.02034672349691391,-0.38652804493904114,0.10460324585437775
1686428462404914000,2.913913818359375,-0.060100529342889786,-0.2723016142845154,0.28153011202812195
1686428462414860000,2.923860107421875,-0.11188101768493652,-0.18036919832229614,0.37898433208465576
1686428462424804900,2.933804931640625,-0.15495604276657104,-0.11341492086648941,0.40289124846458435
1686428462434751000,2.9437509765625,-0.20044615864753723,-0.09611867368221283,0.3578241169452667
1686428462444696800,2.95369677734375,-0.2790490686893463,-0.13498111069202423,0.2525176703929901
1686428462454643000,2.963642822265625,-0.4005967974662781,-0.13312557339668274,0.09696267545223236
1686428462464588000,2.973588134765625,-0.48001042008399963,-0.11042745411396027,-0.04008146747946739
1686428462474534100,2.9835341796875,-0.49048128724098206,0.04194781556725502,-0.13447602093219757
1686428462484480000,2.99347998046875,-0.4397778809070587,0.19386011362075806,-0.18969932198524475
1686428462494426000,3.003426025390625,-0.38019847869873047,0.25597161054611206,-0.222223699092865
1686428462504371000,3.013370849609375,-0.3234899342060089,0.27758315205574036,-0.2503517270088196
1686428462514317000,3.023317138671875,-0.27727508544921875,0.26144707202911377,-0.2805776298046112
1686428462524263000,3.033262939453125,-0.2520597577095032,0.2367078810930252,-0.3364478051662445
1686428462534209000,3.043208984375,-0.24075165390968323,0.23477891087532043,-0.41647204756736755
1686428462544153900,3.05315380859375,-0.21723169088363647,0.2559659481048584,-0.4884676933288574
1686428462554100000,3.063099853515625,-0.16732090711593628,0.24597559869289398,-0.5157285928726196
1686428462564045800,3.0730458984375,-0.1468702256679535,0.1776902824640274,-0.49155673384666443
1686428462573992000,3.082991943359375,-0.18599513173103333,0.09225916117429733,-0.4588271677494049
1686428462583937000,3.09293701171875,-0.25282609462738037,0.07227560132741928,-0.4392974078655243
1686428462593883100,3.102883056640625,-0.2827048897743225,0.0810738131403923,-0.46490734815597534
1686428462603829000,3.1128291015625,-0.2222021222114563,0.09522984176874161,-0.5461212396621704
1686428462613775000,3.122775146484375,-0.11617426574230194,0.05162695422768593,-0.6394480466842651
1686428462623720000,3.132719970703125,-0.05178382992744446,0.057678189128637314,-0.6810263991355896
1686428462633666000,3.142666015625,-0.04898412898182869,0.14901265501976013,-0.6590524911880493
1686428462643612000,3.15261181640625,-0.06290526688098907,0.263896107673645,-0.6140890121459961
1686428462653557000,3.162556884765625,-0.02728983573615551,0.3928948640823364,-0.5957551002502441
1686428462663502800,3.1725029296875,0.058680459856987,0.499735027551651,-0.6070040464401245
1686428462673449000,3.182448974609375,0.16934353113174438,0.6344953775405884,-0.5947638750076294
1686428462683394800,3.192394775390625,0.28372922539711,0.8080772757530212,-0.4988666772842407
1686428462693340200,3.202340087890625,0.39060497283935547,0.9108009338378906,-0.3337755501270294
1686428462703286000,3.2122861328125,0.4857000708580017,0.8571688532829285,-0.1308421641588211
1686428462713232100,3.222232177734375,0.5515207648277283,0.6991271376609802,0.08462254703044891
1686428462723178000,3.232177978515625,0.6031919121742249,0.5306976437568665,0.3060939311981201
1686428462733123000,3.242123046875,0.667313814163208,0.4273422360420227,0.5326913595199585
1686428462743069000,3.25206884765625,0.7602245807647705,0.3764854371547699,0.7637647390365601
1686428462753015000,3.26201513671875,0.863979697227478,0.35576319694519043,0.9988629817962646
1686428462762961000,3.2719609375,0.9417479634284973,0.3384723365306854,1.243445873260498
1686428462772906000,3.281906005859375,0.9757004976272583,0.34777554869651794,1.5191872119903564
1686428462782851800,3.291851806640625,0.9603180289268494,0.4057331085205078,1.8362271785736084
1686428462792798000,3.3017978515625,0.9231729507446289,0.4759482145309448,2.0903868675231934
1686428462802743800,3.311743896484375,0.8922102451324463,0.5935169458389282,2.2318639755249023
1686428462812689200,3.321689208984375,0.8703203797340393,0.7562288045883179,2.265685796737671
1686428462822635000,3.331635009765625,0.851872444152832,0.9084564447402954,2.1880290508270264
1686428462832581000,3.3415810546875,0.8601974844932556,0.9238552451133728,1.9919440746307373
1686428462842527000,3.35152685546875,0.8828279376029968,0.8235584497451782,1.7006096839904785
1686428462852472000,3.36147216796875,0.9058898091316223,0.7121255993843079,1.3626381158828735
1686428462862418000,3.37141796875,0.9358375668525696,0.6964843273162842,1.0234997272491455
1686428462872364000,3.381364013671875,0.9795414805412292,0.6279582977294922,0.7669536471366882
1686428462882310000,3.391309814453125,1.0174835920333862,0.7064743638038635,0.6721121072769165
1686428462892255000,3.4012548828125,1.0598701238632202,0.6609119772911072,0.7242919206619263
1686428462902200800,3.411200927734375,1.1025885343551636,0.585755467414856,0.8918638825416565
1686428462912147000,3.42114697265625,1.1428558826446533,0.5107716917991638,1.08070707321167
1686428462922092800,3.4310927734375,1.1775814294815063,0.45339125394821167,1.2180614471435547
1686428462932038100,3.4410380859375,1.191309928894043,0.4479736387729645,1.2823717594146729
1686428462941984000,3.45098388671875,1.2042912244796753,0.549073338508606,1.2765939235687256
1686428462951930000,3.46093017578125,1.1976090669631958,0.6305184364318848,1.2196826934814453
1686428462961876000,3.4708759765625,1.2094212770462036,0.7299680709838867,1.1459016799926758
1686428462971821000,3.480821044921875,1.2111002206802368,0.7550510168075562,1.0918151140213013
1686428462981767000,3.490766845703125,1.191502571105957,0.6680071949958801,1.06329345703125
1686428462991713000,3.500713134765625,1.163684368133545,0.5792044997215271,1.0503884553909302
1686428463001659000,3.510658935546875,1.135158658027649,0.4901081621646881,1.0423758029937744
1686428463011604000,3.52060400390625,1.106429100036621,0.4387960135936737,1.0160728693008423
1686428463021549800,3.5305498046875,1.0651841163635254,0.41528910398483276,0.9938855767250061
1686428463031496000,3.540495849609375,1.01611328125,0.4428952932357788,0.9216231107711792
1686428463041441800,3.55044189453125,0.944148600101471,0.4835492670536041,0.8558616638183594
1686428463051387000,3.560386962890625,0.8622522354125977,0.4381677508354187,0.7115994691848755
1686428463061333000,3.5703330078125,0.7371963262557983,0.5067697167396545,0.558326780796051
1686428463071279000,3.580279052734375,0.5974413752555847,0.42934438586235046,0.3376876413822174
1686428463081225000,3.590224853515625,0.4560328722000122,0.4004270136356354,0.12197265028953552
1686428463091169800,3.600169677734375,0.3217993974685669,0.3915064036846161,-0.0555233359336853
1686428463101116000,3.610115966796875,0.23714680969715118,0.39188164472579956,-0.15719005465507507
1686428463111062000,3.62006201171875,0.1671423614025116,0.37136027216911316,-0.1790837198495865
1686428463121007900,3.6300078125,0.094336599111557,0.2886259853839874,-0.16112229228019714
1686428463130953000,3.639952880859375,0.025426987558603287,0.17502693831920624,-0.127182736992836
1686428463140898800,3.64989892578125,-0.03532504290342331,0.06664375215768814,-0.1129571944475174
1686428463150845000,3.659844970703125,-0.09488558769226074,0.03482900187373161,-0.11982258409261703
1686428463160790000,3.6697900390625,-0.18340159952640533,0.046938393265008926,-0.17384666204452515
1686428463170736400,3.679736328125,-0.2858981490135193,0.09894503653049469,-0.25597670674324036
1686428463180682500,3.6896826171875,-0.4211640954017639,0.19864234328269958,-0.3544854521751404
1686428463190628400,3.69962841796875,-0.5419243574142456,0.3269549310207367,-0.43887466192245483
1686428463200573400,3.709573486328125,-0.643581211566925,0.44117364287376404,-0.5122876167297363
1686428463210519300,3.719519287109375,-0.7177725434303284,0.5336105823516846,-0.5649197101593018
1686428463220465400,3.72946533203125,-0.7927162647247314,0.5682013034820557,-0.5822659730911255
1686428463230411300,3.739411376953125,-0.8602274060249329,0.4841609299182892,-0.5247601270675659
1686428463240356400,3.7493564453125,-0.8556941747665405,0.3128810524940491,-0.35508212447166443
1686428463250302200,3.75930224609375,-0.7441690564155579,0.06430638581514359,-0.11406664550304413
1686428463260248300,3.769248291015625,-0.5598231554031372,-0.17519141733646393,0.10012874007225037
1686428463270194200,3.779194091796875,-0.37066376209259033,-0.2060215175151825,0.1094084084033966
1686428463280139500,3.789139404296875,-0.22421012818813324,0.038041748106479645,-0.2026328444480896
1686428463290085400,3.79908544921875,-0.10703951865434647,0.36529341340065,-0.661234974861145
1686428463300031500,3.809031494140625,-0.07834821939468384,0.5306762456893921,-0.9975525736808777
1686428463309977300,3.818977294921875,-0.2711544930934906,0.4972296357154846,-1.1152760982513428
1686428463319923500,3.82892333984375,-0.5614121556282043,0.4281882643699646,-1.166841745376587
1686428463329868300,3.838868408203125,-0.7795892357826233,0.4085029065608978,-1.1687710285186768
1686428463339814400,3.848814453125,-0.90752774477005,0.4803693890571594,-1.0993890762329102
1686428463349760300,3.85876025390625,-1.019335389137268,0.6258383393287659,-1.0326526165008545
1686428463359705000,3.868705078125,-1.120592713356018,0.6317196488380432,-0.9614543914794922
1686428463369651200,3.878651123046875,-1.1688629388809204,0.48798057436943054,-0.8137344121932983
1686428463379597300,3.888597412109375,-1.1627382040023804,0.3187564015388489,-0.610977828502655
1686428463389543200,3.898543212890625,-1.1146281957626343,0.17135098576545715,-0.44375166296958923
1686428463399488300,3.90848828125,-1.0061248540878296,-0.013210329227149487,-0.38310402631759644
1686428463409434400,3.918434326171875,-0.8420928716659546,-0.1691451072692871,-0.3976879119873047
1686428463419380500,3.92838037109375,-0.6664509773254395,-0.23119649291038513,-0.4438311755657196
1686428463429326300,3.938326416015625,-0.5160094499588013,-0.22443458437919617,-0.4988340735435486
1686428463439271200,3.948271240234375,-0.4159393012523651,-0.15677911043167114,-0.539364218711853
1686428463449217300,3.95821728515625,-0.4011264443397522,-0.0843544602394104,-0.5793706774711609
1686428463459163400,3.968163330078125,-0.4658833146095276,-0.048035599291324615,-0.6174523234367371
1686428463469109200,3.978109130859375,-0.5708922147750854,-0.06197710707783699,-0.632055938243866
1686428463479054300,3.988054443359375,-0.6736180782318115,-0.008718147873878479,-0.6123509407043457
1686428463489000400,3.99800048828125,-0.7450682520866394,0.07640007883310318,-0.5544524788856506
1686428463498946300,4.0079462890625,-0.7741941809654236,0.13886132836341858,-0.49981820583343506
1686428463508892400,4.017892333984375,-0.7855437994003296,0.20313508808612823,-0.47309479117393494
1686428463518837200,4.027837158203125,-0.7537370920181274,0.2636713981628418,-0.4995652735233307
1686428463528783400,4.037783447265625,-0.6553189754486084,0.2646363377571106,-0.5522409081459045
1686428463538729500,4.0477294921875,-0.5226314663887024,0.25660502910614014,-0.5991598963737488
1686428463548675300,4.05767529296875,-0.40563061833381653,0.2593018710613251,-0.6310452222824097
1686428463558620200,4.0676201171875,-0.31369855999946594,0.28308311104774475,-0.6228491067886353
1686428463568566300,4.077566162109375,-0.2504960596561432,0.3599979281425476,-0.5702473521232605
1686428463578512400,4.087512451171875,-0.22893723845481873,0.5010213851928711,-0.5048140287399292
1686428463588458200,4.097458251953125,-0.26045727729797363,0.6961289644241333,-0.44764092564582825
1686428463598403300,4.1074033203125,-0.31855201721191406,0.8704105019569397,-0.39483442902565
1686428463608349400,4.117349365234375,-0.375114768743515,1.0669231414794922,-0.34853658080101013
1686428463618295600,4.127295654296875,-0.4074151813983917,1.1879401206970215,-0.3244999647140503
1686428463628241400,4.137241455078125,-0.4236234724521637,1.2796798944473267,-0.300686240196228
1686428463638186200,4.147186279296875,-0.4216785430908203,1.2897413969039917,-0.30611881613731384
1686428463648132400,4.15713232421875,-0.4100683927536011,1.2450425624847412,-0.31911101937294006
1686428463658078500,4.167078369140625,-0.3875782787799835,1.2168875932693481,-0.3353339433670044
1686428463668024300,4.1770244140625,-0.3490801453590393,1.2268065214157104,-0.3417838513851166
1686428463677969200,4.18696923828125,-0.31789347529411316,1.259566307067871,-0.32066842913627625
1686428463687915300,4.196915283203125,-0.2784179449081421,1.3500818014144897,-0.28548112511634827
1686428463697861400,4.206861328125,-0.25259697437286377,1.4540503025054932,-0.22893847525119781
1686428463707807200,4.21680712890625,-0.24337254464626312,1.5354905128479004,-0.15639202296733856
1686428463717752300,4.22675244140625,-0.23587974905967712,1.557689905166626,-0.08896265923976898
1686428463727698400,4.236698486328125,-0.23824800550937653,1.50266695022583,-0.033642567694187164
1686428463737644500,4.24664453125,-0.2277088165283203,1.4437772035598755,-0.022865820676088333
1686428463747590400,4.25659033203125,-0.2266174554824829,1.3139005899429321,-0.08026788383722305
1686428463757535200,4.26653515625,-0.23347802460193634,1.2284355163574219,-0.2020055055618286
1686428463767481300,4.2764814453125,-0.2271115481853485,1.1075160503387451,-0.3294871151447296
1686428463777427500,4.286427490234375,-0.20900924503803253,1.0502197742462158,-0.443180650472641
1686428463787373300,4.296373291015625,-0.19381240010261536,0.9811888337135315,-0.520482063293457
1686428463797318100,4.306318115234375,-0.1939527541399002,0.9138489365577698,-0.5651416778564453
1686428463807264300,4.31626416015625,-0.21170559525489807,0.8179222345352173,-0.5688300728797913
1686428463817210400,4.32621044921875,-0.20381465554237366,0.8075377345085144,-0.560422420501709
1686428463827156200,4.33615625,-0.18416573107242584,0.7753437757492065,-0.5494807958602905
1686428463837101300,4.346101318359375,-0.18748855590820312,0.793176531791687,-0.559676468372345
1686428463847047400,4.35604736328125,-0.2066756635904312,0.7529550194740295,-0.5920584201812744
1686428463856993500,4.36599365234375,-0.2313690185546875,0.6267704963684082,-0.6252126097679138
1686428463866939400,4.375939453125,-0.2274247109889984,0.6229658126831055,-0.6452677249908447
1686428463876884200,4.38588427734375,-0.2048560082912445,0.4889681041240692,-0.6549863815307617
1686428463886830300,4.395830322265625,-0.1948409080505371,0.39420634508132935,-0.6458527445793152
1686428463896776400,4.4057763671875,-0.19278840720653534,0.3204067051410675,-0.63697749376297
1686428463906722300,4.415722412109375,-0.1915535032749176,0.1174360141158104,-0.6327435970306396
1686428463916667100,4.425667236328125,-0.19130049645900726,-0.000030428636819124222,-0.6326841711997986
1686428463926613200,4.43561328125,-0.1816841959953308,-0.03968362882733345,-0.6372761726379395
1686428463936559400,4.445559326171875,-0.16136534512043,-0.15559184551239014,-0.6420274972915649
1686428463946505200,4.455505126953125,-0.14939755201339722,-0.291744202375412,-0.6385080814361572
1686428463956450300,4.4654501953125,-0.1333000808954239,-0.3415122926235199,-0.6328302025794983
1686428463966396400,4.475396484375,-0.11733929812908173,-0.384853333234787,-0.610177218914032
1686428463976342500,4.485342529296875,-0.08773799985647202,-0.4407144784927368,-0.56122887134552
1686428463986288400,4.495288330078125,-0.037988703697919846,-0.4722656011581421,-0.4865880012512207
1686428463996233200,4.505233154296875,0.014074229635298252,-0.46789777278900146,-0.43398845195770264
1686428464006179300,4.515179443359375,0.10509872436523438,-0.5165209770202637,-0.4193630516529083
1686428464016125400,4.52512548828125,0.1868005096912384,-0.4555901885032654,-0.453009694814682
1686428464026071300,4.5350712890625,0.2788461148738861,-0.5534536838531494,-0.478462815284729
1686428464036016000,4.54501611328125,0.33242812752723694,-0.5352640151977539,-0.49436134099960327
1686428464045962200,4.554962158203125,0.34264394640922546,-0.3616461753845215,-0.5356523990631104
1686428464055908400,4.564908447265625,0.3446232080459595,-0.23496094346046448,-0.5824046730995178
1686428464065854200,4.574854248046875,0.3667343258857727,-0.19087481498718262,-0.6280556917190552
1686428464075799300,4.58479931640625,0.3572230935096741,0.04380133002996445,-0.6836174726486206
1686428464085745400,4.594745361328125,0.30505120754241943,0.3397919833660126,-0.6996750235557556
1686428464095691500,4.60469140625,0.16559487581253052,0.7734351754188538,-0.6020348072052002
1686428464105637400,4.614637451171875,-0.05147993937134743,1.0881224870681763,-0.399630606174469
1686428464115582200,4.624582275390625,-0.27520862221717834,1.1677954196929932,-0.12147913873195648
1686428464125528300,4.6345283203125,-0.45435935258865356,1.2378777265548706,0.1884244829416275
1686428464135474400,4.644474365234375,-0.5561978816986084,1.4066082239151,0.5216282606124878
1686428464145420300,4.654420166015625,-0.552483856678009,1.6370662450790405,0.8467339277267456
1686428464155365000,4.664365234375,-0.4238286316394806,1.836302399635315,1.0882956981658936
1686428464165311200,4.674311279296875,-0.21116790175437927,2.0771374702453613,1.258204698562622
1686428464175256800,4.6842568359375,0.011748269200325012,2.3412787914276123,1.3693801164627075
1686428464185202700,4.69420263671875,0.16748139262199402,2.54105544090271,1.4399683475494385
1686428464195147500,4.7041474609375,0.2238735854625702,2.6021487712860107,1.4956624507904053
1686428464205093600,4.71409375,0.20583993196487427,2.483149766921997,1.5228406190872192
1686428464215039700,4.724039794921875,0.159328892827034,2.242032527923584,1.5214056968688965
1686428464224985600,4.733985595703125,0.13117536902427673,1.9227209091186523,1.5123512744903564
1686428464234930400,4.743930419921875,0.1346750408411026,1.5720769166946411,1.5566004514694214
1686428464244876500,4.75387646484375,0.17850878834724426,1.2909075021743774,1.7659209966659546
1686428464254822700,4.76382275390625,0.2946537733078003,1.1248269081115723,2.179251194000244
1686428464264768500,4.7737685546875,0.4718065559864044,1.0732501745224,2.601924419403076
1686428464274713600,4.783713623046875,0.6543742418289185,1.2340688705444336,2.7117083072662354
1686428464284659700,4.79365966796875,0.7571722269058228,1.7198044061660767,2.4598424434661865
1686428464294605800,4.803605712890625,0.7563424110412598,2.0748331546783447,1.9990519285202026
1686428464304551700,4.8135517578125,0.7111988663673401,2.2453949451446533,1.5579766035079956
1686428464314496500,4.82349658203125,0.7030208110809326,2.2607502937316895,1.1943986415863037
1686428464324442600,4.833442626953125,0.7277883291244507,2.1436028480529785,1.000359296798706
1686428464334388700,4.843388671875,0.8113812208175659,1.985206961631775,1.1065237522125244
1686428464344334600,4.85333447265625,0.9258575439453125,1.8783934116363525,1.3943746089935303
1686428464354279400,4.863279541015625,0.997913122177124,1.816858172416687,1.7085185050964355
1686428464364225500,4.8732255859375,1.0142624378204346,1.722858190536499,2.000487804412842
1686428464374171600,4.883171630859375,1.0022228956222534,1.5633370876312256,2.2415924072265625
1686428464384117500,4.893117431640625,0.9733874201774597,1.3724045753479004,2.373746871948242
1686428464394062600,4.9030625,0.934514045715332,1.2268776893615723,2.357715606689453
1686428464404008700,4.9130087890625,0.878870964050293,1.221622109413147,2.179184913635254
1686428464413954800,4.922954833984375,0.8348625302314758,1.3611352443695068,1.8629355430603027
1686428464423900700,4.932900634765625,0.8147720098495483,1.5185348987579346,1.48476243019104
1686428464433845500,4.942845458984375,0.7944196462631226,1.6038435697555542,1.1275888681411743
1686428464443791600,4.95279150390625,0.7537183165550232,1.5649077892303467,0.8431373238563538
1686428464453737700,4.96273779296875,0.7070499062538147,1.3749418258666992,0.665219783782959
1686428464463683600,4.97268359375,0.6309680342674255,1.2276268005371094,0.6087954640388489
1686428464473628400,4.98262841796875,0.5389180183410645,1.0864830017089844,0.6415550112724304
1686428464483574500,4.992574462890625,0.4385426640510559,0.9529700875282288,0.7037427425384521
1686428464493520600,5.002520751953125,0.3459030091762543,0.8420044183731079,0.7440038919448853
1686428464503466500,5.012466552734375,0.27064841985702515,0.7751643061637878,0.746055543422699
1686428464513412600,5.02241259765625,0.21423523128032684,0.7416390776634216,0.6927039623260498
1686428464523357700,5.032357666015625,0.16274410486221313,0.7348183989524841,0.6094288229942322
1686428464533303800,5.0423037109375,0.11647459119558334,0.7476915717124939,0.5151917934417725
1686428464543249700,5.052249755859375,0.08418063819408417,0.7730122804641724,0.43199336528778076
1686428464553194500,5.062194580078125,0.0571514256298542,0.7946834564208984,0.37900152802467346
1686428464563140600,5.072140625,0.02144935354590416,0.7970904111862183,0.34557539224624634
1686428464573086500,5.08208642578125,-0.01070645172148943,0.76422119140625,0.34144216775894165
1686428464583032600,5.092032470703125,-0.055964019149541855,0.7079891562461853,0.3358649015426636
1686428464592978700,5.101978759765625,-0.10699231177568436,0.6435664892196655,0.3020712733268738
1686428464602923500,5.111923583984375,-0.1553420126438141,0.6057584881782532,0.23249982297420502
1686428464612869400,5.121869384765625,-0.19946499168872833,0.5975775122642517,0.13253886997699738
1686428464622815500,5.1318154296875,-0.2552717328071594,0.6239544749259949,0.007747528608888388
1686428464632761600,5.14176171875,-0.32186195254325867,0.6702919006347656,-0.1299663931131363
1686428464642706700,5.151706787109375,-0.39311715960502625,0.7194451093673706,-0.25026053190231323
1686428464652652500,5.161652587890625,-0.4639575183391571,0.7570191621780396,-0.32507991790771484
1686428464662598700,5.1715986328125,-0.5261219143867493,0.7442206144332886,-0.3630242645740509
1686428464672544800,5.181544677734375,-0.5838800072669983,0.6492810249328613,-0.36315104365348816
1686428464682489600,5.191489501953125,-0.6207989454269409,0.45159295201301575,-0.30337852239608765
1686428464692435500,5.201435546875,-0.6072948575019836,0.16546319425106049,-0.17267750203609467
1686428464702381600,5.211381591796875,-0.494058758020401,-0.2540096938610077,-0.04354345425963402
1686428464712327700,5.22132763671875,-0.2954018712043762,-0.43940380215644836,-0.01430913433432579
1686428464722272500,5.2312724609375,-0.05416376143693924,-0.30157262086868286,-0.2218727320432663
1686428464732218600,5.241218505859375,0.16269370913505554,-0.15413200855255127,-0.6786972880363464
1686428464742164700,5.251164794921875,0.23987193405628204,-0.11744120717048645,-1.1146516799926758
1686428464752110600,5.261110595703125,0.0397188700735569,-0.0120849609375,-1.2784507274627686
1686428464762055700,5.2710556640625,-0.33271706104278564,0.11554718017578125,-1.2795097827911377
1686428464772001500,5.28100146484375,-0.6913971304893494,0.042640749365091324,-1.3190127611160278
1686428464781947600,5.29094775390625,-0.9290388226509094,0.045833759009838104,-1.3243060111999512
1686428464791893800,5.300893798828125,-1.0280159711837769,0.185011625289917,-1.1949323415756226
1686428464801838600,5.310838623046875,-1.0884114503860474,0.31183260679244995,-1.0330098867416382
1686428464811784400,5.320784423828125,-1.1484230756759644,0.32188549637794495,-0.888913631439209
1686428464821730600,5.33073046875,-1.1707847118377686,0.16883398592472076,-0.7545438408851624
1686428464831676700,5.3406767578125,-1.0958294868469238,-0.030711356550455093,-0.6404569745063782
1686428464841621800,5.350621826171875,-0.9471685290336609,-0.22583059966564178,-0.5735793709754944
1686428464851567600,5.360567626953125,-0.7728901505470276,-0.31404539942741394,-0.5361605882644653
1686428464861513700,5.370513671875,-0.627433180809021,-0.3385721743106842,-0.5359587073326111
1686428464871459800,5.3804599609375,-0.5637540817260742,-0.2693491578102112,-0.5765263438224792
1686428464881404700,5.39040478515625,-0.5736408829689026,-0.17816834151744843,-0.6399723291397095
1686428464891350500,5.4003505859375,-0.6342917084693909,-0.10618682205677032,-0.710995078086853
1686428464901296600,5.410296630859375,-0.7173917889595032,-0.03925326466560364,-0.7584570646286011
1686428464911242800,5.42024267578125,-0.8107936382293701,-0.01484140008687973,-0.7847957611083984
1686428464921187600,5.4301875,-0.8835654258728027,0.03892446309328079,-0.7601045966148376
1686428464931133400,5.440133544921875,-0.9575437903404236,0.1662299484014511,-0.7036412954330444
1686428464941079600,5.45007958984375,-1.0150998830795288,0.20690661668777466,-0.6546674370765686
1686428464951025700,5.460025634765625,-1.0239067077636719,0.22950379550457,-0.5976496934890747
1686428464960970800,5.469970703125,-0.9773525595664978,0.20174849033355713,-0.5458101034164429
1686428464970916600,5.47991650390625,-0.8731644153594971,0.14248383045196533,-0.49660399556159973
1686428464980862700,5.48986279296875,-0.7218418121337891,0.08029820024967194,-0.4437325894832611
1686428464990808800,5.499808837890625,-0.5542967319488525,0.02948934957385063,-0.3827073276042938
1686428465000753700,5.509753662109375,-0.41040846705436707,0.0009097279980778694,-0.31574517488479614
1686428465010699500,5.519699462890625,-0.31808894872665405,0.02333594113588333,-0.2523244023323059
1686428465020645600,5.529645751953125,-0.3014086186885834,0.09879042208194733,-0.21021871268749237
1686428465030591700,5.539591796875,-0.3223826289176941,0.17285533249378204,-0.19063623249530792
1686428465040536600,5.54953662109375,-0.3469740152359009,0.2662336230278015,-0.18949051201343536
1686428465050482400,5.559482421875,-0.36830568313598633,0.3850303292274475,-0.20408225059509277
1686428465060428500,5.569428466796875,-0.38005995750427246,0.44148415327072144,-0.20580172538757324
1686428465070374700,5.579374755859375,-0.3895386755466461,0.3749985992908478,-0.1952122002840042
1686428465080319700,5.58931982421875,-0.3951724171638489,0.3474770784378052,-0.2034050077199936
1686428465090265600,5.599265625,-0.3742018938064575,0.216246098279953,-0.22316166758537292
1686428465100211700,5.609211669921875,-0.30879446864128113,0.13377425074577332,-0.26219457387924194
1686428465110157800,5.61915771484375,-0.2426290363073349,0.03967970609664917,-0.2971283793449402
1686428465120102700,5.6291025390625,-0.19518151879310608,0.03733246028423309,-0.32099097967147827
1686428465130048500,5.639048583984375,-0.18723811209201813,-0.011377020739018917,-0.31070131063461304
1686428465139994600,5.64899462890625,-0.18985122442245483,0.002566300332546234,-0.25341570377349854
1686428465149940700,5.658940673828125,-0.18179915845394135,0.0639423057436943,-0.16883105039596558
1686428465159885600,5.668885498046875,-0.1724107265472412,0.08700865507125854,-0.0786745473742485
1686428465169831400,5.67883154296875,-0.17057287693023682,0.04797682911157608,-0.007394773885607719
1686428465179777500,5.688777587890625,-0.17608533799648285,0.05223008990287781,0.01523255743086338
1686428465189723600,5.6987236328125,-0.1751292645931244,0.09023845195770264,0.002337265992537141
1686428465199668700,5.708668701171875,-0.19416239857673645,0.10285506397485733,-0.010226030834019184
1686428465209614600,5.718614501953125,-0.23319953680038452,0.1350412368774414,-0.00559639185667038
1686428465219560700,5.728560791015625,-0.2906280755996704,0.24135133624076843,0.0044745588675141335
1686428465229506800,5.7385068359375,-0.3481001555919647,0.2955234944820404,0.004793339408934116
1686428465239451600,5.74845166015625,-0.4074454605579376,0.3202780485153198,-0.018420053645968437
1686428465249397500,5.7583974609375,-0.4630453586578369,0.33373820781707764,-0.05989638715982437
1686428465259343600,5.768343505859375,-0.4996545612812042,0.33655667304992676,-0.11056502163410187
1686428465269289700,5.778289794921875,-0.5219841003417969,0.3203747868537903,-0.17710836231708527
1686428465279234600,5.788234619140625,-0.5462560057640076,0.2703196704387665,-0.2736208736896515
1686428465289180400,5.798180419921875,-0.5956048965454102,0.1626073271036148,-0.37251016497612
1686428465299126500,5.80812646484375,-0.6190806031227112,0.10395613312721252,-0.46515509486198425
1686428465309072600,5.81807275390625,-0.6232729554176331,0.06736083328723907,-0.5326973795890808
1686428465319018500,5.8280185546875,-0.5939851403236389,0.12303195148706436,-0.5815659165382385
1686428465328963600,5.837963623046875,-0.5878953337669373,0.10640450567007065,-0.6419051885604858
1686428465338909700,5.84790966796875,-0.6627148985862732,-0.0035172859206795692,-0.7385780811309814
1686428465348855800,5.857855712890625,-0.7717103362083435,-0.0460389107465744,-0.8170579671859741
1686428465358801700,5.8678017578125,-0.8345808386802673,-0.06368196755647659,-0.821725606918335
1686428465368746500,5.87774658203125,-0.7619452476501465,0.07338986545801163,-0.8133537173271179
1686428465378692600,5.887692626953125,-0.5614723563194275,0.18601375818252563,-0.8802253603935242
1686428465388638700,5.897638671875,-0.2967759966850281,0.26856374740600586,-1.0252007246017456
1686428465398584600,5.90758447265625,-0.0990104004740715,0.35179299116134644,-1.1228442192077637
1686428465408529400,5.917529296875,0.03404192626476288,0.44812673330307007,-1.0884302854537964
1686428465418475500,5.9274755859375,0.16488437354564667,0.4767111539840698,-0.9417979121208191
1686428465428421600,5.937421630859375,0.31653594970703125,0.4534854590892792,-0.6998989582061768
1686428465438367500,5.947367431640625,0.44129666686058044,0.32246503233909607,-0.4345977306365967
1686428465448312600,5.9573125,0.5447897911071777,0.18107035756111145,-0.1901157945394516
1686428465458258700,5.9672587890625,0.6162983775138855,0.10608053207397461,0.06513290107250214
1686428465468204800,5.977204833984375,0.6635157465934753,0.15511703491210938,0.344042032957077
1686428465478150700,5.987150634765625,0.7114822864532471,0.2928665280342102,0.6373695731163025
1686428465488095500,5.997095458984375,0.7802517414093018,0.44971925020217896,0.9236897230148315
1686428465498041600,6.00704150390625,0.8667794466018677,0.606339156627655,1.2231541872024536
1686428465507987700,6.01698779296875,0.947691023349762,0.6985229253768921,1.590441346168518
1686428465517933600,6.02693359375,0.9965277910232544,0.6634126901626587,2.045079231262207
1686428465527878400,6.03687841796875,0.9690775275230408,0.5413938760757446,2.4499142169952393
1686428465537824500,6.046824462890625,0.8735460042953491,0.46643903851509094,2.6596922874450684
1686428465547770600,6.0567705078125,0.783525288105011,0.49793732166290283,2.586639642715454
1686428465557716700,6.066716796875,0.7840203642845154,0.47143590450286865,2.2275643348693848
1686428465567661600,6.07666162109375,0.8318305015563965,0.4672797620296478,1.6961278915405273
1686428465577607700,6.086607666015625,0.8736967444419861,0.415384978055954,1.1358795166015625
1686428465587553500,6.096553466796875,0.8795482516288757,0.341381311416626,0.654900074005127
1686428465597499600,6.106499755859375,0.8490408062934875,0.2411637306213379,0.33666637539863586
1686428465607444500,6.116444580078125,0.8007973432540894,0.2715543806552887,0.23455305397510529
1686428465617390600,6.126390625,0.7598514556884766,0.3013959527015686,0.32847991585731506
1686428465627336400,6.13633642578125,0.7239789366722107,0.28974807262420654,0.5310239195823669
1686428465637282600,6.146282470703125,0.6838779449462891,0.26541510224342346,0.770051121711731
1686428465647227600,6.1562275390625,0.6484693288803101,0.22973142564296722,0.964005172252655
1686428465657173800,6.166173828125,0.6203898787498474,0.19473470747470856,1.046148419380188
1686428465667119600,6.17611962890625,0.6016066074371338,0.19548092782497406,1.00845468044281
1686428465677065700,6.186065673828125,0.6116293668746948,0.2121313214302063,0.8768481612205505
1686428465687010600,6.196010498046875,0.6382324695587158,0.23013801872730255,0.7129718661308289
1686428465696956700,6.205956787109375,0.6960799098014832,0.2710919976234436,0.5808022022247314
1686428465706902500,6.215902587890625,0.7172432541847229,0.37072911858558655,0.5297552943229675
1686428465716848600,6.2258486328125,0.7228621244430542,0.40319517254829407,0.523567795753479
1686428465726794800,6.235794677734375,0.7180393934249878,0.3648914694786072,0.5073534250259399
1686428465736739600,6.245739501953125,0.6906317472457886,0.22062340378761292,0.44657665491104126
1686428465746685400,6.255685546875,0.6485841274261475,0.11999852955341339,0.3830954134464264
1686428465756631600,6.265631591796875,0.6076670289039612,-0.05495476350188255,0.2988089323043823
1686428465766577700,6.27557763671875,0.5846940279006958,-0.19040153920650482,0.22135435044765472
1686428465776522800,6.285522705078125,0.505334734916687,-0.18767663836479187,0.1768220067024231
1686428465786468600,6.295468505859375,0.38784217834472656,-0.15287764370441437,0.1454792618751526
1686428465796414700,6.305414794921875,0.2706884741783142,-0.024100515991449356,0.13365398347377777
1686428465806360800,6.31536083984375,0.19757190346717834,0.011820733547210693,0.06732264161109924
1686428465816305700,6.3253056640625,0.1366671472787857,0.057468727231025696,-0.0319204106926918
1686428465826251500,6.33525146484375,0.05964960157871246,0.05821095034480095,-0.10868389904499054
1686428465836197600,6.34519775390625,-0.021563347429037094,-0.00890372134745121,-0.16747882962226868
1686428465846143700,6.355143798828125,-0.1110285222530365,-0.08990829437971115,-0.22948575019836426
1686428465856088600,6.365088623046875,-0.20379814505577087,-0.16502605378627777,-0.29800066351890564
1686428465866034400,6.375034423828125,-0.28012141585350037,-0.2195100635290146,-0.3592483103275299
1686428465875980500,6.38498046875,-0.3393758237361908,-0.2737261652946472,-0.4079693555831909
1686428465885926700,6.3949267578125,-0.3785804808139801,-0.3954128921031952,-0.4503762125968933
1686428465895871700,6.404871826171875,-0.41205713152885437,-0.5743904113769531,-0.4176032841205597
1686428465905817600,6.414817626953125,-0.3744615316390991,-0.8287635445594788,-0.2171522080898285
1686428465915763700,6.424763671875,-0.23501400649547577,-1.1185823678970337,0.08399553596973419
1686428465925709800,6.434709716796875,-0.05699419230222702,-1.1548999547958374,0.2597537934780121
1686428465935654700,6.444654541015625,0.029520384967327118,-0.9023911356925964,0.03644128143787384
1686428465945600500,6.4546005859375,-0.027134105563163757,-0.6105321049690247,-0.4941647946834564
1686428465955546600,6.464546630859375,-0.1512921303510666,-0.41587865352630615,-0.9368594884872437
1686428465965492700,6.47449267578125,-0.2642381489276886,-0.204273983836174,-1.1042518615722656
1686428465975437600,6.4844375,-0.36067092418670654,0.0070992447435855865,-1.068333625793457
1686428465985383400,6.494383544921875,-0.4725351333618164,0.23869599401950836,-0.908810555934906
1686428465995329500,6.50432958984375,-0.6233540177345276,0.346169650554657,-0.7765756249427795
1686428466005275600,6.514275634765625,-0.8030572533607483,0.3452865481376648,-0.7703462243080139
1686428466015220700,6.524220703125,-0.961311399936676,0.28623631596565247,-0.7937427163124084
1686428466025166600,6.53416650390625,-1.028464674949646,0.19324219226837158,-0.7821915149688721
1686428466035112700,6.54411279296875,-0.9782373905181885,0.12189999967813492,-0.7376344799995422
1686428466045058800,6.554058837890625,-0.8400595188140869,0.06035728007555008,-0.6825762391090393
1686428466055003600,6.564003662109375,-0.6669759750366211,-0.029888123273849487,-0.6066730618476868
1686428466064949500,6.573949462890625,-0.5153694152832031,-0.09717182070016861,-0.5255835056304932
1686428466074895600,6.5838955078125,-0.39575624465942383,-0.14997711777687073,-0.4443531632423401
1686428466084841700,6.593841796875,-0.3342590630054474,-0.14810411632061005,-0.38642647862434387
1686428466094786600,6.60378662109375,-0.3036476969718933,-0.19322070479393005,-0.3665788471698761
1686428466104732400,6.613732421875,-0.31556588411331177,-0.2187015563249588,-0.3884151577949524
1686428466114678500,6.623678466796875,-0.35393738746643066,-0.31568384170532227,-0.45112156867980957
1686428466124624600,6.633624755859375,-0.3970180153846741,-0.47716912627220154,-0.5291109681129456
1686428466134570500,6.643570556640625,-0.41786447167396545,-0.5204145908355713,-0.6010735034942627
1686428466144515600,6.653515625,-0.42996641993522644,-0.5319918990135193,-0.6528746485710144
1686428466154461700,6.663461669921875,-0.43623116612434387,-0.5412015914916992,-0.672478437423706
1686428466164407800,6.67340771484375,-0.4349991977214813,-0.5467244386672974,-0.6316276788711548
1686428466174354200,6.683354248046875,-0.42704084515571594,-0.5368745923042297,-0.5416767597198486
1686428466184299000,6.693299072265625,-0.4170404076576233,-0.551342785358429,-0.3834727108478546
1686428466194245000,6.7032451171875,-0.40245091915130615,-0.5266329646110535,-0.203170046210289
1686428466204191000,6.71319091796875,-0.37696951627731323,-0.45995834469795227,-0.030343936756253242
1686428466214137000,6.72313720703125,-0.3224223256111145,-0.3362734615802765,0.06715279817581177
1686428466224082000,6.73308203125,-0.2595040798187256,-0.16936545073986053,0.061214741319417953
1686428466234028000,6.743028076171875,-0.21771562099456787,-0.06451953202486038,-0.0636843889951706
1686428466243974000,6.752973876953125,-0.212327241897583,0.013519881293177605,-0.2712109386920929
1686428466253920000,6.762919921875,-0.22437258064746857,0.03610570356249809,-0.49151891469955444
1686428466263865000,6.772864990234375,-0.23781408369541168,0.05533479154109955,-0.6460224390029907
1686428466273811200,6.782811279296875,-0.23133283853530884,0.13561280071735382,-0.6951577663421631
1686428466283757000,6.792757080078125,-0.2173381894826889,0.17790938913822174,-0.6300682425498962
1686428466293703200,6.802703125,-0.20303931832313538,0.16157478094100952,-0.4725947082042694
1686428466303648000,6.81264794921875,-0.18563102185726166,0.1344374269247055,-0.2695566415786743
1686428466313594000,6.822593994140625,-0.17650355398654938,0.165728360414505,-0.07509984076023102
1686428466323540000,6.8325400390625,-0.17515146732330322,0.15447330474853516,0.0748736783862114
1686428466333486000,6.842486083984375,-0.19670453667640686,0.16142460703849792,0.1419951319694519
1686428466343431000,6.852430908203125,-0.23693877458572388,0.14973466098308563,0.11765383929014206
1686428466353377000,6.862376953125,-0.27640601992607117,0.058153606951236725,0.04032443091273308
1686428466363323000,6.872322998046875,-0.31771165132522583,0.006428096443414688,-0.08105898648500443
1686428466373269000,6.88226904296875,-0.3496415615081787,-0.008838355541229248,-0.1885659098625183
1686428466383214000,6.892214111328125,-0.3713785707950592,0.01858687773346901,-0.24701963365077972
1686428466393160200,6.90216015625,-0.35830897092819214,0.035731326788663864,-0.23740556836128235
1686428466403106000,6.91210595703125,-0.3114061653614044,0.12652941048145294,-0.20168405771255493
1686428466413052200,6.92205224609375,-0.2741415202617645,0.26475685834884644,-0.16502885520458221
1686428466422997000,6.9319970703125,-0.23562529683113098,0.25597694516181946,-0.13955917954444885
1686428466432943000,6.941943115234375,-0.22108834981918335,0.2631232440471649,-0.1307590901851654
1686428466442889000,6.951888916015625,-0.23425662517547607,0.29049786925315857,-0.14733007550239563
1686428466452835000,6.9618349609375,-0.2386774718761444,0.2344774752855301,-0.18101505935192108
1686428466462781200,6.97178125,-0.24554921686649323,0.19622063636779785,-0.226112499833107
1686428466472726000,6.98172607421875,-0.2767671048641205,0.16567033529281616,-0.25990599393844604
1686428466482671900,6.991671875,-0.328097403049469,0.12167970836162567,-0.2628466486930847
1686428466492618000,7.001617919921875,-0.4012851417064667,0.05741402506828308,-0.23390080034732819
1686428466502564000,7.011564208984375,-0.4803599715232849,-0.04388117045164108,-0.17714299261569977
1686428466512509200,7.02150927734375,-0.5140698552131653,-0.09997404366731644,-0.16498489677906036
1686428466522455000,7.031455078125,-0.4510602056980133,-0.15351901948451996,-0.2361821085214615
1686428466532401200,7.041401123046875,-0.3122400641441345,-0.21861577033996582,-0.4069056808948517
1686428466542347300,7.05134716796875,-0.19639790058135986,-0.20764169096946716,-0.602917492389679
1686428466552292000,7.0612919921875,-0.13557492196559906,-0.1529076248407364,-0.768269419670105
1686428466562238000,7.071238037109375,-0.0822959914803505,-0.02280314266681671,-0.8611660599708557
1686428466572184000,7.08118408203125,-0.02502070926129818,0.1732024848461151,-0.8789894580841064
1686428466582130200,7.091130126953125,0.038483962416648865,0.3899659514427185,-0.8311380743980408
1686428466592075000,7.101074951171875,0.09193942695856094,0.5677044987678528,-0.7251113057136536
1686428466602020900,7.111020751953125,0.15009142458438873,0.6580748558044434,-0.5714602470397949
1686428466611967000,7.120967041015625,0.22924835979938507,0.6313020586967468,-0.37878894805908203
1686428466621913000,7.1309130859375,0.32934674620628357,0.4720674157142639,-0.1671145111322403
1686428466631858200,7.140858154296875,0.44715216755867004,0.27874985337257385,0.0490986704826355
1686428466641804000,7.150803955078125,0.5712623596191406,0.1916099190711975,0.2913781404495239
1686428466651750100,7.160750244140625,0.6962880492210388,0.12909965217113495,0.57333904504776
1686428466661696300,7.1706962890625,0.8348826766014099,0.12536564469337463,0.8565521240234375
1686428466671641000,7.18064111328125,0.9781000018119812,0.12869738042354584,1.130740761756897
1686428466681587000,7.1905869140625,1.0745879411697388,0.1392296552658081,1.4019325971603394
1686428466691533000,7.200532958984375,1.094862461090088,0.1539846509695053,1.6286213397979736
1686428466701479000,7.21047900390625,1.0157220363616943,0.18302083015441895,1.786685824394226
1686428466711424000,7.220424072265625,0.8911215662956238,0.2212575227022171,1.8694853782653809
1686428466721369900,7.230369873046875,0.7675327658653259,0.2846583425998688,1.844752311706543
1686428466731316000,7.24031591796875,0.667395293712616,0.37630704045295715,1.6965605020523071
1686428466741262000,7.250261962890625,0.6177049875259399,0.4638496935367584,1.4757663011550903
1686428466751207200,7.260207275390625,0.613538384437561,0.5502459406852722,1.2456576824188232
1686428466761153000,7.270153076171875,0.6335573792457581,0.6214420795440674,1.0435973405838013
1686428466771099100,7.28009912109375,0.6408616900444031,0.6243689060211182,0.8821331262588501
1686428466781045000,7.290044921875,0.6225601434707642,0.6707547307014465,0.7907462120056152
1686428466790990000,7.299989990234375,0.6069854497909546,0.6629066467285156,0.7607552409172058
1686428466800936000,7.30993603515625,0.5978638529777527,0.6064449548721313,0.7726491689682007
1686428466810882000,7.319882080078125,0.588783323764801,0.5488988161087036,0.802061140537262
1686428466820828000,7.329827880859375,0.5788513422012329,0.4875374436378479,0.8348142504692078
1686428466830773000,7.33977294921875,0.5686655044555664,0.4355961084365845,0.8644508123397827
1686428466840719000,7.349718994140625,0.5597188472747803,0.3834484815597534,0.8806540369987488
1686428466850665200,7.359665283203125,0.5481520891189575,0.35930681228637695,0.8850802183151245
1686428466860611000,7.369611083984375,0.5347579717636108,0.42219072580337524,0.8530876636505127
1686428466870557200,7.37955712890625,0.5094137191772461,0.4819953739643097,0.7677122354507446
1686428466880502000,7.389501953125,0.4767444431781769,0.5428637266159058,0.6486390829086304
1686428466890448100,7.3994482421875,0.46017926931381226,0.5742930173873901,0.5264148712158203
1686428466900394000,7.40939404296875,0.4598567485809326,0.5590855479240417,0.43125027418136597
1686428466910340000,7.419340087890625,0.4821050465106964,0.5094373226165771,0.36704203486442566
1686428466920285000,7.429284912109375,0.4892521798610687,0.4071412682533264,0.34527841210365295
1686428466930231000,7.43923095703125,0.45990318059921265,0.35317733883857727,0.38244131207466125
1686428466940177000,7.449177001953125,0.4271404445171356,0.2559967339038849,0.4410566985607147
1686428466950123000,7.459123046875,0.3897636830806732,0.26416099071502686,0.4965246021747589
1686428466960068000,7.469068115234375,0.35742253065109253,0.2592887282371521,0.5195399522781372
1686428466970014200,7.47901416015625,0.33253905177116394,0.257039874792099,0.4691289961338043
1686428466979960000,7.4889599609375,0.2996958792209625,0.2512693405151367,0.34543928503990173
1686428466989906200,7.49890625,0.26183587312698364,0.19663281738758087,0.17520418763160706
1686428466999851000,7.50885107421875,0.22912505269050598,0.1532030552625656,-0.01183919608592987
1686428467009797000,7.518797119140625,0.19833944737911224,0.14544937014579773,-0.1593165099620819
1686428467019743000,7.528742919921875,0.1755819469690323,0.13266566395759583,-0.244395449757576
1686428467029689000,7.538689208984375,0.14685381948947906,0.08725375682115555,-0.2765798568725586
1686428467039634000,7.548634033203125,0.10304535925388336,-0.014782862737774849,-0.29123231768608093
1686428467049580000,7.558580078125,0.050780538469552994,-0.11403703689575195,-0.31776270270347595
1686428467059526000,7.56852587890625,0.003380000591278076,-0.1852440983057022,-0.3722706735134125
1686428467069472000,7.578471923828125,-0.029588986188173294,-0.21609105169773102,-0.44112569093704224
1686428467079418000,7.588418212890625,-0.06223215162754059,-0.23483037948608398,-0.4894426167011261
1686428467089363200,7.59836328125,-0.10504806041717529,-0.2714586853981018,-0.5067366361618042
1686428467099309000,7.60830908203125,-0.16920121014118195,-0.316498339176178,-0.497780442237854
1686428467109255200,7.618255126953125,-0.24258163571357727,-0.3805626928806305,-0.44961628317832947
1686428467119201300,7.628201171875,-0.26594582200050354,-0.5565915107727051,-0.33778107166290283
1686428467129146000,7.63814599609375,-0.19225536286830902,-0.8121867775917053,-0.1482296735048294
1686428467139092000,7.648092041015625,-0.05233314633369446,-1.0215272903442383,0.04512062296271324
1686428467149038000,7.6580380859375,0.10295334458351135,-1.0846195220947266,0.13764631748199463
1686428467158984200,7.667984130859375,0.22147998213768005,-0.9842771887779236,0.013055922463536263
1686428467168928500,7.677928466796875,0.21141737699508667,-0.8330062627792358,-0.34880658984184265
1686428467178874400,7.687874267578125,0.02749946527183056,-0.5962986350059509,-0.7792410254478455
1686428467188820500,7.697820556640625,-0.22295089066028595,-0.23725929856300354,-1.0518189668655396
1686428467198766600,7.7077666015625,-0.43473348021507263,0.06913872063159943,-1.11061692237854
1686428467208711700,7.717711669921875,-0.6024959087371826,0.18308423459529877,-1.0466322898864746
1686428467218657500,7.727657470703125,-0.757075309753418,0.20750835537910461,-0.9317166209220886
1686428467228603600,7.737603759765625,-0.9013153910636902,0.22965854406356812,-0.7845702171325684
1686428467238549500,7.747549560546875,-1.005704641342163,0.22556845843791962,-0.669754683971405
1686428467248494600,7.75749462890625,-1.0460222959518433,0.22273778915405273,-0.63893061876297
1686428467258440400,7.7674404296875,-1.0122328996658325,0.17806166410446167,-0.6551649570465088
1686428467268386600,7.777386474609375,-0.9069385528564453,0.09866809844970703,-0.6765456199645996
1686428467278332400,7.78733251953125,-0.7601741552352905,0.03277936205267906,-0.6679375171661377
1686428467288278500,7.797278564453125,-0.6059805750846863,-0.05905032902956009,-0.6196966767311096
1686428467298223600,7.8072236328125,-0.46641629934310913,-0.07453367859125137,-0.5345458388328552
1686428467308169700,7.817169677734375,-0.3587673306465149,-0.10992922633886337,-0.4552896320819855
1686428467318115600,7.827115478515625,-0.30557337403297424,-0.07323592156171799,-0.40776631236076355
1686428467328061700,7.837061767578125,-0.31148043274879456,-0.06776821613311768,-0.3996771574020386
1686428467338006500,7.847006591796875,-0.3583163917064667,-0.09240272641181946,-0.4143866002559662
1686428467347952600,7.85695263671875,-0.38977277278900146,-0.20436330139636993,-0.46522364020347595
1686428467357898500,7.8668984375,-0.426865816116333,-0.329037070274353,-0.5262190699577332
1686428467367844600,7.8768447265625,-0.4756723642349243,-0.3658948242664337,-0.6007257103919983
1686428467377789400,7.88678955078125,-0.4902547597885132,-0.41520753502845764,-0.6432931423187256
1686428467387735600,7.896735595703125,-0.47183117270469666,-0.4455980360507965,-0.6411097049713135
1686428467397681400,7.906681396484375,-0.4486488699913025,-0.4829683303833008,-0.5752779841423035
1686428467407627500,7.91662744140625,-0.4262791872024536,-0.5076807141304016,-0.44329389929771423
1686428467417572600,7.926572509765625,-0.39936715364456177,-0.531642735004425,-0.2648221552371979
1686428467427518700,7.936518798828125,-0.3617441952228546,-0.5287622809410095,-0.08690996468067169
1686428467437464600,7.946464599609375,-0.3147106468677521,-0.462909460067749,0.04635462164878845
1686428467447410700,7.95641064453125,-0.2715681493282318,-0.37184298038482666,0.09844932705163956
1686428467457356800,7.966356689453125,-0.2512255907058716,-0.2856713533401489,0.05430104210972786
1686428467467301600,7.976301513671875,-0.2645711302757263,-0.21865281462669373,-0.06296994537115097
1686428467477247500,7.98624755859375,-0.28790202736854553,-0.2074398547410965,-0.21214744448661804
1686428467487193600,7.996193603515625,-0.29582497477531433,-0.2306075245141983,-0.32517921924591064
1686428467497139700,8.0061396484375,-0.2887636125087738,-0.22757790982723236,-0.37797585129737854
1686428467507084500,8.01608447265625,-0.26529577374458313,-0.19220702350139618,-0.3667404055595398
1686428467517030400,8.026030517578125,-0.2380271553993225,-0.1448240578174591,-0.2948529124259949
1686428467526976500,8.0359765625,-0.20621199905872345,-0.09259097278118134,-0.1781972050666809
1686428467536922600,8.045922607421875,-0.18054871261119843,-0.06470954418182373,-0.04648365080356598
1686428467546867700,8.05586767578125,-0.17215295135974884,-0.03539753705263138,0.06701488792896271
1686428467556813600,8.0658134765625,-0.18487726151943207,0.010431470349431038,0.12309147417545319
1686428467566759700,8.075759765625,-0.20276384055614471,-0.029614828526973724,0.11162623018026352
1686428467576705800,8.085705810546875,-0.22653840482234955,-0.09383242577314377,0.04661953076720238
1686428467586650600,8.095650634765626,-0.2434895783662796,-0.1255447268486023,-0.024618245661258698
1686428467596596500,8.105596435546875,-0.23563671112060547,-0.13898862898349762,-0.08003676682710648
1686428467606542600,8.11554248046875,-0.2216736078262329,-0.10432172566652298,-0.13877320289611816
1686428467616488700,8.12548876953125,-0.2134617418050766,-0.0073831952176988125,-0.18934796750545502
1686428467626434600,8.1354345703125,-0.23945114016532898,0.10339000821113586,-0.2080298513174057
1686428467636379400,8.14537939453125,-0.26244351267814636,0.1085091382265091,-0.2156486213207245
1686428467646325500,8.155325439453126,-0.30368489027023315,0.20785178244113922,-0.23302383720874786
1686428467656271600,8.165271728515625,-0.3545648455619812,0.27922824025154114,-0.2659354507923126
1686428467666217500,8.175217529296875,-0.4025527834892273,0.29246339201927185,-0.30345815420150757
1686428467676162600,8.18516259765625,-0.421103835105896,0.2433038353919983,-0.33730560541152954
1686428467686108700,8.195108642578125,-0.3977205753326416,0.17788270115852356,-0.3631640076637268
1686428467696054500,8.205054443359375,-0.34287142753601074,0.07372487336397171,-0.39633581042289734
1686428467706000600,8.215000732421874,-0.29507726430892944,-0.07091416418552399,-0.4498962461948395
1686428467715945500,8.224945556640625,-0.30305609107017517,-0.21145501732826233,-0.5039794445037842
1686428467725891600,8.2348916015625,-0.3746491074562073,-0.2873108386993408,-0.5309239029884338
1686428467735837400,8.24483740234375,-0.46896523237228394,-0.298137903213501,-0.5154916644096375
1686428467745783600,8.254783447265625,-0.49161526560783386,-0.29744815826416016,-0.4946483075618744
1686428467755728400,8.264728271484374,-0.3920322060585022,-0.32866066694259644,-0.5310502648353577
1686428467765674500,8.274674560546876,-0.24367518723011017,-0.38098323345184326,-0.627886176109314
1686428467775620400,8.284620361328125,-0.14304392039775848,-0.3798258304595947,-0.7462881803512573
1686428467785566500,8.29456640625,-0.088078074157238,-0.2845471203327179,-0.805580735206604
1686428467795512600,8.3045126953125,-0.04110629856586456,-0.0791071355342865,-0.7685883641242981
1686428467805457700,8.314457763671875,0.0010904083028435707,0.170329749584198,-0.6464880704879761
1686428467815403500,8.324403564453124,0.04472603648900986,0.35766714811325073,-0.4743573069572449
1686428467825349600,8.334349609375,0.0982191264629364,0.43137308955192566,-0.2974245250225067
1686428467835295700,8.344295654296875,0.17713843286037445,0.37391459941864014,-0.12917374074459076
1686428467845240600,8.354240478515624,0.2772953510284424,0.21869222819805145,0.01942870393395424
1686428467855186400,8.3641865234375,0.3816699683666229,0.06027701869606972,0.1423836648464203
1686428467865132500,8.374132568359375,0.4710221290588379,-0.03621869534254074,0.2861438989639282
1686428467875078700,8.38407861328125,0.5502844452857971,-0.03249906003475189,0.47325679659843445
1686428467885023500,8.3940234375,0.658833384513855,0.012692091055214405,0.7033801078796387
1686428467894969300,8.40396923828125,0.7849633097648621,0.0725540891289711,0.9557676315307617
1686428467904915500,8.41391552734375,0.8982036709785461,0.15506738424301147,1.2197500467300415
1686428467914861600,8.423861572265626,0.9526386857032776,0.21022439002990723,1.461194396018982
1686428467924807400,8.433807373046875,0.945748507976532,0.2233564704656601,1.7114146947860718
1686428467934752500,8.44375244140625,0.9063462018966675,0.23554815351963043,1.9210777282714844
1686428467944698600,8.45369873046875,0.8405406475067139,0.24189351499080658,2.011913299560547
1686428467954644700,8.463644775390625,0.7684259414672852,0.22326897084712982,1.994921088218689
1686428467964590600,8.473590576171874,0.731909990310669,0.16888096928596497,1.885274887084961
1686428467974535400,8.483535400390625,0.7619829177856445,0.13015781342983246,1.6850899457931519
1686428467984481500,8.4934814453125,0.7837784886360168,0.21406219899654388,1.4087847471237183
1686428467994427600,8.503427734375,0.7968055605888367,0.27634182572364807,1.1101559400558472
1686428468004373500,8.51337353515625,0.8019745349884033,0.2753794491291046,0.8393754363059998
1686428468014318600,8.523318603515625,0.8082265853881836,0.22402997314929962,0.64284747838974
1686428468024264400,8.533264404296874,0.7910152077674866,0.21788379549980164,0.5482925176620483
1686428468034210600,8.54321044921875,0.7750104069709778,0.13542327284812927,0.5603185892105103
1686428468044156700,8.55315673828125,0.7739423513412476,0.027345336973667145,0.6581529974937439
1686428468054102800,8.563102783203124,0.781154215335846,-0.0694054439663887,0.795934796333313
1686428468064047600,8.573047607421875,0.7894268035888672,-0.16073988378047943,0.8970433473587036
1686428468073993700,8.58299365234375,0.7861713767051697,-0.2066546529531479,0.923617422580719
1686428468083939600,8.592939697265624,0.7821874022483826,-0.20068146288394928,0.873683750629425
1686428468093885700,8.6028857421875,0.7978800535202026,-0.15986426174640656,0.775366485118866
1686428468103830500,8.61283056640625,0.8386500477790833,-0.10912851989269257,0.6742081046104431
1686428468113776600,8.622776611328124,0.8891733884811401,-0.09193968772888184,0.6061936616897583
1686428468123722500,8.632722412109375,0.9209185242652893,-0.08887939900159836,0.5800511837005615
1686428468133668600,8.642668701171875,0.9308606386184692,-0.15757615864276886,0.5840150117874146
1686428468143613700,8.65261376953125,0.8946813344955444,-0.13685637712478638,0.6059424877166748
1686428468153559800,8.662559814453125,0.8323766589164734,-0.20448869466781616,0.5769507884979248
1686428468163505700,8.672505615234375,0.7661241292953491,-0.28670424222946167,0.4348668158054352
1686428468173451800,8.68245166015625,0.7017949223518372,-0.3750324845314026,0.2360256314277649
1686428468183397600,8.692397705078125,0.625190794467926,-0.4014682173728943,0.062265146523714066
1686428468193342700,8.7023427734375,0.5207679867744446,-0.3776819109916687,-0.05189977586269379
1686428468203288600,8.71228857421875,0.4232560992240906,-0.30658990144729614,-0.10546500235795975
1686428468213234700,8.722234619140625,0.31537169218063354,-0.19257889688014984,-0.14191648364067078
1686428468223180500,8.7321806640625,0.19835114479064941,-0.08762917667627335,-0.19569949805736542
1686428468233125600,8.742125732421876,0.06872418522834778,-0.03171664476394653,-0.2880920171737671
1686428468243071500,8.752071533203125,-0.062248919159173965,-0.015409511514008045,-0.3922944664955139
1686428468253017600,8.762017578125,-0.1900995522737503,-0.03808792680501938,-0.4655582904815674
1686428468262963500,8.77196337890625,-0.30584269762039185,-0.10960119962692261,-0.49787604808807373
1686428468272909600,8.78190966796875,-0.38431301712989807,-0.2631734609603882,-0.463302880525589
1686428468282854700,8.791854736328125,-0.4104049503803253,-0.4761136770248413,-0.37074434757232666
1686428468292800800,8.80180078125,-0.4023432731628418,-0.6933889985084534,-0.19469954073429108
1686428468302746600,8.81174658203125,-0.351799339056015,-0.899320125579834,0.09044231474399567
1686428468312692700,8.821692626953125,-0.2554483115673065,-0.920381486415863,0.37536513805389404
1686428468322637600,8.831637451171876,-0.17238761484622955,-0.6733886003494263,0.37866759300231934
1686428468332583700,8.841583740234375,-0.18651463091373444,-0.31018856167793274,-0.03910515084862709
1686428468342529500,8.851529541015625,-0.338087797164917,-0.1281871646642685,-0.6188501715660095
1686428468352475600,8.8614755859375,-0.5342647433280945,-0.025085557252168655,-1.0214787721633911
1686428468362420500,8.87142041015625,-0.6025957465171814,0.12256312370300293,-1.1278342008590698
1686428468372366600,8.88136669921875,-0.5574634075164795,0.34850171208381653,-1.0328530073165894
1686428468382312400,8.8913125,-0.5375349521636963,0.4716116189956665,-0.8698009848594666
1686428468392258600,8.901258544921875,-0.628424346446991,0.477546751499176,-0.7434039115905762
1686428468402204400,8.911204345703124,-0.7848371863365173,0.3664103150367737,-0.6852413415908813
1686428468412149800,8.921149658203126,-0.9077447652816772,0.29589593410491943,-0.6496447324752808
1686428468422095600,8.931095703125,-0.9357495307922363,0.2562357485294342,-0.6201537847518921
1686428468432041700,8.941041748046874,-0.8675662279129028,0.2659919857978821,-0.5897971987724304
1686428468441987600,8.950987548828126,-0.7425057291984558,0.22554832696914673,-0.5471819639205933
1686428468451932700,8.9609326171875,-0.6125000715255737,0.19147931039333344,-0.4853774905204773
1686428468461878500,8.97087841796875,-0.4990094304084778,0.13367825746536255,-0.4189686179161072
1686428468471824600,8.98082470703125,-0.42666226625442505,0.0805514007806778,-0.37993279099464417
1686428468481770500,8.9907705078125,-0.39436858892440796,0.03456573188304901,-0.3868589997291565
1686428468491715600,9.000715576171874,-0.38232365250587463,-0.03507513552904129,-0.4373147189617157
1686428468501661400,9.010661376953125,-0.3999822437763214,-0.12065259367227554,-0.5219613313674927
1686428468511607600,9.020607666015625,-0.4241488575935364,-0.225473552942276,-0.6370186805725098
1686428468521553400,9.030553466796874,-0.4399639070034027,-0.40604734420776367,-0.7423533201217651
1686428468531499500,9.04049951171875,-0.44850093126296997,-0.43761005997657776,-0.8086905479431152
1686428468541444600,9.050444580078125,-0.4373863935470581,-0.43858471512794495,-0.8279610872268677
1686428468551390700,9.060390625,-0.41633304953575134,-0.4307422339916229,-0.770548939704895
1686428468561336600,9.070336669921875,-0.40149423480033875,-0.4209113121032715,-0.6382377743721008
1686428468571282700,9.08028271484375,-0.4000646471977234,-0.4268224537372589,-0.45062556862831116
1686428468581227500,9.0902275390625,-0.407058984041214,-0.40328022837638855,-0.24802009761333466
1686428468591173600,9.100173583984375,-0.40905022621154785,-0.34075987339019775,-0.07452154904603958
1686428468601119500,9.110119384765625,-0.3896855115890503,-0.2414972484111786,0.023812079802155495
1686428468611065600,9.120065673828124,-0.3561890721321106,-0.13190816342830658,0.012032919563353062
1686428468621010400,9.130010498046875,-0.319075345993042,-0.050338901579380035,-0.09946498274803162
1686428468630956500,9.13995654296875,-0.2784197926521301,-0.03774108365178108,-0.26083043217658997
1686428468640902400,9.14990234375,-0.2527652084827423,-0.022262364625930786,-0.4308920204639435
1686428468650848500,9.1598486328125,-0.24579039216041565,0.056803423911333084,-0.559246301651001
1686428468660794600,9.169794677734375,-0.23576271533966064,0.03782277554273605,-0.5972908139228821
1686428468670739700,9.17973974609375,-0.24352715909481049,0.024103235453367233,-0.5523400902748108
1686428468680685600,9.189685546875,-0.26419857144355774,0.07519173622131348,-0.4326334595680237
1686428468690631700,9.199631591796875,-0.2834068834781647,0.07957583665847778,-0.2651006579399109
1686428468700577500,9.20957763671875,-0.2914879024028778,0.11635290086269379,-0.10415685921907425
1686428468710522600,9.219522705078125,-0.28320202231407166,0.1366051733493805,0.014376447536051273
1686428468720468500,9.229468505859375,-0.2797999680042267,0.06446714699268341,0.07391226291656494
1686428468730414600,9.23941455078125,-0.28331029415130615,-0.004425368271768093,0.07137187570333481
1686428468740360400,9.2493603515625,-0.28623539209365845,-0.017968714237213135,0.031484782695770264
1686428468750305500,9.259305419921875,-0.28662580251693726,-0.015450161881744862,-0.007905500940978527
1686428468760251600,9.269251708984376,-0.30118128657341003,-0.06911424547433853,-0.010512732900679111
1686428468770197500,9.279197509765625,-0.3171863257884979,0.006951227784156799,-0.017015373334288597
1686428468780143600,9.2891435546875,-0.31317296624183655,0.04303670674562454,-0.0457390621304512
1686428468790089700,9.29908984375,-0.3012808859348297,0.044561099261045456,-0.10929353535175323
1686428468800034600,9.30903466796875,-0.305499792098999,0.09927428513765335,-0.1784200817346573
1686428468809980700,9.318980712890625,-0.3116508722305298,0.025587011128664017,-0.23028594255447388
1686428468819926500,9.328926513671876,-0.320241242647171,0.0035610334016382694,-0.30763110518455505
1686428468829872600,9.33887255859375,-0.33755046129226685,0.0369272455573082,-0.3979625999927521
1686428468839817500,9.3488173828125,-0.33273470401763916,-0.018463432788848877,-0.4827018082141876
1686428468849763600,9.358763671875,-0.3021267354488373,-0.09966907650232315,-0.5329327583312988
1686428468859709400,9.36870947265625,-0.2632769048213959,-0.2196870595216751,-0.5458909869194031
1686428468869655600,9.378655517578125,-0.250196248292923,-0.3251309096813202,-0.5282922983169556
1686428468879601400,9.388601318359376,-0.2769312262535095,-0.3692949414253235,-0.48621562123298645
1686428468889546800,9.398546630859375,-0.2846226990222931,-0.31445860862731934,-0.4829452633857727
1686428468899492600,9.40849267578125,-0.24165600538253784,-0.28839972615242004,-0.5519658923149109
1686428468909438700,9.418438720703126,-0.1961337924003601,-0.2969396710395813,-0.6583317518234253
1686428468919384600,9.428384521484375,-0.19542290270328522,-0.31070655584335327,-0.7518988847732544
1686428468929329700,9.43832958984375,-0.21103914082050323,-0.28196972608566284,-0.8009065985679626
1686428468939275500,9.448275634765626,-0.18456615507602692,-0.16091288626194,-0.7816146016120911
1686428468949221600,9.4582216796875,-0.10800080746412277,0.03133217990398407,-0.6728090047836304
1686428468959167500,9.46816748046875,-0.0036783553659915924,0.2413070946931839,-0.49330103397369385
1686428468969112600,9.478112548828125,0.1035386472940445,0.39199167490005493,-0.2832423448562622
1686428468979058400,9.488058349609375,0.1936412751674652,0.4131096601486206,-0.0717025101184845
1686428468989004500,9.498004638671874,0.26763373613357544,0.2638605237007141,0.12174791097640991
1686428468998950400,9.507950439453126,0.33325207233428955,0.06698672473430634,0.300579309463501
1686428469008896500,9.517896484375,0.4056226909160614,-0.11377319693565369,0.46244731545448303
1686428469018841600,9.527841552734374,0.49943333864212036,-0.2268753945827484,0.6134963035583496
1686428469028787700,9.53778759765625,0.6235688924789429,-0.19347243010997772,0.7582446932792664
1686428469038733600,9.547733642578125,0.7472224235534668,-0.09162142127752304,0.8933231234550476
1686428469048679700,9.5576796875,0.8371365666389465,0.00933715421706438,1.0409187078475952
1686428469058624500,9.56762451171875,0.8838725686073303,0.10534998774528503,1.21906578540802
1686428469068570600,9.577570556640625,0.9291436672210693,0.2031306028366089,1.4809021949768066
1686428469078516500,9.5875166015625,0.9662855863571167,0.2792617976665497,1.7547461986541748
1686428469088462600,9.597462646484376,0.9748218059539795,0.3628360629081726,1.9682291746139526
1686428469098408400,9.607408447265625,0.9534008502960205,0.4371335804462433,2.0926966667175293
1686428469108353500,9.617353515625,0.9203510284423828,0.4650474786758423,2.0866599082946777
1686428469118299400,9.62729931640625,0.883672297000885,0.49375730752944946,1.904031753540039
1686428469128245500,9.63724560546875,0.8310972452163696,0.4777916669845581,1.5927244424819946
1686428469138191400,9.64719140625,0.7778341770172119,0.45757046341896057,1.2184882164001465
1686428469148136700,9.65713671875,0.7309992909431458,0.36001646518707275,0.8539054989814758
1686428469158082600,9.66708251953125,0.6913977265357971,0.2595166563987732,0.5826075077056885
1686428469168028700,9.677028564453124,0.6605146527290344,0.22159722447395325,0.440955251455307
1686428469177975300,9.686975341796876,0.6511980295181274,0.24895420670509338,0.4272816777229309
1686428469187921400,9.69692138671875,0.6743491888046265,0.26995086669921875,0.5042411684989929
1686428469197866200,9.7068662109375,0.7068095207214355,0.2807497978210449,0.6119949221611023
1686428469207812400,9.716812255859375,0.735690176486969,0.2144717127084732,0.6934362649917603
1686428469217758200,9.72675830078125,0.7554984092712402,0.11443336308002472,0.7047985196113586
1686428469227704300,9.736704345703124,0.7704443335533142,0.08469251543283463,0.671221911907196
1686428469237649200,9.746649169921875,0.7963029146194458,0.0953240841627121,0.6110776662826538
1686428469247595300,9.75659521484375,0.8434461951255798,0.1219029650092125,0.5693257451057434
1686428469257541000,9.766541015625,0.9073406457901001,0.1320396065711975,0.5591617226600647
1686428469267487200,9.7764873046875,0.9680702686309814,0.10091151297092438,0.5712788701057434
1686428469277432300,9.786432373046875,0.9930781126022339,0.026426076889038086,0.578112006187439
1686428469287378400,9.79637841796875,0.9938048124313354,-0.117023766040802,0.5442467331886292
1686428469297324300,9.80632421875,0.928306519985199,-0.17059998214244843,0.46798959374427795
1686428469307270400,9.8162705078125,0.8250043988227844,-0.20423144102096558,0.37162283062934875
1686428469317216300,9.82621630859375,0.7404854893684387,-0.3018721640110016,0.2428474873304367
1686428469327161300,9.836161376953125,0.6510969996452332,-0.28797101974487305,0.1512957364320755
1686428469337107200,9.846107177734375,0.5328466296195984,-0.22838640213012695,0.07623135298490524
1686428469347053300,9.85605322265625,0.4361925423145294,-0.13830551505088806,0.010487760417163372
1686428469356999200,9.865999267578125,0.3402382731437683,-0.020522652193903923,-0.08460435271263123
1686428469366944300,9.8759443359375,0.2536943256855011,0.056905291974544525,-0.1798134297132492
1686428469376890000,9.88589013671875,0.1508225053548813,0.08737406134605408,-0.2720414102077484
1686428469386836200,9.895836181640625,0.03353210911154747,0.068346306681633,-0.3457329571247101
1686428469396782000,9.905781982421875,-0.08655800670385361,0.01915254257619381,-0.401941180229187
1686428469406728200,9.915728271484374,-0.21365788578987122,-0.022692907601594925,-0.4355561435222626
1686428469416673300,9.92567333984375,-0.332581490278244,-0.06025853753089905,-0.4445142149925232
1686428469426619400,9.935619384765625,-0.4225422739982605,-0.14818120002746582,-0.4420614242553711
1686428469436565200,9.945565185546876,-0.4801420271396637,-0.25249770283699036,-0.4239567816257477
1686428469446511400,9.955511474609375,-0.5037842392921448,-0.4144352078437805,-0.29256734251976013
1686428469456456200,9.965456298828125,-0.4419040381908417,-0.7473682165145874,0.001225037733092904
1686428469466402300,9.97540234375,-0.2715192437171936,-0.9455492496490479,0.35425475239753723
1686428469476348200,9.98534814453125,-0.09668915718793869,-0.7780382633209229,0.4373670518398285
1686428469486294300,9.995294189453125,-0.014205734245479107,-0.45018261671066284,0.05197756737470627
1686428469496240000,10.005240234375,-0.08943385630846024,-0.2587463855743408,-0.5363558530807495
1686428469506185200,10.015185302734375,-0.28191807866096497,-0.10563565790653229,-0.9260604977607727
1686428469516131000,10.025131103515625,-0.4503912925720215,0.09779822826385498,-1.0375382900238037
1686428469526077200,10.0350771484375,-0.5196331739425659,0.23014454543590546,-1.0162556171417236
1686428469536023000,10.04502294921875,-0.5561689734458923,0.37418967485427856,-0.9318261742591858
1686428469545969200,10.05496923828125,-0.6389282941818237,0.5065186619758606,-0.8214592337608337
1686428469555914200,10.064914306640626,-0.7803676724433899,0.5110411643981934,-0.746728241443634
1686428469565860400,10.0748603515625,-0.9214251637458801,0.47786587476730347,-0.6884481310844421
1686428469575806200,10.08480615234375,-0.9900553226470947,0.41680485010147095,-0.6154398918151855
1686428469585752300,10.09475244140625,-0.9788473844528198,0.3985113501548767,-0.5095770955085754
1686428469595697200,10.104697265625,-0.8927791118621826,0.32869622111320496,-0.39516714215278625
1686428469605643300,10.114643310546874,-0.7723395228385925,0.2374134510755539,-0.29541313648223877
1686428469615589000,10.124589111328126,-0.6593355536460876,0.16678546369075775,-0.2279890775680542
1686428469625535200,10.13453515625,-0.5636705160140991,0.12261854112148285,-0.21721792221069336
1686428469635480000,10.14447998046875,-0.5096770524978638,0.0819905549287796,-0.278454065322876
1686428469645426200,10.15442626953125,-0.4987567067146301,0.061672501266002655,-0.39165252447128296
1686428469655372000,10.1643720703125,-0.5160672664642334,-0.008929315023124218,-0.5218684077262878
1686428469665318100,10.174318115234374,-0.541348397731781,-0.1818254590034485,-0.6398406028747559
1686428469675264000,10.184263916015626,-0.5985543131828308,-0.1845404952764511,-0.7469583749771118
1686428469685209300,10.194209228515625,-0.600249171257019,-0.21940714120864868,-0.8060200810432434
1686428469695155200,10.2041552734375,-0.579386293888092,-0.24465610086917877,-0.8042001724243164
1686428469705101300,10.214101318359376,-0.5558839440345764,-0.2515196204185486,-0.7351494431495667
1686428469715047200,10.224047119140625,-0.5552932620048523,-0.2647705078125,-0.5974137187004089
1686428469724993300,10.2339931640625,-0.5673507452011108,-0.2618546187877655,-0.43871650099754333
1686428469734938000,10.243938232421876,-0.5498824715614319,-0.2723274230957031,-0.287593811750412
1686428469744884200,10.25388427734375,-0.5141510963439941,-0.21862396597862244,-0.18027852475643158
1686428469754830000,10.263830078125,-0.46795737743377686,-0.13346129655838013,-0.13415935635566711
1686428469764776200,10.273776123046876,-0.4181152582168579,-0.032955996692180634,-0.1657383292913437
1686428469774721000,10.283720947265625,-0.3854010999202728,0.010675039142370224,-0.26562243700027466
1686428469784667100,10.293667236328124,-0.3794896602630615,0.08453648537397385,-0.39817914366722107
1686428469794613200,10.30361328125,-0.37276044487953186,0.04617629572749138,-0.5002465844154358
1686428469804559000,10.31355908203125,-0.38204848766326904,0.10918482393026352,-0.536025881767273
1686428469814505200,10.323505126953124,-0.3871374726295471,0.2296363264322281,-0.5019305944442749
1686428469824450300,10.3334501953125,-0.3733963668346405,0.31751927733421326,-0.40483972430229187
1686428469834396200,10.343396240234375,-0.3443165123462677,0.36912959814071655,-0.2654275894165039
1686428469844342300,10.35334228515625,-0.3110336661338806,0.4025844931602478,-0.121892549097538
1686428469854288100,10.3632880859375,-0.2955347001552582,0.42399293184280396,-0.004709683824330568
1686428469864233200,10.373233154296875,-0.28934234380722046,0.415837824344635,0.07491643726825714
1686428469874179000,10.383178955078124,-0.281825989484787,0.3732810914516449,0.10351170599460602
1686428469884125200,10.393125244140625,-0.26367655396461487,0.3262922763824463,0.08019065856933594
1686428469894071000,10.403071044921875,-0.24181362986564636,0.2647572457790375,0.03159854933619499
1686428469904017200,10.41301708984375,-0.22002124786376953,0.20616424083709717,-0.02137172594666481
1686428469913962200,10.422962158203125,-0.2013210505247116,0.17774930596351624,-0.07304898649454117
1686428469923908400,10.432908447265625,-0.18253858387470245,0.15832526981830597,-0.103042833507061
1686428469933854200,10.442854248046874,-0.17148123681545258,0.1753632128238678,-0.10533195734024048
1686428469943800300,10.45280029296875,-0.1618395298719406,0.2044779509305954,-0.10043972730636597
1686428469953745200,10.4627451171875,-0.16913260519504547,0.23860308527946472,-0.1038677766919136
1686428469963691300,10.472691162109374,-0.19648219645023346,0.1526373028755188,-0.10971234738826752
1686428469973637000,10.48263720703125,-0.23395203053951263,0.14887234568595886,-0.11786467581987381
1686428469983583200,10.492583251953125,-0.28996366262435913,0.23580697178840637,-0.12566667795181274
1686428469993529300,10.502529296875,-0.3407471477985382,0.2869373559951782,-0.12718744575977325
1686428470003474200,10.51247412109375,-0.3724896311759949,0.24978385865688324,-0.14180713891983032
1686428470013420000,10.522419921875,-0.39382025599479675,0.18810278177261353,-0.20333239436149597
1686428470023366100,10.5323662109375,-0.39063164591789246,0.11519607156515121,-0.28839510679244995
1686428470033312300,10.542312255859375,-0.3670220375061035,0.032578594982624054,-0.363995760679245
1686428470043258000,10.552258056640625,-0.3259792625904083,-0.05325934663414955,-0.4250500798225403
1686428470053203200,10.562203125,-0.2669672667980194,-0.12011247128248215,-0.478654682636261
1686428470063149300,10.5721494140625,-0.21522898972034454,-0.135939359664917,-0.5200868248939514
1686428470073095200,10.58209521484375,-0.21274855732917786,-0.13037070631980896,-0.5495296120643616
1686428470083041300,10.592041259765624,-0.25779566168785095,-0.2010054588317871,-0.5625492930412292
1686428470092986000,10.601986083984375,-0.2889736592769623,-0.24162256717681885,-0.6015124917030334
1686428470102932200,10.61193212890625,-0.2973732650279999,-0.292415976524353,-0.6464411020278931
1686428470112878000,10.621878173828126,-0.2790353298187256,-0.28108930587768555,-0.7021416425704956
1686428470122824200,10.63182421875,-0.2422379106283188,-0.17238999903202057,-0.771748423576355
1686428470132770300,10.641770263671875,-0.21139207482337952,-0.03102434054017067,-0.8066723942756653
1686428470142715100,10.651715087890626,-0.1794583797454834,0.12096598744392395,-0.7780908346176147
1686428470152661000,10.661660888671875,-0.116472028195858,0.2920929789543152,-0.6721449494361877
1686428470162607000,10.671607177734375,-0.015879638493061066,0.45073482394218445,-0.5025423169136047
1686428470172552400,10.681552490234376,0.10313938558101654,0.5159544348716736,-0.31121528148651123
1686428470182497300,10.691497314453125,0.22900544106960297,0.4763292670249939,-0.12333883345127106
1686428470192443400,10.701443359375,0.35413044691085815,0.34255173802375793,0.05939638614654541
1686428470202389200,10.71138916015625,0.4611479640007019,0.18489181995391846,0.24270787835121155
1686428470212335400,10.72133544921875,0.5480138063430786,0.01496974378824234,0.42583850026130676
1686428470222281200,10.73128125,0.6343697905540466,-0.09447791427373886,0.6165522933006287
1686428470232226300,10.741226318359375,0.75777667760849,-0.13543012738227844,0.7863677740097046
1686428470242172200,10.751172119140625,0.8885709047317505,-0.1039733961224556,0.9713863730430603
1686428470252118300,10.7611181640625,0.996466338634491,-0.05765019729733467,1.1671972274780273
1686428470262064000,10.771064208984376,1.067609190940857,-0.010926632210612297,1.408474326133728
1686428470272010200,10.78101025390625,1.1028581857681274,0.021417660638689995,1.727272391319275
1686428470281955300,10.790955322265624,1.0903605222702026,0.055648066103458405,1.9934002161026
1686428470291901400,10.8009013671875,1.0578534603118896,0.0981837660074234,2.14311146736145
1686428470301847300,10.810847412109375,1.0252423286437988,0.1707535684108734,2.1583411693573
1686428470311793400,10.82079345703125,1.023169994354248,0.17421787977218628,1.9948979616165161
1686428470321738200,10.83073828125,1.0019326210021973,0.19128234684467316,1.6848660707473755
1686428470331684400,10.840684326171875,0.9511944055557251,0.21491411328315735,1.2934755086898804
1686428470341630200,10.850630126953124,0.8722599148750305,0.19582030177116394,0.9140565991401672
1686428470351576300,10.860576416015626,0.8011878728866577,0.16052651405334473,0.6218931674957275
1686428470361522400,10.8705224609375,0.7485321164131165,0.1367253065109253,0.46881067752838135
1686428470371467300,10.88046728515625,0.7119680643081665,0.07394993305206299,0.47237056493759155
1686428470381413000,10.8904130859375,0.6990174055099487,-0.007852518931031227,0.6004001498222351
1686428470391359200,10.900359130859375,0.7035527229309082,-0.08795198053121567,0.7744542360305786
1686428470401305300,10.910305419921874,0.7188736200332642,-0.1707478016614914,0.9170877933502197
1686428470411251200,10.920251220703125,0.7451192140579224,-0.2330443561077118,0.9758707880973816
1686428470421196300,10.9301962890625,0.7711707949638367,-0.23866842687129974,0.9523327350616455
1686428470431142400,10.940142333984374,0.8047080636024475,-0.20885586738586426,0.8694023489952087
1686428470441088500,10.950088623046875,0.862220048904419,-0.15912799537181854,0.7817385196685791
1686428470451034400,10.960034423828125,0.9283647537231445,-0.06636635959148407,0.7286050319671631
1686428470460979200,10.969979248046876,0.9648870825767517,0.009550768882036209,0.7159907221794128
1686428470470925300,10.97992529296875,0.9812463521957397,-0.011130107566714287,0.6955202221870422
1686428470480871400,10.989871337890625,0.9757202863693237,-0.10648858547210693,0.647856593132019
1686428470490817300,10.9998173828125,0.9549818634986877,-0.24036072194576263,0.5411805510520935
1686428470500763400,11.009763427734375,0.8625310659408569,-0.2842738628387451,0.42317935824394226
1686428470510708200,11.019708251953125,0.7569562196731567,-0.41131964325904846,0.30045586824417114
1686428470520654300,11.029654296875,0.6829533576965332,-0.49561136960983276,0.20231465995311737
1686428470530600200,11.03960009765625,0.5818976163864136,-0.43716850876808167,0.1517866551876068
1686428470540546300,11.04954638671875,0.4814002811908722,-0.3408944308757782,0.10459677875041962
1686428470550492200,11.0594921875,0.38459232449531555,-0.23797982931137085,0.030384600162506104
1686428470560437500,11.0694375,0.28365984559059143,-0.14580117166042328,-0.061016153544187546
1686428470570383400,11.07938330078125,0.1770840287208557,-0.08746328204870224,-0.14210344851016998
1686428470580329500,11.08932958984375,0.07459335029125214,-0.08097849041223526,-0.20835517346858978
1686428470590275300,11.099275390625,-0.016641788184642792,-0.11254724115133286,-0.27094149589538574
1686428470600220400,11.109220458984375,-0.09553660452365875,-0.17136183381080627,-0.32525506615638733
1686428470610166300,11.119166259765626,-0.16901296377182007,-0.2300606518983841,-0.35493203997612
1686428470620112400,11.1291123046875,-0.22896498441696167,-0.3150860667228699,-0.3631976842880249
1686428470630058200,11.139058349609375,-0.2714257538318634,-0.39913511276245117,-0.3245477080345154
1686428470640004400,11.14900439453125,-0.2874467968940735,-0.5546743869781494,-0.2305365353822708
1686428470649949400,11.158949462890625,-0.23301872611045837,-0.8069125413894653,-0.04075836390256882
1686428470659895300,11.168895263671875,-0.0922112688422203,-0.9515733122825623,0.203532874584198
1686428470669841400,11.17884130859375,0.056119754910469055,-0.8789848685264587,0.3333510160446167
1686428470679787500,11.18878759765625,0.11371833831071854,-0.650113582611084,0.11957801878452301
1686428470689733400,11.1987333984375,0.017390858381986618,-0.4596836268901825,-0.41838353872299194
1686428470699678500,11.208678466796876,-0.16889779269695282,-0.29236096143722534,-0.9079294800758362
1686428470709624300,11.218624267578125,-0.3120492994785309,-0.11079621315002441,-1.094949722290039
1686428470719570400,11.2285703125,-0.34981533885002136,0.014460243284702301,-0.9921318292617798
1686428470729516300,11.238516357421876,-0.38579297065734863,0.1634046733379364,-0.7691303491592407
1686428470739462400,11.24846240234375,-0.5105854868888855,0.2721138596534729,-0.5940911769866943
1686428470749407200,11.2584072265625,-0.7026455998420715,0.27005535364151,-0.5429311394691467
1686428470759353300,11.268353271484376,-0.8885281085968018,0.2271994650363922,-0.5993978977203369
1686428470769299200,11.27829931640625,-0.999141275882721,0.21702462434768677,-0.659084677696228
1686428470779245300,11.288245361328125,-1.0003410577774048,0.2519400119781494,-0.6614477038383484
1686428470789190400,11.2981904296875,-0.9216951727867126,0.2981160581111908,-0.6095796823501587
1686428470799136500,11.308136474609375,-0.812293291091919,0.3250981569290161,-0.5394511818885803
1686428470809082400,11.318082275390625,-0.710472822189331,0.32650649547576904,-0.4587016701698303
1686428470819028500,11.328028564453126,-0.6230140924453735,0.28778013586997986,-0.36413493752479553
1686428470828974300,11.337974365234375,-0.5527558326721191,0.23274195194244385,-0.2707945704460144
1686428470838919400,11.34791943359375,-0.5112965703010559,0.17272546887397766,-0.21311236917972565
1686428470848865300,11.357865234375,-0.49268612265586853,0.09660478681325912,-0.2162589132785797
1686428470858811400,11.367811279296875,-0.48184600472450256,0.0065665035508573055,-0.2855903208255768
1686428470868757200,11.37775732421875,-0.48356589674949646,-0.13102270662784576,-0.4213181138038635
1686428470878703400,11.387703369140626,-0.4681989252567291,-0.1525021642446518,-0.5613812208175659
1686428470888648200,11.397648193359375,-0.46926775574684143,-0.2093963921070099,-0.6921184062957764
1686428470898594300,11.40759423828125,-0.46521228551864624,-0.2386632114648819,-0.779192328453064
1686428470908540200,11.4175400390625,-0.44143325090408325,-0.25972816348075867,-0.7990714311599731
1686428470918486300,11.427486328125,-0.40422433614730835,-0.27242955565452576,-0.7413024306297302
1686428470928431400,11.437431396484374,-0.3954964876174927,-0.29301899671554565,-0.6186979413032532
1686428470938377500,11.44737744140625,-0.3848971128463745,-0.3175453841686249,-0.44019240140914917
1686428470948323300,11.4573232421875,-0.36796608567237854,-0.2884679138660431,-0.25658103823661804
1686428470958269400,11.46726953125,-0.3286796510219574,-0.2077118158340454,-0.10804427415132523
1686428470968215300,11.47721533203125,-0.2870771884918213,-0.11599680036306381,-0.039543140679597855
1686428470978160400,11.487160400390625,-0.2542862296104431,-0.12373088300228119,-0.05941937491297722
1686428470988106200,11.497106201171874,-0.243008553981781,-0.11467746645212173,-0.161874920129776
1686428470998052400,11.50705224609375,-0.24576279520988464,-0.0704554095864296,-0.30028286576271057
1686428471007998200,11.516998291015625,-0.2523270845413208,-0.012624509632587433,-0.4271058440208435
1686428471017944300,11.5269443359375,-0.25011318922042847,0.03841311112046242,-0.5028147101402283
1686428471027889200,11.53688916015625,-0.24262572824954987,0.0796862468123436,-0.519277036190033
1686428471037835300,11.546835205078125,-0.23692816495895386,0.08411135524511337,-0.47820499539375305
1686428471047781000,11.556781005859374,-0.22570033371448517,0.0767601728439331,-0.39652761816978455
1686428471057727200,11.566727294921876,-0.2240755259990692,0.06432507932186127,-0.2877257764339447
1686428471067673300,11.57667333984375,-0.22571752965450287,0.07254428416490555,-0.18115124106407166
1686428471077618400,11.586618408203124,-0.2239726334810257,0.07461809366941452,-0.10447324067354202
1686428471087564300,11.596564208984375,-0.21622097492218018,0.05316659435629845,-0.0759664997458458
1686428471097510400,11.606510498046875,-0.21946284174919128,0.012040463276207447,-0.09232709556818008
1686428471107456500,11.61645654296875,-0.2333531528711319,-0.04326214641332626,-0.13272725045681
1686428471117401300,11.6264013671875,-0.24432431161403656,-0.019019125029444695,-0.16341114044189453
1686428471127347200,11.63634716796875,-0.22383953630924225,-0.034846652299165726,-0.1569380760192871
1686428471137293300,11.646293212890624,-0.1918051689863205,0.013073200359940529,-0.1264675259590149
1686428471147239200,11.6562392578125,-0.1682472676038742,0.14199110865592957,-0.11364306509494781
1686428471157185300,11.666185302734375,-0.15312424302101135,0.19588656723499298,-0.1262318193912506
1686428471167130000,11.676130126953124,-0.14605608582496643,0.20389452576637268,-0.16402749717235565
1686428471177076500,11.686076416015625,-0.15043726563453674,0.21596236526966095,-0.21528509259223938
1686428471187022600,11.696022705078125,-0.16350378096103668,0.2332082986831665,-0.26289278268814087
1686428471196968400,11.705968505859374,-0.18709592521190643,0.26177307963371277,-0.2794643044471741
1686428471206914600,11.71591455078125,-0.22531217336654663,0.27324342727661133,-0.26200416684150696
1686428471216859600,11.725859619140625,-0.2772214412689209,0.2357349395751953,-0.21752698719501495
1686428471226805800,11.7358056640625,-0.3328595459461212,0.24404898285865784,-0.1605694741010666
1686428471236751600,11.745751708984375,-0.3745090067386627,0.24647779762744904,-0.0968317836523056
1686428471246697700,11.75569775390625,-0.40101000666618347,0.22040361166000366,-0.05463476479053497
1686428471256643600,11.7656435546875,-0.4003695249557495,0.14718638360500336,-0.06256885081529617
1686428471266588700,11.775588623046875,-0.3935277760028839,0.1871793121099472,-0.1104191243648529
1686428471276534500,11.785534423828125,-0.3537513315677643,0.11742526292800903,-0.1610519289970398
1686428471286480600,11.795480712890624,-0.3116829991340637,0.002611767500638962,-0.2181786298751831
1686428471296426500,11.805426513671875,-0.3158971965312958,-0.09096532315015793,-0.3069588541984558
1686428471306372600,11.81537255859375,-0.36336392164230347,-0.1317528933286667,-0.42227813601493835
1686428471316317400,11.8253173828125,-0.4271828532218933,-0.14136292040348053,-0.5609254837036133
1686428471326263600,11.835263671875,-0.495997816324234,-0.1573079228401184,-0.7053710222244263
1686428471336209400,11.84520947265625,-0.5694450736045837,-0.1848447471857071,-0.8108194470405579
1686428471346155500,11.855155517578124,-0.6446710824966431,-0.18379515409469604,-0.8316386938095093
1686428471356100600,11.8651005859375,-0.6875311732292175,-0.17143514752388,-0.7828357219696045
1686428471366046700,11.875046630859375,-0.6478915214538574,-0.14884565770626068,-0.7011441588401794
1686428471375992600,11.88499267578125,-0.509475827217102,-0.05629362165927887,-0.6346452832221985
1686428471385938700,11.894938720703125,-0.311148077249527,0.03529577702283859,-0.6208814382553101
1686428471395884500,11.904884521484375,-0.16150613129138947,0.10296164453029633,-0.6308677792549133
1686428471405829600,11.91482958984375,-0.043384429067373276,0.18789038062095642,-0.6305992007255554
1686428471415775500,11.924775390625,0.0836973637342453,0.1578667014837265,-0.608005702495575
1686428471425721600,11.9347216796875,0.2166128009557724,0.14481838047504425,-0.5393704771995544
1686428471435667500,11.94466748046875,0.3285904824733734,0.005330786574631929,-0.41944965720176697
1686428471445613600,11.954613525390625,0.41827747225761414,-0.17970630526542664,-0.2648463249206543
1686428471455558700,11.96455859375,0.5052443146705627,-0.28514406085014343,-0.06924913078546524
1686428471465504800,11.9745048828125,0.5950541496276855,-0.27105703949928284,0.1872413009405136
1686428471475450600,11.98445068359375,0.6592080593109131,-0.18829932808876038,0.463164746761322
1686428471485396700,11.994396728515625,0.723847508430481,-0.08710886538028717,0.7300782799720764
1686428471495342600,12.004342529296874,0.792354166507721,-0.0022222045809030533,0.9718672037124634
1686428471505287700,12.01428759765625,0.8540346622467041,0.049514058977365494,1.1714270114898682
1686428471515233500,12.024233642578125,0.8903215527534485,0.06037949025630951,1.3583953380584717
1686428471525179600,12.0341796875,0.8853830695152283,0.021929237991571426,1.5338364839553833
1686428471535125500,12.04412548828125,0.8471614122390747,-0.04814678803086281,1.7144496440887451
1686428471545071600,12.054071533203125,0.8137658834457397,-0.10672131180763245,1.8803893327713013
1686428471555016400,12.064016357421876,0.8139680027961731,-0.15408270061016083,1.945954442024231
1686428471564962600,12.073962646484375,0.8381621241569519,-0.015595167875289917,1.8970041275024414
1686428471574908400,12.083908447265625,0.9112358093261719,0.1339530348777771,1.7543686628341675
1686428471584854500,12.0938544921875,0.9862873554229736,0.21559138596057892,1.551941156387329
1686428471594800400,12.10380029296875,1.0135780572891235,0.28312116861343384,1.300214409828186
1686428471604745700,12.113745849609375,0.960699737071991,0.29883772134780884,1.0405665636062622
1686428471614691600,12.123691650390626,0.8865019083023071,0.2693916857242584,0.8091312050819397
1686428471624637700,12.1336376953125,0.842888355255127,0.2451770305633545,0.6347233057022095
1686428471634583600,12.14358349609375,0.8126862049102783,0.2300199270248413,0.5324699282646179
1686428471644529700,12.15352978515625,0.7839921712875366,0.16871954500675201,0.5074349641799927
1686428471654474500,12.163474609375,0.7449555993080139,0.09834125638008118,0.5511065721511841
1686428471664420600,12.173420654296875,0.7029599547386169,0.0523221381008625,0.6421220302581787
1686428471674366500,12.183366455078126,0.6675422787666321,0.029842395335435867,0.7445932626724243
1686428471684312600,12.1933125,0.6464980840682983,0.025403331965208054,0.8192176222801208
1686428471694258700,12.2032587890625,0.6515082716941833,0.02875358611345291,0.8565815091133118
1686428471704203500,12.21320361328125,0.6856306791305542,0.039979513734579086,0.8450080752372742
1686428471714149400,12.2231494140625,0.7419474720954895,0.022841008380055428,0.8006701469421387
1686428471724095500,12.233095458984375,0.7984322905540466,-0.015128478407859802,0.7412601113319397
1686428471734041600,12.24304150390625,0.8394543528556824,-0.06974315643310547,0.6904081106185913
1686428471743987500,12.252987548828125,0.8691293001174927,-0.16593414545059204,0.6507604718208313
1686428471753932500,12.2629326171875,0.8446899652481079,-0.16234233975410461,0.6397653222084045
1686428471763878700,12.272878662109376,0.8024665117263794,-0.2134881317615509,0.60994952917099
1686428471773824800,12.28282470703125,0.7501891851425171,-0.2760242223739624,0.5261017680168152
1686428471783770600,12.2927705078125,0.6873195171356201,-0.3277345895767212,0.38509148359298706
1686428471793716700,12.302716796875,0.6002450585365295,-0.3406647741794586,0.2119053155183792
1686428471803661600,12.31266162109375,0.528619647026062,-0.3622119724750519,0.0707707479596138
1686428471813607700,12.322607666015625,0.43037378787994385,-0.31206971406936646,-0.02466708794236183
1686428471823553500,12.332553466796876,0.3425319492816925,-0.2600082457065582,-0.07604719698429108
1686428471833499600,12.342499755859375,0.25981494784355164,-0.21041245758533478,-0.1131863072514534
1686428471843445500,12.352445556640625,0.18450026214122772,-0.18095819652080536,-0.1558087319135666
1686428471853390600,12.362390625,0.10204692929983139,-0.17209705710411072,-0.22534972429275513
1686428471863336400,12.37233642578125,0.006329260766506195,-0.18378014862537384,-0.3100704848766327
1686428471873282600,12.382282470703124,-0.08510825037956238,-0.19237177073955536,-0.38638707995414734
1686428471883228400,12.392228515625,-0.18067215383052826,-0.18591679632663727,-0.43659794330596924
1686428471893174500,12.402174560546875,-0.2711338698863983,-0.20321722328662872,-0.4567892253398895
1686428471903119600,12.41211962890625,-0.33717018365859985,-0.25702401995658875,-0.43785449862480164
1686428471913065700,12.422065673828126,-0.36873185634613037,-0.37074339389801025,-0.35858258605003357
1686428471923011600,12.432011474609375,-0.3408428430557251,-0.6306226849555969,-0.17240376770496368
