time,seconds_elapsed,z,y,x
1686428459600216800,0.109216796875,-50.21961975097656,-44.69166564941406,-1.602081298828125
1686428459610163000,0.119162841796875,-50.040977478027344,-44.71411895751953,-0.87982177734375
1686428459620108800,0.12910888671875,-50.17735290527344,-44.69819641113281,-0.1062774658203125
1686428459630054000,0.139053955078125,-50.45598602294922,-44.112335205078125,1.399658203125
1686428459639999700,0.148999755859375,-50.401641845703125,-44.112709045410156,2.6293563842773438
1686428459649945900,0.15894580078125,-50.88031005859375,-43.576759338378906,3.6867828369140625
1686428459659892000,0.16889208984375,-51.456748962402344,-43.11695861816406,4.546653747558594
1686428459669837000,0.178837158203125,-52.23497009277344,-42.53789520263672,5.3804473876953125
1686428459679783000,0.188782958984375,-52.69877624511719,-41.826568603515625,6.517814636230469
1686428459689729000,0.19872900390625,-52.717384338378906,-40.671295166015625,7.964088439941406
1686428459699673900,0.208673828125,-53.38372039794922,-39.60661315917969,9.018478393554688
1686428459709620000,0.218619873046875,-54.118927001953125,-38.658973693847656,10.411796569824219
1686428459719565800,0.22856591796875,-54.574493408203125,-37.37438201904297,11.451820373535156
1686428459729512000,0.238511962890625,-55.37416076660156,-36.194053649902344,12.525138854980469
1686428459739456800,0.248456787109375,-56.25227355957031,-34.90814208984375,13.419021606445312
1686428459749403000,0.25840283203125,-56.87522888183594,-33.3804931640625,14.181961059570312
1686428459759349000,0.268348876953125,-57.64927673339844,-31.72186279296875,15.240287780761719
1686428459769295000,0.278295166015625,-57.90179443359375,-30.34558868408203,16.989402770996094
1686428459779240000,0.288239990234375,-58.24967956542969,-28.62774658203125,18.876968383789062
1686428459789186000,0.29818603515625,-58.28120422363281,-26.830245971679688,20.37348175048828
1686428459799132000,0.3081318359375,-58.230987548828125,-25.087997436523438,22.563613891601562
1686428459809077000,0.318076904296875,-58.364593505859375,-23.44147491455078,24.42267608642578
1686428459819022800,0.32802294921875,-58.2086181640625,-21.49042510986328,26.507766723632812
1686428459828969000,0.337968994140625,-57.818145751953125,-20.04004669189453,28.77599334716797
1686428459838914800,0.347914794921875,-57.22441101074219,-18.592201232910156,31.025413513183594
1686428459848860000,0.35785986328125,-55.938690185546875,-17.18012237548828,33.381103515625
1686428459858806000,0.367805908203125,-54.170745849609375,-16.012802124023438,36.44255065917969
1686428459868752100,0.377752197265625,-52.000755310058594,-15.164146423339844,39.829750061035156
1686428459878698000,0.387697998046875,-49.6444091796875,-14.179771423339844,43.23675537109375
1686428459888643000,0.39764306640625,-46.79578399658203,-13.365180969238281,46.41473388671875
1686428459898589000,0.4075888671875,-43.100685119628906,-12.772209167480469,50.013397216796875
1686428459908535000,0.41753515625,-39.39087677001953,-12.390266418457031,52.805206298828125
1686428459918480000,0.42747998046875,-35.67767333984375,-11.45560073852539,55.64128112792969
1686428459928426000,0.437426025390625,-31.873016357421875,-10.581314086914062,58.13999938964844
1686428459938371800,0.447371826171875,-27.845657348632812,-9.394615173339844,59.831146240234375
1686428459948318000,0.45731787109375,-24.629989624023438,-7.272136688232422,61.652801513671875
1686428459958263000,0.467262939453125,-21.56329345703125,-4.887279510498047,62.830718994140625
1686428459968209200,0.477209228515625,-18.974868774414062,-2.4061851501464844,63.86665344238281
1686428459978155000,0.487155029296875,-16.75501251220703,0.16522598266601562,64.19721984863281
1686428459988101000,0.49710107421875,-14.621505737304688,2.9317169189453125,64.43313598632812
1686428459998046000,0.5070458984375,-13.108901977539062,5.500217437744141,64.44035339355469
1686428460007992000,0.516991943359375,-12.399024963378906,7.860774993896484,64.56192016601562
1686428460017938000,0.52693798828125,-11.887962341308594,10.293983459472656,63.78981018066406
1686428460027883000,0.536883056640625,-11.309791564941406,12.629684448242188,63.44438171386719
1686428460037828900,0.546828857421875,-10.962448120117188,15.523700714111328,62.50669860839844
1686428460047775000,0.55677490234375,-10.807373046875,18.184799194335938,61.77284240722656
1686428460057720800,0.566720947265625,-11.060951232910156,20.8984375,60.92292785644531
1686428460067666200,0.576666259765625,-11.046958923339844,23.33429718017578,59.95664978027344
1686428460077612000,0.586612060546875,-10.935699462890625,25.819196701049805,58.665374755859375
1686428460087558100,0.59655810546875,-11.243309020996094,27.991796493530273,57.5396728515625
1686428460097503000,0.6065029296875,-11.809394836425781,30.077030181884766,56.29045104980469
1686428460107449000,0.616448974609375,-12.410491943359375,32.034027099609375,55.15467834472656
1686428460117395000,0.62639501953125,-13.490135192871094,33.680091857910156,53.88507080078125
1686428460127341000,0.636341064453125,-13.490135192871094,33.680091857910156,53.88507080078125
1686428460137286000,0.646285888671875,-14.474220275878906,35.323509216308594,52.732177734375
1686428460147232000,0.65623193359375,-15.495811462402344,36.69109344482422,50.77398681640625
1686428460157177900,0.666177734375,-17.343490600585938,37.99430465698242,49.46195983886719
1686428460167124000,0.6761240234375,-18.89599609375,39.254676818847656,48.29734802246094
1686428460177069300,0.6860693359375,-20.46918487548828,39.97468948364258,46.556060791015625
1686428460187015200,0.69601513671875,-22.40056610107422,40.70185470581055,45.19481658935547
1686428460196961300,0.705961181640625,-23.31816864013672,41.24370574951172,43.9638671875
1686428460206906000,0.715906005859375,-24.94062042236328,41.95732116699219,42.533172607421875
1686428460216852200,0.725852294921875,-26.277542114257812,42.48479461669922,40.823463439941406
1686428460226798000,0.735798095703125,-27.70220947265625,43.129695892333984,39.07990264892578
1686428460236744200,0.745744140625,-29.273338317871094,43.52898406982422,37.38099670410156
1686428460246689000,0.75568896484375,-31.121963500976562,43.6873779296875,35.45270538330078
1686428460256635100,0.76563525390625,-32.49042510986328,44.142356872558594,33.74555969238281
1686428460266581000,0.7755810546875,-33.699790954589844,44.82733917236328,31.457359313964844
1686428460276527000,0.785527099609375,-34.505126953125,45.807655334472656,28.954177856445312
1686428460286472200,0.79547216796875,-34.29924011230469,46.85503005981445,26.537574768066406
1686428460296418300,0.805418212890625,-34.427406311035156,47.97869873046875,24.672767639160156
1686428460306364200,0.8153642578125,-34.433143615722656,49.191890716552734,22.600929260253906
1686428460316310300,0.825310302734375,-34.009117126464844,49.95195007324219,20.675331115722656
1686428460326255000,0.835255126953125,-33.83451843261719,50.60555648803711,19.23912811279297
1686428460336201200,0.845201171875,-33.177398681640625,51.11687469482422,17.734603881835938
1686428460346147000,0.85514697265625,-33.00358581542969,51.48458480834961,16.185409545898438
1686428460356092200,0.865092041015625,-32.96360778808594,52.03278732299805,14.479629516601562
1686428460366038000,0.8750380859375,-33.01563262939453,52.65682601928711,12.978538513183594
1686428460375984000,0.884984130859375,-32.625205993652344,53.2114143371582,11.254234313964844
1686428460385930000,0.894929931640625,-32.694091796875,53.42161178588867,10.168663024902344
1686428460395875300,0.904875244140625,-32.729087829589844,53.728919982910156,9.441947937011719
1686428460405821200,0.9148212890625,-33.7816162109375,52.89149475097656,8.812698364257812
1686428460415767300,0.924767333984375,-34.40913391113281,52.56437683105469,8.703811645507812
1686428460425713200,0.934713134765625,-34.91773223876953,52.479244232177734,8.289710998535156
1686428460435658200,0.944658203125,-34.209922790527344,52.69990158081055,7.4251708984375
1686428460445604000,0.95460400390625,-33.30774688720703,53.18703079223633,6.954124450683594
1686428460455550200,0.96455029296875,-32.261878967285156,53.8034553527832,6.495811462402344
1686428460465495000,0.9744951171875,-31.52208709716797,54.228050231933594,6.22564697265625
1686428460475441200,0.984441162109375,-30.98297119140625,54.60747528076172,6.2158203125
1686428460485387000,0.994386962890625,-30.47509002685547,55.20271682739258,6.324531555175781
1686428460495333000,1.0043330078125,-29.231063842773438,55.58274459838867,6.361244201660156
1686428460505278200,1.0142783203125,-28.738548278808594,55.616127014160156,6.28521728515625
1686428460515224300,1.024224365234375,-27.810691833496094,56.02863693237305,6.23968505859375
1686428460525170200,1.034170166015625,-27.31432342529297,56.33597946166992,6.443519592285156
1686428460535116300,1.0441162109375,-26.491416931152344,56.337074279785156,6.477943420410156
1686428460545061000,1.05406103515625,-26.112342834472656,56.46126937866211,7.215553283691406
1686428460555007200,1.06400732421875,-25.682518005371094,56.551177978515625,7.874946594238281
1686428460564953000,1.073953125,-25.348876953125,56.757240295410156,8.513954162597656
1686428460574899200,1.083899169921875,-24.96642303466797,56.463375091552734,8.863792419433594
1686428460584844000,1.093843994140625,-24.85027313232422,56.73627853393555,9.113433837890625
1686428460594790100,1.1037900390625,-24.283485412597656,56.71896743774414,9.348091125488281
1686428460604736000,1.113736083984375,-23.942825317382812,56.724727630615234,9.434898376464844
1686428460614681000,1.12368115234375,-23.754417419433594,56.97027587890625,9.552162170410156
1686428460624627200,1.133627197265625,-23.319854736328125,57.303157806396484,9.860115051269531
1686428460634573300,1.1435732421875,-23.581573486328125,57.18824768066406,10.381324768066406
1686428460644519200,1.153519287109375,-23.3818359375,57.3588752746582,11.31982421875
1686428460654464000,1.163464111328125,-23.192825317382812,57.19330978393555,12.047286987304688
1686428460664410000,1.17341015625,-23.136680603027344,57.17572784423828,12.935501098632812
1686428460674356200,1.183356201171875,-22.586135864257812,57.277984619140625,13.739639282226562
1686428460684302000,1.193302001953125,-22.261123657226562,57.34486770629883,14.306526184082031
1686428460694247000,1.203246826171875,-21.588363647460938,57.15652084350586,15.362617492675781
1686428460704193000,1.213193115234375,-20.222259521484375,57.1728515625,16.349945068359375
1686428460714139100,1.22313916015625,-19.591270446777344,56.966800689697266,17.205482482910156
1686428460724084200,1.233084228515625,-18.84814453125,57.01016616821289,18.283615112304688
1686428460734030000,1.243030029296875,-18.403656005859375,56.966880798339844,18.892913818359375
1686428460743976200,1.25297607421875,-17.255020141601562,57.223182678222656,19.33350372314453
1686428460753922300,1.26292236328125,-16.60816192626953,57.272308349609375,19.417343139648438
1686428460763867100,1.2728671875,-15.962898254394531,57.56359100341797,20.109779357910156
1686428460773813000,1.28281298828125,-15.563179016113281,57.37487030029297,20.496002197265625
1686428460783759000,1.292759033203125,-15.405448913574219,57.448570251464844,21.18761444091797
1686428460793705200,1.302705322265625,-16.00860595703125,57.23677062988281,21.783424377441406
1686428460803650000,1.312650146484375,-16.461349487304688,56.7415771484375,22.788551330566406
1686428460813596000,1.322595947265625,-17.224212646484375,56.3079948425293,23.676292419433594
1686428460823542000,1.3325419921875,-17.632904052734375,55.7149543762207,24.24150848388672
1686428460833488100,1.342488037109375,-18.456344604492188,55.53752136230469,25.079139709472656
1686428460843433200,1.35243310546875,-18.94477081298828,55.11943817138672,24.818359375
1686428460853379000,1.362379150390625,-19.293060302734375,55.09858322143555,24.84711456298828
1686428460863325200,1.3723251953125,-19.443458557128906,55.521602630615234,23.738426208496094
1686428460873271300,1.382271240234375,-19.764572143554688,55.77998733520508,23.063453674316406
1686428460883216100,1.392216064453125,-19.759979248046875,56.1560173034668,21.94597625732422
1686428460893162000,1.402161865234375,-19.911048889160156,56.36726760864258,20.784324645996094
1686428460903108000,1.412108154296875,-19.911048889160156,56.36726760864258,20.784324645996094
1686428460913053000,1.422052978515625,-19.749542236328125,56.56315231323242,19.728652954101562
1686428460922999000,1.4319990234375,-20.38176727294922,56.842384338378906,18.40264129638672
1686428460932945000,1.44194482421875,-20.502655029296875,57.18934631347656,17.6640625
1686428460942891000,1.45189111328125,-20.795310974121094,57.39794921875,16.881607055664062
1686428460952836000,1.461836181640625,-21.839859008789062,57.35825729370117,15.839279174804688
1686428460962782200,1.4717822265625,-22.48461151123047,57.34440612792969,14.802574157714844
1686428460972728000,1.48172802734375,-22.167434692382812,57.39811325073242,13.179176330566406
1686428460982674200,1.491674072265625,-22.451499938964844,57.975276947021484,12.167686462402344
1686428460992619000,1.501618896484375,-22.20873260498047,57.99468994140625,11.042350769042969
1686428461002565000,1.511565185546875,-22.20281219482422,58.29872131347656,10.092155456542969
1686428461012511000,1.521510986328125,-22.15192413330078,58.14183807373047,9.586715698242188
1686428461022457000,1.53145703125,-22.627059936523438,58.32328796386719,9.301582336425781
1686428461032402000,1.54140185546875,-22.745162963867188,57.960506439208984,9.000152587890625
1686428461042348000,1.55134814453125,-22.54084014892578,58.04950714111328,8.900794982910156
1686428461052294000,1.5612939453125,-22.7646484375,57.80889129638672,8.745376586914062
1686428461062240000,1.571239990234375,-22.660629272460938,57.83959197998047,8.678810119628906
1686428461072185000,1.58118505859375,-22.907058715820312,57.6717414855957,8.840927124023438
1686428461082131200,1.591131103515625,-22.822959899902344,57.94959259033203,9.449165344238281
1686428461092077000,1.6010771484375,-23.025062561035156,57.74468231201172,9.787765502929688
1686428461102022100,1.611022216796875,-23.063255310058594,57.818023681640625,9.897445678710938
1686428461111968000,1.620968017578125,-22.855674743652344,57.74381637573242,10.0936279296875
1686428461121914000,1.6309140625,-22.574005126953125,57.88844299316406,10.123855590820312
1686428461131860000,1.64085986328125,-22.204071044921875,57.84109115600586,10.124229431152344
1686428461141805000,1.65080517578125,-22.12071990966797,57.768524169921875,10.174102783203125
1686428461151751200,1.660751220703125,-21.798866271972656,57.85628890991211,10.445465087890625
1686428461161697000,1.670697021484375,-21.665802001953125,58.32505798339844,10.145591735839844
1686428461171643100,1.68064306640625,-20.989601135253906,58.535213470458984,9.984954833984375
1686428461181588200,1.690588134765625,-19.911148071289062,58.71420669555664,9.970458984375
1686428461191534000,1.7005341796875,-19.200775146484375,58.64402389526367,9.906173706054688
1686428461201480200,1.710480224609375,-18.07585906982422,59.034698486328125,9.829719543457031
1686428461211426000,1.720426025390625,-17.30596923828125,59.45848083496094,9.921661376953125
1686428461221371100,1.73037109375,-15.963172912597656,59.941219329833984,9.786170959472656
1686428461231317000,1.74031689453125,-14.823951721191406,60.126346588134766,9.931205749511719
1686428461241263000,1.75026318359375,-13.262840270996094,60.28887176513672,10.139511108398438
1686428461251209000,1.760208984375,-12.304740905761719,60.7909049987793,10.64422607421875
1686428461261154000,1.770154052734375,-11.102752685546875,60.97578048706055,10.935333251953125
1686428461271100200,1.78010009765625,-10.7908935546875,60.8621826171875,11.560371398925781
1686428461281046300,1.79004638671875,-9.828269958496094,60.78419876098633,12.224929809570312
1686428461290991000,1.7999912109375,-9.252937316894531,60.49065399169922,12.78778076171875
1686428461300937200,1.809937255859375,-9.026969909667969,60.55883026123047,13.196090698242188
1686428461310883000,1.819883056640625,-9.059776306152344,60.61703872680664,13.738571166992188
1686428461320829200,1.8298291015625,-9.121345520019531,60.42462921142578,13.96759033203125
1686428461330774000,1.83977392578125,-9.507560729980469,60.65795135498047,14.392776489257812
1686428461340720000,1.84972021484375,-10.00244140625,60.51511001586914,14.66717529296875
1686428461350666000,1.859666015625,-10.768241882324219,60.435638427734375,14.603492736816406
1686428461360612000,1.869612060546875,-11.120864868164062,60.087886810302734,14.600334167480469
1686428461370557200,1.87955712890625,-11.718505859375,60.35935974121094,14.249076843261719
1686428461380503300,1.88950341796875,-12.139358520507812,60.2048454284668,13.899856567382812
1686428461390449200,1.89944921875,-12.273231506347656,60.31913757324219,13.217193603515625
1686428461400395300,1.909395263671875,-11.927505493164062,60.76329803466797,12.289497375488281
1686428461410340000,1.919340087890625,-11.274574279785156,60.78354263305664,11.415000915527344
1686428461420286200,1.9292861328125,-10.403244018554688,60.944801330566406,10.237815856933594
1686428461430232000,1.939232177734375,-8.764633178710938,61.5296630859375,9.265029907226562
1686428461440177200,1.94917724609375,-8.081413269042969,61.516170501708984,8.089859008789062
1686428461450123000,1.959123046875,-6.8942413330078125,61.98808288574219,7.0618743896484375
1686428461460069000,1.969069091796875,-6.035919189453125,62.18974304199219,6.2055511474609375
1686428461470015000,1.979014892578125,-5.981925964355469,62.21143341064453,5.7820892333984375
1686428461479960300,1.988960205078125,-5.854400634765625,62.345848083496094,5.192375183105469
1686428461489906200,1.99890625,-6.130958557128906,62.23443603515625,4.801185607910156
1686428461499852300,2.008852294921875,-6.95916748046875,62.053951263427734,4.416595458984375
1686428461509798100,2.018798095703125,-8.792694091796875,62.35250473022461,4.148674011230469
1686428461519743200,2.0287431640625,-11.2330322265625,62.20470428466797,3.6332473754882812
1686428461529689000,2.038689208984375,-13.01348876953125,61.701080322265625,3.176177978515625
1686428461539635200,2.04863525390625,-15.416862487792969,61.115840911865234,3.0031051635742188
1686428461549581000,2.0585810546875,-17.13416290283203,60.90153121948242,3.0692596435546875
1686428461559526100,2.068526123046875,-18.437950134277344,60.50471496582031,3.5164566040039062
1686428461569472000,2.078471923828125,-20.55420684814453,60.25794982910156,4.079780578613281
1686428461579418000,2.088418212890625,-21.698326110839844,59.59449768066406,5.009422302246094
1686428461589364000,2.098364013671875,-23.084564208984375,59.12578582763672,6.054237365722656
1686428461599309300,2.108309326171875,-23.809738159179688,58.84798049926758,6.922019958496094
1686428461609255200,2.118255126953125,-23.85224151611328,58.690940856933594,7.4623260498046875
1686428461619201300,2.128201171875,-24.37511444091797,58.66167068481445,7.8533935546875
1686428461629146000,2.13814599609375,-24.248443603515625,58.73782730102539,8.297470092773438
1686428461639092200,2.14809228515625,-24.19190216064453,58.53801727294922,8.752548217773438
1686428461649038000,2.1580380859375,-24.35840606689453,58.54023742675781,8.982963562011719
1686428461658984200,2.167984130859375,-24.32225799560547,58.550933837890625,9.5782470703125
1686428461668929000,2.177928955078125,-23.952484130859375,58.49409484863281,9.783493041992188
1686428461678875100,2.187875244140625,-23.952484130859375,58.49409484863281,9.783493041992188
1686428461688821000,2.197821044921875,-23.997467041015625,58.53596878051758,10.410385131835938
1686428461698767000,2.20776708984375,-23.84638214111328,58.384212493896484,10.853614807128906
1686428461708712200,2.217712158203125,-23.981483459472656,58.17586135864258,11.460922241210938
1686428461718658300,2.227658203125,-24.04663848876953,58.14453887939453,12.210777282714844
1686428461728604200,2.237604248046875,-24.128219604492188,58.09349060058594,12.978218078613281
1686428461738550300,2.24755029296875,-24.013092041015625,58.01995849609375,13.334686279296875
1686428461748495000,2.2574951171875,-24.31195831298828,58.20648956298828,14.1031494140625
1686428461758441200,2.267441162109375,-24.516761779785156,58.0133056640625,14.627761840820312
1686428461768387000,2.277386962890625,-25.06836700439453,57.89256286621094,15.026351928710938
1686428461778333200,2.287333251953125,-25.622711181640625,57.51971435546875,14.879928588867188
1686428461788278000,2.297278076171875,-25.79376220703125,57.391868591308594,15.131752014160156
1686428461798224100,2.30722412109375,-25.908172607421875,57.333648681640625,15.622802734375
1686428461808170000,2.317169921875,-25.867576599121094,57.47755432128906,15.395393371582031
1686428461818115300,2.327115234375,-25.0948486328125,57.54130554199219,15.544731140136719
1686428461828061200,2.337061279296875,-24.96502685546875,57.617061614990234,15.483016967773438
1686428461838007300,2.34700732421875,-24.760154724121094,57.570945739746094,15.849937438964844
1686428461847953200,2.356953125,-24.37213134765625,57.60282516479492,15.95111083984375
1686428461857898200,2.366898193359375,-25.01811981201172,57.43107604980469,16.242828369140625
1686428461867844000,2.376843994140625,-25.438377380371094,57.38227081298828,16.203407287597656
1686428461877790200,2.386790283203125,-25.43578338623047,57.31448745727539,16.509140014648438
1686428461887736000,2.396736083984375,-25.806045532226562,57.53289031982422,16.439903259277344
1686428461897681200,2.40668115234375,-25.5537109375,57.38173294067383,16.30011749267578
1686428461907627000,2.416626953125,-25.21160125732422,57.64356994628906,16.325424194335938
1686428461917573000,2.426572998046875,-25.12664794921875,57.869598388671875,16.16846466064453
1686428461927519000,2.43651904296875,-24.794357299804688,58.140804290771484,16.021385192871094
1686428461937464300,2.44646435546875,-24.48705291748047,58.111507415771484,16.054824829101562
1686428461947410200,2.45641015625,-24.30852508544922,58.083282470703125,15.659591674804688
1686428461957356300,2.466356201171875,-24.428184509277344,58.283077239990234,15.654769897460938
1686428461967301000,2.476301025390625,-24.5076904296875,58.41805648803711,15.514060974121094
1686428461977247000,2.4862470703125,-24.395530700683594,58.30504608154297,15.762222290039062
1686428461987193000,2.496193115234375,-24.709457397460938,58.30411148071289,15.308792114257812
1686428461997139200,2.50613916015625,-24.930419921875,57.935028076171875,15.399490356445312
1686428462007084000,2.516083984375,-24.809593200683594,58.15199279785156,15.630218505859375
1686428462017030000,2.52602978515625,-24.510337829589844,58.318668365478516,15.536781311035156
1686428462026976000,2.53597607421875,-24.57939910888672,58.47664260864258,15.30633544921875
1686428462036922000,2.545922119140625,-24.31890869140625,58.68953323364258,14.946853637695312
1686428462046867200,2.5558671875,-24.30884552001953,58.85237503051758,14.669082641601562
1686428462056813000,2.56581298828125,-24.557167053222656,58.95641326904297,14.148628234863281
1686428462066759200,2.57575927734375,-24.464920043945312,59.07986831665039,13.725166320800781
1686428462076705300,2.585705322265625,-24.59888458251953,59.107330322265625,13.3367919921875
1686428462086650000,2.595650146484375,-24.444549560546875,59.309165954589844,12.869148254394531
1686428462096596000,2.605595947265625,-24.681198120117188,59.42263412475586,11.8685302734375
1686428462106542000,2.6155419921875,-23.95421600341797,59.67107391357422,11.197731018066406
1686428462116488200,2.62548828125,-23.417037963867188,60.06691360473633,10.58978271484375
1686428462126433000,2.63543310546875,-22.12353515625,60.19568634033203,9.490203857421875
1686428462136379000,2.64537890625,-21.491409301757812,60.642887115478516,8.965080261230469
1686428462146325000,2.655324951171875,-20.98255157470703,61.049285888671875,8.4093017578125
1686428462156271000,2.66527099609375,-20.21630859375,61.2625732421875,7.803779602050781
1686428462166216000,2.6752158203125,-19.991615295410156,61.40612030029297,7.01708984375
1686428462176162000,2.685162109375,-19.69664764404297,61.74457550048828,7.0429840087890625
1686428462186108000,2.69510791015625,-19.090904235839844,61.736228942871094,6.538330078125
1686428462196054000,2.705053955078125,-18.710784912109375,61.94012451171875,5.9241943359375
1686428462205998800,2.714998779296875,-18.37574005126953,62.05299377441406,5.447700500488281
1686428462215945000,2.724945068359375,-17.910858154296875,62.128578186035156,5.224220275878906
1686428462225890800,2.734890869140625,-16.991554260253906,62.21402359008789,4.813270568847656
1686428462235836000,2.7448359375,-16.349327087402344,62.34766387939453,4.552589416503906
1686428462245782000,2.754781982421875,-16.143783569335938,62.398624420166016,4.044731140136719
1686428462255728000,2.76472802734375,-15.455955505371094,62.656402587890625,3.8535842895507812
1686428462265674000,2.774674072265625,-15.485382080078125,62.54385757446289,3.3162155151367188
1686428462275619000,2.784619140625,-15.367454528808594,62.573951721191406,2.8360671997070312
1686428462285565000,2.79456494140625,-15.283676147460938,62.67793273925781,2.506988525390625
1686428462295511000,2.804510986328125,-15.741592407226562,62.271331787109375,2.0905227661132812
1686428462305457000,2.814456787109375,-16.31324005126953,62.47734069824219,1.3702774047851562
1686428462315402000,2.824402099609375,-15.876052856445312,62.43183135986328,1.36444091796875
1686428462325347800,2.834347900390625,-16.174606323242188,62.23381042480469,1.7139739990234375
1686428462335294000,2.8442939453125,-16.266319274902344,62.437217712402344,1.9852142333984375
1686428462345239800,2.85423974609375,-16.02393341064453,62.54526901245117,2.3028488159179688
1686428462355185200,2.86418505859375,-15.762420654296875,62.599239349365234,2.2046127319335938
1686428462365131000,2.874131103515625,-15.535934448242188,62.460792541503906,2.1707000732421875
1686428462375077000,2.8840771484375,-15.308280944824219,62.37153625488281,2.2548370361328125
1686428462385023000,2.89402294921875,-14.894187927246094,62.64440155029297,2.39959716796875
1686428462394968000,2.903968017578125,-14.8782958984375,62.75806427001953,2.1340103149414062
1686428462404914000,2.913913818359375,-15.071456909179688,62.66802215576172,2.0281600952148438
1686428462414860000,2.923860107421875,-15.85247802734375,62.66206741333008,1.87164306640625
1686428462424804900,2.933804931640625,-15.871963500976562,62.586952209472656,1.6712570190429688
1686428462434751000,2.9437509765625,-16.010147094726562,62.675289154052734,1.7490692138671875
1686428462444696800,2.95369677734375,-15.993263244628906,62.71724319458008,1.403045654296875
1686428462454643000,2.963642822265625,-15.993263244628906,62.71724319458008,1.403045654296875
1686428462464588000,2.973588134765625,-16.375732421875,62.75394058227539,1.134918212890625
1686428462474534100,2.9835341796875,-16.322853088378906,62.6563720703125,0.8877792358398438
1686428462484480000,2.99347998046875,-16.795608520507812,62.649932861328125,0.5864944458007812
1686428462494426000,3.003426025390625,-16.58013916015625,62.601531982421875,0.361785888671875
1686428462504371000,3.013370849609375,-16.38555908203125,62.71907424926758,0.02435302734375
1686428462514317000,3.023317138671875,-15.98138427734375,62.59834289550781,-0.17613983154296875
1686428462524263000,3.033262939453125,-15.968864440917969,62.74187469482422,-0.28235626220703125
1686428462534209000,3.043208984375,-15.823898315429688,62.74114990234375,-0.36006927490234375
1686428462544153900,3.05315380859375,-15.590232849121094,62.775699615478516,-0.45989227294921875
1686428462554100000,3.063099853515625,-15.219894409179688,62.83924865722656,-0.5401229858398438
1686428462564045800,3.0730458984375,-15.157905578613281,62.78392791748047,-0.54168701171875
1686428462573992000,3.082991943359375,-14.856697082519531,62.990333557128906,-0.46189117431640625
1686428462583937000,3.09293701171875,-14.528305053710938,63.042911529541016,-0.62213134765625
1686428462593883100,3.102883056640625,-14.543739318847656,63.05689239501953,-0.6901397705078125
1686428462603829000,3.1128291015625,-14.361305236816406,62.988868713378906,-0.9058303833007812
1686428462613775000,3.122775146484375,-14.208717346191406,63.231231689453125,-0.9951934814453125
1686428462623720000,3.132719970703125,-13.509445190429688,63.07345199584961,-0.827239990234375
1686428462633666000,3.142666015625,-13.463150024414062,63.16949462890625,-0.852325439453125
1686428462643612000,3.15261181640625,-12.929000854492188,63.15884017944336,-0.9510421752929688
1686428462653557000,3.162556884765625,-12.672508239746094,63.31671142578125,-0.7320175170898438
1686428462663502800,3.1725029296875,-12.675582885742188,63.361061096191406,-0.5816879272460938
1686428462673449000,3.182448974609375,-12.553337097167969,63.42665100097656,-0.4356231689453125
1686428462683394800,3.192394775390625,-12.039764404296875,63.32952880859375,-0.38861083984375
1686428462693340200,3.202340087890625,-11.882377624511719,63.306419372558594,-0.15887451171875
1686428462703286000,3.2122861328125,-12.071067810058594,63.12812423706055,0.3135223388671875
1686428462713232100,3.222232177734375,-12.012008666992188,63.28847122192383,1.1920318603515625
1686428462723178000,3.232177978515625,-12.361701965332031,63.097938537597656,1.5316696166992188
1686428462733123000,3.242123046875,-12.4801025390625,63.12253952026367,1.6699066162109375
1686428462743069000,3.25206884765625,-12.815574645996094,62.96931457519531,2.3354568481445312
1686428462753015000,3.26201513671875,-13.359939575195312,62.67123031616211,2.8580398559570312
1686428462762961000,3.2719609375,-14.321205139160156,62.577518463134766,3.33734130859375
1686428462772906000,3.281906005859375,-15.326942443847656,62.25526428222656,4.280143737792969
1686428462782851800,3.291851806640625,-16.67345428466797,62.21332550048828,4.8753509521484375
1686428462792798000,3.3017978515625,-17.70093536376953,61.65093994140625,5.711090087890625
1686428462802743800,3.311743896484375,-18.876548767089844,61.12176513671875,6.206672668457031
1686428462812689200,3.321689208984375,-20.49451446533203,60.560420989990234,7.048858642578125
1686428462822635000,3.331635009765625,-22.302940368652344,59.80851745605469,7.619850158691406
1686428462832581000,3.3415810546875,-23.678253173828125,59.648075103759766,8.313621520996094
1686428462842527000,3.35152685546875,-24.97637939453125,59.06084442138672,9.070938110351562
1686428462852472000,3.36147216796875,-26.00714111328125,58.23813247680664,9.871978759765625
1686428462862418000,3.37141796875,-26.93280792236328,57.84843063354492,10.864730834960938
1686428462872364000,3.381364013671875,-27.672515869140625,57.29996871948242,11.544731140136719
1686428462882310000,3.391309814453125,-28.39264678955078,56.860328674316406,12.355377197265625
1686428462892255000,3.4012548828125,-29.02416229248047,56.45658493041992,13.006233215332031
1686428462902200800,3.411200927734375,-29.301528930664062,55.691680908203125,13.868064880371094
1686428462912147000,3.42114697265625,-29.95635986328125,55.42518997192383,14.742935180664062
1686428462922092800,3.4310927734375,-30.814224243164062,54.993404388427734,15.624153137207031
1686428462932038100,3.4410380859375,-31.349586486816406,54.41505432128906,16.2508544921875
1686428462941984000,3.45098388671875,-32.27830505371094,53.7318229675293,17.322181701660156
1686428462951930000,3.46093017578125,-32.745697021484375,52.77831268310547,18.2353515625
1686428462961876000,3.4708759765625,-33.56858825683594,52.28693389892578,18.971031188964844
1686428462971821000,3.480821044921875,-34.19854736328125,51.5218391418457,19.772323608398438
1686428462981767000,3.490766845703125,-34.970726013183594,50.762474060058594,20.882362365722656
1686428462991713000,3.500713134765625,-35.103668212890625,49.97210693359375,21.72521209716797
1686428463001659000,3.510658935546875,-35.88347625732422,49.44755172729492,22.599632263183594
1686428463011604000,3.52060400390625,-36.34346008300781,48.905609130859375,23.337081909179688
1686428463021549800,3.5305498046875,-36.869728088378906,48.36176300048828,24.041221618652344
1686428463031496000,3.540495849609375,-37.222198486328125,47.27981948852539,24.533157348632812
1686428463041441800,3.55044189453125,-37.718719482421875,47.009090423583984,25.10442352294922
1686428463051387000,3.560386962890625,-38.31726837158203,46.073123931884766,25.901458740234375
1686428463061333000,3.5703330078125,-38.16316223144531,45.619571685791016,26.3292236328125
1686428463071279000,3.580279052734375,-38.17615509033203,45.23514175415039,26.9166259765625
1686428463081225000,3.590224853515625,-38.681068420410156,44.95122528076172,27.655319213867188
1686428463091169800,3.600169677734375,-38.32264709472656,44.90835189819336,27.946304321289062
1686428463101116000,3.610115966796875,-38.55134582519531,44.771358489990234,28.338294982910156
1686428463111062000,3.62006201171875,-38.55766296386719,44.54397964477539,28.360633850097656
1686428463121007900,3.6300078125,-38.59455108642578,44.492977142333984,28.536048889160156
1686428463130953000,3.639952880859375,-38.47698211669922,44.5708122253418,28.6822509765625
1686428463140898800,3.64989892578125,-38.162872314453125,44.469688415527344,28.7496337890625
1686428463150845000,3.659844970703125,-38.41259765625,44.4718017578125,28.877525329589844
1686428463160790000,3.6697900390625,-38.260963439941406,44.68391036987305,28.834671020507812
1686428463170736400,3.679736328125,-38.261871337890625,44.98466110229492,28.5731201171875
1686428463180682500,3.6896826171875,-38.05003356933594,44.897727966308594,28.49164581298828
1686428463190628400,3.69962841796875,-37.92997741699219,45.210357666015625,28.53681182861328
1686428463200573400,3.709573486328125,-37.943328857421875,45.481258392333984,28.346267700195312
1686428463210519300,3.719519287109375,-37.875282287597656,45.62841796875,28.021591186523438
1686428463220465400,3.72946533203125,-37.881202697753906,45.999542236328125,27.79218292236328
1686428463230411300,3.739411376953125,-37.881202697753906,45.999542236328125,27.79218292236328
1686428463240356400,3.7493564453125,-37.71263122558594,46.21559143066406,27.49500274658203
1686428463250302200,3.75930224609375,-37.27465057373047,46.383663177490234,27.34986114501953
1686428463260248300,3.769248291015625,-37.34361267089844,46.474586486816406,27.12474822998047
1686428463270194200,3.779194091796875,-37.07414245605469,46.61878204345703,26.87458038330078
1686428463280139500,3.789139404296875,-37.249366760253906,46.311458587646484,26.52857208251953
1686428463290085400,3.79908544921875,-37.27626037597656,46.30345916748047,26.344825744628906
1686428463300031500,3.809031494140625,-37.18498992919922,46.27894592285156,26.618080139160156
1686428463309977300,3.818977294921875,-36.60460662841797,46.308353424072266,26.671226501464844
1686428463319923500,3.82892333984375,-35.93311309814453,46.56735610961914,26.60181427001953
1686428463329868300,3.838868408203125,-35.035552978515625,46.873023986816406,26.785308837890625
1686428463339814400,3.848814453125,-34.93421936035156,47.1739387512207,26.57508087158203
1686428463349760300,3.85876025390625,-34.21990203857422,47.74252700805664,26.222747802734375
1686428463359705000,3.868705078125,-33.28169250488281,48.02564239501953,25.678192138671875
1686428463369651200,3.878651123046875,-33.038299560546875,48.3004150390625,25.54619598388672
1686428463379597300,3.888597412109375,-32.29023742675781,48.64999771118164,25.199134826660156
1686428463389543200,3.898543212890625,-31.826080322265625,49.07029342651367,24.59197235107422
1686428463399488300,3.90848828125,-31.443069458007812,49.190372467041016,24.150009155273438
1686428463409434400,3.918434326171875,-31.153160095214844,49.283111572265625,23.71363067626953
1686428463419380500,3.92838037109375,-31.364288330078125,49.68482971191406,23.203033447265625
1686428463429326300,3.938326416015625,-30.807144165039062,49.6937255859375,22.743972778320312
1686428463439271200,3.948271240234375,-31.037513732910156,49.780277252197266,22.28388214111328
1686428463449217300,3.95821728515625,-30.83275604248047,49.89841842651367,22.03119659423828
1686428463459163400,3.968163330078125,-30.69580841064453,49.990386962890625,21.717628479003906
1686428463469109200,3.978109130859375,-30.464767456054688,50.109405517578125,21.555862426757812
1686428463479054300,3.988054443359375,-29.71080780029297,50.10541915893555,21.421485900878906
1686428463489000400,3.99800048828125,-29.619422912597656,50.12860870361328,20.80365753173828
1686428463498946300,4.0079462890625,-29.36785888671875,50.0797004699707,20.516448974609375
1686428463508892400,4.017892333984375,-28.809593200683594,50.27088165283203,20.053138732910156
1686428463518837200,4.027837158203125,-28.512496948242188,50.66679763793945,19.654090881347656
1686428463528783400,4.037783447265625,-28.296600341796875,50.71657180786133,19.543670654296875
1686428463538729500,4.0477294921875,-28.209640502929688,50.89695739746094,19.150283813476562
1686428463548675300,4.05767529296875,-27.876296997070312,50.79764175415039,18.920372009277344
1686428463558620200,4.0676201171875,-27.75994110107422,51.087852478027344,19.306007385253906
1686428463568566300,4.077566162109375,-27.227432250976562,51.12307357788086,18.939735412597656
1686428463578512400,4.087512451171875,-26.627761840820312,50.94940185546875,18.717514038085938
1686428463588458200,4.097458251953125,-26.318138122558594,51.133445739746094,18.990097045898438
1686428463598403300,4.1074033203125,-25.95677947998047,51.17953872680664,19.122406005859375
1686428463608349400,4.117349365234375,-25.821754455566406,51.1063117980957,19.150375366210938
1686428463618295600,4.127295654296875,-25.469863891601562,51.24226760864258,19.327407836914062
1686428463628241400,4.137241455078125,-25.268341064453125,51.28139877319336,19.339744567871094
1686428463638186200,4.147186279296875,-24.758140563964844,51.13783264160156,19.463775634765625
1686428463648132400,4.15713232421875,-24.637664794921875,51.19308853149414,19.434173583984375
1686428463658078500,4.167078369140625,-24.447669982910156,51.04523849487305,19.704750061035156
1686428463668024300,4.1770244140625,-24.470733642578125,51.09629440307617,19.75550079345703
1686428463677969200,4.18696923828125,-24.11804962158203,51.19413757324219,19.855056762695312
1686428463687915300,4.196915283203125,-23.36487579345703,51.13786697387695,20.170921325683594
1686428463697861400,4.206861328125,-23.121597290039062,51.14608383178711,20.406272888183594
1686428463707807200,4.21680712890625,-22.50403594970703,51.007659912109375,20.723617553710938
1686428463717752300,4.22675244140625,-22.663040161132812,51.189727783203125,20.89836883544922
1686428463727698400,4.236698486328125,-22.143539428710938,50.97657012939453,21.174102783203125
1686428463737644500,4.24664453125,-21.841873168945312,50.80635070800781,21.383682250976562
1686428463747590400,4.25659033203125,-21.967079162597656,50.849884033203125,21.609535217285156
1686428463757535200,4.26653515625,-21.819229125976562,50.7287712097168,21.790847778320312
1686428463767481300,4.2764814453125,-21.464324951171875,50.71577453613281,21.922760009765625
1686428463777427500,4.286427490234375,-20.882339477539062,50.58428192138672,22.182952880859375
1686428463787373300,4.296373291015625,-20.486419677734375,50.617557525634766,22.242889404296875
1686428463797318100,4.306318115234375,-20.047019958496094,50.598846435546875,22.408920288085938
1686428463807264300,4.31626416015625,-20.26959228515625,50.689144134521484,22.827713012695312
1686428463817210400,4.32621044921875,-19.662796020507812,50.981422424316406,23.036102294921875
1686428463827156200,4.33615625,-19.15680694580078,51.198875427246094,23.044517517089844
1686428463837101300,4.346101318359375,-19.168930053710938,51.095733642578125,23.384994506835938
1686428463847047400,4.35604736328125,-18.46021270751953,51.06168746948242,23.42591094970703
1686428463856993500,4.36599365234375,-18.141822814941406,50.83291244506836,23.45134735107422
1686428463866939400,4.375939453125,-17.762344360351562,50.931617736816406,23.690704345703125
1686428463876884200,4.38588427734375,-17.218673706054688,50.8116455078125,23.852699279785156
1686428463886830300,4.395830322265625,-16.844932556152344,51.06591033935547,23.8017578125
1686428463896776400,4.4057763671875,-17.09076690673828,50.74094772338867,23.894271850585938
1686428463906722300,4.415722412109375,-17.130615234375,50.92320251464844,23.844749450683594
1686428463916667100,4.425667236328125,-16.969192504882812,50.60304641723633,23.79271697998047
1686428463926613200,4.43561328125,-16.618301391601562,50.85773468017578,23.850814819335938
1686428463936559400,4.445559326171875,-16.176979064941406,50.54651641845703,23.922142028808594
1686428463946505200,4.455505126953125,-15.40106201171875,50.509681701660156,24.083831787109375
1686428463956450300,4.4654501953125,-15.148368835449219,50.67099380493164,23.954971313476562
1686428463966396400,4.475396484375,-15.225090026855469,50.66802215576172,23.814453125
1686428463976342500,4.485342529296875,-15.159111022949219,50.48159408569336,23.96185302734375
1686428463986288400,4.495288330078125,-15.230354309082031,50.48912811279297,24.00829315185547
1686428463996233200,4.505233154296875,-15.230354309082031,50.48912811279297,24.00829315185547
1686428464006179300,4.515179443359375,-14.76507568359375,50.4035530090332,23.878135681152344
1686428464016125400,4.52512548828125,-14.891014099121094,50.328590393066406,24.185546875
1686428464026071300,4.5350712890625,-14.842529296875,50.18750762939453,24.114639282226562
1686428464036016000,4.54501611328125,-14.659034729003906,50.21870040893555,24.299819946289062
1686428464045962200,4.554962158203125,-14.826248168945312,49.87105178833008,24.598052978515625
1686428464055908400,4.564908447265625,-14.457305908203125,49.88089370727539,24.79798126220703
1686428464065854200,4.574854248046875,-14.173500061035156,49.740379333496094,24.999160766601562
1686428464075799300,4.58479931640625,-14.283851623535156,49.44044494628906,25.30907440185547
1686428464085745400,4.594745361328125,-14.239845275878906,49.230125427246094,25.269882202148438
1686428464095691500,4.60469140625,-13.730194091796875,48.847896575927734,25.544235229492188
1686428464105637400,4.614637451171875,-13.378753662109375,48.660953521728516,25.792572021484375
1686428464115582200,4.624582275390625,-13.044815063476562,48.593849182128906,25.99371337890625
1686428464125528300,4.6345283203125,-12.888763427734375,48.441184997558594,26.512123107910156
1686428464135474400,4.644474365234375,-12.890815734863281,48.05221939086914,26.37183380126953
1686428464145420300,4.654420166015625,-12.760169982910156,47.853511810302734,26.318199157714844
1686428464155365000,4.664365234375,-12.989387512207031,47.668914794921875,26.26836395263672
1686428464165311200,4.674311279296875,-13.321197509765625,47.337310791015625,26.155357360839844
1686428464175256800,4.6842568359375,-13.234031677246094,47.195980072021484,26.334495544433594
1686428464185202700,4.69420263671875,-13.694175720214844,46.85779571533203,26.748130798339844
1686428464195147500,4.7041474609375,-13.869583129882812,46.429447174072266,26.86138916015625
1686428464205093600,4.71409375,-13.975753784179688,45.89090347290039,27.436279296875
1686428464215039700,4.724039794921875,-14.412338256835938,45.31650161743164,27.85755157470703
1686428464224985600,4.733985595703125,-14.356491088867188,44.84708786010742,28.248085021972656
1686428464234930400,4.743930419921875,-15.006851196289062,44.295745849609375,28.278717041015625
1686428464244876500,4.75387646484375,-15.089668273925781,43.846893310546875,28.989654541015625
1686428464254822700,4.76382275390625,-15.581588745117188,43.406028747558594,29.05406951904297
1686428464264768500,4.7737685546875,-16.67688751220703,42.681495666503906,29.413589477539062
1686428464274713600,4.783713623046875,-17.229042053222656,42.063961029052734,29.700515747070312
1686428464284659700,4.79365966796875,-18.344451904296875,41.12264633178711,30.183395385742188
1686428464294605800,4.803605712890625,-19.017173767089844,40.039947509765625,30.52094268798828
1686428464304551700,4.8135517578125,-19.04059600830078,39.25502014160156,30.905181884765625
1686428464314496500,4.82349658203125,-19.64002227783203,38.420928955078125,31.46155548095703
1686428464324442600,4.833442626953125,-19.209030151367188,38.07703399658203,31.952346801757812
1686428464334388700,4.843388671875,-19.06134796142578,37.206642150878906,32.41576385498047
1686428464344334600,4.85333447265625,-18.734519958496094,36.669830322265625,33.16645050048828
1686428464354279400,4.863279541015625,-18.969024658203125,35.84741973876953,33.599342346191406
1686428464364225500,4.8732255859375,-19.054336547851562,35.137359619140625,33.9805908203125
1686428464374171600,4.883171630859375,-19.372650146484375,34.31093215942383,34.71449279785156
1686428464384117500,4.893117431640625,-19.64984893798828,33.50030517578125,35.33313751220703
1686428464394062600,4.9030625,-19.70294189453125,32.45612335205078,35.661346435546875
1686428464404008700,4.9130087890625,-20.477493286132812,31.61270523071289,36.015480041503906
1686428464413954800,4.922954833984375,-20.95771026611328,30.482526779174805,36.44860076904297
1686428464423900700,4.932900634765625,-20.793212890625,30.031850814819336,36.84941101074219
1686428464433845500,4.942845458984375,-20.258506774902344,29.064373016357422,37.07405090332031
1686428464443791600,4.95279150390625,-20.469825744628906,28.507606506347656,37.27668762207031
1686428464453737700,4.96273779296875,-20.357757568359375,27.919546127319336,37.385643005371094
1686428464463683600,4.97268359375,-20.0263671875,27.480905532836914,37.67047882080078
1686428464473628400,4.98262841796875,-19.578529357910156,27.149051666259766,38.217857360839844
1686428464483574500,4.992574462890625,-19.660728454589844,26.75572395324707,38.37939453125
1686428464493520600,5.002520751953125,-19.37908172607422,26.111907958984375,38.69298553466797
1686428464503466500,5.012466552734375,-19.542190551757812,25.90270233154297,38.806297302246094
1686428464513412600,5.02241259765625,-19.283172607421875,25.382266998291016,38.71721649169922
1686428464523357700,5.032357666015625,-19.211029052734375,25.117507934570312,38.893646240234375
1686428464533303800,5.0423037109375,-18.99333953857422,24.84504508972168,38.87748718261719
1686428464543249700,5.052249755859375,-19.01091766357422,24.400711059570312,38.888832092285156
1686428464553194500,5.062194580078125,-18.972389221191406,24.025047302246094,38.788177490234375
1686428464563140600,5.072140625,-18.63263702392578,24.363698959350586,38.81037139892578
1686428464573086500,5.08208642578125,-18.387123107910156,23.879364013671875,38.974609375
1686428464583032600,5.092032470703125,-18.102676391601562,23.889625549316406,38.859214782714844
1686428464592978700,5.101978759765625,-18.072402954101562,23.63054084777832,38.364540100097656
1686428464602923500,5.111923583984375,-17.851974487304688,23.619983673095703,38.53125762939453
1686428464612869400,5.121869384765625,-17.756118774414062,23.200937271118164,38.354530334472656
1686428464622815500,5.1318154296875,-17.451995849609375,23.177309036254883,38.362037658691406
1686428464632761600,5.14176171875,-17.563766479492188,23.26925277709961,38.13861083984375
1686428464642706700,5.151706787109375,-17.317710876464844,23.52433967590332,37.91029357910156
1686428464652652500,5.161652587890625,-17.26891326904297,23.639480590820312,37.698150634765625
1686428464662598700,5.1715986328125,-16.942977905273438,23.963577270507812,37.55842590332031
1686428464672544800,5.181544677734375,-16.78460693359375,24.171232223510742,37.66398620605469
1686428464682489600,5.191489501953125,-16.596961975097656,24.15390968322754,37.03068542480469
1686428464692435500,5.201435546875,-16.615982055664062,24.27178382873535,36.3768310546875
1686428464702381600,5.211381591796875,-16.284027099609375,24.25942039489746,36.041412353515625
1686428464712327700,5.22132763671875,-16.520469665527344,24.118011474609375,35.85432434082031
1686428464722272500,5.2312724609375,-16.3272705078125,24.358524322509766,35.46826934814453
1686428464732218600,5.241218505859375,-16.551040649414062,24.244197845458984,35.29869842529297
1686428464742164700,5.251164794921875,-16.40363311767578,24.179807662963867,35.08136749267578
1686428464752110600,5.261110595703125,-16.073463439941406,24.223299026489258,34.686134338378906
1686428464762055700,5.2710556640625,-15.468795776367188,24.239103317260742,34.17613220214844
1686428464772001500,5.28100146484375,-15.004562377929688,24.772350311279297,34.007781982421875
1686428464781947600,5.29094775390625,-15.004562377929688,24.772350311279297,34.007781982421875
1686428464791893800,5.300893798828125,-14.916778564453125,25.60476303100586,33.566009521484375
1686428464801838600,5.310838623046875,-14.601997375488281,25.776376724243164,32.996360778808594
1686428464811784400,5.320784423828125,-13.813056945800781,26.170896530151367,32.31005859375
1686428464821730600,5.33073046875,-13.394966125488281,26.41934585571289,31.626205444335938
1686428464831676700,5.3406767578125,-13.474021911621094,26.562341690063477,31.179580688476562
1686428464841621800,5.350621826171875,-13.179084777832031,26.943302154541016,30.91968536376953
1686428464851567600,5.360567626953125,-13.279525756835938,27.37253761291504,30.345008850097656
1686428464861513700,5.370513671875,-13.006996154785156,27.911344528198242,29.946693420410156
1686428464871459800,5.3804599609375,-12.871238708496094,28.1770076751709,29.518051147460938
1686428464881404700,5.39040478515625,-12.921188354492188,28.415376663208008,29.23426055908203
1686428464891350500,5.4003505859375,-12.570297241210938,28.546127319335938,28.857627868652344
1686428464901296600,5.410296630859375,-12.403083801269531,28.816537857055664,28.613494873046875
1686428464911242800,5.42024267578125,-12.380348205566406,29.020212173461914,28.26935577392578
1686428464921187600,5.4301875,-12.09747314453125,29.17171859741211,27.57543182373047
1686428464931133400,5.440133544921875,-12.122024536132812,29.52457046508789,27.222503662109375
1686428464941079600,5.45007958984375,-11.516090393066406,29.98267936706543,27.029312133789062
1686428464951025700,5.460025634765625,-11.21820068359375,30.131433486938477,26.446990966796875
1686428464960970800,5.469970703125,-10.932586669921875,30.306180953979492,26.111770629882812
1686428464970916600,5.47991650390625,-10.886360168457031,30.43515396118164,25.50238800048828
1686428464980862700,5.48986279296875,-10.610496520996094,30.63518714904785,25.22992706298828
1686428464990808800,5.499808837890625,-10.308349609375,30.79547119140625,24.808998107910156
1686428465000753700,5.509753662109375,-10.380210876464844,31.019750595092773,24.39344024658203
1686428465010699500,5.519699462890625,-10.050857543945312,30.98347282409668,24.240371704101562
1686428465020645600,5.529645751953125,-10.338272094726562,31.00819969177246,23.9993896484375
1686428465030591700,5.539591796875,-9.779502868652344,30.993656158447266,23.767623901367188
1686428465040536600,5.54953662109375,-9.859596252441406,31.242233276367188,23.4892578125
1686428465050482400,5.559482421875,-9.756973266601562,31.326635360717773,23.182167053222656
1686428465060428500,5.569428466796875,-9.399215698242188,31.433029174804688,23.082748413085938
1686428465070374700,5.579374755859375,-9.464515686035156,31.261266708374023,22.969322204589844
1686428465080319700,5.58931982421875,-9.09857177734375,31.265628814697266,22.849700927734375
1686428465090265600,5.599265625,-9.022659301757812,31.268966674804688,22.527732849121094
1686428465100211700,5.609211669921875,-9.135063171386719,31.24521255493164,22.09864044189453
1686428465110157800,5.61915771484375,-9.212944030761719,31.47547149658203,21.87305450439453
1686428465120102700,5.6291025390625,-9.068878173828125,31.53643226623535,21.62139892578125
1686428465130048500,5.639048583984375,-9.294502258300781,31.26572036743164,21.333412170410156
1686428465139994600,5.64899462890625,-9.2603759765625,31.2015323638916,21.15496063232422
1686428465149940700,5.658940673828125,-9.369613647460938,30.963808059692383,21.06200408935547
1686428465159885600,5.668885498046875,-9.332786560058594,31.097145080566406,20.904586791992188
1686428465169831400,5.67883154296875,-9.041015625,31.152559280395508,20.517425537109375
1686428465179777500,5.688777587890625,-9.18280029296875,30.881240844726562,20.48383331298828
1686428465189723600,5.6987236328125,-9.153533935546875,30.883729934692383,20.659332275390625
1686428465199668700,5.708668701171875,-9.330055236816406,31.027721405029297,20.618263244628906
1686428465209614600,5.718614501953125,-9.126785278320312,30.939228057861328,20.430984497070312
1686428465219560700,5.728560791015625,-8.906913757324219,31.0394229888916,20.261451721191406
1686428465229506800,5.7385068359375,-8.74798583984375,30.812450408935547,20.065963745117188
1686428465239451600,5.74845166015625,-9.342872619628906,30.759008407592773,19.81689453125
1686428465249397500,5.7583974609375,-9.576469421386719,30.837369918823242,19.517929077148438
1686428465259343600,5.768343505859375,-9.329216003417969,30.672922134399414,19.26293182373047
1686428465269289700,5.778289794921875,-9.114463806152344,30.838947296142578,19.38567352294922
1686428465279234600,5.788234619140625,-9.4473876953125,30.69601058959961,18.971298217773438
1686428465289180400,5.798180419921875,-9.54608154296875,30.612079620361328,18.532562255859375
1686428465299126500,5.80812646484375,-9.628936767578125,30.643394470214844,18.556304931640625
1686428465309072600,5.81807275390625,-9.414886474609375,30.850257873535156,18.201324462890625
1686428465319018500,5.8280185546875,-9.045906066894531,30.846410751342773,17.78685760498047
1686428465328963600,5.837963623046875,-8.835693359375,31.039302825927734,17.481491088867188
1686428465338909700,5.84790966796875,-8.671066284179688,30.978416442871094,16.94792938232422
1686428465348855800,5.857855712890625,-8.427566528320312,31.179166793823242,16.48688507080078
1686428465358801700,5.8678017578125,-8.017257690429688,31.164278030395508,16.112808227539062
1686428465368746500,5.87774658203125,-7.692634582519531,31.237850189208984,15.670364379882812
1686428465378692600,5.887692626953125,-7.58416748046875,31.132829666137695,15.532989501953125
1686428465388638700,5.897638671875,-7.2274017333984375,31.277618408203125,15.179161071777344
1686428465398584600,5.90758447265625,-6.800163269042969,31.293643951416016,15.084121704101562
1686428465408529400,5.917529296875,-6.615974426269531,31.612125396728516,14.865638732910156
1686428465418475500,5.9274755859375,-6.030174255371094,31.480236053466797,14.70489501953125
1686428465428421600,5.937421630859375,-5.780815124511719,31.419273376464844,14.632987976074219
1686428465438367500,5.947367431640625,-5.37200927734375,31.444974899291992,14.72161865234375
1686428465448312600,5.9573125,-5.7171478271484375,31.569538116455078,14.72149658203125
1686428465458258700,5.9672587890625,-5.919013977050781,31.293371200561523,14.819610595703125
1686428465468204800,5.977204833984375,-5.506233215332031,31.32381248474121,14.6759033203125
1686428465478150700,5.987150634765625,-6.0047607421875,31.144426345825195,14.685150146484375
1686428465488095500,5.997095458984375,-6.158905029296875,31.036226272583008,14.895339965820312
1686428465498041600,6.00704150390625,-6.377571105957031,30.808069229125977,14.865867614746094
1686428465507987700,6.01698779296875,-7.380867004394531,30.76740074157715,15.048225402832031
1686428465517933600,6.02693359375,-7.817253112792969,30.34126853942871,15.3878173828125
1686428465527878400,6.03687841796875,-8.588134765625,30.046314239501953,15.566978454589844
1686428465537824500,6.046824462890625,-9.356513977050781,29.80588722229004,15.46051025390625
1686428465547770600,6.0567705078125,-9.924362182617188,29.57870864868164,15.643638610839844
1686428465557716700,6.066716796875,-9.924362182617188,29.57870864868164,15.643638610839844
1686428465567661600,6.07666162109375,-10.525802612304688,28.95298957824707,15.825721740722656
1686428465577607700,6.086607666015625,-11.169776916503906,28.69202995300293,15.966354370117188
1686428465587553500,6.096553466796875,-11.500274658203125,28.484573364257812,16.140472412109375
1686428465597499600,6.106499755859375,-11.806228637695312,28.38361167907715,16.267166137695312
1686428465607444500,6.116444580078125,-12.239852905273438,27.932950973510742,16.357810974121094
1686428465617390600,6.126390625,-11.960075378417969,27.871004104614258,16.332229614257812
1686428465627336400,6.13633642578125,-12.547348022460938,27.705669403076172,16.7408447265625
1686428465637282600,6.146282470703125,-12.648246765136719,27.78896141052246,17.095382690429688
1686428465647227600,6.1562275390625,-12.069679260253906,27.599586486816406,17.024757385253906
1686428465657173800,6.166173828125,-12.327903747558594,27.151893615722656,16.951820373535156
1686428465667119600,6.17611962890625,-12.901481628417969,27.14533805847168,16.974708557128906
1686428465677065700,6.186065673828125,-13.213836669921875,26.88210105895996,16.930015563964844
1686428465687010600,6.196010498046875,-13.551673889160156,26.712974548339844,17.285598754882812
1686428465696956700,6.205956787109375,-13.614585876464844,26.558015823364258,17.358535766601562
1686428465706902500,6.215902587890625,-13.735580444335938,26.31036376953125,17.522918701171875
1686428465716848600,6.2258486328125,-14.008926391601562,26.029430389404297,17.522926330566406
1686428465726794800,6.235794677734375,-14.403900146484375,25.77103042602539,18.027984619140625
1686428465736739600,6.245739501953125,-14.565719604492188,25.472518920898438,18.16838836669922
1686428465746685400,6.255685546875,-14.812454223632812,25.3837833404541,17.917526245117188
1686428465756631600,6.265631591796875,-15.385597229003906,25.14967155456543,17.82396697998047
1686428465766577700,6.27557763671875,-15.138870239257812,24.935916900634766,17.852508544921875
1686428465776522800,6.285522705078125,-15.309707641601562,24.99231719970703,18.072486877441406
1686428465786468600,6.295468505859375,-15.166763305664062,24.71109390258789,18.2052001953125
1686428465796414700,6.305414794921875,-15.141555786132812,24.30337905883789,17.98516845703125
1686428465806360800,6.31536083984375,-15.292625427246094,24.16659927368164,17.99822235107422
1686428465816305700,6.3253056640625,-15.518692016601562,24.115432739257812,18.035430908203125
1686428465826251500,6.33525146484375,-15.485115051269531,24.344602584838867,17.853843688964844
1686428465836197600,6.34519775390625,-15.575386047363281,24.110565185546875,17.541282653808594
1686428465846143700,6.355143798828125,-15.299392700195312,24.172513961791992,17.651527404785156
1686428465856088600,6.365088623046875,-15.740074157714844,24.27081298828125,17.58879852294922
1686428465866034400,6.375034423828125,-15.825836181640625,24.311573028564453,17.360427856445312
1686428465875980500,6.38498046875,-15.488021850585938,24.36100959777832,17.315696716308594
1686428465885926700,6.3949267578125,-15.417472839355469,24.232330322265625,17.21050262451172
1686428465895871700,6.404871826171875,-15.135139465332031,24.15609359741211,17.274139404296875
1686428465905817600,6.414817626953125,-15.810256958007812,24.261632919311523,16.877952575683594
1686428465915763700,6.424763671875,-15.788009643554688,24.396791458129883,16.57642364501953
1686428465925709800,6.434709716796875,-16.118316650390625,24.268844604492188,16.307579040527344
1686428465935654700,6.444654541015625,-16.373138427734375,24.461851119995117,16.15624237060547
1686428465945600500,6.4546005859375,-16.155593872070312,24.452333450317383,15.66986083984375
1686428465955546600,6.464546630859375,-16.04792022705078,24.79723358154297,15.448684692382812
1686428465965492700,6.47449267578125,-15.917655944824219,25.114566802978516,15.275009155273438
1686428465975437600,6.4844375,-16.065155029296875,25.098876953125,14.980384826660156
1686428465985383400,6.494383544921875,-15.794723510742188,25.214542388916016,14.894767761230469
1686428465995329500,6.50432958984375,-15.598716735839844,25.546539306640625,14.398239135742188
1686428466005275600,6.514275634765625,-15.430084228515625,25.810443878173828,14.252120971679688
1686428466015220700,6.524220703125,-15.195266723632812,26.23853302001953,14.02520751953125
1686428466025166600,6.53416650390625,-14.807136535644531,26.67017936706543,13.513282775878906
1686428466035112700,6.54411279296875,-14.427047729492188,26.798322677612305,12.921661376953125
1686428466045058800,6.554058837890625,-14.184539794921875,27.114517211914062,12.729286193847656
1686428466055003600,6.564003662109375,-13.937225341796875,27.345924377441406,12.670608520507812
1686428466064949500,6.573949462890625,-14.016258239746094,27.682044982910156,12.201873779296875
1686428466074895600,6.5838955078125,-13.959152221679688,27.760404586791992,11.878440856933594
1686428466084841700,6.593841796875,-13.83135986328125,27.85501480102539,11.74566650390625
1686428466094786600,6.60378662109375,-13.674079895019531,27.82513427734375,11.436538696289062
1686428466104732400,6.613732421875,-13.591789245605469,28.13732147216797,11.358772277832031
1686428466114678500,6.623678466796875,-13.176704406738281,28.46739387512207,11.318702697753906
1686428466124624600,6.633624755859375,-13.2081298828125,28.66382598876953,11.246238708496094
1686428466134570500,6.643570556640625,-13.046333312988281,28.821109771728516,11.007652282714844
1686428466144515600,6.653515625,-13.139007568359375,28.97262191772461,10.576370239257812
1686428466154461700,6.663461669921875,-13.080123901367188,29.15764045715332,10.279861450195312
1686428466164407800,6.67340771484375,-12.864021301269531,29.166383743286133,10.102706909179688
1686428466174354200,6.683354248046875,-12.822349548339844,29.332490921020508,9.708015441894531
1686428466184299000,6.693299072265625,-12.520835876464844,29.548233032226562,9.573829650878906
1686428466194245000,6.7032451171875,-12.762901306152344,29.727210998535156,9.392250061035156
1686428466204191000,6.71319091796875,-12.464935302734375,29.70871353149414,9.152999877929688
1686428466214137000,6.72313720703125,-12.595176696777344,29.9798641204834,9.025772094726562
1686428466224082000,6.73308203125,-12.714218139648438,29.83501625061035,8.805206298828125
1686428466234028000,6.743028076171875,-12.498733520507812,30.122034072875977,8.555709838867188
1686428466243974000,6.752973876953125,-12.250900268554688,29.92641258239746,8.668075561523438
1686428466253920000,6.762919921875,-12.504249572753906,30.0894718170166,8.426628112792969
1686428466263865000,6.772864990234375,-12.447898864746094,30.349626541137695,8.221664428710938
1686428466273811200,6.782811279296875,-11.923652648925781,30.50312614440918,8.237327575683594
1686428466283757000,6.792757080078125,-11.70306396484375,30.59358787536621,8.286422729492188
1686428466293703200,6.802703125,-11.507659912109375,30.506004333496094,8.115028381347656
1686428466303648000,6.81264794921875,-11.533248901367188,30.771486282348633,7.8245697021484375
1686428466313594000,6.822593994140625,-11.5841064453125,30.660011291503906,7.7436676025390625
1686428466323540000,6.8325400390625,-11.5841064453125,30.660011291503906,7.7436676025390625
1686428466333486000,6.842486083984375,-11.122207641601562,30.705842971801758,7.856536865234375
1686428466343431000,6.852430908203125,-11.336944580078125,30.43204689025879,8.161605834960938
1686428466353377000,6.862376953125,-11.518707275390625,30.593225479125977,8.245407104492188
1686428466363323000,6.872322998046875,-11.431083679199219,30.487104415893555,7.8691253662109375
1686428466373269000,6.88226904296875,-11.875,30.315265655517578,7.819557189941406
1686428466383214000,6.892214111328125,-11.435195922851562,30.138227462768555,7.545013427734375
1686428466393160200,6.90216015625,-11.508888244628906,30.39500617980957,7.7945556640625
1686428466403106000,6.91210595703125,-11.33056640625,30.5440731048584,7.571723937988281
1686428466413052200,6.92205224609375,-11.414382934570312,30.903728485107422,7.4224853515625
1686428466422997000,6.9319970703125,-11.541938781738281,30.891647338867188,7.4971923828125
1686428466432943000,6.941943115234375,-11.494407653808594,30.78591537475586,7.54107666015625
1686428466442889000,6.951888916015625,-10.87896728515625,30.899335861206055,7.2419891357421875
1686428466452835000,6.9618349609375,-11.006172180175781,30.76143455505371,7.503852844238281
1686428466462781200,6.97178125,-11.271247863769531,30.569124221801758,7.32403564453125
1686428466472726000,6.98172607421875,-11.090812683105469,30.45635986328125,7.094474792480469
1686428466482671900,6.991671875,-10.818069458007812,30.57539939880371,7.133415222167969
1686428466492618000,7.001617919921875,-11.08892822265625,30.794010162353516,6.929473876953125
1686428466502564000,7.011564208984375,-10.990943908691406,30.615497589111328,6.845115661621094
1686428466512509200,7.02150927734375,-10.812103271484375,30.99579620361328,6.7251434326171875
1686428466522455000,7.031455078125,-10.67047119140625,30.89605140686035,6.79156494140625
1686428466532401200,7.041401123046875,-10.799728393554688,31.180143356323242,6.501075744628906
1686428466542347300,7.05134716796875,-10.734962463378906,31.12778091430664,6.219886779785156
1686428466552292000,7.0612919921875,-9.924346923828125,31.347015380859375,6.117279052734375
1686428466562238000,7.071238037109375,-9.914459228515625,31.301244735717773,5.895912170410156
1686428466572184000,7.08118408203125,-9.435195922851562,31.51984405517578,6.015968322753906
1686428466582130200,7.091130126953125,-9.144081115722656,31.814340591430664,5.889961242675781
1686428466592075000,7.101074951171875,-8.909927368164062,32.1705436706543,6.1838226318359375
1686428466602020900,7.111020751953125,-8.68865966796875,32.065711975097656,6.120018005371094
1686428466611967000,7.120967041015625,-8.521537780761719,32.4224739074707,6.3485260009765625
1686428466621913000,7.1309130859375,-8.0745849609375,32.372257232666016,6.1324005126953125
1686428466631858200,7.140858154296875,-8.000617980957031,32.50401306152344,6.313224792480469
1686428466641804000,7.150803955078125,-8.094711303710938,32.36122131347656,6.620811462402344
1686428466651750100,7.160750244140625,-8.510383605957031,32.70130920410156,6.692436218261719
1686428466661696300,7.1706962890625,-8.504035949707031,32.555198669433594,6.8651580810546875
1686428466671641000,7.18064111328125,-8.404159545898438,32.45307159423828,7.1149139404296875
1686428466681587000,7.1905869140625,-9.122238159179688,32.17259979248047,7.4298858642578125
1686428466691533000,7.200532958984375,-9.820930480957031,32.261077880859375,7.9740142822265625
1686428466701479000,7.21047900390625,-11.177627563476562,31.995492935180664,8.00579833984375
1686428466711424000,7.220424072265625,-11.4150390625,31.950490951538086,8.351890563964844
1686428466721369900,7.230369873046875,-11.979385375976562,31.39900016784668,8.431289672851562
1686428466731316000,7.24031591796875,-12.516212463378906,31.375455856323242,8.7088623046875
1686428466741262000,7.250261962890625,-12.740631103515625,31.298564910888672,8.917671203613281
1686428466751207200,7.260207275390625,-13.068405151367188,31.072322845458984,9.251235961914062
1686428466761153000,7.270153076171875,-13.588188171386719,31.084300994873047,9.734169006347656
1686428466771099100,7.28009912109375,-13.910675048828125,31.088134765625,9.858627319335938
1686428466781045000,7.290044921875,-14.156265258789062,30.978439331054688,10.024299621582031
1686428466790990000,7.299989990234375,-14.292930603027344,30.931304931640625,10.313957214355469
1686428466800936000,7.30993603515625,-14.254547119140625,30.459373474121094,10.365127563476562
1686428466810882000,7.319882080078125,-14.650718688964844,30.57470703125,10.594657897949219
1686428466820828000,7.329827880859375,-15.201148986816406,30.74098014831543,11.048362731933594
1686428466830773000,7.33977294921875,-15.114364624023438,30.153308868408203,11.357017517089844
1686428466840719000,7.349718994140625,-15.4722900390625,30.184864044189453,11.298545837402344
1686428466850665200,7.359665283203125,-15.775230407714844,29.976158142089844,11.5224609375
1686428466860611000,7.369611083984375,-16.132545471191406,29.63789939880371,11.573974609375
1686428466870557200,7.37955712890625,-16.208145141601562,29.576295852661133,11.889144897460938
1686428466880502000,7.389501953125,-16.238189697265625,29.505123138427734,12.199745178222656
1686428466890448100,7.3994482421875,-16.22998046875,29.504667282104492,12.587387084960938
1686428466900394000,7.40939404296875,-16.296951293945312,29.291501998901367,12.647209167480469
1686428466910340000,7.419340087890625,-16.401077270507812,29.18608856201172,12.794395446777344
1686428466920285000,7.429284912109375,-16.70196533203125,29.169382095336914,13.286537170410156
1686428466930231000,7.43923095703125,-16.66168212890625,28.97084617614746,13.426536560058594
1686428466940177000,7.449177001953125,-16.776100158691406,28.912200927734375,13.88104248046875
1686428466950123000,7.459123046875,-16.692543029785156,28.671001434326172,13.706550598144531
1686428466960068000,7.469068115234375,-17.19660186767578,28.72471046447754,14.114707946777344
1686428466970014200,7.47901416015625,-17.586265563964844,28.603633880615234,14.008857727050781
1686428466979960000,7.4889599609375,-17.450477600097656,28.56761360168457,14.332138061523438
1686428466989906200,7.49890625,-17.460556030273438,28.59674644470215,14.315338134765625
1686428466999851000,7.50885107421875,-17.493934631347656,28.567411422729492,14.480979919433594
1686428467009797000,7.518797119140625,-17.285171508789062,28.454181671142578,14.30731201171875
1686428467019743000,7.528742919921875,-17.67413330078125,28.62909698486328,14.64154052734375
1686428467029689000,7.538689208984375,-17.205467224121094,28.540267944335938,14.603424072265625
1686428467039634000,7.548634033203125,-16.89215850830078,28.498001098632812,14.659393310546875
1686428467049580000,7.558580078125,-16.74993896484375,28.450908660888672,14.793121337890625
1686428467059526000,7.56852587890625,-16.53386688232422,28.56028938293457,14.672042846679688
1686428467069472000,7.578471923828125,-16.33574676513672,28.555713653564453,14.645950317382812
1686428467079418000,7.588418212890625,-16.413925170898438,28.88783073425293,14.540153503417969
1686428467089363200,7.59836328125,-16.18781280517578,28.884634017944336,14.592414855957031
1686428467099309000,7.60830908203125,-16.18781280517578,28.884634017944336,14.592414855957031
1686428467109255200,7.618255126953125,-16.485702514648438,28.999488830566406,14.438438415527344
1686428467119201300,7.628201171875,-16.15135955810547,28.9726619720459,14.353607177734375
1686428467129146000,7.63814599609375,-16.316970825195312,29.13398551940918,14.334808349609375
1686428467139092000,7.648092041015625,-15.632614135742188,29.1385498046875,13.927291870117188
1686428467149038000,7.6580380859375,-15.821701049804688,29.26279640197754,13.833427429199219
1686428467158984200,7.667984130859375,-16.0242919921875,29.101844787597656,13.607612609863281
1686428467168928500,7.677928466796875,-16.28497314453125,29.117155075073242,13.550277709960938
1686428467178874400,7.687874267578125,-16.535110473632812,29.29644012451172,13.454444885253906
1686428467188820500,7.697820556640625,-16.508094787597656,29.446256637573242,13.373954772949219
1686428467198766600,7.7077666015625,-15.972541809082031,29.59028434753418,13.275245666503906
1686428467208711700,7.717711669921875,-15.903076171875,29.944826126098633,13.345001220703125
1686428467218657500,7.727657470703125,-15.389152526855469,30.277467727661133,12.902290344238281
1686428467228603600,7.737603759765625,-15.03546142578125,30.655519485473633,12.866744995117188
1686428467238549500,7.747549560546875,-14.383163452148438,30.812936782836914,12.768852233886719
1686428467248494600,7.75749462890625,-14.185531616210938,30.990894317626953,12.068344116210938
1686428467258440400,7.7674404296875,-13.877471923828125,31.651275634765625,11.811477661132812
1686428467268386600,7.777386474609375,-13.67095947265625,31.9079647064209,11.697067260742188
1686428467278332400,7.78733251953125,-13.517227172851562,32.1439094543457,11.338783264160156
1686428467288278500,7.797278564453125,-13.493057250976562,32.25775909423828,10.809158325195312
1686428467298223600,7.8072236328125,-12.93719482421875,32.288002014160156,10.761054992675781
1686428467308169700,7.817169677734375,-12.710456848144531,32.64612579345703,10.816925048828125
1686428467318115600,7.827115478515625,-12.740371704101562,32.745704650878906,10.828704833984375
1686428467328061700,7.837061767578125,-12.686752319335938,32.623046875,10.505363464355469
1686428467338006500,7.847006591796875,-12.559242248535156,32.880577087402344,10.201622009277344
1686428467347952600,7.85695263671875,-12.441268920898438,33.16385269165039,10.251502990722656
1686428467357898500,7.8668984375,-11.915138244628906,33.50560760498047,10.033279418945312
1686428467367844600,7.8768447265625,-11.892578125,33.52859115600586,9.644935607910156
1686428467377789400,7.88678955078125,-11.934288024902344,33.777565002441406,9.795867919921875
1686428467387735600,7.896735595703125,-11.518287658691406,33.740718841552734,9.781822204589844
1686428467397681400,7.906681396484375,-11.312614440917969,33.804779052734375,9.275314331054688
1686428467407627500,7.91662744140625,-10.937698364257812,34.16810607910156,9.071556091308594
1686428467417572600,7.926572509765625,-10.842033386230469,34.38795471191406,9.090042114257812
1686428467427518700,7.936518798828125,-11.041122436523438,34.332828521728516,9.110084533691406
1686428467437464600,7.946464599609375,-10.864341735839844,34.36418914794922,8.778251647949219
1686428467447410700,7.95641064453125,-10.854240417480469,34.607643127441406,8.435920715332031
1686428467457356800,7.966356689453125,-11.025138854980469,34.789642333984375,8.405227661132812
1686428467467301600,7.976301513671875,-10.604362487792969,34.837825775146484,8.348281860351562
1686428467477247500,7.98624755859375,-10.21832275390625,34.8060302734375,8.062995910644531
1686428467487193600,7.996193603515625,-10.296539306640625,34.75100326538086,8.105293273925781
1686428467497139700,8.0061396484375,-9.80487060546875,34.896549224853516,7.716636657714844
1686428467507084500,8.01608447265625,-9.843063354492188,35.01591491699219,7.78900146484375
1686428467517030400,8.026030517578125,-9.661476135253906,35.172393798828125,7.7501373291015625
1686428467526976500,8.0359765625,-9.615974426269531,35.03384780883789,7.316719055175781
1686428467536922600,8.045922607421875,-9.392814636230469,35.14488220214844,7.561897277832031
1686428467546867700,8.05586767578125,-9.45391845703125,35.135475158691406,7.4623260498046875
1686428467556813600,8.0658134765625,-9.512802124023438,35.161468505859375,7.280921936035156
1686428467566759700,8.075759765625,-9.783668518066406,35.08812713623047,7.2178802490234375
1686428467576705800,8.085705810546875,-9.585166931152344,34.97431945800781,7.24346923828125
1686428467586650600,8.095650634765626,-9.645133972167969,34.931396484375,7.3276214599609375
1686428467596596500,8.105596435546875,-9.850494384765625,35.10731887817383,7.158576965332031
1686428467606542600,8.11554248046875,-9.624557495117188,35.116127014160156,7.035987854003906
1686428467616488700,8.12548876953125,-9.404815673828125,35.05988311767578,7.134269714355469
1686428467626434600,8.1354345703125,-9.38916015625,35.164146423339844,7.012016296386719
1686428467636379400,8.14537939453125,-8.964935302734375,35.30884552001953,6.972900390625
1686428467646325500,8.155325439453126,-9.305244445800781,35.23005676269531,6.654396057128906
1686428467656271600,8.165271728515625,-8.548828125,35.33442687988281,6.734046936035156
1686428467666217500,8.175217529296875,-8.504226684570312,35.29142761230469,6.687171936035156
1686428467676162600,8.18516259765625,-8.652862548828125,35.40058898925781,6.56402587890625
1686428467686108700,8.195108642578125,-8.348953247070312,35.198577880859375,6.419342041015625
1686428467696054500,8.205054443359375,-7.9159698486328125,35.36039733886719,6.362434387207031
1686428467706000600,8.215000732421874,-7.899528503417969,35.39623260498047,6.37091064453125
1686428467715945500,8.224945556640625,-7.83837890625,35.5924072265625,6.0912017822265625
1686428467725891600,8.2348916015625,-7.3524017333984375,35.616180419921875,5.852622985839844
1686428467735837400,8.24483740234375,-7.005821228027344,35.63294982910156,5.690605163574219
1686428467745783600,8.254783447265625,-6.6859893798828125,35.77162551879883,5.851837158203125
1686428467755728400,8.264728271484374,-6.744911193847656,35.770751953125,5.5648651123046875
1686428467765674500,8.274674560546876,-6.429878234863281,35.85572052001953,5.45306396484375
1686428467775620400,8.284620361328125,-5.730735778808594,35.68492126464844,5.3414154052734375
1686428467785566500,8.29456640625,-5.664253234863281,36.254180908203125,5.080596923828125
1686428467795512600,8.3045126953125,-5.128578186035156,36.078468322753906,5.086883544921875
1686428467805457700,8.314457763671875,-5.008171081542969,36.297481536865234,5.16168212890625
1686428467815403500,8.324403564453124,-4.483070373535156,36.43405532836914,5.053436279296875
1686428467825349600,8.334349609375,-4.169677734375,36.46186828613281,5.374824523925781
1686428467835295700,8.344295654296875,-3.83447265625,36.43830871582031,5.567901611328125
1686428467845240600,8.354240478515624,-3.988311767578125,36.488250732421875,5.415321350097656
1686428467855186400,8.3641865234375,-3.5397262573242188,36.647056579589844,5.5524749755859375
1686428467865132500,8.374132568359375,-3.9188308715820312,36.653480529785156,5.665672302246094
1686428467875078700,8.38407861328125,-3.9188308715820312,36.653480529785156,5.665672302246094
1686428467885023500,8.3940234375,-4.054023742675781,36.8385124206543,6.018592834472656
1686428467894969300,8.40396923828125,-4.0946502685546875,36.75326156616211,6.318572998046875
1686428467904915500,8.41391552734375,-4.568916320800781,36.3144645690918,6.352073669433594
1686428467914861600,8.423861572265626,-5.0098419189453125,36.625770568847656,6.6598358154296875
1686428467924807400,8.433807373046875,-5.33966064453125,36.55796432495117,6.980491638183594
1686428467934752500,8.44375244140625,-6.014137268066406,36.71381378173828,7.4861602783203125
1686428467944698600,8.45369873046875,-6.5796661376953125,36.44121551513672,7.703483581542969
1686428467954644700,8.463644775390625,-7.309364318847656,36.290916442871094,8.047721862792969
1686428467964590600,8.473590576171874,-7.64013671875,36.18428421020508,8.480674743652344
1686428467974535400,8.483535400390625,-8.310768127441406,36.16755676269531,8.821540832519531
1686428467984481500,8.4934814453125,-8.959213256835938,35.93635559082031,9.122611999511719
1686428467994427600,8.503427734375,-9.352699279785156,35.76664733886719,9.303199768066406
1686428468004373500,8.51337353515625,-10.005096435546875,35.69558334350586,9.681259155273438
1686428468014318600,8.523318603515625,-10.502166748046875,35.46416473388672,9.957061767578125
1686428468024264400,8.533264404296874,-10.739837646484375,35.38877487182617,10.243377685546875
1686428468034210600,8.54321044921875,-10.864128112792969,35.313697814941406,10.589035034179688
1686428468044156700,8.55315673828125,-11.080703735351562,35.18901062011719,11.004631042480469
1686428468054102800,8.563102783203124,-10.871650695800781,35.33734893798828,11.244560241699219
1686428468064047600,8.573047607421875,-11.056068420410156,35.221893310546875,11.488960266113281
1686428468073993700,8.58299365234375,-11.516654968261719,35.10544204711914,11.841804504394531
1686428468083939600,8.592939697265624,-11.7164306640625,34.73715591430664,12.019813537597656
1686428468093885700,8.6028857421875,-11.944435119628906,34.77005386352539,12.40869140625
1686428468103830500,8.61283056640625,-12.354171752929688,34.484039306640625,12.828605651855469
1686428468113776600,8.622776611328124,-12.358451843261719,34.40760803222656,13.13067626953125
1686428468123722500,8.632722412109375,-12.607383728027344,34.277130126953125,13.446922302246094
1686428468133668600,8.642668701171875,-13.118354797363281,34.05820846557617,13.664474487304688
1686428468143613700,8.65261376953125,-13.518592834472656,33.93037414550781,13.675247192382812
1686428468153559800,8.662559814453125,-13.227432250976562,33.85831832885742,14.052406311035156
1686428468163505700,8.672505615234375,-13.497840881347656,33.861968994140625,14.430747985839844
1686428468173451800,8.68245166015625,-14.09857177734375,33.43816375732422,14.69427490234375
1686428468183397600,8.692397705078125,-13.683578491210938,33.64427185058594,14.9598388671875
1686428468193342700,8.7023427734375,-13.970481872558594,33.47255325317383,15.31890869140625
1686428468203288600,8.71228857421875,-14.097648620605469,33.36865234375,15.434814453125
1686428468213234700,8.722234619140625,-14.221832275390625,33.402122497558594,15.56256103515625
1686428468223180500,8.7321806640625,-14.051109313964844,33.499595642089844,15.6990966796875
1686428468233125600,8.742125732421876,-13.791419982910156,33.3946647644043,15.682090759277344
1686428468243071500,8.752071533203125,-13.676445007324219,33.756195068359375,15.879425048828125
1686428468253017600,8.762017578125,-12.971855163574219,33.83784484863281,15.938941955566406
1686428468262963500,8.77196337890625,-12.931747436523438,33.81993103027344,15.716514587402344
1686428468272909600,8.78190966796875,-12.434776306152344,34.068824768066406,15.732208251953125
1686428468282854700,8.791854736328125,-12.563194274902344,34.192901611328125,15.612266540527344
1686428468292800800,8.80180078125,-12.510330200195312,34.22633743286133,15.320259094238281
1686428468302746600,8.81174658203125,-12.236351013183594,33.807029724121094,15.20233154296875
1686428468312692700,8.821692626953125,-12.271110534667969,33.87899398803711,15.005546569824219
1686428468322637600,8.831637451171876,-12.619316101074219,34.13200759887695,14.817291259765625
1686428468332583700,8.841583740234375,-12.611648559570312,33.8796272277832,14.667732238769531
1686428468342529500,8.851529541015625,-12.787788391113281,34.26057052612305,14.621734619140625
1686428468352475600,8.8614755859375,-12.123634338378906,34.21227264404297,14.622207641601562
1686428468362420500,8.87142041015625,-12.051986694335938,34.737159729003906,14.29754638671875
1686428468372366600,8.88136669921875,-11.303596496582031,34.83247375488281,14.256317138671875
1686428468382312400,8.8913125,-10.880836486816406,35.20233917236328,14.151786804199219
1686428468392258600,8.901258544921875,-10.543373107910156,35.273529052734375,14.07025146484375
1686428468402204400,8.911204345703124,-10.435386657714844,35.64909362792969,13.733894348144531
1686428468412149800,8.921149658203126,-9.787803649902344,35.786338806152344,13.204681396484375
1686428468422095600,8.931095703125,-10.099983215332031,36.147422790527344,13.171257019042969
1686428468432041700,8.941041748046874,-9.974838256835938,36.237998962402344,12.808914184570312
1686428468441987600,8.950987548828126,-9.460441589355469,36.46266555786133,12.292518615722656
1686428468451932700,8.9609326171875,-9.105117797851562,36.48147201538086,12.14501953125
1686428468461878500,8.97087841796875,-8.644821166992188,36.78788757324219,12.168281555175781
1686428468471824600,8.98082470703125,-8.505126953125,36.567100524902344,11.830513000488281
1686428468481770500,8.9907705078125,-8.342361450195312,37.05942916870117,11.740242004394531
1686428468491715600,9.000715576171874,-8.092048645019531,37.310672760009766,11.715194702148438
1686428468501661400,9.010661376953125,-7.9358673095703125,37.36907958984375,11.527633666992188
1686428468511607600,9.020607666015625,-7.692222595214844,37.405113220214844,11.543296813964844
1686428468521553400,9.030553466796874,-7.59515380859375,37.54225540161133,11.150100708007812
1686428468531499500,9.04049951171875,-6.970085144042969,37.53037643432617,10.847030639648438
1686428468541444600,9.050444580078125,-6.748504638671875,37.76189422607422,10.810890197753906
1686428468551390700,9.060390625,-6.3604736328125,37.61637878417969,10.422439575195312
1686428468561336600,9.070336669921875,-6.025360107421875,37.61981964111328,10.062957763671875
1686428468571282700,9.08028271484375,-5.627311706542969,37.88037872314453,10.101882934570312
1686428468581227500,9.0902275390625,-5.715476989746094,38.08213424682617,9.993888854980469
1686428468591173600,9.100173583984375,-5.503875732421875,38.11211395263672,9.682647705078125
1686428468601119500,9.110119384765625,-5.47967529296875,38.20702362060547,9.491981506347656
1686428468611065600,9.120065673828124,-5.410972595214844,38.27536392211914,9.320205688476562
1686428468621010400,9.130010498046875,-5.4593658447265625,37.987998962402344,9.047149658203125
1686428468630956500,9.13995654296875,-5.2884521484375,38.068355560302734,9.049026489257812
1686428468640902400,9.14990234375,-5.192230224609375,38.3349494934082,9.137840270996094
1686428468650848500,9.1598486328125,-5.192230224609375,38.3349494934082,9.137840270996094
1686428468660794600,9.169794677734375,-5.2566375732421875,38.21268844604492,9.078231811523438
1686428468670739700,9.17973974609375,-5.125129699707031,38.09912109375,8.915237426757812
1686428468680685600,9.189685546875,-4.668914794921875,38.0765380859375,8.966178894042969
1686428468690631700,9.199631591796875,-4.2378387451171875,38.31398010253906,8.884086608886719
1686428468700577500,9.20957763671875,-4.002449035644531,38.30392837524414,8.794570922851562
1686428468710522600,9.219522705078125,-4.100654602050781,38.36534881591797,8.713584899902344
1686428468720468500,9.229468505859375,-4.2989501953125,38.5376091003418,8.422210693359375
1686428468730414600,9.23941455078125,-4.007354736328125,38.68936538696289,8.513542175292969
1686428468740360400,9.2493603515625,-3.7705764770507812,38.818607330322266,8.434135437011719
1686428468750305500,9.259305419921875,-3.6144866943359375,38.817970275878906,8.104042053222656
1686428468760251600,9.269251708984376,-3.296478271484375,38.74323272705078,7.9508209228515625
1686428468770197500,9.279197509765625,-3.2611236572265625,38.70893859863281,7.840484619140625
1686428468780143600,9.2891435546875,-3.281982421875,38.79132080078125,7.552146911621094
1686428468790089700,9.29908984375,-3.0935516357421875,38.65650939941406,7.316978454589844
1686428468800034600,9.30903466796875,-2.8917160034179688,38.73357391357422,7.015716552734375
1686428468809980700,9.318980712890625,-3.1816940307617188,38.86709213256836,6.825439453125
1686428468819926500,9.328926513671876,-3.0954971313476562,39.12794494628906,6.9557342529296875
1686428468829872600,9.33887255859375,-2.9365692138671875,38.95785140991211,6.647987365722656
1686428468839817500,9.3488173828125,-2.8557891845703125,39.077754974365234,6.6946258544921875
1686428468849763600,9.358763671875,-2.156402587890625,38.9288330078125,6.596580505371094
1686428468859709400,9.36870947265625,-1.8685836791992188,39.18050003051758,6.380851745605469
1686428468869655600,9.378655517578125,-1.7884902954101562,39.24944305419922,6.3406524658203125
1686428468879601400,9.388601318359376,-1.5092315673828125,39.32243347167969,6.080818176269531
1686428468889546800,9.398546630859375,-1.2033767700195312,38.96959686279297,6.1656494140625
1686428468899492600,9.40849267578125,-0.8875045776367188,38.95258331298828,6.0792083740234375
1686428468909438700,9.418438720703126,-0.8560409545898438,38.936424255371094,6.106903076171875
1686428468919384600,9.428384521484375,-0.45165252685546875,38.97463607788086,5.952880859375
1686428468929329700,9.43832958984375,-0.10080718994140625,38.9696044921875,5.459197998046875
1686428468939275500,9.448275634765626,0.3077545166015625,39.159969329833984,5.494148254394531
1686428468949221600,9.4582216796875,0.3430023193359375,39.299827575683594,5.376762390136719
1686428468959167500,9.46816748046875,0.7445907592773438,39.31120681762695,5.401863098144531
1686428468969112600,9.478112548828125,0.8296127319335938,39.40082550048828,5.242027282714844
1686428468979058400,9.488058349609375,1.37640380859375,39.3879280090332,5.061286926269531
1686428468989004500,9.498004638671874,1.7487030029296875,39.00726318359375,5.0953369140625
1686428468998950400,9.507950439453126,1.71966552734375,39.046485900878906,5.024177551269531
1686428469008896500,9.517896484375,1.6058883666992188,39.21754455566406,5.302093505859375
1686428469018841600,9.527841552734374,1.6955337524414062,39.2158203125,5.025787353515625
1686428469028787700,9.53778759765625,1.0288314819335938,39.2178955078125,5.5830078125
1686428469038733600,9.547733642578125,0.9056243896484375,39.37482452392578,5.69439697265625
1686428469048679700,9.5576796875,0.71673583984375,39.58331298828125,5.991249084472656
1686428469058624500,9.56762451171875,0.34725189208984375,39.446075439453125,6.3902435302734375
1686428469068570600,9.577570556640625,-0.1074066162109375,39.23149871826172,7.005706787109375
1686428469078516500,9.5875166015625,-0.9139328002929688,39.03316116333008,7.3449249267578125
1686428469088462600,9.597462646484376,-1.4180374145507812,39.01750564575195,7.588874816894531
1686428469098408400,9.607408447265625,-2.3057174682617188,39.0257568359375,7.681121826171875
1686428469108353500,9.617353515625,-2.8658676147460938,39.15778350830078,8.351570129394531
1686428469118299400,9.62729931640625,-3.7814712524414062,39.1776008605957,8.646293640136719
1686428469128245500,9.63724560546875,-4.298164367675781,39.34652328491211,9.167503356933594
1686428469138191400,9.64719140625,-4.614448547363281,39.246829986572266,9.428749084472656
1686428469148136700,9.65713671875,-5.222846984863281,38.98133850097656,9.665489196777344
1686428469158082600,9.66708251953125,-5.505500793457031,38.75965881347656,9.78961181640625
1686428469168028700,9.677028564453124,-5.0915069580078125,38.759910583496094,10.050384521484375
1686428469177975300,9.686975341796876,-5.4093780517578125,38.78815460205078,10.265625
1686428469187921400,9.69692138671875,-5.716987609863281,38.800079345703125,10.696372985839844
1686428469197866200,9.7068662109375,-5.633003234863281,38.45707702636719,10.922744750976562
1686428469207812400,9.716812255859375,-5.889564514160156,38.50493240356445,11.340904235839844
1686428469217758200,9.72675830078125,-6.137359619140625,38.258480072021484,11.556060791015625
1686428469227704300,9.736704345703124,-6.81561279296875,38.33274459838867,11.752792358398438
1686428469237649200,9.746649169921875,-7.241912841796875,38.06172561645508,12.055221557617188
1686428469247595300,9.75659521484375,-7.627311706542969,38.07283401489258,12.341667175292969
1686428469257541000,9.766541015625,-7.705810546875,38.04297637939453,12.938514709472656
1686428469267487200,9.7764873046875,-7.9290313720703125,37.80549240112305,13.241409301757812
1686428469277432300,9.786432373046875,-7.86639404296875,37.611080169677734,13.771316528320312
1686428469287378400,9.79637841796875,-7.8334197998046875,37.55126190185547,13.79852294921875
1686428469297324300,9.80632421875,-7.888031005859375,37.512657165527344,14.25341796875
1686428469307270400,9.8162705078125,-8.198768615722656,37.24947738647461,14.650550842285156
1686428469317216300,9.82621630859375,-8.019149780273438,37.30854797363281,14.988723754882812
1686428469327161300,9.836161376953125,-7.885002136230469,37.260169982910156,15.041030883789062
1686428469337107200,9.846107177734375,-8.132072448730469,37.035194396972656,15.304039001464844
1686428469347053300,9.85605322265625,-8.134269714355469,36.96915817260742,15.669654846191406
1686428469356999200,9.865999267578125,-8.264854431152344,37.02582550048828,15.936416625976562
1686428469366944300,9.8759443359375,-8.439888000488281,37.086273193359375,15.9130859375
1686428469376890000,9.88589013671875,-7.989814758300781,37.044246673583984,16.109725952148438
1686428469386836200,9.895836181640625,-7.901161193847656,36.90236282348633,16.349159240722656
1686428469396782000,9.905781982421875,-7.399971008300781,37.07412338256836,16.127403259277344
1686428469406728200,9.915728271484374,-7.235908508300781,37.16341781616211,16.23078155517578
1686428469416673300,9.92567333984375,-7.235908508300781,37.16341781616211,16.23078155517578
1686428469426619400,9.935619384765625,-6.818824768066406,37.27562713623047,15.971000671386719
1686428469436565200,9.945565185546876,-6.2616424560546875,37.40364456176758,16.0098876953125
1686428469446511400,9.955511474609375,-6.278289794921875,37.45130157470703,15.691444396972656
1686428469456456200,9.965456298828125,-5.669830322265625,37.588890075683594,15.416641235351562
1686428469466402300,9.97540234375,-5.507850646972656,37.85400390625,15.31854248046875
1686428469476348200,9.98534814453125,-5.6996307373046875,37.761512756347656,15.079719543457031
1686428469486294300,9.995294189453125,-6.204399108886719,37.756507873535156,15.167350769042969
1686428469496240000,10.005240234375,-6.293220520019531,37.732749938964844,15.143928527832031
1686428469506185200,10.015185302734375,-6.355293273925781,38.046348571777344,15.0859375
1686428469516131000,10.025131103515625,-5.692771911621094,37.90635681152344,14.812110900878906
1686428469526077200,10.0350771484375,-5.221138000488281,38.02857208251953,14.88482666015625
1686428469536023000,10.04502294921875,-4.743011474609375,37.91999816894531,14.665122985839844
1686428469545969200,10.05496923828125,-4.163909912109375,38.190528869628906,14.296768188476562
1686428469555914200,10.064914306640626,-3.6648101806640625,38.26396560668945,14.246116638183594
1686428469565860400,10.0748603515625,-3.4160995483398438,38.44316101074219,13.889106750488281
1686428469575806200,10.08480615234375,-2.6422958374023438,38.640968322753906,13.443305969238281
1686428469585752300,10.09475244140625,-2.90545654296875,38.82368469238281,13.084709167480469
1686428469595697200,10.104697265625,-2.1018218994140625,38.94407653808594,12.705307006835938
1686428469605643300,10.114643310546874,-1.8348159790039062,39.00707244873047,12.196243286132812
1686428469615589000,10.124589111328126,-1.45281982421875,39.026859283447266,11.928352355957031
1686428469625535200,10.13453515625,-1.303741455078125,39.06852340698242,11.324180603027344
1686428469635480000,10.14447998046875,-1.3644866943359375,39.34145736694336,11.312210083007812
1686428469645426200,10.15442626953125,-1.593414306640625,39.467552185058594,10.857818603515625
1686428469655372000,10.1643720703125,-1.1453857421875,39.315147399902344,10.494537353515625
1686428469665318100,10.174318115234374,-0.8607330322265625,39.37255096435547,10.235275268554688
1686428469675264000,10.184263916015626,-0.7380828857421875,39.40416717529297,10.22174072265625
1686428469685209300,10.194209228515625,-0.6030502319335938,39.63915252685547,10.078842163085938
1686428469695155200,10.2041552734375,-0.4194793701171875,39.94169616699219,9.692626953125
1686428469705101300,10.214101318359376,-0.18741607666015625,39.88517379760742,9.621826171875
1686428469715047200,10.224047119140625,0.28485107421875,39.76277542114258,9.4873046875
1686428469724993300,10.2339931640625,0.40552520751953125,40.0393180847168,9.034095764160156
1686428469734938000,10.243938232421876,0.6352691650390625,39.63806915283203,8.794387817382812
1686428469744884200,10.25388427734375,0.6665191650390625,39.7538948059082,8.505081176757812
1686428469754830000,10.263830078125,1.1037368774414062,39.8758544921875,8.284133911132812
1686428469764776200,10.273776123046876,0.99896240234375,40.08476638793945,8.197517395019531
1686428469774721000,10.283720947265625,1.3111953735351562,40.00567626953125,7.726692199707031
1686428469784667100,10.293667236328124,1.3017807006835938,39.83769989013672,7.492607116699219
1686428469794613200,10.30361328125,1.4592361450195312,39.99396896362305,7.2044830322265625
1686428469804559000,10.31355908203125,1.755706787109375,40.316253662109375,6.976448059082031
1686428469814505200,10.323505126953124,2.1990509033203125,40.08366775512695,7.347038269042969
1686428469824450300,10.3334501953125,2.50640869140625,40.11668395996094,6.810874938964844
1686428469834396200,10.343396240234375,2.7482757568359375,39.96320343017578,6.6881866455078125
1686428469844342300,10.35334228515625,2.9871597290039062,39.88900375366211,6.618927001953125
1686428469854288100,10.3632880859375,3.0738601684570312,39.84136962890625,6.58575439453125
1686428469864233200,10.373233154296875,3.4166488647460938,40.04362106323242,6.65716552734375
1686428469874179000,10.383178955078124,3.4299392700195312,40.1425666809082,6.192680358886719
1686428469884125200,10.393125244140625,3.2519378662109375,39.942386627197266,6.1160430908203125
1686428469894071000,10.403071044921875,3.4442977905273438,40.143096923828125,5.778839111328125
1686428469904017200,10.41301708984375,3.5142440795898438,40.282928466796875,5.862823486328125
1686428469913962200,10.422962158203125,3.5683517456054688,40.24763870239258,5.809837341308594
1686428469923908400,10.432908447265625,4.114593505859375,40.232582092285156,5.6479034423828125
1686428469933854200,10.442854248046874,3.94952392578125,40.3187370300293,5.435203552246094
1686428469943800300,10.45280029296875,3.9626312255859375,40.56668472290039,5.3745269775390625
1686428469953745200,10.4627451171875,3.8860702514648438,40.121734619140625,5.179252624511719
1686428469963691300,10.472691162109374,4.157798767089844,40.18532180786133,5.152198791503906
1686428469973637000,10.48263720703125,3.9295806884765625,40.374263763427734,4.9228363037109375
1686428469983583200,10.492583251953125,4.177909851074219,40.352848052978516,4.829917907714844
1686428469993529300,10.502529296875,4.102226257324219,40.42081832885742,4.784088134765625
1686428470003474200,10.51247412109375,4.6053924560546875,40.528465270996094,4.3033599853515625
1686428470013420000,10.522419921875,4.397071838378906,40.640926361083984,4.233375549316406
1686428470023366100,10.5323662109375,4.6108245849609375,40.60232925415039,3.9361038208007812
1686428470033312300,10.542312255859375,4.867851257324219,40.48688888549805,3.6015701293945312
1686428470043258000,10.552258056640625,5.385871887207031,40.5342903137207,3.5854721069335938
1686428470053203200,10.562203125,5.87396240234375,40.70233917236328,3.299346923828125
1686428470063149300,10.5721494140625,5.675102233886719,40.52865982055664,3.24139404296875
1686428470073095200,10.58209521484375,5.933280944824219,40.568119049072266,3.0878143310546875
1686428470083041300,10.592041259765624,6.2006988525390625,40.689598083496094,2.9125900268554688
1686428470092986000,10.601986083984375,6.5388946533203125,40.5216178894043,2.7646942138671875
1686428470102932200,10.61193212890625,7.100532531738281,40.465492248535156,2.5276641845703125
1686428470112878000,10.621878173828126,7.584922790527344,40.620033264160156,2.5501174926757812
1686428470122824200,10.63182421875,8.121940612792969,40.250675201416016,2.2842330932617188
1686428470132770300,10.641770263671875,8.385482788085938,40.33960723876953,2.224365234375
1686428470142715100,10.651715087890626,8.47625732421875,40.208160400390625,1.923095703125
1686428470152661000,10.661660888671875,8.659927368164062,40.57695770263672,1.7096328735351562
1686428470162607000,10.671607177734375,8.94793701171875,40.33866882324219,1.5699539184570312
1686428470172552400,10.681552490234376,8.822547912597656,40.573734283447266,1.7046279907226562
1686428470182497300,10.691497314453125,8.866828918457031,40.629249572753906,1.72802734375
1686428470192443400,10.701443359375,9.021652221679688,40.55382537841797,1.7442779541015625
1686428470202389200,10.71138916015625,9.021652221679688,40.55382537841797,1.7442779541015625
1686428470212335400,10.72133544921875,8.790725708007812,40.461326599121094,1.9559173583984375
1686428470222281200,10.73128125,8.545417785644531,40.60761642456055,1.7923202514648438
1686428470232226300,10.741226318359375,8.18170166015625,40.643062591552734,2.3235092163085938
1686428470242172200,10.751172119140625,8.093597412109375,40.8060302734375,2.4813613891601562
1686428470252118300,10.7611181640625,7.743377685546875,40.83176040649414,2.9185943603515625
1686428470262064000,10.771064208984376,7.388496398925781,41.173561096191406,3.3142547607421875
1686428470272010200,10.78101025390625,7.267005920410156,41.287452697753906,3.866180419921875
1686428470281955300,10.790955322265624,6.6836700439453125,41.397216796875,4.237342834472656
1686428470291901400,10.8009013671875,5.201332092285156,41.65794372558594,4.410713195800781
1686428470301847300,10.810847412109375,4.394905090332031,41.79410934448242,4.828147888183594
1686428470311793400,10.82079345703125,3.3635025024414062,42.195884704589844,5.438774108886719
1686428470321738200,10.83073828125,2.3929367065429688,42.216304779052734,5.6728515625
1686428470331684400,10.840684326171875,1.5597763061523438,42.28078842163086,6.1150665283203125
1686428470341630200,10.850630126953124,0.7292633056640625,42.11422348022461,6.508628845214844
1686428470351576300,10.860576416015626,0.8917388916015625,42.21345520019531,6.8888702392578125
1686428470361522400,10.8705224609375,0.6087112426757812,42.295654296875,7.2366180419921875
1686428470371467300,10.88046728515625,0.2450103759765625,42.347503662109375,7.4342498779296875
1686428470381413000,10.8904130859375,0.01528167724609375,42.31813049316406,7.760536193847656
1686428470391359200,10.900359130859375,-0.470947265625,42.3737678527832,8.177040100097656
1686428470401305300,10.910305419921874,-0.38895416259765625,42.282203674316406,8.39849853515625
1686428470411251200,10.920251220703125,-0.8372573852539062,42.61899948120117,8.773590087890625
1686428470421196300,10.9301962890625,-1.6409759521484375,42.115150451660156,9.178421020507812
1686428470431142400,10.940142333984374,-2.3232269287109375,42.10177230834961,9.311477661132812
1686428470441088500,10.950088623046875,-2.68804931640625,41.93610382080078,9.911048889160156
1686428470451034400,10.960034423828125,-3.0614776611328125,41.91667938232422,10.095405578613281
1686428470460979200,10.969979248046876,-2.87274169921875,41.90901184082031,10.498023986816406
1686428470470925300,10.97992529296875,-3.169647216796875,42.06791687011719,10.743057250976562
1686428470480871400,10.989871337890625,-3.7326507568359375,41.99022674560547,11.448951721191406
1686428470490817300,10.9998173828125,-3.7427291870117188,41.791603088378906,11.828910827636719
1686428470500763400,11.009763427734375,-3.8258132934570312,41.83817672729492,12.50494384765625
1686428470510708200,11.019708251953125,-4.210975646972656,41.61235809326172,12.823188781738281
1686428470520654300,11.029654296875,-4.678184509277344,41.32179260253906,13.160728454589844
1686428470530600200,11.03960009765625,-4.736244201660156,41.409339904785156,12.934562683105469
1686428470540546300,11.04954638671875,-4.7521209716796875,41.45440673828125,13.526664733886719
1686428470550492200,11.0594921875,-5.161888122558594,41.19001007080078,13.583953857421875
1686428470560437500,11.0694375,-4.978080749511719,41.30608367919922,13.747421264648438
1686428470570383400,11.07938330078125,-5.1695556640625,41.66811752319336,14.029960632324219
1686428470580329500,11.08932958984375,-4.764892578125,41.42353820800781,13.824111938476562
1686428470590275300,11.099275390625,-4.709327697753906,41.572017669677734,14.076744079589844
1686428470600220400,11.109220458984375,-4.772438049316406,41.70774841308594,14.295036315917969
1686428470610166300,11.119166259765626,-4.697578430175781,41.661354064941406,13.978469848632812
1686428470620112400,11.1291123046875,-4.3332977294921875,41.810855865478516,13.715415954589844
1686428470630058200,11.139058349609375,-4.034294128417969,41.682403564453125,13.5977783203125
1686428470640004400,11.14900439453125,-4.0322113037109375,41.95388412475586,13.606094360351562
1686428470649949400,11.158949462890625,-4.0357513427734375,42.06150817871094,13.578651428222656
1686428470659895300,11.168895263671875,-3.9404525756835938,42.124305725097656,13.525428771972656
1686428470669841400,11.17884130859375,-4.009635925292969,42.43598556518555,13.181831359863281
1686428470679787500,11.18878759765625,-4.246788024902344,42.49917984008789,13.597061157226562
1686428470689733400,11.1987333984375,-4.0516357421875,42.212547302246094,13.451362609863281
1686428470699678500,11.208678466796876,-3.6952285766601562,42.330467224121094,13.536064147949219
1686428470709624300,11.218624267578125,-3.2340469360351562,42.390106201171875,13.518524169921875
1686428470719570400,11.2285703125,-3.15753173828125,42.46712875366211,13.390220642089844
1686428470729516300,11.238516357421876,-2.5438156127929688,42.382728576660156,13.343170166015625
1686428470739462400,11.24846240234375,-2.1317672729492188,42.34100341796875,13.029037475585938
1686428470749407200,11.2584072265625,-2.040985107421875,42.62853240966797,12.760871887207031
1686428470759353300,11.268353271484376,-2.0746688842773438,42.87162780761719,12.374267578125
1686428470769299200,11.27829931640625,-1.2383804321289062,42.924591064453125,12.048133850097656
1686428470779245300,11.288245361328125,-0.893585205078125,42.86110305786133,11.621498107910156
1686428470789190400,11.2981904296875,-0.5954818725585938,42.87599182128906,11.234298706054688
1686428470799136500,11.308136474609375,-0.17508697509765625,43.007606506347656,11.137886047363281
1686428470809082400,11.318082275390625,-0.02970123291015625,43.368133544921875,10.899345397949219
1686428470819028500,11.328028564453126,0.01006317138671875,43.400150299072266,10.665016174316406
1686428470828974300,11.337974365234375,0.3820953369140625,43.27650451660156,10.318115234375
1686428470838919400,11.34791943359375,0.399444580078125,43.60102462768555,9.958267211914062
1686428470848865300,11.357865234375,0.37981414794921875,43.475921630859375,9.917091369628906
1686428470858811400,11.367811279296875,0.7877960205078125,43.622161865234375,9.327384948730469
1686428470868757200,11.37775732421875,0.8993911743164062,43.65242004394531,9.235443115234375
1686428470878703400,11.387703369140626,0.91619873046875,43.66838073730469,8.979110717773438
1686428470888648200,11.397648193359375,1.8056106567382812,43.62009811401367,9.010154724121094
1686428470898594300,11.40759423828125,1.9450149536132812,43.618289947509766,8.6884765625
1686428470908540200,11.4175400390625,2.4478073120117188,43.53412628173828,8.669059753417969
1686428470918486300,11.427486328125,2.5034866333007812,43.38667678833008,8.485633850097656
1686428470928431400,11.437431396484374,2.312713623046875,43.4300422668457,8.17193603515625
1686428470938377500,11.44737744140625,2.1825180053710938,43.464393615722656,7.875404357910156
1686428470948323300,11.4573232421875,2.4194869995117188,43.36746597290039,7.946846008300781
1686428470958269400,11.46726953125,2.2536773681640625,43.57306671142578,7.8115386962890625
1686428470968215300,11.47721533203125,2.9794692993164062,43.43661117553711,7.547645568847656
1686428470978160400,11.487160400390625,2.9794692993164062,43.43661117553711,7.547645568847656
1686428470988106200,11.497106201171874,3.3617019653320312,43.678916931152344,7.438423156738281
1686428470998052400,11.50705224609375,3.220703125,43.421607971191406,7.283966064453125
1686428471007998200,11.516998291015625,3.6867141723632812,43.55889129638672,7.41064453125
1686428471017944300,11.5269443359375,3.628753662109375,43.59468078613281,7.260627746582031
1686428471027889200,11.53688916015625,3.80474853515625,43.51719665527344,7.1018524169921875
1686428471037835300,11.546835205078125,3.9552001953125,43.29594039916992,6.947181701660156
1686428471047781000,11.556781005859374,4.352630615234375,43.42864990234375,6.946197509765625
1686428471057727200,11.566727294921876,4.322166442871094,43.195594787597656,6.678558349609375
1686428471067673300,11.57667333984375,4.419921875,43.403690338134766,6.625648498535156
1686428471077618400,11.586618408203124,4.425682067871094,43.264259338378906,6.553802490234375
1686428471087564300,11.596564208984375,4.5957183837890625,43.381263732910156,6.5261993408203125
1686428471097510400,11.606510498046875,4.810630798339844,43.34205627441406,6.341697692871094
1686428471107456500,11.61645654296875,4.9067535400390625,43.541927337646484,5.908149719238281
1686428471117401300,11.6264013671875,5.167320251464844,43.55366516113281,5.82550048828125
1686428471127347200,11.63634716796875,5.3422088623046875,43.636505126953125,5.734855651855469
1686428471137293300,11.646293212890624,5.326087951660156,43.72829818725586,5.600128173828125
1686428471147239200,11.6562392578125,5.1016082763671875,43.678131103515625,5.537742614746094
1686428471157185300,11.666185302734375,5.660980224609375,43.76554870605469,5.519645690917969
1686428471167130000,11.676130126953124,5.573020935058594,43.78303527832031,5.236274719238281
1686428471177076500,11.686076416015625,5.988731384277344,43.71376037597656,5.246604919433594
1686428471187022600,11.696022705078125,6.108222961425781,43.91758346557617,5.008277893066406
1686428471196968400,11.705968505859374,6.112724304199219,43.97974395751953,4.9696044921875
1686428471206914600,11.71591455078125,6.19683837890625,43.749717712402344,4.95184326171875
1686428471216859600,11.725859619140625,6.1948394775390625,43.945106506347656,4.920379638671875
1686428471226805800,11.7358056640625,6.497932434082031,43.95052719116211,4.7163848876953125
1686428471236751600,11.745751708984375,6.760841369628906,44.08314895629883,4.636787414550781
1686428471246697700,11.75569775390625,6.788017272949219,44.09046173095703,4.460044860839844
1686428471256643600,11.7656435546875,6.924003601074219,44.259544372558594,4.2491455078125
1686428471266588700,11.775588623046875,7.011016845703125,44.2633171081543,4.031517028808594
1686428471276534500,11.785534423828125,7.188568115234375,44.27997589111328,3.7331314086914062
1686428471286480600,11.795480712890624,7.444221496582031,44.341068267822266,3.5859222412109375
1686428471296426500,11.805426513671875,7.452117919921875,44.468345642089844,3.2961807250976562
1686428471306372600,11.81537255859375,7.656227111816406,44.38121032714844,3.0958251953125
1686428471316317400,11.8253173828125,7.544837951660156,44.32262420654297,2.656829833984375
1686428471326263600,11.835263671875,8.208724975585938,44.312870025634766,2.3192825317382812
1686428471336209400,11.84520947265625,8.846969604492188,44.201698303222656,2.0439987182617188
1686428471346155500,11.855155517578124,8.801231384277344,44.20289611816406,2.0083847045898438
1686428471356100600,11.8651005859375,9.633026123046875,44.313289642333984,1.8765029907226562
1686428471366046700,11.875046630859375,9.776023864746094,43.895469665527344,1.3598251342773438
1686428471375992600,11.88499267578125,10.415596008300781,43.91292953491211,1.0489959716796875
1686428471385938700,11.894938720703125,10.806449890136719,43.63676834106445,0.8053817749023438
1686428471395884500,11.904884521484375,11.110893249511719,43.57664108276367,0.444091796875
1686428471405829600,11.91482958984375,11.400032043457031,43.249141693115234,0.3405303955078125
1686428471415775500,11.924775390625,11.41067886352539,43.388301849365234,0.2069549560546875
1686428471425721600,11.9347216796875,11.412662506103516,43.33319854736328,0.3030242919921875
1686428471435667500,11.94466748046875,11.680362701416016,43.49871063232422,0.056976318359375
1686428471445613600,11.954613525390625,12.091487884521484,43.45408248901367,0.21375274658203125
1686428471455558700,11.96455859375,12.21823501586914,43.39137268066406,0.5518722534179688
1686428471465504800,11.9745048828125,11.826950073242188,43.289886474609375,0.8554840087890625
1686428471475450600,11.98445068359375,11.6177978515625,43.28324890136719,0.7827072143554688
1686428471485396700,11.994396728515625,11.43265151977539,43.20481872558594,1.09552001953125
1686428471495342600,12.004342529296874,10.902721405029297,43.429447174072266,1.5949249267578125
1686428471505287700,12.01428759765625,10.560474395751953,43.70890426635742,1.936920166015625
1686428471515233500,12.024233642578125,10.164703369140625,43.908287048339844,2.4391098022460938
1686428471525179600,12.0341796875,8.952178955078125,43.90311813354492,2.6424789428710938
1686428471535125500,12.04412548828125,8.629997253417969,44.293304443359375,2.9637222290039062
1686428471545071600,12.054071533203125,7.847740173339844,44.45610427856445,3.171905517578125
1686428471555016400,12.064016357421876,6.835655212402344,44.39962387084961,3.36700439453125
1686428471564962600,12.073962646484375,5.893882751464844,44.53491973876953,3.7510604858398438
1686428471574908400,12.083908447265625,4.757774353027344,44.71432876586914,4.0718231201171875
1686428471584854500,12.0938544921875,4.217796325683594,44.79457092285156,4.544776916503906
1686428471594800400,12.10380029296875,3.8333282470703125,44.753353118896484,4.8611602783203125
1686428471604745700,12.113745849609375,3.1704788208007812,44.923667907714844,5.138557434082031
1686428471614691600,12.123691650390626,2.6644973754882812,44.86708450317383,5.782356262207031
1686428471624637700,12.1336376953125,2.2689590454101562,45.08900451660156,6.373100280761719
1686428471634583600,12.14358349609375,1.9150009155273438,44.87730026245117,6.527427673339844
1686428471644529700,12.15352978515625,2.1476669311523438,44.7547492980957,6.9424285888671875
1686428471654474500,12.163474609375,1.6497268676757812,44.81895446777344,7.118415832519531
1686428471664420600,12.173420654296875,1.1678695678710938,44.92167282104492,7.65887451171875
1686428471674366500,12.183366455078126,0.81024169921875,44.726783752441406,7.990470886230469
1686428471684312600,12.1933125,0.39182281494140625,44.856483459472656,8.170822143554688
1686428471694258700,12.2032587890625,0.2246246337890625,44.66212844848633,8.44049072265625
1686428471704203500,12.21320361328125,-0.05291748046875,44.53202819824219,8.775566101074219
1686428471714149400,12.2231494140625,-0.43344879150390625,44.52463912963867,8.913825988769531
1686428471724095500,12.233095458984375,-1.0102310180664062,44.56740951538086,9.203407287597656
1686428471734041600,12.24304150390625,-0.9255599975585938,44.68098449707031,9.539482116699219
1686428471743987500,12.252987548828125,-1.682861328125,44.63134765625,10.282051086425781
1686428471753932500,12.2629326171875,-1.682861328125,44.63134765625,10.282051086425781
1686428471763878700,12.272878662109376,-1.7622222900390625,44.57942199707031,10.669662475585938
1686428471773824800,12.28282470703125,-2.3231735229492188,44.40104293823242,11.165390014648438
1686428471783770600,12.2927705078125,-2.51324462890625,44.308326721191406,11.549896240234375
1686428471793716700,12.302716796875,-2.8465423583984375,44.43624496459961,11.913520812988281
1686428471803661600,12.31266162109375,-3.0422897338867188,44.22401809692383,12.200668334960938
1686428471813607700,12.322607666015625,-2.7968521118164062,44.30963897705078,12.307548522949219
1686428471823553500,12.332553466796876,-2.5511245727539062,44.24492263793945,12.407722473144531
1686428471833499600,12.342499755859375,-2.49639892578125,44.53321075439453,12.459503173828125
1686428471843445500,12.352445556640625,-2.2416229248046875,44.457035064697266,12.618621826171875
1686428471853390600,12.362390625,-2.2784194946289062,44.59103775024414,12.546150207519531
1686428471863336400,12.37233642578125,-2.1515045166015625,44.62047576904297,12.606048583984375
1686428471873282600,12.382282470703124,-2.1808700561523438,44.587154388427734,12.598930358886719
1686428471883228400,12.392228515625,-1.7880096435546875,44.669822692871094,12.769844055175781
1686428471893174500,12.402174560546875,-1.5711517333984375,44.6080207824707,12.5850830078125
1686428471903119600,12.41211962890625,-1.3166427612304688,44.727699279785156,12.397964477539062
1686428471913065700,12.422065673828126,-1.2266464233398438,44.81278610229492,12.101089477539062
1686428471923011600,12.432011474609375,-1.0973281860351562,44.99785614013672,11.876609802246094
1686428471932957700,12.441957763671875,-1.2568130493164062,44.99458694458008,11.945976257324219
1686428471942903600,12.451903564453126,-1.2791519165039062,45.11231231689453,11.714653015136719
1686428471952848600,12.4618486328125,-1.3577728271484375,45.31745147705078,11.814559936523438
1686428471962794500,12.47179443359375,-1.408660888671875,45.36786651611328,11.552169799804688
1686428471972740600,12.48174072265625,-1.1182174682617188,45.27117919921875,11.358833312988281
1686428471982686500,12.4916865234375,-0.959808349609375,45.18614196777344,11.376632690429688
1686428471992631600,12.501631591796874,-0.4943695068359375,45.10345458984375,11.38922119140625
1686428472002577700,12.51157763671875,0.106170654296875,45.06471252441406,11.174919128417969
1686428472012523800,12.521523681640625,0.7931365966796875,44.988059997558594,10.76165771484375
1686428472022469600,12.5314697265625,1.2953720092773438,44.995826721191406,10.557899475097656
1686428472032415700,12.541415771484376,1.5369949340820312,44.92273712158203,10.195114135742188
1686428472042361600,12.551361572265625,2.10986328125,44.997962951660156,9.777633666992188
1686428472052306700,12.561306640625,1.996795654296875,44.81459045410156,9.327468872070312
1686428472062252500,12.57125244140625,2.3302230834960938,44.74320983886719,8.985298156738281
1686428472072198700,12.58119873046875,2.67901611328125,44.70931625366211,8.310806274414062
1686428472082144500,12.59114453125,2.7462921142578125,44.55707550048828,7.840019226074219
1686428472092089600,12.601089599609375,3.02105712890625,44.507816314697266,7.590690612792969
1686428472102035500,12.611035400390625,3.0789260864257812,44.54710006713867,7.4290924072265625
1686428472111981600,12.620981689453124,3.4772872924804688,44.53640365600586,7.377784729003906
1686428472121927400,12.630927490234376,3.4536590576171875,44.595497131347656,6.935150146484375
1686428472131873500,12.64087353515625,3.6404342651367188,44.375099182128906,6.4541168212890625
1686428472141819400,12.6508193359375,3.6303176879882812,44.19578552246094,6.146308898925781
1686428472151764700,12.6607646484375,4.016357421875,44.37547302246094,5.965904235839844
1686428472161710600,12.670710693359375,4.164573669433594,44.14527893066406,5.86920166015625
1686428472171656700,12.68065673828125,4.634971618652344,43.999210357666016,5.687065124511719
1686428472181603000,12.69060302734375,4.8975067138671875,43.95318603515625,5.419486999511719
1686428472191548000,12.7005478515625,5.122520446777344,43.720924377441406,5.282493591308594
1686428472201494000,12.710493896484374,5.6337738037109375,43.727230072021484,5.062278747558594
1686428472211439900,12.72043994140625,5.5688323974609375,43.492637634277344,4.582000732421875
1686428472221386000,12.730385986328125,5.915557861328125,43.63056564331055,4.443367004394531
1686428472231332000,12.74033203125,6.3710174560546875,43.57342529296875,4.268302917480469
1686428472241277000,12.75027685546875,6.263710021972656,43.6805534362793,4.3841705322265625
1686428472251222800,12.760222900390625,6.363494873046875,43.61359786987305,4.1024627685546875
1686428472261169000,12.7701689453125,6.327995300292969,43.659034729003906,3.734954833984375
1686428472271115000,12.780114990234376,5.963539123535156,43.58026123046875,3.59332275390625
1686428472281060900,12.790060791015625,6.147315979003906,43.62176513671875,3.4439468383789062
1686428472291006000,12.800005859375,6.445526123046875,43.51656723022461,3.4698028564453125
1686428472300952000,12.8099521484375,6.923927307128906,43.3188591003418,3.1492462158203125
1686428472310898200,12.819898193359375,7.209449768066406,43.27524185180664,3.0257110595703125
1686428472320844000,12.829843994140624,7.173866271972656,43.231300354003906,2.7192459106445312
1686428472330790100,12.8397900390625,7.169960021972656,43.12128448486328,2.5943374633789062
1686428472340735000,12.84973486328125,7.438011169433594,43.031593322753906,2.4886856079101562
1686428472350681000,12.85968115234375,7.643638610839844,43.109439849853516,2.288330078125
1686428472360627000,12.869626953125,7.404899597167969,43.324851989746094,2.1661605834960938
1686428472370573000,12.879572998046875,7.4474029541015625,43.34958267211914,2.1926727294921875
1686428472380519000,12.889518798828124,7.6253662109375,43.36106491088867,2.18316650390625
1686428472390464000,12.899464111328125,7.4355926513671875,43.241024017333984,1.987701416015625
