time,seconds_elapsed,z,y,x
1686428459596742000,0.105741943359375,-124.45790100097656,-96.989990234375,80.936767578125
1686428459606817000,0.115817138671875,-124.10061645507812,-97.03489685058594,82.38128662109375
1686428459616889000,0.12588916015625,-124.68836975097656,-96.96469116210938,83.97964477539062
1686428459626963000,0.135962890625,-124.80511474609375,-96.17758178710938,84.53762817382812
1686428459637037000,0.146037109375,-124.61830139160156,-96.41117858886719,85.65742492675781
1686428459647111000,0.15611083984375,-125.30902099609375,-95.661865234375,86.64631652832031
1686428459657186000,0.16618603515625,-125.92436218261719,-95.23236083984375,87.42759704589844
1686428459667260000,0.176260009765625,-126.78285217285156,-94.60585021972656,88.25100708007812
1686428459677335000,0.1863349609375,-127.12158203125,-93.84190368652344,89.5091552734375
1686428459687407000,0.196406982421875,-126.96307373046875,-92.510009765625,91.07832336425781
1686428459697482000,0.20648193359375,-127.88710021972656,-91.48136901855469,91.976806640625
1686428459707558000,0.216557861328125,-128.6497039794922,-90.58029174804688,93.50495910644531
1686428459717634000,0.226634033203125,-128.9940185546875,-89.16165161132812,94.40443420410156
1686428459727709000,0.236708984375,-129.93057250976562,-88.02279663085938,95.49099731445312
1686428459737783800,0.24678369140625,-130.83990478515625,-86.69488525390625,96.31349182128906
1686428459747858000,0.25685791015625,-131.36134338378906,-85.07106018066406,97.02433776855469
1686428459757932000,0.26693212890625,-132.19549560546875,-83.36032104492188,98.20018005371094
1686428459768003800,0.27700390625,-132.24053955078125,-82.09637451171875,100.22412109375
1686428459778077000,0.287076904296875,-132.62635803222656,-80.24264526367188,102.16676330566406
1686428459788152000,0.297152099609375,-132.5320281982422,-78.4134521484375,103.50770568847656
1686428459798226000,0.307225830078125,-132.4492950439453,-76.69319152832031,105.97378540039062
1686428459808298000,0.317298095703125,-132.65602111816406,-75.08474731445312,107.70112609863281
1686428459818372900,0.327372802734375,-132.3848419189453,-73.01254272460938,109.87614440917969
1686428459828448000,0.337447998046875,-131.9010772705078,-71.7613525390625,112.21722412109375
1686428459838523000,0.34752294921875,-131.2264862060547,-70.31451416015625,114.45916748046875
1686428459848599000,0.35759912109375,-129.66546630859375,-68.91667175292969,116.85713195800781
1686428459858674200,0.367674072265625,-127.70567321777344,-67.84672546386719,120.19935607910156
1686428459868748800,0.377748779296875,-125.375732421875,-67.12484741210938,123.71615600585938
1686428459878823200,0.3878232421875,-122.94525146484375,-66.08647155761719,127.13104248046875
1686428459888898800,0.39789892578125,-119.90077209472656,-65.33943176269531,130.2178955078125
1686428459898974000,0.407973876953125,-115.86891174316406,-64.83462524414062,133.9839324951172
1686428459909049000,0.418049072265625,-112.15325927734375,-64.53663635253906,136.45474243164062
1686428459919124000,0.4281240234375,-108.43870544433594,-63.382080078125,139.3084259033203
1686428459929198000,0.438197998046875,-104.59765625,-62.53181457519531,141.6729278564453
1686428459939272000,0.44827197265625,-100.48170471191406,-61.2208251953125,143.0428009033203
1686428459949346000,0.458345947265625,-97.58895874023438,-58.72605895996094,144.91636657714844
1686428459959421000,0.4684208984375,-94.58152770996094,-56.23681640625,145.8381805419922
1686428459969493800,0.47849365234375,-92.18338012695312,-53.717437744140625,146.817626953125
1686428459979569000,0.48856884765625,-90.11015319824219,-51.11009216308594,146.86758422851562
1686428459989645000,0.49864501953125,-88.01100158691406,-48.2659912109375,147.0658416748047
1686428459999719000,0.508718994140625,-86.74540710449219,-45.77626037597656,146.98207092285156
1686428460009794000,0.5187939453125,-86.35488891601562,-43.49842834472656,147.14913940429688
1686428460019868000,0.528867919921875,-85.92292785644531,-41.03631591796875,146.021484375
1686428460029942000,0.53894189453125,-85.31805419921875,-38.739410400390625,145.84580993652344
1686428460040017000,0.549016845703125,-85.06254577636719,-35.62327575683594,144.67250061035156
1686428460050091000,0.559091064453125,-84.98396301269531,-33.054840087890625,144.0197296142578
1686428460060164900,0.569164794921875,-85.40011596679688,-30.320297241210938,143.12364196777344
1686428460070239000,0.579239013671875,-85.27967834472656,-27.994949340820312,142.111083984375
1686428460080315000,0.58931494140625,-85.12971496582031,-25.49053955078125,140.6905059814453
1686428460090390000,0.59939013671875,-85.60397338867188,-23.442184448242188,139.63067626953125
1686428460100463900,0.6094638671875,-86.27288818359375,-21.391708374023438,138.3323211669922
1686428460110539000,0.6195390625,-86.88790893554688,-19.485733032226562,137.24168395996094
1686428460120612900,0.62961279296875,-88.15794372558594,-17.963363647460938,135.9188232421875
1686428460130688000,0.63968798828125,-89.10400390625,-16.320999145507812,134.81236267089844
1686428460140761900,0.649761962890625,-90.14051818847656,-15.063156127929688,132.53379821777344
1686428460150836000,0.6598359375,-92.31684875488281,-13.785552978515625,131.4788360595703
1686428460160910800,0.669910888671875,-93.75192260742188,-12.542221069335938,130.37286376953125
1686428460170986200,0.679986328125,-95.33334350585938,-12.037185668945312,128.40216064453125
1686428460181060000,0.69006005859375,-97.4072265625,-11.307174682617188,127.19210815429688
1686428460191134200,0.70013427734375,-97.9215087890625,-10.83905029296875,126.01300048828125
1686428460201209000,0.710208984375,-99.82437133789062,-10.057098388671875,124.50283813476562
1686428460211283200,0.720283203125,-101.04769897460938,-9.603683471679688,122.68212890625
1686428460221357000,0.730357177734375,-102.50727844238281,-8.912063598632812,120.92509460449219
1686428460231431000,0.740430908203125,-104.13667297363281,-8.610488891601562,119.24395751953125
1686428460241504300,0.750504150390625,-106.095703125,-8.547927856445312,117.22441101074219
1686428460251577000,0.7605771484375,-107.27313232421875,-7.9749603271484375,115.60523986816406
1686428460261650200,0.770650146484375,-108.41920471191406,-7.1984710693359375,113.08587646484375
1686428460271723000,0.780722900390625,-109.06379699707031,-6.1006622314453125,110.49716186523438
1686428460281797000,0.790797119140625,-108.45561218261719,-5.026611328125,108.11500549316406
1686428460291871000,0.80087109375,-108.7166748046875,-3.872589111328125,106.4697265625
1686428460301943000,0.810943115234375,-108.6737060546875,-2.623779296875,104.31552124023438
1686428460312017200,0.82101708984375,-108.07870483398438,-2.0439910888671875,102.44810485839844
1686428460322090200,0.83109033203125,-108.00334167480469,-1.4327392578125,101.20660400390625
1686428460332163000,0.8411630859375,-107.15425109863281,-0.97802734375,99.67489624023438
1686428460342237200,0.8512373046875,-107.17271423339844,-0.667449951171875,98.10792541503906
1686428460352312000,0.86131201171875,-107.18598937988281,-0.0474395751953125,96.33985900878906
1686428460362387200,0.87138720703125,-107.27461242675781,0.6067657470703125,94.92019653320312
1686428460372460000,0.8814599609375,-106.70816040039062,1.13372802734375,93.10708618164062
1686428460382533000,0.891533203125,-106.95977783203125,1.2069091796875,92.275634765625
1686428460392608300,0.901608154296875,-106.98129272460938,1.5528564453125,91.69168090820312
1686428460402684200,0.91168408203125,-108.43862915039062,0.260009765625,91.10121154785156
1686428460412760000,0.921760009765625,-108.89706420898438,0.1359100341796875,91.1993408203125
1686428460422835200,0.931835205078125,-109.35835266113281,0.1470489501953125,90.663818359375
1686428460432912100,0.941912109375,-108.16661071777344,0.4893646240234375,89.62007141113281
1686428460442987300,0.9519873046875,-107.18710327148438,1.0825042724609375,89.30557250976562
1686428460453063000,0.96206298828125,-106.08407592773438,1.7503662109375,88.85232543945312
1686428460463137000,0.972136962890625,-105.46604919433594,2.0986480712890625,88.65701293945312
1686428460473212000,0.9822119140625,-105.00677490234375,2.4600982666015625,88.75076293945312
1686428460483287000,0.992287109375,-104.51132202148438,3.141204833984375,88.90663146972656
1686428460493363200,1.00236328125,-102.97442626953125,3.43560791015625,88.91470336914062
1686428460503437000,1.01243701171875,-102.7808837890625,3.331085205078125,88.7938232421875
1686428460513512200,1.02251220703125,-101.67984008789062,3.8944244384765625,88.76042175292969
1686428460523587300,1.03258740234375,-101.35513305664062,4.1599273681640625,89.06346130371094
1686428460533661200,1.0426611328125,-100.40231323242188,4.0391845703125,89.03048706054688
1686428460543737000,1.052737060546875,-100.19981384277344,4.2123565673828125,90.0478515625
1686428460553812000,1.06281201171875,-99.74980163574219,4.2886199951171875,90.67613220214844
1686428460563887000,1.07288720703125,-99.45442199707031,4.5408935546875,91.30702209472656
1686428460573963300,1.08296337890625,-99.05255126953125,4.0481414794921875,91.54182434082031
1686428460584038100,1.0930380859375,-99.04234313964844,4.5465240478515625,91.75160217285156
1686428460594114000,1.103114013671875,-98.29627990722656,4.41375732421875,91.98030090332031
1686428460604188200,1.113188232421875,-98.04557800292969,4.4286956787109375,92.00828552246094
1686428460614262000,1.123261962890625,-97.91773986816406,4.7696380615234375,92.13766479492188
1686428460624335000,1.133335205078125,-97.38525390625,5.13726806640625,92.521484375
1686428460634410200,1.14341015625,-97.92398071289062,4.844207763671875,93.12753295898438
1686428460644484000,1.153484130859375,-97.5406494140625,5.1284332275390625,94.23204040527344
1686428460654558200,1.16355810546875,-97.35591125488281,4.8291168212890625,94.87554931640625
1686428460664630300,1.17363037109375,-97.35263061523438,4.8704071044921875,95.82771301269531
1686428460674705200,1.183705078125,-96.60539245605469,5.0203399658203125,96.59840393066406
1686428460684777000,1.19377685546875,-96.37010192871094,5.073150634765625,97.07090759277344
1686428460694853000,1.20385302734375,-95.55899047851562,4.78326416015625,98.32162475585938
1686428460704926000,1.213926025390625,-93.91705322265625,4.8810272216796875,99.28158569335938
1686428460715001000,1.2240009765625,-93.57852172851562,4.5865020751953125,100.08470153808594
1686428460725076200,1.234076171875,-92.79078674316406,4.729095458984375,101.25138854980469
1686428460735151000,1.244151123046875,-92.46510314941406,4.651336669921875,101.67416381835938
1686428460745225200,1.25422509765625,-91.03633117675781,5.026824951171875,102.04763793945312
1686428460755301000,1.264301025390625,-90.58909606933594,4.9935302734375,101.98954772949219
1686428460765377000,1.274376953125,-89.94447326660156,5.3811492919921875,102.92410278320312
1686428460775453200,1.284453125,-89.64244079589844,5.00146484375,103.18850708007812
1686428460785529000,1.294529052734375,-89.58097839355469,5.1795654296875,104.00161743164062
1686428460795605200,1.304605224609375,-90.48684692382812,4.85418701171875,104.55931091308594
1686428460805679000,1.31467919921875,-90.87974548339844,4.246246337890625,105.72727966308594
1686428460815754200,1.324754150390625,-91.7659912109375,3.8371734619140625,106.56831359863281
1686428460825830100,1.334830078125,-92.03378295898438,3.180694580078125,107.00521850585938
1686428460835905000,1.344905029296875,-93.022216796875,3.168609619140625,107.95123291015625
1686428460845977000,1.35497705078125,-93.37736511230469,2.65478515625,107.25346374511719
1686428460856052200,1.36505224609375,-93.66990661621094,2.791961669921875,107.39739990234375
1686428460866126000,1.3751259765625,-93.7415771484375,3.391571044921875,105.83619689941406
1686428460876202000,1.385201904296875,-94.13059997558594,3.5844573974609375,105.33377075195312
1686428460886277000,1.395277099609375,-93.99642944335938,4.007293701171875,104.04025268554688
1686428460896354300,1.405354248046875,-94.20942687988281,4.152984619140625,102.86102294921875
1686428460906430000,1.415429931640625,-93.92356872558594,4.3427581787109375,101.84751892089844
1686428460916505000,1.425505126953125,-94.87156677246094,4.6551513671875,100.41395568847656
1686428460926580200,1.435580322265625,-94.78903198242188,5.029052734375,99.90907287597656
1686428460936655000,1.445655029296875,-95.1500244140625,5.1826171875,99.10916137695312
1686428460946732000,1.45573193359375,-96.49369812011719,5.0441436767578125,97.96345520019531
1686428460956807200,1.46580712890625,-96.97940063476562,5.0405731201171875,96.92898559570312
1686428460966882300,1.47588232421875,-96.27952575683594,5.12115478515625,95.07217407226562
1686428460976958000,1.4859580078125,-96.80279541015625,5.9065704345703125,94.30412292480469
1686428460987034000,1.4960341796875,-96.35043334960938,5.7040863037109375,93.13349914550781
1686428460997109200,1.506109130859375,-96.43873596191406,6.1213531494140625,92.25297546386719
1686428461007185200,1.51618505859375,-96.36996459960938,5.781097412109375,91.92448425292969
1686428461017262300,1.526262451171875,-97.05436706542969,6.0971527099609375,91.72698974609375
1686428461027338000,1.536337890625,-97.03042602539062,5.517852783203125,91.41908264160156
1686428461037415000,1.546414794921875,-96.69783020019531,5.786590576171875,91.40011596679688
1686428461047491000,1.556490966796875,-97.09196472167969,5.4148406982421875,91.22239685058594
1686428461057568000,1.566568115234375,-96.85752868652344,5.5534820556640625,91.19117736816406
1686428461067645200,1.576645263671875,-97.24337768554688,5.306640625,91.44427490234375
1686428461077720000,1.586719970703125,-97.02778625488281,5.761810302734375,92.22999572753906
1686428461087796200,1.596796142578125,-97.34375,5.364837646484375,92.46131896972656
1686428461097871000,1.60687109375,-97.31672668457031,5.5488739013671875,92.47993469238281
1686428461107947000,1.616947021484375,-97.01136779785156,5.4159698486328125,92.71052551269531
1686428461118020000,1.62702001953125,-96.70022583007812,5.6476593017578125,92.67472839355469
1686428461128095200,1.63709521484375,-96.29518127441406,5.52392578125,92.66322326660156
1686428461138171100,1.647171142578125,-96.32583618164062,5.4413299560546875,92.7327880859375
1686428461148247000,1.6572470703125,-95.90910339355469,5.5928802490234375,93.09226989746094
1686428461158323000,1.667322998046875,-95.85115051269531,6.213226318359375,92.56513977050781
1686428461168398000,1.677398193359375,-94.9588623046875,6.32049560546875,92.45989990234375
1686428461178474200,1.68747412109375,-93.72038269042969,6.487091064453125,92.5035400390625
1686428461188549000,1.697549072265625,-93.15644836425781,6.317779541015625,92.41944885253906
1686428461198626000,1.7076259765625,-91.86660766601562,6.8917999267578125,92.33815002441406
1686428461208700200,1.7177001953125,-91.23796081542969,7.3287506103515625,92.49708557128906
1686428461218776300,1.7277763671875,-89.667236328125,7.8349456787109375,92.2711181640625
1686428461228852000,1.73785205078125,-88.6090087890625,7.90167236328125,92.52775573730469
1686428461238927000,1.747927001953125,-86.88005065917969,8.055206298828125,92.76123046875
1686428461249002200,1.758002197265625,-86.16184997558594,8.692306518554688,93.38386535644531
1686428461259077000,1.7680771484375,-84.86283874511719,8.751007080078125,93.58999633789062
1686428461269151200,1.778151123046875,-84.90510559082031,8.518661499023438,94.34788513183594
1686428461279226000,1.78822607421875,-83.68357849121094,8.454849243164062,95.02816772460938
1686428461289301200,1.79830126953125,-83.2623291015625,8.075546264648438,95.55055236816406
1686428461299374000,1.8083740234375,-83.17535400390625,8.287628173828125,95.89738464355469
1686428461309448000,1.818447998046875,-83.31111145019531,8.341873168945312,96.49324035644531
1686428461319522000,1.82852197265625,-83.38412475585938,8.049758911132812,96.59754943847656
1686428461329596200,1.83859619140625,-83.89949035644531,8.45245361328125,97.10078430175781
1686428461339670300,1.848670166015625,-84.43760681152344,8.159957885742188,97.315185546875
1686428461349745200,1.8587451171875,-85.31118774414062,8.105697631835938,97.11700439453125
1686428461359819300,1.8688193359375,-85.49943542480469,7.651214599609375,97.13792419433594
1686428461369893000,1.87889306640625,-86.19454956054688,8.169036865234375,96.64817810058594
1686428461379967200,1.88896728515625,-86.54507446289062,7.8450469970703125,96.29977416992188
1686428461390041000,1.899041015625,-86.56477355957031,8.0662841796875,95.48445129394531
1686428461400116200,1.9091162109375,-86.02824401855469,8.641677856445312,94.45927429199219
1686428461410191000,1.919191162109375,-85.25309753417969,8.493270874023438,93.60594177246094
1686428461420267000,1.92926708984375,-84.29487609863281,8.71063232421875,92.30833435058594
1686428461430343200,1.93934326171875,-82.35101318359375,9.464019775390625,91.4168701171875
1686428461440418000,1.94941796875,-82.04788208007812,9.212478637695312,90.16117858886719
1686428461450495000,1.959494873046875,-80.66021728515625,9.87750244140625,89.19175720214844
1686428461460570000,1.969570068359375,-79.93272399902344,9.971649169921875,88.40371704101562
1686428461470645200,1.979645263671875,-80.19873046875,9.921737670898438,88.1524658203125
1686428461480721200,1.98972119140625,-80.04194641113281,10.100997924804688,87.49661254882812
1686428461490795000,1.999794921875,-80.47926330566406,9.89178466796875,87.18440246582031
1686428461500870100,2.0098701171875,-81.52694702148438,9.683822631835938,86.80244445800781
1686428461510943200,2.019943115234375,-83.76042175292969,10.172958374023438,86.5809326171875
1686428461521017000,2.03001708984375,-86.44216918945312,9.847579956054688,85.967041015625
1686428461531092200,2.04009228515625,-87.96009826660156,9.202392578125,85.53318786621094
1686428461541166000,2.050166015625,-90.61129760742188,8.584686279296875,85.47309875488281
1686428461551241200,2.0602412109375,-92.05564880371094,8.5179443359375,85.63442993164062
1686428461561315000,2.070315185546875,-93.19493103027344,8.04852294921875,86.23321533203125
1686428461571390200,2.08039013671875,-95.63441467285156,7.8614501953125,86.84274291992188
1686428461581465000,2.090465087890625,-96.39178466796875,7.0322265625,87.91812133789062
1686428461591539200,2.100539306640625,-97.87434387207031,6.6409912109375,89.00875854492188
1686428461601611300,2.110611328125,-98.33651733398438,6.4391326904296875,89.80610656738281
1686428461611684000,2.12068408203125,-98.10743713378906,6.33013916015625,90.21612548828125
1686428461621758200,2.13075830078125,-98.8214111328125,6.3516998291015625,90.54782104492188
1686428461631831300,2.140831298828125,-98.43632507324219,6.4698028564453125,91.01298522949219
1686428461641905200,2.1509052734375,-98.40768432617188,6.1602020263671875,91.47244262695312
1686428461651976200,2.16097607421875,-98.66293334960938,6.2427978515625,91.61347961425781
1686428461662051300,2.17105126953125,-98.54615783691406,6.256866455078125,92.35392761230469
1686428461672126000,2.1811259765625,-98.04365539550781,6.17315673828125,92.40399169921875
1686428461682202000,2.1912021484375,-98.25364685058594,6.254302978515625,93.19863891601562
1686428461692278300,2.2012783203125,-98.02455139160156,6.0255126953125,93.56880187988281
1686428461702353000,2.211352783203125,-98.27351379394531,5.794647216796875,94.24137878417969
1686428461712428000,2.221427978515625,-98.31083679199219,5.8337554931640625,95.04794311523438
1686428461722502100,2.231502197265625,-98.39895629882812,5.7748565673828125,95.8223876953125
1686428461732577000,2.241576904296875,-98.20556640625,5.6923828125,96.01535034179688
1686428461742654200,2.251654296875,-98.66914367675781,5.9823760986328125,96.94772338867188
1686428461752730000,2.261730224609375,-98.83651733398438,5.63812255859375,97.37532043457031
1686428461762806300,2.27180615234375,-99.52609252929688,5.54620361328125,97.72377014160156
1686428461772881200,2.281881103515625,-100.08152770996094,5.07305908203125,97.36051940917969
1686428461782958000,2.2919580078125,-100.10009765625,5.0426788330078125,97.77078247070312
1686428461793035000,2.302034912109375,-100.19197082519531,5.0121612548828125,98.35700988769531
1686428461803111200,2.312111083984375,-100.08970642089844,5.236480712890625,97.84376525878906
1686428461813187000,2.32218701171875,-99.02571105957031,5.268341064453125,98.14299011230469
1686428461823263200,2.33226318359375,-99.15165710449219,5.348876953125,97.997314453125
1686428461833339100,2.342339111328125,-98.91693115234375,5.2542724609375,98.53475952148438
1686428461843414000,2.3524140625,-98.45603942871094,5.3171844482421875,98.53021240234375
1686428461853488000,2.362488037109375,-99.51339721679688,5.064422607421875,98.89773559570312
1686428461863562000,2.37256201171875,-99.84385681152344,5.0645294189453125,98.72657775878906
1686428461873635000,2.382635009765625,-99.67303466796875,4.98919677734375,99.16961669921875
1686428461883710200,2.392710205078125,-100.19163513183594,5.3214569091796875,98.95120239257812
1686428461893787100,2.402787109375,-99.69160461425781,5.0232696533203125,98.78335571289062
1686428461903863300,2.41286328125,-99.31378173828125,5.4494171142578125,98.87434387207031
1686428461913939200,2.422939208984375,-99.33113098144531,5.66119384765625,98.64486694335938
1686428461924015000,2.43301513671875,-98.90043640136719,5.95037841796875,98.50172424316406
1686428461934091000,2.443091064453125,-98.60307312011719,5.8015289306640625,98.60697937011719
1686428461944167200,2.453167236328125,-98.47578430175781,5.7737274169921875,98.04119873046875
1686428461954241000,2.463240966796875,-98.71406555175781,6.064239501953125,98.19169616699219
1686428461964317200,2.473317138671875,-98.77760314941406,6.173431396484375,97.99693298339844
1686428461974393000,2.48339306640625,-98.58918762207031,5.961761474609375,98.39979553222656
1686428461984468200,2.49346826171875,-99.0726318359375,6.0054168701171875,97.66725158691406
1686428461994544000,2.503544189453125,-99.25660705566406,5.4898681640625,97.97442626953125
1686428462004620000,2.5136201171875,-98.99980163574219,5.9399871826171875,98.2608642578125
1686428462014694100,2.523694091796875,-98.62956237792969,6.0866546630859375,98.0384521484375
1686428462024768000,2.53376806640625,-98.84515380859375,6.2411651611328125,97.75350952148438
1686428462034842000,2.543842041015625,-98.45355224609375,6.4759063720703125,97.34268188476562
1686428462044918000,2.55391796875,-98.54312133789062,6.61883544921875,97.09742736816406
1686428462054993200,2.5639931640625,-98.89424133300781,6.6994781494140625,96.48042297363281
1686428462065068000,2.574068115234375,-98.66650390625,6.830657958984375,96.09555053710938
1686428462075144000,2.58414404296875,-98.89045715332031,6.8199310302734375,95.72113037109375
1686428462085220000,2.59422021484375,-98.62142944335938,7.0911407470703125,95.22195434570312
1686428462095297000,2.604297119140625,-99.01362609863281,7.1694488525390625,94.00929260253906
1686428462105373200,2.614373291015625,-97.90327453613281,7.471588134765625,93.46971130371094
1686428462115448300,2.6244482421875,-97.44160461425781,7.9260711669921875,92.88676452636719
1686428462125524000,2.63452392578125,-95.84721374511719,7.9485931396484375,91.59159851074219
1686428462135600000,2.64460009765625,-95.47821044921875,8.522476196289062,91.29501342773438
1686428462145673000,2.6546728515625,-95.01838684082031,8.912643432617188,90.72703552246094
1686428462155750100,2.664750244140625,-94.14974975585938,9.049102783203125,90.10173034667969
1686428462165824300,2.67482421875,-94.1405029296875,9.164901733398438,89.24296569824219
1686428462175899100,2.684899169921875,-93.81758117675781,9.580902099609375,89.59213256835938
1686428462185974800,2.694974853515625,-93.08819580078125,9.434585571289062,88.87640380859375
1686428462196051000,2.705051025390625,-92.79783630371094,9.722915649414062,88.21871948242188
1686428462206126800,2.715126953125,-92.48072814941406,9.799575805664062,87.79698181152344
1686428462216202000,2.725201904296875,-91.96418762207031,9.860321044921875,87.67416381835938
1686428462226276900,2.73527685546875,-90.86410522460938,9.949691772460938,87.18862915039062
1686428462236351000,2.74535107421875,-90.33210754394531,10.102508544921875,86.98773193359375
1686428462246424800,2.7554248046875,-90.30029296875,10.120574951171875,86.38153076171875
1686428462256498000,2.765497802734375,-89.42059326171875,10.46063232421875,86.31639099121094
1686428462266573000,2.775572998046875,-89.73536682128906,10.200759887695312,85.64128112792969
1686428462276649000,2.78564892578125,-89.55882263183594,10.28759765625,85.18389892578125
1686428462286723800,2.795723876953125,-89.48863220214844,10.420974731445312,84.9149169921875
1686428462296799000,2.805799072265625,-90.16204833984375,9.811248779296875,84.46368408203125
1686428462306874000,2.8158740234375,-90.77894592285156,10.260971069335938,83.62258911132812
1686428462316949000,2.825948974609375,-89.94039916992188,10.115402221679688,83.90097045898438
1686428462327023000,2.836023193359375,-90.53166198730469,9.856704711914062,84.39187622070312
1686428462337098800,2.8460986328125,-90.54109191894531,10.219818115234375,84.63197326660156
1686428462347176000,2.856176025390625,-90.16578674316406,10.289932250976562,84.96806335449219
1686428462357251800,2.866251953125,-89.89666748046875,10.3223876953125,84.70437622070312
1686428462367327000,2.876326904296875,-89.68411254882812,10.107391357421875,84.69606018066406
1686428462377403100,2.886403076171875,-89.45599365234375,10.037704467773438,84.82716369628906
1686428462387479000,2.89647900390625,-88.96772766113281,10.454635620117188,84.99603271484375
1686428462397556000,2.906555908203125,-89.11026000976562,10.504959106445312,84.56719970703125
1686428462407632000,2.9166318359375,-89.38658142089844,10.333877563476562,84.52490234375
1686428462417708000,2.9267080078125,-90.40147399902344,10.361373901367188,84.34822082519531
1686428462427784000,2.936783935546875,-90.11799621582031,10.258743286132812,84.13038635253906
1686428462437860000,2.946860107421875,-90.30340576171875,10.412109375,84.31887817382812
1686428462447934000,2.956933837890625,-90.22482299804688,10.43560791015625,83.80422973632812
1686428462458008000,2.967008056640625,-90.76617431640625,10.47021484375,83.56709289550781
1686428462468081000,2.977080810546875,-90.54010009765625,10.319229125976562,83.32830810546875
1686428462478155000,2.987155029296875,-91.22196960449219,10.349044799804688,83.00547790527344
1686428462488230000,2.99722998046875,-90.73269653320312,10.283950805664062,82.81123352050781
1686428462498304000,3.007303955078125,-90.54643249511719,10.467514038085938,82.428955078125
1686428462508380000,3.0173798828125,-90.05886840820312,10.251983642578125,82.28294372558594
1686428462518455000,3.027455078125,-90.20216369628906,10.500656127929688,82.2142333984375
1686428462528531000,3.037531005859375,-90.00450134277344,10.442535400390625,82.14785766601562
1686428462538606800,3.04760693359375,-89.73554992675781,10.491119384765625,82.03924560546875
1686428462548682000,3.057681884765625,-89.31083679199219,10.566207885742188,81.96681213378906
1686428462558758100,3.067758056640625,-89.37152099609375,10.463592529296875,81.99653625488281
1686428462568835000,3.0778349609375,-88.97514343261719,10.774124145507812,82.10870361328125
1686428462578910000,3.087909912109375,-88.63594055175781,10.7655029296875,81.85296630859375
1686428462588985000,3.097985107421875,-88.78816223144531,10.764129638671875,81.8216552734375
1686428462599061000,3.10806103515625,-88.52700805664062,10.663482666015625,81.54721069335938
1686428462609135900,3.118135986328125,-88.38629150390625,11.029327392578125,81.50810241699219
1686428462619211000,3.1282109375,-87.46952819824219,10.712356567382812,81.77842712402344
1686428462629287000,3.138286865234375,-87.68301391601562,10.909378051757812,81.67654418945312
1686428462639363000,3.148363037109375,-86.95477294921875,10.856277465820312,81.54853820800781
1686428462649438000,3.15843798828125,-86.80874633789062,11.081192016601562,81.89396667480469
1686428462659513900,3.168513916015625,-86.91508483886719,11.08038330078125,82.0169677734375
1686428462669590000,3.178590087890625,-86.74298095703125,11.1544189453125,82.16133117675781
1686428462679666000,3.188666015625,-86.07373046875,10.992568969726562,82.1689453125
1686428462689740800,3.19874072265625,-86.05804443359375,10.9989013671875,82.47137451171875
1686428462699817000,3.20881689453125,-86.38441467285156,10.758865356445312,83.04031372070312
1686428462709892900,3.218892822265625,-86.22679138183594,11.053939819335938,84.08038330078125
1686428462719967000,3.228967041015625,-86.73910522460938,10.72381591796875,84.20564270019531
1686428462730043000,3.23904296875,-86.76548767089844,10.833999633789062,84.26374816894531
1686428462740116700,3.24911669921875,-87.18731689453125,10.610031127929688,85.13908386230469
1686428462750191900,3.25919189453125,-87.81478881835938,10.254318237304688,85.60479736328125
1686428462760266000,3.269265869140625,-88.94190979003906,10.241912841796875,86.06687927246094
1686428462770339800,3.27933984375,-89.96534729003906,9.8287353515625,87.19407653808594
1686428462780415000,3.2894150390625,-91.44743347167969,9.8983154296875,87.6510009765625
1686428462790491000,3.299490966796875,-92.34799194335938,9.128875732421875,88.58242797851562
1686428462800566000,3.30956591796875,-93.58253479003906,8.6129150390625,88.94268798828125
1686428462810640000,3.319639892578125,-95.37648010253906,8.038772583007812,89.92276000976562
1686428462820714000,3.3297138671875,-97.26068115234375,7.2110595703125,90.3858642578125
1686428462830788900,3.339788818359375,-98.46368408203125,7.285919189453125,91.12847900390625
1686428462840862000,3.349862060546875,-99.73110961914062,6.528900146484375,91.91107177734375
1686428462850935800,3.359935791015625,-100.65550231933594,5.6125030517578125,92.72950744628906
1686428462861011000,3.370010986328125,-101.53935241699219,5.3950653076171875,93.79853820800781
1686428462871085800,3.3800859375,-102.205078125,4.783447265625,94.35411071777344
1686428462881161000,3.390160888671875,-102.91741943359375,4.3871002197265625,95.21673583984375
1686428462891234800,3.40023486328125,-103.51368713378906,3.9976348876953125,95.80401611328125
1686428462901311000,3.41031103515625,-103.65016174316406,3.08905029296875,96.74978637695312
1686428462911386000,3.42038623046875,-104.45515441894531,3.020843505859375,97.62983703613281
1686428462921460000,3.4304599609375,-105.393798828125,2.5233001708984375,98.51358032226562
1686428462931534000,3.4405341796875,-105.80085754394531,1.8866424560546875,99.03903198242188
1686428462941609000,3.45060888671875,-106.88606262207031,1.16168212890625,100.28724670410156
1686428462951684000,3.46068408203125,-107.169921875,0.10064697265625,101.13749694824219
1686428462961757000,3.4707568359375,-108.13424682617188,-0.206878662109375,101.80256652832031
1686428462971832000,3.48083203125,-108.68745422363281,-1.08087158203125,102.62995910644531
1686428462981906000,3.490906005859375,-109.51620483398438,-1.83795166015625,103.86282348632812
1686428462991979800,3.500979736328125,-109.39483642578125,-2.640655517578125,104.59938049316406
1686428463002055000,3.511054931640625,-110.43199157714844,-3.0594635009765625,105.48635864257812
1686428463012130000,3.521130126953125,-110.76473999023438,-3.6083221435546875,106.1693115234375
1686428463022204000,3.531203857421875,-111.3173828125,-4.152923583984375,106.86019897460938
1686428463032278000,3.541278076171875,-111.6007080078125,-5.448944091796875,107.26771545410156
1686428463042353000,3.551352783203125,-112.154541015625,-5.396942138671875,107.87054443359375
1686428463052426000,3.561426025390625,-112.79367065429688,-6.597564697265625,108.75740051269531
1686428463062500900,3.5715009765625,-112.34013366699219,-6.85919189453125,109.03825378417969
1686428463072575000,3.581574951171875,-112.41960144042969,-7.21612548828125,109.68916320800781
1686428463082651000,3.59165087890625,-113.12022399902344,-7.460052490234375,110.48805236816406
1686428463092726000,3.60172607421875,-112.4183349609375,-7.4070281982421875,110.60092163085938
1686428463102800000,3.6117998046875,-112.880615234375,-7.5814666748046875,111.03309631347656
1686428463112876000,3.6218759765625,-112.7984619140625,-7.8448028564453125,110.90837097167969
1686428463122952000,3.631951904296875,-112.84750366210938,-7.8256378173828125,111.14468383789062
1686428463133028000,3.642028076171875,-112.66848754882812,-7.6965484619140625,111.27926635742188
1686428463143103000,3.65210302734375,-112.27618408203125,-7.868865966796875,111.31529235839844
1686428463153180000,3.662179931640625,-112.75022888183594,-7.82568359375,111.46725463867188
1686428463163256800,3.6722568359375,-112.43891906738281,-7.530029296875,111.35647583007812
1686428463173333500,3.68233349609375,-112.50051879882812,-7.1940155029296875,111.00791931152344
1686428463183408400,3.692408447265625,-112.20404052734375,-7.4351806640625,110.99807739257812
1686428463193483300,3.702483154296875,-112.12049865722656,-6.963592529296875,111.0936279296875
1686428463203559400,3.712559326171875,-112.18692016601562,-6.70928955078125,110.80931091308594
1686428463213633300,3.72263330078125,-112.08648681640625,-6.611358642578125,110.4312744140625
1686428463223708400,3.73270849609375,-112.12184143066406,-6.1511383056640625,110.23976135253906
1686428463233783300,3.742783203125,-111.88385009765625,-5.9967803955078125,109.91561889648438
1686428463243858400,3.7528583984375,-111.33868408203125,-5.8477935791015625,109.83096313476562
1686428463253933300,3.762933349609375,-111.60932922363281,-5.787567138671875,109.57403564453125
1686428463264010500,3.773010498046875,-111.20521545410156,-5.6221771240234375,109.31390380859375
1686428463274086100,3.783086181640625,-111.55735778808594,-6.109130859375,108.92976379394531
1686428463284163300,3.793163330078125,-111.52523803710938,-5.998046875,108.81057739257812
1686428463294239200,3.8032392578125,-111.386962890625,-6.0291290283203125,109.26564025878906
1686428463304312300,3.813312255859375,-110.61198425292969,-5.978271484375,109.23121643066406
1686428463314387200,3.82338720703125,-109.90425109863281,-5.6279296875,109.11305236816406
1686428463324464400,3.83346435546875,-108.916748046875,-5.3036956787109375,109.39715576171875
1686428463334540300,3.843540283203125,-109.13218688964844,-5.004669189453125,109.03028869628906
1686428463344614100,3.8536142578125,-108.17399597167969,-4.32958984375,108.62142944335938
1686428463354690300,3.863690185546875,-107.14671325683594,-4.1600494384765625,108.00039672851562
1686428463364766500,3.873766357421875,-107.17974853515625,-3.8885955810546875,108.03253173828125
1686428463374842400,3.88384228515625,-106.23091125488281,-3.509246826171875,107.59991455078125
1686428463384919300,3.893919189453125,-105.87969970703125,-3.060821533203125,106.88926696777344
1686428463394996500,3.90399658203125,-105.52897644042969,-3.0601806640625,106.51303100585938
1686428463405072100,3.914072021484375,-105.27610778808594,-2.9783172607421875,106.07887268066406
1686428463415149300,3.9241494140625,-105.68656921386719,-2.45367431640625,105.53874206542969
1686428463425226200,3.934226318359375,-104.82377624511719,-2.6010589599609375,105.10018920898438
1686428463435301400,3.94430126953125,-105.36744689941406,-2.483612060546875,104.63969421386719
1686428463445377300,3.954377197265625,-104.98957824707031,-2.3529052734375,104.46951293945312
1686428463455453400,3.964453369140625,-104.87960815429688,-2.2713470458984375,104.13172912597656
1686428463465528300,3.9745283203125,-104.61112976074219,-2.141571044921875,104.03034973144531
1686428463475603500,3.984603515625,-103.64913940429688,-2.194488525390625,103.90687561035156
1686428463485679400,3.994679443359375,-103.82135009765625,-2.160491943359375,103.09671020507812
1686428463495752400,4.00475244140625,-103.50605773925781,-2.2380828857421875,102.9410400390625
1686428463505827300,4.014827392578125,-102.82577514648438,-1.951385498046875,102.40766906738281
1686428463515904500,4.024904541015625,-102.63258361816406,-1.4740142822265625,102.0341796875
1686428463525980200,4.034980224609375,-102.44898986816406,-1.56195068359375,102.03858947753906
1686428463536055300,4.04505517578125,-102.413330078125,-1.3296051025390625,101.53262329101562
1686428463546130400,4.05513037109375,-101.98196411132812,-1.540191650390625,101.36775207519531
1686428463556204300,4.065204345703125,-101.95193481445312,-1.0950164794921875,101.99827575683594
1686428463566279400,4.075279541015625,-101.25386047363281,-1.1612396240234375,101.33287048339844
1686428463576353300,4.085353271484375,-100.62747192382812,-1.4180145263671875,101.16795349121094
1686428463586429400,4.095429443359375,-100.43324279785156,-1.0916595458984375,101.63739013671875
1686428463596503300,4.10550341796875,-100.05130004882812,-1.1004486083984375,101.71389770507812
1686428463606579200,4.1155791015625,-100.00631713867188,-1.2211456298828125,101.70034790039062
1686428463616653600,4.125653564453125,-99.56814575195312,-1.0019683837890625,101.93669128417969
1686428463626728200,4.135728271484375,-99.42645263671875,-1.0013580322265625,101.88349914550781
1686428463636803300,4.14580322265625,-98.79344177246094,-1.2176055908203125,102.05197143554688
1686428463646878200,4.155878173828125,-98.82801818847656,-1.083251953125,101.96124267578125
1686428463656953300,4.165953369140625,-98.61036682128906,-1.3119049072265625,102.35124206542969
1686428463667028500,4.176028564453125,-98.71818542480469,-1.1817169189453125,102.31454467773438
1686428463677104000,4.186104248046875,-98.21601867675781,-1.0652618408203125,102.43351745605469
1686428463687178500,4.196178466796875,-97.30351257324219,-1.1828460693359375,102.83543395996094
1686428463697253000,4.206253173828125,-97.26309204101562,-1.1489715576171875,103.03875732421875
1686428463707328300,4.216328369140625,-96.49662780761719,-1.345733642578125,103.38871765136719
1686428463717404400,4.226404296875,-96.96458435058594,-1.036163330078125,103.50674438476562
1686428463727480300,4.236480224609375,-96.17514038085938,-1.40655517578125,103.82264709472656
1686428463737555200,4.24655517578125,-95.96014404296875,-1.5596923828125,104.00590515136719
1686428463747630300,4.25663037109375,-96.25517272949219,-1.431121826171875,104.23823547363281
1686428463757707300,4.266707275390625,-95.99868774414062,-1.61773681640625,104.40182495117188
1686428463767782100,4.2767822265625,-95.56141662597656,-1.5877227783203125,104.51408386230469
1686428463777859300,4.286859375,-94.88908386230469,-1.766357421875,104.8253173828125
1686428463787936300,4.296936279296875,-94.56718444824219,-1.6675262451171875,104.80558776855469
1686428463798011400,4.307011474609375,-94.11048889160156,-1.7069244384765625,105.01382446289062
1686428463808088300,4.31708837890625,-94.59642028808594,-1.5732574462890625,105.53317260742188
1686428463818165200,4.327165283203125,-93.65966796875,-1.20062255859375,105.65785217285156
1686428463828241400,4.337241455078125,-93.19378662109375,-1.012939453125,105.58671569824219
1686428463838319400,4.3473193359375,-93.41203308105469,-1.243621826171875,106.05929565429688
1686428463848395300,4.357395263671875,-92.41653442382812,-1.25018310546875,105.98103332519531
1686428463858471400,4.367471435546875,-92.25343322753906,-1.556427001953125,106.00032043457031
1686428463868548400,4.37754833984375,-91.84965515136719,-1.3274383544921875,106.32478332519531
1686428463878624500,4.38762451171875,-91.24066162109375,-1.5344085693359375,106.45599365234375
1686428463888698400,4.397698486328125,-90.93452453613281,-1.131256103515625,106.32034301757812
1686428463898773500,4.4077734375,-91.42684936523438,-1.6866607666015625,106.46992492675781
1686428463908849200,4.41784912109375,-91.38475036621094,-1.3026123046875,106.3638916015625
1686428463918926300,4.42792626953125,-91.14324951171875,-1.8226470947265625,106.31086730957031
1686428463929001200,4.438001220703125,-90.71697998046875,-1.339263916015625,106.41278076171875
1686428463939076400,4.448076416015625,-90.23968505859375,-1.8756256103515625,106.48936462402344
1686428463949152300,4.45815234375,-89.33065795898438,-1.8032989501953125,106.68701171875
1686428463959227400,4.468227294921875,-89.28611755371094,-1.5631561279296875,106.44255065917969
1686428463969302500,4.478302490234375,-89.493896484375,-1.6314849853515625,106.29739379882812
1686428463979377200,4.488377197265625,-89.37113952636719,-1.890899658203125,106.55934143066406
1686428463989452300,4.498452392578125,-89.49697875976562,-1.8061981201171875,106.56561279296875
1686428463999527200,4.508527099609375,-88.81825256347656,-1.9288177490234375,106.36520385742188
1686428464009599200,4.51859912109375,-89.17939758300781,-1.9995574951171875,106.84669494628906
1686428464019673300,4.52867333984375,-89.0615234375,-2.1669464111328125,106.62527465820312
1686428464029747200,4.538747314453125,-88.82431030273438,-2.0672149658203125,106.91233825683594
1686428464039821300,4.5488212890625,-89.13105773925781,-2.565582275390625,107.25555419921875
1686428464049897500,4.5588974609375,-88.54881286621094,-2.41351318359375,107.41636657714844
1686428464059972400,4.568972412109375,-88.29887390136719,-2.6138458251953125,107.6180419921875
1686428464070047500,4.579047607421875,-88.5660400390625,-2.977203369140625,107.97122192382812
1686428464080122000,4.5891220703125,-88.46061706542969,-3.1518707275390625,107.79313659667969
1686428464090197200,4.599197265625,-87.76571655273438,-3.6024932861328125,108.19223022460938
1686428464100271000,4.60927099609375,-87.47721862792969,-3.7117462158203125,108.43022155761719
1686428464110346200,4.61934619140625,-87.15023803710938,-3.731170654296875,108.61257934570312
1686428464120422400,4.62942236328125,-87.06495666503906,-3.917877197265625,109.25721740722656
1686428464130497300,4.639497314453125,-87.12991333007812,-4.400848388671875,108.85487365722656
1686428464140574200,4.64957421875,-86.94647216796875,-4.52386474609375,108.83570861816406
1686428464150650400,4.659650390625,-87.31886291503906,-4.702850341796875,108.78738403320312
1686428464160726300,4.669726318359375,-87.69148254394531,-5.0929412841796875,108.64924621582031
1686428464170800600,4.679800537109375,-87.43763732910156,-5.1585693359375,108.94461059570312
1686428464180875500,4.68987548828125,-88.11552429199219,-5.5750732421875,109.4515380859375
1686428464190948600,4.699948486328125,-88.17764282226562,-6.0392913818359375,109.44529724121094
1686428464201023500,4.7100234375,-88.25627136230469,-6.621673583984375,110.20384216308594
1686428464211099600,4.720099609375,-88.82431030273438,-7.2103424072265625,110.56399536132812
1686428464221174800,4.7301748046875,-88.57255554199219,-7.6379852294921875,110.94230651855469
1686428464231249700,4.740249755859375,-89.50387573242188,-8.221923828125,110.82975769042969
1686428464241324500,4.750324462890625,-89.36090087890625,-8.6300048828125,111.81134033203125
1686428464251399400,4.7603994140625,-90.01557922363281,-9.06768798828125,111.61854553222656
1686428464261475600,4.7704755859375,-91.35092163085938,-9.905075073242188,112.09547424316406
1686428464271552500,4.780552490234375,-91.68699645996094,-10.48004150390625,112.353515625
1686428464281627600,4.790627685546875,-93.0264892578125,-11.5501708984375,112.91435241699219
1686428464291702500,4.80070263671875,-93.52308654785156,-12.689117431640625,113.19407653808594
1686428464301776600,4.810776611328125,-93.28819274902344,-13.355575561523438,113.59689331054688
1686428464311851500,4.8208515625,-94.11677551269531,-14.209228515625,114.22175598144531
1686428464321927400,4.830927490234375,-93.27584838867188,-14.358108520507812,114.68644714355469
1686428464332003600,4.841003662109375,-93.24087524414062,-15.437957763671875,115.13897705078125
1686428464342080500,4.85108056640625,-92.8427734375,-15.842056274414062,116.00395202636719
1686428464352156700,4.86115673828125,-93.30059814453125,-16.778091430664062,116.31040954589844
1686428464362229500,4.8712294921875,-93.32655334472656,-17.443450927734375,116.67111206054688
1686428464372304600,4.8813046875,-93.73756408691406,-18.316177368164062,117.54531860351562
1686428464382377700,4.891377685546875,-93.9984130859375,-19.120513916015625,118.11810302734375
1686428464392452600,4.90145263671875,-93.96234130859375,-20.257614135742188,118.33076477050781
1686428464402527500,4.911527587890625,-95.02392578125,-21.021163940429688,118.69522094726562
1686428464412601600,4.9216015625,-95.38703918457031,-22.265426635742188,119.15975952148438
1686428464422675700,4.93167578125,-94.96604919433594,-22.445770263671875,119.54771423339844
1686428464432749600,4.94174951171875,-94.2840576171875,-23.618850708007812,119.7022705078125
1686428464442823700,4.95182373046875,-94.79217529296875,-24.012222290039062,119.89614868164062
1686428464452897500,4.9618974609375,-94.55145263671875,-24.61273193359375,119.96783447265625
1686428464462971600,4.9719716796875,-94.1328125,-24.991928100585938,120.32264709472656
1686428464473046500,4.982046630859375,-93.63864135742188,-25.281295776367188,120.97447204589844
1686428464483121700,4.99212158203125,-93.93171691894531,-25.699081420898438,120.98251342773438
1686428464493195500,5.002195556640625,-93.50531005859375,-26.442550659179688,121.35659790039062
1686428464503268600,5.0122685546875,-93.84536743164062,-26.478851318359375,121.39022827148438
1686428464513342700,5.0223427734375,-93.41841125488281,-27.12310791015625,121.22062683105469
1686428464523417600,5.03241748046875,-93.42060852050781,-27.286148071289062,121.502685546875
1686428464533489700,5.04248974609375,-93.14501953125,-27.561676025390625,121.409912109375
1686428464543563500,5.0525634765625,-93.25619506835938,-28.074386596679688,121.43218994140625
1686428464553637600,5.0626376953125,-93.19534301757812,-28.4227294921875,121.2869873046875
1686428464563710700,5.072710693359375,-92.73574829101562,-27.799896240234375,121.35804748535156
1686428464573784600,5.08278466796875,-92.52772521972656,-28.611648559570312,121.57879638671875
1686428464583858700,5.092858642578125,-92.22779846191406,-28.404617309570312,121.35215759277344
1686428464593931800,5.102931884765625,-92.29864501953125,-28.770858764648438,120.70658874511719
1686428464604005600,5.113005615234375,-92.0025634765625,-28.682540893554688,121.13642883300781
1686428464614078500,5.123078369140625,-91.95626831054688,-29.26409912109375,120.82307434082031
1686428464624152600,5.133152587890625,-91.56929016113281,-29.130416870117188,120.90386962890625
1686428464634226700,5.143226806640625,-91.84651184082031,-28.99249267578125,120.58857727050781
1686428464644299500,5.153299560546875,-91.45809936523438,-28.672500610351562,120.35830688476562
1686428464654374700,5.163374755859375,-91.48777770996094,-28.613037109375,120.15260314941406
1686428464664448500,5.173448486328125,-91.05158996582031,-28.205810546875,120.04168701171875
1686428464674524700,5.183524658203125,-90.95988464355469,-28.044479370117188,120.24482727050781
1686428464684599600,5.193599609375,-90.76058959960938,-28.15130615234375,119.31758117675781
1686428464694672600,5.203672607421875,-90.86183166503906,-27.979644775390625,118.65554809570312
1686428464704747800,5.213747802734375,-90.39024353027344,-28.0438232421875,118.44682312011719
1686428464714823700,5.22382373046875,-90.85281372070312,-28.236572265625,118.31874084472656
1686428464724899600,5.233899658203125,-90.48869323730469,-27.8441162109375,117.85353088378906
1686428464734974700,5.243974609375,-90.87834167480469,-28.099609375,117.77008056640625
1686428464745049600,5.254049560546875,-90.58326721191406,-28.144134521484375,117.53375244140625
1686428464755124500,5.26412451171875,-90.18038940429688,-28.057723999023438,117.0677490234375
1686428464765199600,5.27419970703125,-89.46652221679688,-28.052932739257812,116.5120849609375
1686428464775274500,5.2842744140625,-89.05815124511719,-27.313827514648438,116.47966003417969
1686428464785349600,5.294349609375,-89.12013244628906,-26.362396240234375,115.92910766601562
1686428464795425500,5.304425537109375,-88.71504211425781,-26.45367431640625,115.30857849121094
1686428464805499600,5.314499755859375,-87.73747253417969,-25.970474243164062,114.57586669921875
1686428464815574500,5.324574462890625,-87.4669189453125,-25.780136108398438,113.89299011230469
1686428464825649400,5.3346494140625,-87.74375915527344,-25.679092407226562,113.54074096679688
1686428464835726800,5.344726806640625,-87.30003356933594,-25.203460693359375,113.35513305664062
1686428464845802500,5.354802490234375,-87.55776977539062,-24.755020141601562,112.65522766113281
1686428464855878700,5.364878662109375,-87.13685607910156,-24.172622680664062,112.32707214355469
1686428464865953800,5.374953857421875,-87.05551147460938,-24.015625,111.88636779785156
1686428464876027600,5.385027587890625,-87.17933654785156,-23.788116455078125,111.66020202636719
1686428464886101800,5.395101806640625,-86.66897583007812,-23.700180053710938,111.24664306640625
1686428464896176600,5.4051767578125,-86.57484436035156,-23.37420654296875,111.05522155761719
1686428464906251800,5.415251708984375,-86.60958862304688,-23.19708251953125,110.67129516601562
1686428464916324600,5.42532470703125,-86.22322082519531,-23.066329956054688,109.83821105957031
1686428464926398500,5.4353984375,-86.37007141113281,-22.633377075195312,109.62094116210938
1686428464936473600,5.4454736328125,-85.5133056640625,-22.133392333984375,109.49130249023438
1686428464946548700,5.455548828125,-85.33796691894531,-22.107711791992188,108.75416564941406
1686428464956623600,5.46562353515625,-85.05723571777344,-21.922622680664062,108.51725769042969
1686428464966698800,5.47569873046875,-85.10624694824219,-21.811859130859375,107.79879760742188
1686428464976773400,5.4857734375,-84.73902893066406,-21.58355712890625,107.66038513183594
1686428464986849500,5.495849609375,-84.42642211914062,-21.4390869140625,107.18038940429688
1686428464996924700,5.505924560546875,-84.64707946777344,-21.189346313476562,106.7669677734375
1686428465006997500,5.51599755859375,-84.15811157226562,-21.32928466796875,106.71832275390625
1686428465017071600,5.526071533203125,-84.69090270996094,-21.280288696289062,106.44236755371094
1686428465027145700,5.536145751953125,-83.79548645019531,-21.310455322265625,106.21426391601562
1686428465037219600,5.546219482421875,-84.12974548339844,-20.957199096679688,105.9173583984375
1686428465047291400,5.55629150390625,-83.95442199707031,-20.9381103515625,105.59884643554688
1686428465057365800,5.56636572265625,-83.49516296386719,-20.822967529296875,105.58204650878906
1686428465067441700,5.576441650390625,-83.72877502441406,-21.105392456054688,105.46304321289062
1686428465077515500,5.586515625,-83.19126892089844,-21.030960083007812,105.34095764160156
1686428465087590700,5.596590576171875,-83.23074340820312,-21.028030395507812,104.93849182128906
1686428465097663700,5.606663818359375,-83.41806030273438,-21.06256103515625,104.46678161621094
1686428465107736600,5.616736572265625,-83.48220825195312,-20.731246948242188,104.32215881347656
1686428465117810700,5.626810791015625,-83.24984741210938,-20.737640380859375,104.06013488769531
1686428465127884500,5.636884521484375,-83.62254333496094,-21.140304565429688,103.7576904296875
1686428465137959700,5.646959716796875,-83.48507690429688,-21.122329711914062,103.62281799316406
1686428465148034600,5.65703466796875,-83.65135192871094,-21.429092407226562,103.56387329101562
1686428465158108700,5.667108642578125,-83.55641174316406,-21.14813232421875,103.38081359863281
1686428465168184600,5.6771845703125,-83.16322326660156,-21.12371826171875,102.90225219726562
1686428465178259700,5.687259765625,-83.47749328613281,-21.5250244140625,103.00932312011719
1686428465188334600,5.69733447265625,-83.38017272949219,-21.413604736328125,103.26800537109375
1686428465198408700,5.70740869140625,-83.63856506347656,-21.21331787109375,103.14077758789062
1686428465208482600,5.717482666015625,-83.28419494628906,-21.394302368164062,102.89532470703125
1686428465218556700,5.727556640625,-83.05772399902344,-21.219039916992188,102.73284912109375
1686428465228629500,5.73762939453125,-82.92303466796875,-21.576171875,102.52703857421875
1686428465238704600,5.74770458984375,-83.81782531738281,-21.560577392578125,102.25665283203125
1686428465248777700,5.75777783203125,-83.90768432617188,-21.429779052734375,101.93783569335938
1686428465258851600,5.7678515625,-83.46913146972656,-21.690826416015625,101.70033264160156
1686428465268926700,5.7779267578125,-83.26730346679688,-21.393325805664062,101.97335815429688
1686428465279001600,5.788001708984375,-83.818115234375,-21.6591796875,101.34529113769531
1686428465289076500,5.798076416015625,-83.82362365722656,-21.719635009765625,100.89686584472656
1686428465299150600,5.808150634765625,-83.90017700195312,-21.642471313476562,101.10459899902344
1686428465309224700,5.818224609375,-83.56800842285156,-21.365768432617188,100.59895324707031
1686428465319299600,5.828299560546875,-83.13739013671875,-21.453445434570312,100.16081237792969
1686428465329375500,5.83837548828125,-82.99034118652344,-21.182281494140625,99.89884948730469
1686428465339450600,5.84845068359375,-82.84385681152344,-21.344131469726562,99.27450561523438
1686428465349524700,5.858524658203125,-82.5689697265625,-21.039291381835938,98.84231567382812
1686428465359600600,5.8686005859375,-82.09230041503906,-21.139968872070312,98.50283813476562
1686428465369676500,5.878676513671875,-81.80177307128906,-21.031204223632812,98.03318786621094
1686428465379751700,5.888751708984375,-81.779296875,-21.207275390625,98.01718139648438
1686428465389825500,5.898825439453125,-81.32374572753906,-20.963104248046875,97.57723999023438
1686428465399900700,5.908900634765625,-80.86846923828125,-20.998306274414062,97.58515930175781
1686428465409975600,5.9189755859375,-80.78097534179688,-20.559494018554688,97.31756591796875
1686428465420049700,5.929049560546875,-80.035400390625,-20.870559692382812,97.17979431152344
1686428465430122500,5.93912255859375,-79.91989135742188,-20.903305053710938,97.14323425292969
1686428465440198700,5.94919873046875,-79.44764709472656,-20.843124389648438,97.29573059082031
1686428465450272500,5.9592724609375,-80.09274291992188,-20.679229736328125,97.26029968261719
1686428465460348700,5.9693486328125,-80.23760986328125,-21.114822387695312,97.39749145507812
1686428465470422500,5.979422607421875,-79.58029174804688,-20.96240234375,97.15757751464844
1686428465480498400,5.98949853515625,-80.44137573242188,-21.225265502929688,97.22767639160156
1686428465490574600,5.99957470703125,-80.45851135253906,-21.305145263671875,97.51780700683594
1686428465500649700,6.009649658203125,-80.70285034179688,-21.581024169921875,97.39299011230469
1686428465510724600,6.019724609375,-82.01829528808594,-21.547103881835938,97.65962219238281
1686428465520799700,6.0297998046875,-82.22914123535156,-22.1265869140625,98.061767578125
1686428465530874600,6.03987451171875,-83.13310241699219,-22.369354248046875,98.17710876464844
1686428465540949500,6.049949462890625,-83.90048217773438,-22.588088989257812,97.95700073242188
1686428465551025700,6.060025634765625,-84.3885498046875,-22.80999755859375,98.25534057617188
1686428465561101600,6.0701015625,-85.00335693359375,-23.594268798828125,98.43701171875
1686428465571176400,6.080176513671875,-85.66426086425781,-23.710113525390625,98.5611572265625
1686428465581252600,6.090252685546875,-85.87004089355469,-23.896286010742188,98.74859619140625
1686428465591327700,6.10032763671875,-86.16622924804688,-23.954879760742188,98.85641479492188
1686428465601403600,6.110403564453125,-86.65065002441406,-24.544662475585938,98.93272399902344
1686428465611479600,6.1204794921875,-86.08705139160156,-24.45196533203125,98.86090087890625
1686428465621555500,6.130555419921875,-87.01927185058594,-24.658432006835938,99.4422607421875
1686428465631629800,6.1406298828125,-86.92666625976562,-24.476226806640625,99.77528381347656
1686428465641705500,6.15070556640625,-86.07778930664062,-24.774078369140625,99.53550720214844
1686428465651780600,6.160780517578125,-86.66891479492188,-25.324539184570312,99.46165466308594
1686428465661855700,6.170855712890625,-87.36795043945312,-25.155593872070312,99.52265930175781
1686428465671931400,6.180931396484375,-87.57638549804688,-25.520950317382812,99.45108032226562
1686428465682006500,6.191006591796875,-87.92436218261719,-25.652633666992188,99.96591186523438
1686428465692082700,6.201082763671875,-87.87789916992188,-25.801956176757812,99.92640686035156
1686428465702155500,6.211155517578125,-88.02200317382812,-26.08648681640625,100.12716674804688
1686428465712231700,6.221231689453125,-88.35595703125,-26.380661010742188,100.06178283691406
1686428465722307600,6.2313076171875,-88.79931640625,-26.630096435546875,100.76776123046875
1686428465732383700,6.2413837890625,-88.86837768554688,-26.944564819335938,100.76309204101562
1686428465742459600,6.251459716796875,-89.14889526367188,-26.949844360351562,100.3565673828125
1686428465752535600,6.26153564453125,-89.85189819335938,-27.241790771484375,100.32559204101562
1686428465762611700,6.27161181640625,-89.27899169921875,-27.44744873046875,100.4027099609375
1686428465772687600,6.2816875,-89.61595153808594,-27.2835693359375,100.6988525390625
1686428465782763800,6.291763671875,-89.34817504882812,-27.699111938476562,100.79684448242188
1686428465792839400,6.30183935546875,-89.36981201171875,-28.157150268554688,100.43647766113281
1686428465802913800,6.311913818359375,-89.59100341796875,-28.186141967773438,100.54226684570312
1686428465812988400,6.321988525390625,-89.84690856933594,-28.2032470703125,100.58908081054688
1686428465823065600,6.332065673828125,-89.71003723144531,-27.862548828125,100.32044982910156
1686428465833141500,6.3421416015625,-89.84957885742188,-28.280868530273438,99.95578002929688
1686428465843219500,6.352219482421875,-89.42787170410156,-28.101165771484375,100.23423767089844
1686428465853295600,6.362295654296875,-90.15367126464844,-27.9884033203125,100.10269165039062
1686428465863370800,6.372370849609375,-90.09823608398438,-27.970535278320312,99.80842590332031
1686428465873443600,6.382443603515625,-89.59190368652344,-27.917648315429688,99.83674621582031
1686428465883519700,6.392519775390625,-89.627685546875,-28.1171875,99.70750427246094
1686428465893595600,6.402595703125,-89.26109313964844,-28.172561645507812,99.83830261230469
1686428465903670500,6.41267041015625,-90.31712341308594,-27.994705200195312,99.25918579101562
1686428465913745700,6.42274560546875,-90.01744079589844,-27.847763061523438,98.99531555175781
1686428465923818500,6.432818603515625,-90.48800659179688,-28.08038330078125,98.73947143554688
1686428465933889500,6.4428896484375,-90.71279907226562,-27.759689331054688,98.6348876953125
1686428465943964700,6.452964599609375,-90.30732727050781,-27.849777221679688,98.01521301269531
1686428465954038500,6.46303857421875,-90.24336242675781,-27.363876342773438,97.8995361328125
1686428465964113700,6.47311376953125,-90.10411071777344,-27.057510375976562,97.74476623535156
1686428465974188500,6.4831884765625,-90.36212158203125,-27.2056884765625,97.40202331542969
1686428465984262700,6.4932626953125,-89.9254150390625,-27.037765502929688,97.39955139160156
1686428465994336500,6.50333642578125,-89.75901794433594,-26.619705200195312,96.73954772949219
1686428466004411600,6.51341162109375,-89.60127258300781,-26.382888793945312,96.73283386230469
1686428466014485500,6.523485595703125,-89.34013366699219,-25.889480590820312,96.47378540039062
1686428466024559600,6.5335595703125,-88.89100646972656,-25.4564208984375,95.84846496582031
1686428466034633700,6.5436337890625,-88.51411437988281,-25.449020385742188,95.22514343261719
1686428466044708600,6.55370849609375,-88.32633972167969,-25.058013916015625,95.19160461425781
1686428466054782700,6.56378271484375,-88.07711791992188,-24.860336303710938,95.18611145019531
1686428466064856600,6.573856689453125,-88.28598022460938,-24.482559204101562,94.55424499511719
1686428466074932500,6.583932373046875,-88.17471313476562,-24.506744384765625,94.28861999511719
1686428466085007600,6.594007568359375,-88.018798828125,-24.405670166015625,94.231689453125
1686428466095081500,6.60408154296875,-87.84979248046875,-24.485076904296875,93.85240173339844
1686428466105156600,6.614156494140625,-87.79733276367188,-24.03680419921875,93.86668395996094
1686428466115231500,6.6242314453125,-87.24984741210938,-23.699615478515625,93.84161376953125
1686428466125307600,6.6343076171875,-87.45890808105469,-23.556350708007812,93.75625610351562
1686428466135381800,6.6443818359375,-87.22024536132812,-23.414642333984375,93.45158386230469
1686428466145457400,6.65445751953125,-87.41415405273438,-23.265426635742188,92.94363403320312
1686428466155532500,6.664532470703125,-87.29498291015625,-23.06707763671875,92.70074462890625
1686428466165607700,6.674607666015625,-87.01632690429688,-23.128463745117188,92.57107543945312
1686428466175683000,6.68468310546875,-87.04405212402344,-22.899749755859375,92.08984375
1686428466185758200,6.69475830078125,-86.63916015625,-22.664260864257812,92.05929565429688
1686428466195834000,6.704834228515625,-87.09748840332031,-22.499908447265625,91.85885620117188
1686428466205908000,6.714907958984375,-86.58467102050781,-22.596969604492188,91.59666442871094
1686428466215983000,6.724983154296875,-86.88526916503906,-22.210586547851562,91.51400756835938
1686428466226059000,6.73505908203125,-86.99986267089844,-22.52093505859375,91.25630187988281
1686428466236134100,6.745134033203125,-86.65129089355469,-22.062103271484375,90.99530029296875
1686428466246210000,6.7552099609375,-86.39057922363281,-22.449737548828125,91.25163269042969
1686428466256288000,6.7652880859375,-86.84332275390625,-22.14398193359375,90.86941528320312
1686428466266365000,6.775364990234375,-86.66375732421875,-21.845199584960938,90.67897033691406
1686428466276442000,6.785442138671875,-85.953369140625,-21.734130859375,90.78240966796875
1686428466286519000,6.79551904296875,-85.85359191894531,-21.668746948242188,90.84480285644531
1686428466296596000,6.805595947265625,-85.66819763183594,-21.827163696289062,90.585693359375
1686428466306672000,6.815672119140625,-85.78170776367188,-21.421218872070312,90.24786376953125
1686428466316748000,6.825748046875,-85.84262084960938,-21.682662963867188,90.25033569335938
1686428466326824200,6.83582421875,-85.17672729492188,-21.574249267578125,90.44029235839844
1686428466336900000,6.845900146484375,-85.66065979003906,-21.975204467773438,90.82182312011719
1686428466346976000,6.85597607421875,-85.82929992675781,-21.640975952148438,90.81759643554688
1686428466357052200,6.86605224609375,-85.63450622558594,-21.853439331054688,90.25827026367188
1686428466367127300,6.876127197265625,-86.28988647460938,-22.051422119140625,90.33868408203125
1686428466377202000,6.886201904296875,-85.49850463867188,-22.23052978515625,89.97463989257812
1686428466387278000,6.896278076171875,-85.7764892578125,-21.801162719726562,90.43267822265625
1686428466397353200,6.906353271484375,-85.49790954589844,-21.6949462890625,90.02192687988281
1686428466407428900,6.916428955078125,-85.68600463867188,-21.251510620117188,89.90196228027344
1686428466417505000,6.926505126953125,-85.83096313476562,-21.411483764648438,90.06576538085938
1686428466427577900,6.936577880859375,-85.71377563476562,-21.554473876953125,90.09738159179688
1686428466437653000,6.946653076171875,-84.87240600585938,-21.353866577148438,89.66184997558594
1686428466447729200,6.956729248046875,-85.29505920410156,-21.591751098632812,90.14688110351562
1686428466457804000,6.966803955078125,-85.614990234375,-21.805709838867188,89.79135131835938
1686428466467881000,6.976880859375,-85.25730895996094,-21.886825561523438,89.5419921875
1686428466477955000,6.986955078125,-84.94784545898438,-21.675567626953125,89.68775939941406
1686428466488029000,6.99702880859375,-85.43496704101562,-21.417343139648438,89.38719177246094
1686428466498103000,7.00710302734375,-85.19024658203125,-21.75384521484375,89.35040283203125
1686428466508179200,7.01717919921875,-84.97923278808594,-21.151229858398438,89.21626281738281
1686428466518254000,7.027254150390625,-84.85240173339844,-21.44195556640625,89.35684204101562
1686428466528330000,7.037330078125,-85.08943176269531,-21.005157470703125,88.92436218261719
1686428466538405000,7.047405029296875,-84.94747924804688,-21.191375732421875,88.64686584472656
1686428466548479000,7.05747900390625,-83.84013366699219,-20.864089965820312,88.61531066894531
1686428466558555100,7.06755517578125,-84.1488037109375,-21.015289306640625,88.34669494628906
1686428466568631300,7.07763134765625,-83.48280334472656,-20.691513061523438,88.60258483886719
1686428466578707000,7.08770703125,-83.26654052734375,-20.3668212890625,88.37867736816406
1686428466588782000,7.097781982421875,-83.0550537109375,-19.986068725585938,88.83958435058594
1686428466598858200,7.107858154296875,-82.83891296386719,-20.274322509765625,88.63348388671875
1686428466608932000,7.11793212890625,-82.69332885742188,-19.733917236328125,88.97828674316406
1686428466619006200,7.128006103515625,-82.13505554199219,-19.946044921875,88.58526611328125
1686428466629081000,7.1380810546875,-82.20947265625,-19.741897583007812,88.92401123046875
1686428466639156200,7.14815625,-82.37042236328125,-19.993911743164062,89.28202819824219
1686428466649233200,7.158233154296875,-82.91403198242188,-19.461715698242188,89.25978088378906
1686428466659310000,7.16831005859375,-82.73979187011719,-19.801254272460938,89.47271728515625
1686428466669386200,7.17838623046875,-82.60270690917969,-19.885879516601562,89.75312805175781
1686428466679462100,7.188462158203125,-83.64619445800781,-20.2373046875,90.09403991699219
1686428466689538000,7.1985380859375,-84.33717346191406,-20.002044677734375,90.72933959960938
1686428466699615000,7.208614990234375,-85.95565795898438,-20.408493041992188,90.55729675292969
1686428466709687000,7.21868701171875,-85.74777221679688,-20.365737915039062,91.02842712402344
1686428466719763000,7.228762939453125,-86.44218444824219,-21.118728637695312,91.00172424316406
1686428466729837000,7.238837158203125,-86.96806335449219,-20.932235717773438,91.35813903808594
1686428466739912000,7.248911865234375,-87.06819152832031,-21.030349731445312,91.53959655761719
1686428466749987000,7.258987060546875,-87.43708801269531,-21.316009521484375,91.92279052734375
1686428466760060200,7.26906005859375,-88.03326416015625,-21.209259033203125,92.46514892578125
1686428466770135000,7.279135009765625,-88.27725219726562,-21.208663940429688,92.44699096679688
1686428466780209200,7.289209228515625,-88.49224853515625,-21.363525390625,92.62905883789062
1686428466790282000,7.299281982421875,-88.58558654785156,-21.385772705078125,92.96804809570312
1686428466800357000,7.309357177734375,-88.47755432128906,-22.026702880859375,92.92433166503906
1686428466810432300,7.319432373046875,-89.04661560058594,-21.677734375,93.22482299804688
1686428466820507100,7.329507080078125,-89.65841674804688,-21.491195678710938,93.76771545410156
1686428466830584000,7.339583984375,-89.318115234375,-22.378814697265625,94.01866149902344
1686428466840661000,7.349660888671875,-89.85296630859375,-22.100906372070312,93.81413269042969
1686428466850738200,7.35973828125,-90.134033203125,-22.405197143554688,94.150390625
1686428466860814000,7.36981396484375,-90.51298522949219,-22.794998168945312,94.13331604003906
1686428466870888000,7.379887939453125,-90.47650146484375,-22.746536254882812,94.55337524414062
1686428466880964000,7.389964111328125,-90.48841857910156,-22.821517944335938,94.86216735839844
1686428466891041000,7.400041015625,-90.46499633789062,-22.793838500976562,95.28045654296875
1686428466901116200,7.4101162109375,-90.56187438964844,-23.091629028320312,95.20985412597656
1686428466911192000,7.420192138671875,-90.6807861328125,-23.1541748046875,95.39179992675781
1686428466921267000,7.430266845703125,-91.05995178222656,-23.135589599609375,96.02117919921875
1686428466931342000,7.440342041015625,-90.88394165039062,-23.406463623046875,96.02108764648438
1686428466941417000,7.4504169921875,-91.05990600585938,-23.409454345703125,96.6007080078125
1686428466951492000,7.4604921875,-90.8975830078125,-23.723281860351562,96.17597961425781
1686428466961568000,7.470568115234375,-91.63542175292969,-23.55224609375,96.81593322753906
1686428466971642000,7.48064208984375,-91.97956848144531,-23.74285888671875,96.50559997558594
1686428466981718000,7.490718017578125,-91.63473510742188,-23.745040893554688,96.99960327148438
1686428466991791900,7.5007919921875,-91.70285034179688,-23.689987182617188,96.84750366210938
1686428467001867000,7.510866943359375,-91.74549865722656,-23.742584228515625,97.08572387695312
1686428467011942100,7.520942138671875,-91.44039916992188,-23.889190673828125,96.77706909179688
1686428467022017000,7.53101708984375,-92.06715393066406,-23.599639892578125,97.3133544921875
1686428467032093000,7.541093017578125,-91.25729370117188,-23.79339599609375,97.12710571289062
1686428467042168000,7.55116796875,-91.00579833984375,-23.817138671875,97.22050476074219
1686428467052243000,7.561242919921875,-90.931640625,-23.86614990234375,97.38517761230469
1686428467062317000,7.571317138671875,-90.68618774414062,-23.69451904296875,97.1627197265625
1686428467072392000,7.581391845703125,-90.49520874023438,-23.744430541992188,97.17442321777344
1686428467082467000,7.591467041015625,-90.68330383300781,-23.278366088867188,97.03691101074219
1686428467092543200,7.601543212890625,-90.33613586425781,-23.414962768554688,97.15205383300781
1686428467102619100,7.611619140625,-90.84249877929688,-23.253143310546875,96.91603088378906
1686428467112695000,7.621695068359375,-90.25662231445312,-23.336334228515625,96.85870361328125
1686428467122771000,7.63177099609375,-90.62113952636719,-23.10015869140625,96.86618041992188
1686428467132846000,7.64184619140625,-89.5986328125,-23.157958984375,96.30401611328125
1686428467142921000,7.6519208984375,-90.13520812988281,-22.986099243164062,96.33493041992188
1686428467152998000,7.661997802734375,-90.34317016601562,-23.260513305664062,96.05662536621094
1686428467163072000,7.672072021484375,-90.62696838378906,-23.175079345703125,96.06631469726562
1686428467173147600,7.682147705078125,-90.87290954589844,-22.930557250976562,95.95516967773438
1686428467183221500,7.692221435546875,-90.73562622070312,-22.792465209960938,95.88078308105469
1686428467193297700,7.702297607421875,-89.99775695800781,-22.650741577148438,95.77482604980469
1686428467203374600,7.71237451171875,-90.11372375488281,-22.212448120117188,95.91160583496094
1686428467213450800,7.72245068359375,-89.4229736328125,-21.888519287109375,95.2650146484375
1686428467223525600,7.732525634765625,-89.13302612304688,-21.492401123046875,95.39144897460938
1686428467233600500,7.7426005859375,-88.3619384765625,-21.422760009765625,95.26875305175781
1686428467243677700,7.752677734375,-88.34518432617188,-21.23663330078125,94.32850646972656
1686428467253754600,7.762754638671875,-87.99319458007812,-20.384323120117188,94.24813842773438
1686428467263831600,7.77283154296875,-87.82708740234375,-20.288238525390625,94.19039916992188
1686428467273908700,7.78290869140625,-87.69435119628906,-20.060546875,93.73509216308594
1686428467283983400,7.7929833984375,-87.72172546386719,-19.995269775390625,93.13729858398438
1686428467294058500,7.80305859375,-86.95433044433594,-19.998291015625,93.28076171875
1686428467304134700,7.813134765625,-86.85853576660156,-19.509719848632812,93.37800598144531
1686428467314209500,7.82320947265625,-86.99055480957031,-19.51300048828125,93.37223815917969
1686428467324286500,7.833286376953125,-86.90370178222656,-19.724075317382812,92.91557312011719
1686428467334361600,7.843361572265625,-86.74679565429688,-19.315292358398438,92.61962890625
1686428467344436700,7.853436767578125,-86.63261413574219,-19.021774291992188,92.81019592285156
1686428467354510600,7.863510498046875,-85.94410705566406,-18.656753540039062,92.48530578613281
1686428467364582700,7.873582763671875,-86.12188720703125,-18.760589599609375,92.02928161621094
1686428467374657500,7.883657470703125,-86.18916320800781,-18.421707153320312,92.39476013183594
1686428467384732400,7.893732421875,-85.591064453125,-18.572265625,92.31507873535156
1686428467394805800,7.9038056640625,-85.46907043457031,-18.468063354492188,91.61265563964844
1686428467404878600,7.913878662109375,-85.02682495117188,-17.985671997070312,91.52934265136719
1686428467414952400,7.923952392578125,-85.04225158691406,-17.822906494140625,91.63624572753906
1686428467425027600,7.934027587890625,-85.35861206054688,-17.9874267578125,91.65690612792969
1686428467435102500,7.9441025390625,-85.03228759765625,-17.921661376953125,91.18508911132812
1686428467445176600,7.954176513671875,-85.0885009765625,-17.593826293945312,90.83857727050781
1686428467455250400,7.96425048828125,-85.33140563964844,-17.436279296875,90.93186950683594
1686428467465325600,7.97432568359375,-84.67524719238281,-17.441329956054688,90.86447143554688
1686428467475401700,7.984401611328125,-84.30302429199219,-17.50494384765625,90.48834228515625
1686428467485476600,7.9944765625,-84.56593322753906,-17.5692138671875,90.66096496582031
1686428467495551500,8.004551513671874,-83.84754943847656,-17.3438720703125,90.10086059570312
1686428467505625600,8.01462548828125,-84.09654235839844,-17.23492431640625,90.35664367675781
1686428467515699700,8.02469970703125,-83.8275146484375,-17.063674926757812,90.27352905273438
1686428467525772500,8.0347724609375,-83.83615112304688,-17.319595336914062,89.68313598632812
1686428467535848700,8.0448486328125,-83.54231262207031,-17.109268188476562,90.19828796386719
1686428467545924600,8.054924560546874,-83.71650695800781,-17.166595458984375,89.96156311035156
1686428467555999500,8.06499951171875,-83.77450561523438,-17.126510620117188,89.74760437011719
1686428467566073600,8.075073486328124,-84.12971496582031,-17.2393798828125,89.73164367675781
1686428467576149500,8.0851494140625,-83.74447631835938,-17.369277954101562,89.79249572753906
1686428467586224600,8.095224609375,-83.90727233886719,-17.384002685546875,89.89994812011719
1686428467596301600,8.105301513671876,-84.17047119140625,-17.121017456054688,89.63017272949219
1686428467606378500,8.11537841796875,-83.77294921875,-17.178695678710938,89.52606201171875
1686428467616454700,8.12545458984375,-83.55567932128906,-17.260818481445312,89.71221923828125
1686428467626530600,8.135530517578125,-83.6212158203125,-17.092697143554688,89.50222778320312
1686428467636605400,8.14560546875,-83.03443908691406,-16.931915283203125,89.49618530273438
1686428467646680600,8.1556806640625,-83.67890930175781,-17.099609375,89.0665283203125
1686428467656757500,8.165757568359375,-82.48617553710938,-16.922378540039062,89.30458068847656
1686428467666832600,8.17583251953125,-82.72476196289062,-17.024002075195312,89.20736694335938
1686428467676907500,8.185907470703125,-82.95027160644531,-16.85430908203125,89.05387878417969
1686428467686983700,8.195983642578126,-82.46632385253906,-17.18011474609375,88.900634765625
1686428467697059600,8.2060595703125,-81.98199462890625,-16.873550415039062,88.87864685058594
1686428467707135700,8.2161357421875,-82.13127136230469,-16.887832641601562,88.91313171386719
1686428467717212700,8.226212646484376,-82.05233764648438,-16.62786865234375,88.51876831054688
1686428467727289600,8.23628955078125,-81.3973388671875,-16.672683715820312,88.29655456542969
1686428467737366800,8.24636669921875,-81.10621643066406,-16.658706665039062,88.16499328613281
1686428467747442400,8.2564423828125,-80.79702758789062,-16.471527099609375,88.454833984375
1686428467757517600,8.266517578125,-81.00663757324219,-16.527923583984375,87.98954772949219
1686428467767594500,8.276594482421874,-80.54283142089844,-16.408798217773438,87.94743347167969
1686428467777670700,8.286670654296875,-79.69087219238281,-16.681350708007812,87.83584594726562
1686428467787746600,8.29674658203125,-79.87608337402344,-15.817672729492188,87.51568603515625
1686428467797821400,8.306821533203125,-79.15374755859375,-16.289764404296875,87.62823486328125
1686428467807895600,8.3168955078125,-79.19854736328125,-15.913711547851562,87.73028564453125
1686428467817968600,8.32696875,-78.512451171875,-15.8099365234375,87.54922485351562
1686428467828041500,8.33704150390625,-78.28327941894531,-15.825393676757812,88.04153442382812
1686428467838117600,8.34711767578125,-77.93939208984375,-15.869384765625,88.18356323242188
1686428467848192800,8.35719287109375,-78.28779602050781,-15.790206909179688,87.89346313476562
1686428467858268400,8.367268310546875,-77.59954833984375,-15.588088989257812,88.14588928222656
1686428467868344600,8.377344482421876,-78.30793762207031,-15.642288208007812,88.24955749511719
1686428467878420500,8.38742041015625,-78.34608459472656,-15.386199951171875,88.69784545898438
1686428467888495600,8.39749560546875,-78.34909057617188,-15.5789794921875,88.97676086425781
1686428467898570500,8.407570556640625,-78.99588012695312,-16.158432006835938,88.90425109863281
1686428467908643600,8.4176435546875,-79.42353820800781,-15.5487060546875,89.32112121582031
1686428467918720500,8.427720458984375,-79.70915222167969,-15.767333984375,89.64691162109375
1686428467928795600,8.437795654296876,-80.520751953125,-15.522506713867188,90.22618103027344
1686428467938871600,8.44787158203125,-81.04293823242188,-15.965560913085938,90.32879638671875
1686428467948946400,8.457946533203126,-81.83795166015625,-16.06719970703125,90.72352600097656
1686428467959022600,8.468022705078125,-82.010009765625,-16.156463623046875,91.1917724609375
1686428467969098500,8.478098388671874,-82.81585693359375,-16.137420654296875,91.49600219726562
1686428467979174700,8.488174560546875,-83.45547485351562,-16.453948974609375,91.78123474121094
1686428467989249500,8.49824951171875,-83.74752807617188,-16.599197387695312,91.91389465332031
1686428467999325400,8.508325439453126,-84.5029296875,-16.631011962890625,92.37051391601562
1686428468009402600,8.518402587890625,-84.93820190429688,-16.926223754882812,92.60563659667969
1686428468019477500,8.5284775390625,-85.07267761230469,-16.939544677734375,92.89613342285156
1686428468029552400,8.538552490234375,-85.15185546875,-17.014495849609375,93.26539611816406
1686428468039626500,8.54862646484375,-85.4051513671875,-17.158920288085938,93.70881652832031
1686428468049700600,8.55870068359375,-85.02676391601562,-16.901962280273438,93.87886047363281
1686428468059776500,8.568776611328126,-85.36772155761719,-17.122360229492188,94.12504577636719
1686428468069852700,8.578852783203125,-85.93817138671875,-17.239212036132812,94.52102661132812
1686428468079927800,8.588927734375,-86.03419494628906,-17.707687377929688,94.62948608398438
1686428468090002400,8.59900244140625,-86.27342224121094,-17.515182495117188,95.10224914550781
1686428468100077600,8.60907763671875,-86.75546264648438,-17.928070068359375,95.53451538085938
1686428468110152400,8.61915234375,-86.59843444824219,-17.921127319335938,95.78970336914062
1686428468120226600,8.6292265625,-86.9447021484375,-18.073104858398438,96.11158752441406
1686428468130300400,8.639300537109374,-87.55992126464844,-18.32720947265625,96.28987121582031
1686428468140374800,8.649374755859375,-87.91610717773438,-18.418807983398438,96.2183837890625
1686428468150449400,8.659449462890626,-87.34988403320312,-18.468673706054688,96.74130249023438
1686428468160521500,8.669521484375,-87.84370422363281,-18.434906005859375,97.1201171875
1686428468170594800,8.6795947265625,-88.57585144042969,-19.028762817382812,97.33796691894531
1686428468180669400,8.68966943359375,-87.75675964355469,-18.572052001953125,97.60433959960938
1686428468190745600,8.69974560546875,-88.32290649414062,-18.894088745117188,98.0006103515625
1686428468200820700,8.70982080078125,-88.38652038574219,-18.97100830078125,98.019775390625
1686428468210893600,8.7198935546875,-88.509521484375,-18.882888793945312,98.15223693847656
1686428468220967400,8.729967529296875,-88.22146606445312,-18.75994873046875,98.29226684570312
1686428468231041800,8.740041748046876,-87.9263916015625,-18.945404052734375,98.21417236328125
1686428468241115600,8.75011572265625,-87.86898803710938,-18.398300170898438,98.49678039550781
1686428468251190800,8.760190673828125,-86.92982482910156,-18.427993774414062,98.50146484375
1686428468261263600,8.770263671875,-87.15406799316406,-18.485519409179688,98.1668701171875
1686428468271335700,8.780335693359374,-86.475341796875,-18.130477905273438,98.27729797363281
1686428468281409500,8.790409423828125,-86.85256958007812,-18.056060791015625,98.1033935546875
1686428468291484700,8.800484619140626,-86.72758483886719,-18.058685302734375,97.74293518066406
1686428468301559800,8.810559814453125,-86.36563110351562,-18.658111572265625,97.69425964355469
1686428468311634400,8.820634521484376,-86.52322387695312,-18.390701293945312,97.46611022949219
1686428468321709600,8.83070947265625,-86.99612426757812,-18.065658569335938,97.28125
1686428468331781600,8.84078173828125,-86.84687805175781,-18.51910400390625,97.14707946777344
1686428468341857800,8.85085791015625,-87.09614562988281,-17.886199951171875,97.14228820800781
1686428468351933400,8.860933349609375,-86.09768676757812,-18.105270385742188,97.16123962402344
1686428468362009600,8.871009521484375,-86.26176452636719,-17.352340698242188,96.70722961425781
1686428468372083700,8.881083740234375,-85.244140625,-17.427932739257812,96.77876281738281
1686428468382157600,8.891157470703124,-84.950927734375,-16.948837280273438,96.6490478515625
1686428468392231400,8.9012314453125,-84.64739990234375,-16.996475219726562,96.57666015625
1686428468402306600,8.911306640625,-84.63070678710938,-16.49981689453125,96.13893127441406
1686428468412382700,8.9213828125,-83.76844787597656,-16.457382202148438,95.53298950195312
1686428468422458600,8.931458740234374,-84.46246337890625,-16.007247924804688,95.69680786132812
1686428468432534800,8.94153466796875,-84.163330078125,-16.0242919921875,95.20361328125
1686428468442610400,8.9516103515625,-83.49407958984375,-15.74627685546875,94.62593078613281
1686428468452685600,8.961685546875,-83.20204162597656,-15.809371948242188,94.62518310546875
1686428468462761700,8.97176171875,-82.69998168945312,-15.388534545898438,94.71638488769531
1686428468472836600,8.981836669921876,-82.68783569335938,-15.819061279296875,94.2349853515625
1686428468482912500,8.99191259765625,-82.51588439941406,-15.04302978515625,94.24317932128906
1686428468492988700,9.00198876953125,-82.23074340820312,-14.8876953125,94.24407958984375
1686428468503065600,9.012065673828126,-82.11201477050781,-14.906005859375,93.99186706542969
1686428468513142500,9.022142578125,-81.83357238769531,-14.878875732421875,94.08837890625
1686428468523218700,9.03221875,-81.79481506347656,-14.701507568359375,93.53251647949219
1686428468533294600,9.042294677734375,-80.95968627929688,-14.772674560546875,93.26530456542969
1686428468543370500,9.05237060546875,-80.89863586425781,-14.444320678710938,93.33535766601562
1686428468553446700,9.06244677734375,-80.44438171386719,-14.739837646484375,92.80674743652344
1686428468563522600,9.0725224609375,-80.13032531738281,-14.677139282226562,92.45878601074219
1686428468573598700,9.0825986328125,-79.70722961425781,-14.314285278320312,92.65621948242188
1686428468583674600,9.092674560546875,-79.98883056640625,-14.13592529296875,92.48977661132812
1686428468593748500,9.10274853515625,-79.65797424316406,-14.174285888671875,92.09767150878906
1686428468603824600,9.11282470703125,-79.70832824707031,-14.053543090820312,91.95497131347656
1686428468613900500,9.122900634765625,-79.62191772460938,-13.995773315429688,91.79071044921875
1686428468623976400,9.1329765625,-79.71690368652344,-14.424652099609375,91.47737121582031
1686428468634052600,9.143052490234375,-79.458740234375,-14.197998046875,91.588623046875
1686428468644128500,9.15312841796875,-79.39222717285156,-13.857315063476562,91.71202087402344
1686428468654203600,9.16320361328125,-79.52053833007812,-14.13427734375,91.59336853027344
1686428468664279600,9.173279541015624,-79.31109619140625,-14.244384765625,91.38923645019531
1686428468674355500,9.18335546875,-78.72569274902344,-14.23077392578125,91.52529907226562
1686428468684431600,9.193431640625,-78.30462646484375,-13.889877319335938,91.39027404785156
1686428468694505700,9.203505615234375,-78.14707946777344,-13.998397827148438,91.29780578613281
1686428468704579600,9.21357958984375,-78.37800598144531,-13.908538818359375,91.22021484375
1686428468714655700,9.22365576171875,-78.61611938476562,-13.692184448242188,90.84513854980469
1686428468724730400,9.23373046875,-78.12962341308594,-13.548583984375,91.08872985839844
1686428468734805500,9.243805419921875,-77.91465759277344,-13.428298950195312,90.94139099121094
1686428468744882700,9.253882568359375,-77.79066467285156,-13.480606079101562,90.51156616210938
1686428468754958600,9.26395849609375,-77.40824890136719,-13.584823608398438,90.4287109375
1686428468765035500,9.274035400390625,-77.48533630371094,-13.60302734375,90.33543395996094
1686428468775111700,9.284111572265624,-77.528564453125,-13.474227905273438,89.97628784179688
1686428468785185500,9.294185546875,-77.25686645507812,-13.695449829101562,89.76226806640625
1686428468795261700,9.30426171875,-77.04969787597656,-13.534088134765625,89.43470764160156
1686428468805336600,9.314336669921875,-77.53533935546875,-13.37811279296875,89.28858947753906
1686428468815411500,9.324411376953124,-77.29948425292969,-13.066604614257812,89.54641723632812
1686428468825486600,9.334486572265625,-77.11161804199219,-13.40814208984375,89.06440734863281
1686428468835561500,9.3445615234375,-77.06193542480469,-13.172866821289062,89.25202941894531
1686428468845637600,9.3546376953125,-76.11643981933594,-13.428741455078125,89.09642028808594
1686428468855713500,9.364713623046875,-75.99235534667969,-13.0177001953125,88.83387756347656
1686428468865790700,9.374790771484374,-75.99490356445312,-13.021453857421875,88.86351013183594
1686428468875866600,9.38486669921875,-75.63641357421875,-12.946853637695312,88.51629638671875
1686428468885942500,9.394942626953124,-75.31997680664062,-13.469100952148438,88.73825073242188
1686428468896019500,9.40501953125,-75.0001220703125,-13.352508544921875,88.58366394042969
1686428468906096400,9.415096435546875,-75.08180236816406,-13.368331909179688,88.65676879882812
1686428468916172500,9.425172607421874,-74.529052734375,-13.308486938476562,88.43045043945312
1686428468926248400,9.43524853515625,-74.19950866699219,-13.330718994140625,87.8016357421875
1686428468936324600,9.44532470703125,-73.76799011230469,-13.0626220703125,88.04690551757812
1686428468946399700,9.455399658203126,-73.88125610351562,-12.942855834960938,87.86891174316406
1686428468956474600,9.465474609375,-73.33392333984375,-12.982589721679688,87.95069885253906
1686428468966549800,9.4755498046875,-73.37484741210938,-12.861846923828125,87.71728515625
1686428468976625700,9.485625732421875,-72.64434814453125,-12.91552734375,87.52822875976562
1686428468986700500,9.495700439453126,-72.34146118164062,-13.4425048828125,87.64773559570312
1686428468996776700,9.505776611328125,-72.53016662597656,-13.236236572265625,87.53471374511719
1686428469006851600,9.5158515625,-72.67765808105469,-13.012725830078125,87.95150756835938
1686428469016926500,9.525926513671875,-72.507080078125,-13.08319091796875,87.4547119140625
1686428469027002600,9.536002685546874,-73.47468566894531,-13.079605102539062,88.34353637695312
1686428469037079600,9.54607958984375,-73.38166809082031,-12.861068725585938,88.27755737304688
1686428469047155700,9.55615576171875,-73.59669494628906,-12.632064819335938,88.648193359375
1686428469057230600,9.566230712890626,-74.03802490234375,-12.906845092773438,89.08782958984375
1686428469067306500,9.576306396484375,-74.52656555175781,-13.152191162109375,89.78941345214844
1686428469077382700,9.586382568359374,-75.47308349609375,-13.344070434570312,90.01872253417969
1686428469087459600,9.59645947265625,-75.85687255859375,-13.28704833984375,90.22477722167969
1686428469097533400,9.606533447265624,-76.89715576171875,-13.269287109375,90.25666809082031
1686428469107608600,9.616608642578125,-77.32699584960938,-13.0880126953125,91.15715026855469
1686428469117684500,9.6266845703125,-78.38401794433594,-13.112838745117188,91.30239868164062
1686428469127761700,9.63676171875,-78.74200439453125,-12.884597778320312,91.91371154785156
1686428469137837600,9.646837646484375,-78.97856140136719,-13.091156005859375,92.071533203125
1686428469147913700,9.656913818359374,-79.70317077636719,-13.422607421875,92.29852294921875
1686428469157989400,9.6669892578125,-79.85623168945312,-13.626861572265625,92.37783813476562
1686428469168066600,9.677066650390625,-79.16508483886719,-13.538314819335938,92.69297790527344
1686428469178143200,9.687143310546874,-79.77412414550781,-13.498931884765625,92.89010620117188
1686428469188220200,9.69722021484375,-80.07765197753906,-13.493499755859375,93.40658569335938
1686428469198295000,9.707294921875,-79.83787536621094,-13.977706909179688,93.55165100097656
1686428469208371200,9.71737109375,-80.22991943359375,-13.77435302734375,94.04611206054688
1686428469218447000,9.727447021484375,-80.47422790527344,-14.137893676757812,94.18051147460938
1686428469228523300,9.737523193359374,-81.32373046875,-13.93603515625,94.36990356445312
1686428469238600200,9.74760009765625,-81.64979553222656,-14.34442138671875,94.71438598632812
1686428469248675000,9.757675048828125,-82.0189208984375,-14.2210693359375,94.99447631835938
1686428469258750200,9.767750244140625,-81.97532653808594,-14.267227172851562,95.71481323242188
1686428469268825300,9.777825439453125,-82.25611877441406,-14.587310791015625,95.9007568359375
1686428469278899200,9.787899169921875,-82.07975769042969,-14.76458740234375,96.52098083496094
1686428469288975400,9.797975341796874,-82.05857849121094,-14.770858764648438,96.34819030761719
1686428469299052300,9.80805224609375,-82.14804077148438,-14.801025390625,96.97323608398438
1686428469309127200,9.818127197265625,-82.5606689453125,-15.153549194335938,97.34739685058594
1686428469319203000,9.828203125,-82.18597412109375,-14.966278076171875,97.662109375
1686428469329278200,9.8382783203125,-82.06991577148438,-15.057403564453125,97.60069274902344
1686428469339353000,9.84835302734375,-82.46864318847656,-15.352630615234375,97.94752502441406
1686428469349429200,9.85842919921875,-82.37342834472656,-15.355438232421875,98.35395812988281
1686428469359504100,9.868504150390624,-82.55508422851562,-15.249954223632812,98.58139038085938
1686428469369579300,9.878579345703125,-82.747802734375,-15.188003540039062,98.44265747070312
1686428469379655200,9.8886552734375,-82.04904174804688,-15.270797729492188,98.726806640625
1686428469389729300,9.898729248046875,-82.10417175292969,-15.452407836914062,98.98326110839844
1686428469399804200,9.90880419921875,-81.43885803222656,-15.155868530273438,98.57803344726562
1686428469409876200,9.918876220703124,-81.40892028808594,-15.099380493164062,98.81076049804688
1686428469419951000,9.928951171875,-80.89117431640625,-14.978057861328125,98.406494140625
1686428469430024200,9.939024169921876,-80.27825927734375,-14.84375,98.564208984375
1686428469440099300,9.949099365234375,-80.523193359375,-14.82806396484375,98.10360717773438
1686428469450174200,9.95917431640625,-79.66604614257812,-14.654693603515625,97.84616088867188
1686428469460250000,9.96925,-79.68168640136719,-14.338851928710938,97.818359375
1686428469470325200,9.9793251953125,-80.01420593261719,-14.5736083984375,97.5235595703125
1686428469480400100,9.989400146484375,-80.64349365234375,-14.543807983398438,97.74105834960938
1686428469490474200,9.99947412109375,-80.56683349609375,-14.575027465820312,97.6734619140625
1686428469500549400,10.00954931640625,-80.61827087402344,-14.127212524414062,97.60171508789062
1686428469510624300,10.019624267578125,-79.66748046875,-14.447662353515625,97.24201965332031
1686428469520698400,10.029698486328124,-79.27178955078125,-14.22113037109375,97.45260620117188
1686428469530773200,10.039773193359375,-78.79107666015625,-14.421524047851562,97.11656188964844
1686428469540846000,10.04984619140625,-78.17179870605469,-14.000167846679688,96.68907165527344
1686428469550921200,10.059921142578125,-77.70452880859375,-14.005142211914062,96.76481628417969
1686428469560996400,10.069996337890625,-77.55543518066406,-13.78387451171875,96.28591918945312
1686428469571071200,10.0800712890625,-76.57272338867188,-13.578659057617188,95.80479431152344
1686428469581146400,10.090146484375,-77.24842834472656,-13.401947021484375,95.48089599609375
1686428469591220200,10.10022021484375,-76.0203857421875,-13.306350708007812,95.09321594238281
1686428469601295400,10.11029541015625,-75.96687316894531,-13.266189575195312,94.53256225585938
1686428469611370000,10.120369873046876,-75.53912353515625,-13.263595581054688,94.36062622070312
1686428469621445000,10.130445068359375,-75.48271179199219,-13.213226318359375,93.62266540527344
1686428469631521300,10.140521240234374,-75.62693786621094,-12.848281860351562,93.84629821777344
1686428469641597200,10.15059716796875,-75.92277526855469,-12.780609130859375,93.21589660644531
1686428469651671300,10.16067138671875,-75.20542907714844,-13.043807983398438,92.88885498046875
1686428469661747200,10.170747314453125,-74.98576354980469,-12.902938842773438,92.67097473144531
1686428469671821000,10.180821044921874,-74.92756652832031,-12.881576538085938,92.75520324707031
1686428469681897200,10.190897216796875,-74.78761291503906,-12.565689086914062,92.56083679199219
1686428469691974100,10.20097412109375,-74.58473205566406,-12.23626708984375,92.07781982421875
1686428469702050300,10.21105029296875,-74.3333740234375,-12.435638427734375,92.13250732421875
1686428469712125200,10.221125244140625,-73.76554870605469,-12.584243774414062,91.97264099121094
1686428469722201000,10.231201171875,-73.78474426269531,-12.14898681640625,91.39263916015625
1686428469732276200,10.241276123046875,-73.51161193847656,-12.81988525390625,91.23786926269531
1686428469742351400,10.251351318359376,-73.559326171875,-12.49835205078125,90.9288330078125
1686428469752427000,10.261427001953125,-72.96060180664062,-12.373947143554688,90.73507690429688
1686428469762502100,10.271502197265624,-73.281005859375,-12.130447387695312,90.701904296875
1686428469772577300,10.281577392578125,-72.80287170410156,-12.324111938476562,90.07823181152344
1686428469782650000,10.291650146484375,-72.94024658203125,-12.527450561523438,89.93832397460938
1686428469792725000,10.30172509765625,-72.71640014648438,-12.2421875,89.62870788574219
1686428469802800000,10.311800048828125,-72.3646240234375,-11.853851318359375,89.42457580566406
1686428469812876300,10.321876220703125,-71.86285400390625,-12.30718994140625,90.0333251953125
1686428469822951400,10.331951416015626,-71.60958862304688,-12.168502807617188,89.13641357421875
1686428469833025300,10.342025390625,-71.39378356933594,-12.39617919921875,89.17822265625
1686428469843099100,10.35209912109375,-71.15608215332031,-12.4388427734375,89.13021850585938
1686428469853172200,10.362172119140626,-71.12992858886719,-12.475906372070312,89.11140441894531
1686428469863247000,10.3722470703125,-70.68525695800781,-12.174240112304688,89.22442626953125
1686428469873322200,10.382322265625,-70.80305480957031,-12.11639404296875,88.54673767089844
1686428469883397000,10.392397216796875,-71.05715942382812,-12.435577392578125,88.62440490722656
1686428469893471200,10.40247119140625,-70.71745300292969,-12.07537841796875,88.18353271484375
1686428469903546000,10.412546142578124,-70.69621276855469,-11.959762573242188,88.43508911132812
1686428469913620200,10.4226201171875,-70.64840698242188,-12.064727783203125,88.32760620117188
1686428469923694000,10.432694091796876,-69.9063720703125,-12.071731567382812,88.12232971191406
1686428469933768200,10.442768310546874,-70.35443115234375,-11.9453125,87.88943481445312
1686428469943842000,10.452842041015625,-70.27043151855469,-11.63299560546875,87.88923645019531
1686428469953916400,10.46291650390625,-70.38267517089844,-12.353607177734375,87.64041137695312
1686428469963990300,10.472990234375,-69.97238159179688,-12.08770751953125,87.68028259277344
1686428469974064000,10.483064208984375,-70.39949035644531,-11.848892211914062,87.37043762207031
1686428469984138200,10.49313818359375,-69.96157836914062,-11.953994750976562,87.33180236816406
1686428469994214400,10.50321435546875,-70.16616821289062,-11.8504638671875,87.30470275878906
1686428470004288300,10.513288330078124,-69.43270874023438,-11.727035522460938,86.65095520019531
1686428470014363400,10.52336328125,-69.92408752441406,-11.612655639648438,86.744384765625
1686428470024438000,10.53343798828125,-69.54241943359375,-11.711349487304688,86.356689453125
1686428470034515200,10.54351513671875,-69.26817321777344,-11.85736083984375,86.00732421875
1686428470044590300,10.55359033203125,-68.64631652832031,-11.74517822265625,86.117919921875
1686428470054665200,10.563665283203125,-68.17013549804688,-11.529129028320312,85.724365234375
1686428470064742100,10.5737421875,-68.64228820800781,-11.838760375976562,85.75718688964844
1686428470074817300,10.5838173828125,-68.20228576660156,-11.714508056640625,85.56556701660156
1686428470084892200,10.59389208984375,-67.93119812011719,-11.560394287109375,85.38172912597656
1686428470094965200,10.60396533203125,-67.56483459472656,-11.843536376953125,85.24470520019531
1686428470105040400,10.614040283203124,-66.914306640625,-11.85516357421875,84.97221374511719
1686428470115116000,10.624115966796875,-66.46064758300781,-11.616806030273438,85.097900390625
1686428470125189400,10.634189453125,-65.90269470214844,-12.194595336914062,84.71730041503906
1686428470135264300,10.64426416015625,-65.74795532226562,-11.92333984375,84.73939514160156
1686428470145339100,10.654339111328126,-65.72590637207031,-12.1424560546875,84.34208679199219
1686428470155415300,10.664415283203125,-65.50527954101562,-11.57464599609375,84.16355895996094
1686428470165487400,10.6744873046875,-65.17576599121094,-12.054458618164062,84.05323791503906
1686428470175560200,10.684560302734376,-65.46562194824219,-11.631072998046875,84.29705810546875
1686428470185634300,10.69463427734375,-65.35383605957031,-11.646987915039062,84.27618408203125
1686428470195708200,10.704708251953125,-65.155029296875,-11.774505615234375,84.28959655761719
1686428470205780200,10.7147802734375,-65.5394287109375,-11.873794555664062,84.57896423339844
1686428470215854300,10.724854248046874,-65.79045104980469,-11.63250732421875,84.26608276367188
1686428470225928200,10.73492822265625,-66.20127868652344,-11.641159057617188,85.07368469238281
1686428470236003300,10.74500341796875,-66.17973327636719,-11.427459716796875,85.0830078125
1686428470246076400,10.755076416015624,-66.63423156738281,-11.456329345703125,85.63139343261719
1686428470256150300,10.765150390625,-66.990966796875,-10.988784790039062,86.01051330566406
1686428470266225400,10.775225341796874,-67.01960754394531,-10.965560913085938,86.62460327148438
1686428470276302300,10.78530224609375,-67.78668212890625,-10.857437133789062,86.92385864257812
1686428470286377500,10.79537744140625,-69.62667846679688,-10.536651611328125,87.01853942871094
1686428470296452400,10.805452392578125,-70.16419982910156,-10.450042724609375,87.53306579589844
1686428470306528300,10.8155283203125,-71.28511047363281,-9.942596435546875,88.22055053710938
1686428470316605400,10.82560546875,-72.23147583007812,-10.073898315429688,88.30482482910156
1686428470326680300,10.835680419921875,-73.00996398925781,-9.99188232421875,88.82984924316406
1686428470336756200,10.845756103515624,-73.83943176269531,-10.2503662109375,89.20405578613281
1686428470346832400,10.855832275390625,-73.28190612792969,-10.045394897460938,89.57899475097656
1686428470356908300,10.865908203125,-73.74217224121094,-9.969970703125,89.913818359375
1686428470366984400,10.875984375,-74.13796997070312,-9.930191040039062,90.05172729492188
1686428470377061400,10.886061279296875,-74.31439208984375,-9.99188232421875,90.42919921875
1686428470387137500,10.896137451171874,-74.90266418457031,-9.902420043945312,90.881591796875
1686428470397212200,10.906212158203125,-74.59461975097656,-10.05255126953125,91.02545166015625
1686428470407288300,10.916288330078125,-75.25389099121094,-9.545333862304688,91.461669921875
1686428470417364500,10.926364501953126,-76.19900512695312,-10.383621215820312,91.87832641601562
1686428470427439000,10.936439208984375,-76.83293151855469,-10.201873779296875,91.90325927734375
1686428470437514200,10.94651416015625,-77.07147216796875,-10.428131103515625,92.68843078613281
1686428470447588400,10.95658837890625,-77.44831848144531,-10.389373779296875,92.70759582519531
1686428470457662500,10.966662353515625,-77.03593444824219,-10.392364501953125,93.19705200195312
1686428470467737300,10.9767373046875,-77.52604675292969,-10.167190551757812,93.37939453125
1686428470477811500,10.9868115234375,-78.19491577148438,-10.339004516601562,94.26863098144531
1686428470487885300,10.99688525390625,-77.98501586914062,-10.585739135742188,94.5189208984375
1686428470497960400,11.00696044921875,-78.09715270996094,-10.441619873046875,95.312744140625
1686428470508035300,11.017035400390625,-78.60249328613281,-10.775802612304688,95.4886474609375
1686428470518110200,11.027110107421874,-79.10234069824219,-11.092132568359375,95.8338623046875
1686428470528185300,11.037185302734375,-78.99761962890625,-10.854156494140625,95.38343811035156
1686428470538259200,11.04725927734375,-78.99671936035156,-10.82598876953125,96.30107116699219
1686428470548334300,11.057334228515625,-79.56318664550781,-11.2135009765625,96.14559936523438
1686428470558405400,11.0674052734375,-79.14323425292969,-10.946060180664062,96.35130310058594
1686428470568477400,11.0774775390625,-79.4840087890625,-10.486175537109375,96.68121337890625
1686428470578551300,11.08755126953125,-78.84217834472656,-10.972091674804688,96.28106689453125
1686428470588623400,11.097623291015625,-78.92550659179688,-10.667236328125,96.71609497070312
1686428470598696200,11.1076962890625,-79.03582763671875,-10.536575317382812,96.92073059082031
1686428470608769500,11.11776953125,-78.90608215332031,-10.655426025390625,96.39137268066406
1686428470618844200,11.12784423828125,-78.42665100097656,-10.427993774414062,96.14961242675781
1686428470628917200,11.137917236328125,-78.15362548828125,-10.667022705078125,96.08982849121094
1686428470638991400,11.147991455078126,-78.26966857910156,-10.236434936523438,96.14825439453125
1686428470649062400,11.1580625,-78.27543640136719,-10.194000244140625,96.10658264160156
1686428470659135200,11.16813525390625,-78.14082336425781,-10.149032592773438,96.04310607910156
1686428470669209300,11.178209228515625,-78.27543640136719,-9.73834228515625,95.583984375
1686428470679280400,11.1882802734375,-78.57942199707031,-9.774002075195312,96.30110168457031
1686428470689354500,11.1983544921875,-78.2122802734375,-10.199813842773438,95.9322509765625
1686428470699428400,11.208428466796875,-77.79171752929688,-9.920944213867188,96.10861206054688
1686428470709503500,11.21850341796875,-77.28884887695312,-9.884490966796875,96.05039978027344
1686428470719577300,11.228577392578124,-77.36537170410156,-9.800552368164062,95.87802124023438
1686428470729651200,11.238651123046875,-76.53793334960938,-9.949172973632812,95.86329650878906
1686428470739726300,11.248726318359376,-76.20611572265625,-9.973922729492188,95.44291687011719
1686428470749801500,11.258801513671875,-76.24314880371094,-9.555404663085938,95.19303894042969
1686428470759874300,11.268874267578125,-76.32635498046875,-9.329986572265625,94.75930786132812
1686428470769949400,11.278949462890624,-75.14395141601562,-9.3526611328125,94.45722961425781
1686428470780024300,11.2890244140625,-74.99468994140625,-9.462478637695312,93.99061584472656
1686428470790100200,11.299100341796875,-74.71516418457031,-9.416412353515625,93.61911010742188
1686428470800175400,11.30917529296875,-74.24612426757812,-9.238357543945312,93.63838195800781
1686428470810251300,11.319251220703125,-74.21014404296875,-8.786758422851562,93.34329223632812
1686428470820327200,11.3293271484375,-74.21240234375,-8.88543701171875,93.11064147949219
1686428470830403300,11.3394033203125,-73.70817565917969,-9.071014404296875,92.71894836425781
1686428470840479500,11.3494794921875,-73.83193969726562,-8.568191528320312,92.35395812988281
1686428470850553300,11.35955322265625,-73.86627197265625,-8.872177124023438,92.43955993652344
1686428470860627500,11.36962744140625,-73.28817749023438,-8.61798095703125,91.63162231445312
1686428470870702300,11.379702392578125,-73.29449462890625,-8.633865356445312,91.73771667480469
1686428470880777500,11.389777587890626,-73.31539916992188,-8.62359619140625,91.41598510742188
1686428470890851300,11.399851318359374,-72.07882690429688,-8.697433471679688,91.56135559082031
1686428470900926500,11.409926513671875,-72.23780822753906,-8.680755615234375,91.09934997558594
1686428470911000300,11.420000244140626,-71.59043884277344,-8.797683715820312,91.20018005371094
1686428470921074400,11.430074462890625,-71.712646484375,-8.970306396484375,90.95150756835938
1686428470931148300,11.440148193359375,-72.00146484375,-8.851028442382812,90.58598327636719
1686428470941223400,11.450223388671875,-72.10755920410156,-8.820266723632812,90.29627990722656
1686428470951298300,11.46029833984375,-71.72451782226562,-8.96942138671875,90.51411437988281
1686428470961374200,11.470374267578125,-72.05056762695312,-8.643463134765625,90.29655456542969
1686428470971449300,11.480449462890626,-70.97006225585938,-8.916000366210938,89.98150634765625
1686428470981525500,11.490525390625,-70.72451782226562,-8.52301025390625,89.93382263183594
1686428470991598300,11.500598388671875,-71.07366943359375,-8.979080200195312,89.76136779785156
1686428471001673200,11.510673095703124,-70.36616516113281,-8.684814453125,89.99989318847656
1686428471011749400,11.520749267578125,-70.63258361816406,-8.689407348632812,89.73979187011719
1686428471021825300,11.5308251953125,-70.36351013183594,-8.81195068359375,89.57752990722656
1686428471031901400,11.5409013671875,-70.22322082519531,-9.090408325195312,89.42449951171875
1686428471041977300,11.550977294921875,-69.7275390625,-8.816879272460938,89.48464965820312
1686428471052052200,11.56105224609375,-69.92823791503906,-9.195449829101562,89.11093139648438
1686428471062127400,11.57112744140625,-69.77946472167969,-8.811843872070312,89.14344787597656
1686428471072199400,11.581199462890625,-69.810302734375,-9.08953857421875,89.06407165527344
1686428471082270500,11.5912705078125,-69.57492065429688,-8.870513916015625,89.05406188964844
1686428471092346400,11.601346435546875,-69.34214782714844,-8.97186279296875,88.80714416503906
1686428471102419500,11.61141943359375,-69.29328918457031,-8.6768798828125,88.27452087402344
1686428471112491300,11.6214912109375,-68.96730041503906,-8.739990234375,88.33146667480469
1686428471122565400,11.6315654296875,-68.82649230957031,-8.628860473632812,88.23764038085938
1686428471132640300,11.64164013671875,-68.91860961914062,-8.53350830078125,88.08537292480469
1686428471142715100,11.651715087890626,-69.22598266601562,-8.640151977539062,88.05177307128906
1686428471152788500,11.66178857421875,-68.35476684570312,-8.498001098632812,88.05130004882812
1686428471162862300,11.6718623046875,-68.70025634765625,-8.508331298828125,87.66238403320312
1686428471172936400,11.6819365234375,-68.08416748046875,-8.61212158203125,87.78956604003906
1686428471183010600,11.692010498046875,-68.08251953125,-8.299652099609375,87.45231628417969
1686428471193085700,11.702085693359376,-68.12376403808594,-8.293853759765625,87.49307250976562
1686428471203160600,11.71216064453125,-68.00798034667969,-8.640121459960938,87.48362731933594
1686428471213234700,11.722234619140625,-68.04423522949219,-8.275482177734375,87.44671630859375
1686428471223308500,11.73230859375,-67.61976623535156,-8.34564208984375,87.174072265625
1686428471233382400,11.74238232421875,-67.37284851074219,-8.16241455078125,87.14396667480469
1686428471243457500,11.75245751953125,-67.439453125,-8.2049560546875,86.92857360839844
1686428471253531600,11.76253173828125,-67.26017761230469,-7.9715118408203125,86.70408630371094
1686428471263604700,11.772604736328125,-67.19264221191406,-8.03350830078125,86.48377990722656
1686428471273679600,11.7826796875,-66.97908020019531,-8.01171875,86.15327453613281
1686428471283754500,11.79275439453125,-66.69235229492188,-7.932952880859375,86.06620788574219
1686428471293827600,11.80282763671875,-66.78302001953125,-7.7793426513671875,85.71975708007812
1686428471303902700,11.81290283203125,-66.5008544921875,-7.9517822265625,85.55496215820312
1686428471313976600,11.8229765625,-66.73776245117188,-7.9990081787109375,85.02102661132812
1686428471324052500,11.833052490234374,-65.76544189453125,-7.9893341064453125,84.72384643554688
1686428471334128600,11.843128662109375,-65.13739013671875,-8.140853881835938,84.47332763671875
1686428471344203500,11.85320361328125,-65.45524597167969,-8.094955444335938,84.53306579589844
1686428471354276600,11.863276611328125,-64.27433776855469,-7.9411163330078125,84.36288452148438
1686428471364349700,11.873349609375,-64.40536499023438,-8.569076538085938,83.693115234375
1686428471374424600,11.883424560546874,-63.5682373046875,-8.378448486328125,83.46418762207031
1686428471384498700,11.893498779296875,-63.276336669921875,-8.77142333984375,83.247314453125
1686428471394571500,11.903571533203126,-63.00627136230469,-8.74560546875,82.83920288085938
1686428471404646700,11.913646728515625,-62.72322082519531,-9.179473876953125,82.83818054199219
1686428471414721500,11.923721435546875,-62.8233642578125,-8.854660034179688,82.69265747070312
1686428471424793600,11.933793701171876,-62.8248291015625,-8.987045288085938,82.88009643554688
1686428471434868500,11.943868408203125,-62.451416015625,-8.7337646484375,82.49794006347656
1686428471444945700,11.953945556640624,-61.98323059082031,-8.86199951171875,82.81497192382812
1686428471455020500,11.9640205078125,-61.96961975097656,-8.931900024414062,83.22523498535156
1686428471465095400,11.974095458984374,-62.56700134277344,-9.048812866210938,83.51512145996094
1686428471475171600,11.984171630859375,-62.70368957519531,-9.017715454101562,83.2926025390625
1686428471485245400,11.994245361328124,-62.87928771972656,-9.124710083007812,83.75881958007812
1686428471495319600,12.004319580078125,-63.54638671875,-8.779510498046875,84.33245849609375
1686428471505394400,12.01439453125,-63.81396484375,-8.478240966796875,84.61183166503906
1686428471515469600,12.024469482421875,-64.23103332519531,-8.310714721679688,85.17774963378906
1686428471525543700,12.034543701171875,-65.76849365234375,-8.397262573242188,85.26223754882812
1686428471535618600,12.04461865234375,-65.73646545410156,-7.84979248046875,85.63037109375
1686428471545691400,12.05469140625,-66.70175170898438,-7.7774505615234375,85.7935791015625
1686428471555766500,12.0647666015625,-67.80526733398438,-7.921173095703125,85.98347473144531
1686428471565840400,12.07484033203125,-68.71907043457031,-7.7095794677734375,86.44270324707031
1686428471575914500,12.08491455078125,-69.9324951171875,-7.5126190185546875,86.73828125
1686428471585988600,12.094988525390624,-70.23530578613281,-7.471832275390625,87.27178955078125
1686428471596062700,12.105062744140625,-70.55790710449219,-7.561370849609375,87.52587890625
1686428471606133500,12.115133544921875,-71.33151245117188,-7.3069000244140625,87.78776550292969
1686428471616207600,12.12520751953125,-71.77508544921875,-7.4537506103515625,88.57733154296875
1686428471626282800,12.13528271484375,-72.12667846679688,-7.12103271484375,89.14697265625
1686428471636356600,12.145356689453125,-72.46409606933594,-7.5052490234375,89.12767028808594
1686428471646430500,12.155430419921874,-71.998046875,-7.5923309326171875,89.64637756347656
1686428471656506600,12.165506591796875,-72.78665161132812,-7.453826904296875,89.72727966308594
1686428471666581500,12.17558154296875,-73.26211547851562,-7.335784912109375,90.41273498535156
1686428471676656400,12.185656494140625,-73.5703125,-7.649078369140625,90.66123962402344
1686428471686731500,12.1957314453125,-74.01292419433594,-7.3902435302734375,90.78141784667969
1686428471696805400,12.205805419921875,-74.08016967773438,-7.7135162353515625,91.08662414550781
1686428471706879500,12.21587939453125,-74.401611328125,-7.81805419921875,91.44772338867188
1686428471716953600,12.22595361328125,-74.8231201171875,-7.7766265869140625,91.50767517089844
1686428471727028700,12.23602880859375,-75.47798156738281,-7.713897705078125,91.85746765136719
1686428471737104600,12.246104736328125,-75.13015747070312,-7.5721588134765625,92.2120361328125
1686428471747180500,12.2561806640625,-76.22242736816406,-7.6867218017578125,93.11631774902344
1686428471757256400,12.26625634765625,-76.03207397460938,-7.73956298828125,93.36271667480469
1686428471767331600,12.27633154296875,-76.78462219238281,-7.9682464599609375,93.90145874023438
1686428471777405400,12.286405517578125,-76.8271484375,-8.026885986328125,94.24171447753906
1686428471787480600,12.29648046875,-77.21742248535156,-7.811187744140625,94.59703063964844
1686428471797556700,12.306556640625,-77.35844421386719,-8.158737182617188,94.853759765625
1686428471807631600,12.316631591796876,-76.93748474121094,-7.954620361328125,94.888916015625
1686428471817704700,12.32670458984375,-76.691650390625,-8.079147338867188,94.98641967773438
1686428471827778600,12.336778564453125,-76.71290588378906,-7.650421142578125,95.01895141601562
1686428471837852400,12.346852294921876,-76.3785400390625,-7.8715972900390625,95.22077941894531
1686428471847926500,12.356926513671874,-76.53134155273438,-7.6539764404296875,95.05616760253906
1686428471858001400,12.36700146484375,-76.33929443359375,-7.6661376953125,95.16873168945312
1686428471868075500,12.377075439453124,-76.43083190917969,-7.72442626953125,95.13494873046875
1686428471878150400,12.387150390625,-75.8699951171875,-7.595611572265625,95.37669372558594
1686428471888225500,12.3972255859375,-75.72315979003906,-7.7148895263671875,95.05043029785156
1686428471898300700,12.40730078125,-75.45367431640625,-7.52301025390625,94.86236572265625
1686428471908375600,12.41737548828125,-75.42912292480469,-7.451690673828125,94.52183532714844
1686428471918449700,12.42744970703125,-75.28416442871094,-7.226837158203125,94.32615661621094
1686428471928524500,12.437524658203126,-75.55854797363281,-7.3050384521484375,94.51242065429688
1686428471938600400,12.447600341796875,-75.52632141113281,-7.1391754150390625,94.16146850585938
1686428471948675600,12.457675537109376,-75.62733459472656,-6.899261474609375,94.39315795898438
1686428471958749400,12.46774951171875,-75.66719055175781,-6.910400390625,93.98663330078125
1686428471968823600,12.477823486328125,-75.24095153808594,-7.06561279296875,93.82077026367188
1686428471978898400,12.4878984375,-75.13507080078125,-7.1460113525390625,93.92256164550781
1686428471988973600,12.4979736328125,-74.5474853515625,-7.2277679443359375,93.93307495117188
1686428471999049700,12.5080498046875,-73.8931884765625,-7.2490234375,93.62850952148438
1686428472009124600,12.51812451171875,-73.17184448242188,-7.34075927734375,93.13609313964844
1686428472019198700,12.52819873046875,-72.74310302734375,-7.299407958984375,93.01568603515625
1686428472029273600,12.538273681640625,-72.60516357421875,-7.4046630859375,92.58963012695312
1686428472039346700,12.5483466796875,-71.9005126953125,-7.2704315185546875,92.150390625
1686428472049420500,12.558420654296874,-72.28646850585938,-7.5566864013671875,91.68722534179688
1686428472059493600,12.56849365234375,-71.77540588378906,-7.5835113525390625,91.38801574707031
1686428472069567700,12.578567626953125,-71.42050170898438,-7.6024932861328125,90.58131408691406
1686428472079641600,12.5886416015625,-71.46522521972656,-7.80181884765625,90.19157409667969
1686428472089716700,12.598716796875,-71.10791015625,-7.8101043701171875,90.03034973144531
1686428472099787500,12.60878759765625,-71.13633728027344,-7.735595703125,89.90365600585938
1686428472109861600,12.618861572265626,-70.60250854492188,-7.76617431640625,89.89622497558594
1686428472119935500,12.628935546875,-70.79402160644531,-7.6793212890625,89.29789733886719
1686428472130009600,12.639009521484375,-70.52354431152344,-8.010910034179688,88.80158996582031
1686428472140083500,12.64908349609375,-70.61198425292969,-8.173873901367188,88.56269836425781
1686428472150157600,12.659157470703125,-70.06834411621094,-7.8513641357421875,88.4329833984375
1686428472160230700,12.669230712890625,-70.01473999023438,-8.24462890625,88.36958312988281
1686428472170304500,12.679304443359374,-69.41616821289062,-8.357223510742188,88.15345764160156
1686428472180377000,12.689377197265625,-69.236328125,-8.363449096679688,87.85188293457031
1686428472190450000,12.699449951171875,-69.0262451171875,-8.6697998046875,87.766845703125
1686428472200523800,12.709523681640626,-68.40110778808594,-8.568588256835938,87.51351928710938
1686428472210597000,12.71959716796875,-68.69528198242188,-8.899017333984375,86.92977905273438
1686428472220672000,12.729672119140625,-68.18478393554688,-8.612884521484375,86.92706298828125
1686428472230747000,12.739746826171874,-67.68606567382812,-8.747634887695312,86.73750305175781
1686428472240821800,12.74982177734375,-68.01725769042969,-8.575149536132812,86.9691162109375
1686428472250896000,12.759895751953126,-67.8350830078125,-8.71136474609375,86.52923583984375
1686428472260970000,12.769969970703125,-67.92440795898438,-8.6212158203125,86.12759399414062
1686428472271044900,12.780044921875,-68.41973876953125,-8.749404907226562,86.07582092285156
1686428472281119000,12.790118896484374,-68.01785278320312,-8.660049438476562,85.92337036132812
1686428472291193900,12.80019384765625,-67.67411804199219,-8.8236083984375,86.01893615722656
1686428472301267000,12.810266845703126,-67.1240234375,-9.058120727539062,85.56056213378906
1686428472311341000,12.820341064453125,-66.91523742675781,-9.040435791015625,85.51541137695312
1686428472321415000,12.830414794921875,-67.07856750488281,-9.084503173828125,85.13616943359375
1686428472331487000,12.840487060546875,-67.06986999511719,-9.220809936523438,85.08349609375
1686428472341559800,12.850559814453124,-66.69363403320312,-9.302413940429688,84.98550415039062
1686428472351635000,12.860635009765625,-66.51283264160156,-9.157913208007812,84.74746704101562
1686428472361708000,12.8707080078125,-66.92835998535156,-8.887771606445312,84.65640258789062
1686428472371782100,12.8807822265625,-66.77397155761719,-8.93890380859375,84.7420654296875
1686428472381857000,12.89085693359375,-66.5421142578125,-8.932693481445312,84.71823120117188
1686428472391929900,12.900929931640626,-66.87818908691406,-9.105056762695312,84.44879150390625
1686428472402005000,12.9110048828125,-66.81954956054688,-9.25244140625,84.48817443847656
1686428472412078800,12.921078857421875,-66.50010681152344,-9.165359497070312,84.11070251464844
1686428472422155000,12.931155029296875,-66.77391052246094,-9.23101806640625,84.18121337890625
1686428472432231000,12.94123095703125,-67.10751342773438,-9.247833251953125,84.0166015625
1686428472442306000,12.95130615234375,-66.54646301269531,-8.837127685546875,83.79948425292969
1686428472452380000,12.9613798828125,-66.31404113769531,-9.0035400390625,83.72611999511719
1686428472462456000,12.9714560546875,-66.40664672851562,-8.9813232421875,83.55146789550781
1686428472472531000,12.981531005859376,-66.37403869628906,-8.88262939453125,83.38896179199219
1686428472482605800,12.991605712890625,-66.68731689453125,-8.992889404296875,83.07328796386719
1686428472492682000,13.001681884765626,-66.37593078613281,-8.796951293945312,82.72613525390625
1686428472502756900,13.0117568359375,-66.91099548339844,-8.743728637695312,82.44252014160156
1686428472512829200,13.0218291015625,-66.1444091796875,-8.97393798828125,82.34233093261719
1686428472522902000,13.031902099609376,-66.39813232421875,-8.857955932617188,82.20291137695312
1686428472532975900,13.041975830078124,-65.89421081542969,-8.86785888671875,81.99612426757812
1686428472543051000,13.052051025390625,-65.676513671875,-9.1585693359375,81.54344177246094
1686428472553124900,13.062124755859376,-65.94075012207031,-8.993118286132812,81.53854370117188
1686428472563198000,13.072197998046875,-66.01255798339844,-9.224533081054688,80.74453735351562
1686428472573272000,13.08227197265625,-66.20269775390625,-9.038238525390625,80.8004150390625
