time,seconds_elapsed,z,y,x
1686424984817422000,0.094422119140625,-0.6296234130859375,-0.62530517578125,-0.0666351318359375
1686424984827367400,0.104367431640625,-0.6629638671875,-0.5968475341796875,-0.01116943359375
1686424984837313300,0.114313232421875,-0.676483154296875,-0.572113037109375,0.03326416015625
1686424984847258000,0.124258056640625,-0.6500244140625,-0.5582733154296875,0.0674591064453125
1686424984857203200,0.134203125,-0.6075897216796875,-0.5759735107421875,0.097320556640625
1686424984867148300,0.144148193359375,-0.5686187744140625,-0.6107635498046875,0.1082611083984375
1686424984877094100,0.15409423828125,-0.5438385009765625,-0.645111083984375,0.1197967529296875
1686424984887039200,0.164039306640625,-0.5399169921875,-0.66180419921875,0.12762451171875
1686424984896984000,0.173984130859375,-0.545074462890625,-0.6602935791015625,0.125701904296875
1686424984906929200,0.18392919921875,-0.5329437255859375,-0.6462554931640625,0.1160736083984375
1686424984916875000,0.193875,-0.547576904296875,-0.6693878173828125,-0.022064208984375
1686424984926820400,0.2038203125,-0.661956787109375,-0.756317138671875,-0.142913818359375
1686424984936765200,0.21376513671875,-0.7139739990234375,-0.675384521484375,0.002593994140625
1686424984946710000,0.2237099609375,-0.727294921875,-0.55218505859375,0.2015228271484375
1686424984956656000,0.23365625,-0.7725982666015625,-0.53582763671875,0.302337646484375
1686424984966601200,0.243601318359375,-0.8282623291015625,-0.560760498046875,0.34674072265625
1686424984976546300,0.25354638671875,-0.8607940673828125,-0.565704345703125,0.380401611328125
1686424984986491100,0.2634912109375,-0.8531646728515625,-0.5487213134765625,0.408416748046875
1686424984996437200,0.273437255859375,-0.8281707763671875,-0.524688720703125,0.428955078125
1686424985006382300,0.28338232421875,-0.792327880859375,-0.50897216796875,0.4324951171875
1686424985016327200,0.2933271484375,-0.757080078125,-0.491546630859375,0.4249725341796875
1686424985026272300,0.303272216796875,-0.7314300537109375,-0.477569580078125,0.42437744140625
1686424985036218000,0.313218017578125,-0.7347869873046875,-0.493377685546875,0.43963623046875
1686424985046163200,0.3231630859375,-0.7354583740234375,-0.51666259765625,0.4823455810546875
1686424985056108300,0.3331083984375,-0.714141845703125,-0.5218353271484375,0.5335235595703125
1686424985066053000,0.34305322265625,-0.675872802734375,-0.512725830078125,0.5583953857421875
1686424985075999200,0.352999267578125,-0.57916259765625,-0.455841064453125,0.5427093505859375
1686424985085944000,0.362944091796875,-0.505279541015625,-0.400604248046875,0.566070556640625
1686424985095889200,0.37288916015625,-0.4288330078125,-0.3506317138671875,0.6031036376953125
1686424985105834200,0.382834228515625,-0.3621978759765625,-0.3242034912109375,0.633697509765625
1686424985115780000,0.392780029296875,-0.3397979736328125,-0.3211822509765625,0.6332550048828125
1686424985125725200,0.40272509765625,-0.269195556640625,-0.3393402099609375,0.604217529296875
1686424985135670300,0.412670166015625,-0.2178802490234375,-0.320281982421875,0.5420074462890625
1686424985145616400,0.422616455078125,-0.2145843505859375,-0.2891998291015625,0.4517822265625
1686424985155561200,0.432561279296875,-0.2322998046875,-0.328033447265625,0.350555419921875
1686424985165506000,0.442506103515625,-0.2487640380859375,-0.399383544921875,0.2999114990234375
1686424985175451400,0.452451416015625,-0.2723388671875,-0.37078857421875,0.34381103515625
1686424985185397200,0.462397216796875,-0.2842864990234375,-0.1808929443359375,0.4146575927734375
1686424985195342300,0.47234228515625,-0.2666168212890625,-0.0124969482421875,0.4760894775390625
1686424985205287200,0.482287109375,-0.2498931884765625,-0.017059326171875,0.5063629150390625
1686424985215232300,0.492232177734375,-0.242401123046875,-0.1422271728515625,0.5254974365234375
1686424985225178400,0.502178466796875,-0.231964111328125,-0.214691162109375,0.6031951904296875
1686424985235123200,0.512123291015625,-0.345367431640625,-0.150726318359375,0.7346954345703125
1686424985245068300,0.522068359375,-0.3970947265625,0.035797119140625,0.745513916015625
1686424985255013000,0.53201318359375,-0.2794952392578125,0.2158660888671875,0.7148895263671875
1686424985264959000,0.541958984375,-0.1988983154296875,0.3018035888671875,0.797271728515625
1686424985274904300,0.551904296875,-0.0444183349609375,0.2784271240234375,0.8881072998046875
1686424985284849200,0.56184912109375,0.1402740478515625,0.2684173583984375,0.9546661376953125
1686424985294794000,0.5717939453125,0.3058624267578125,0.2634124755859375,0.981414794921875
1686424985304740000,0.581739990234375,0.47967529296875,0.222381591796875,1.0007171630859375
1686424985314685200,0.591685302734375,0.6557159423828125,0.1801605224609375,1.06207275390625
1686424985324630300,0.60163037109375,0.833465576171875,0.1153717041015625,1.1887969970703125
1686424985334575000,0.6115751953125,0.9716644287109375,0.0163421630859375,1.28131103515625
1686424985344521200,0.621521240234375,1.0699005126953125,-0.05718994140625,1.407501220703125
1686424985354466300,0.63146630859375,1.11041259765625,-0.1198577880859375,1.5612030029296875
1686424985364411100,0.6414111328125,1.106292724609375,-0.165863037109375,1.67120361328125
1686424985374356200,0.651356201171875,1.0782928466796875,-0.190460205078125,1.71783447265625
1686424985384302000,0.661302001953125,1.0324554443359375,-0.1811065673828125,1.7817230224609375
1686424985394247200,0.6712470703125,0.9691009521484375,-0.15179443359375,1.8168182373046875
1686424985404192300,0.681192138671875,0.9446258544921875,-0.11163330078125,1.79864501953125
1686424985414137000,0.69113720703125,0.97412109375,-0.0903778076171875,1.8245391845703125
1686424985424083200,0.701083251953125,1.3574066162109375,-0.063201904296875,1.9472198486328125
1686424985434028000,0.711028076171875,1.62847900390625,-0.1336212158203125,1.9315643310546875
1686424985443973400,0.720973388671875,1.1508636474609375,-0.293609619140625,1.7075347900390625
1686424985453919200,0.730919189453125,0.5374755859375,-0.344879150390625,1.4588775634765625
1686424985463864000,0.740864013671875,0.20806884765625,-0.2573699951171875,1.2426300048828125
1686424985473809200,0.75080908203125,0.187530517578125,-0.1146392822265625,1.15191650390625
1686424985483754200,0.760754150390625,0.186492919921875,-0.0169677734375,1.137786865234375
1686424985493700400,0.770700439453125,0.10296630859375,-0.0209197998046875,1.0905914306640625
1686424985503645200,0.780645263671875,0.0218505859375,-0.0360260009765625,1.01959228515625
1686424985513590000,0.790590087890625,-0.0130615234375,-0.021270751953125,0.9192352294921875
1686424985523535400,0.800535400390625,-0.0024566650390625,0.0092315673828125,0.8528594970703125
1686424985533481200,0.810481201171875,0.0230865478515625,0.0389404296875,0.8482666015625
1686424985543426300,0.82042626953125,0.023651123046875,0.086212158203125,0.8643798828125
1686424985553371100,0.83037109375,0.0107421875,0.1531829833984375,0.8659515380859375
1686424985563316200,0.840316162109375,0.0544586181640625,0.227203369140625,0.8494720458984375
1686424985573262300,0.850262451171875,0.1449432373046875,0.2868194580078125,0.8459930419921875
1686424985583207200,0.860207275390625,0.20751953125,0.30694580078125,0.842926025390625
1686424985593152300,0.87015234375,0.25830078125,0.2022247314453125,0.819732666015625
1686424985603097000,0.88009716796875,0.2920074462890625,0.00628662109375,0.7876129150390625
1686424985613043200,0.890043212890625,0.3464813232421875,-0.1304473876953125,0.7623291015625
1686424985622988300,0.89998828125,0.3644561767578125,-0.1963043212890625,0.74554443359375
1686424985632933000,0.90993310546875,0.174560546875,-0.0662384033203125,0.802032470703125
1686424985642878200,0.919878173828125,0.06219482421875,0.1999053955078125,0.934814453125
1686424985652824000,0.929823974609375,0.09722900390625,0.3912811279296875,1.016387939453125
1686424985662769200,0.93976904296875,0.081024169921875,0.4178924560546875,0.9927215576171875
1686424985672714200,0.94971435546875,0.0511932373046875,0.3343505859375,0.921722412109375
1686424985682659000,0.9596591796875,0.07440185546875,0.2183685302734375,0.8757171630859375
1686424985692605200,0.969605224609375,0.113433837890625,0.1550140380859375,0.8633575439453125
1686424985702550300,0.97955029296875,0.175811767578125,0.118560791015625,0.856536865234375
1686424985712495000,0.9894951171875,0.24517822265625,0.0694122314453125,0.8249053955078125
1686424985722441200,0.999441162109375,0.3071136474609375,-0.0312347412109375,0.8041534423828125
1686424985732386000,1.009385986328125,0.2994842529296875,-0.1251220703125,0.8275909423828125
1686424985742331400,1.019331298828125,0.209564208984375,-0.102325439453125,0.8930511474609375
1686424985752276200,1.029276123046875,0.0937042236328125,-0.0408477783203125,0.974853515625
1686424985762222000,1.03922216796875,-0.0812530517578125,-0.046356201171875,1.067657470703125
1686424985772167200,1.049167236328125,-0.0825958251953125,0.081390380859375,1.1513824462890625
1686424985782112000,1.059112060546875,0.0284423828125,0.1239166259765625,1.1651458740234375
1686424985792057000,1.06905712890625,-0.0395965576171875,0.0101776123046875,1.166656494140625
1686424985802003200,1.079003173828125,0.085662841796875,0.0411529541015625,1.163116455078125
1686424985811948000,1.088947998046875,0.1314849853515625,0.004364013671875,1.0460662841796875
1686424985821893000,1.09889306640625,0.1623382568359375,-0.085662841796875,0.9287261962890625
1686424985831838200,1.108838134765625,0.2471771240234375,-0.103515625,0.8614501953125
1686424985841784300,1.118784423828125,0.3167572021484375,-0.128570556640625,0.8080596923828125
1686424985851729200,1.128729248046875,0.2733612060546875,-0.1360015869140625,0.7340087890625
1686424985861674000,1.138674072265625,0.2484588623046875,-0.0795745849609375,0.7656707763671875
1686424985871619300,1.148619384765625,0.233917236328125,-0.005706787109375,0.815460205078125
1686424985881565200,1.158565185546875,0.2444000244140625,0.0264892578125,0.8957061767578125
1686424985891510300,1.16851025390625,0.27691650390625,-0.0043487548828125,0.9143524169921875
1686424985901455000,1.178455078125,0.322021484375,0.000885009765625,0.9750213623046875
1686424985911400200,1.188400146484375,0.3112030029296875,0.0273590087890625,0.95477294921875
1686424985921346300,1.19834619140625,0.386016845703125,0.0583648681640625,1.0261688232421875
1686424985931291100,1.208291015625,0.3865966796875,0.133026123046875,1.0715789794921875
1686424985941236200,1.218236328125,0.3187103271484375,0.2774810791015625,1.089508056640625
1686424985951182000,1.22818212890625,0.25787353515625,0.4499359130859375,1.0609130859375
1686424985961127200,1.238127197265625,0.1753692626953125,0.5841827392578125,1.0468902587890625
1686424985971072300,1.248072265625,0.0331878662109375,0.541046142578125,0.977264404296875
1686424985981017000,1.25801708984375,0.01812744140625,0.5162811279296875,1.014984130859375
1686424985990963200,1.267963134765625,0.0395965576171875,0.5318756103515625,1.093719482421875
1686424986000908000,1.277907958984375,0.0030059814453125,0.4575653076171875,1.147552490234375
1686424986010853000,1.28785302734375,-0.0720672607421875,0.36749267578125,1.0843658447265625
1686424986020798200,1.297798095703125,-0.1017303466796875,0.42083740234375,1.0121612548828125
1686424986030744000,1.307744140625,-0.1046600341796875,0.5556793212890625,0.928375244140625
1686424986040689200,1.317689208984375,-0.094451904296875,0.6837310791015625,0.7968292236328125
1686424986050634200,1.32763427734375,-0.099212646484375,0.732177734375,0.6073455810546875
1686424986060579000,1.3375791015625,-0.1090240478515625,0.704620361328125,0.425689697265625
1686424986070525200,1.347525146484375,-0.1055450439453125,0.6420745849609375,0.3270263671875
1686424986080470000,1.357469970703125,-0.093902587890625,0.65374755859375,0.2640838623046875
1686424986090415400,1.367415283203125,-0.047943115234375,0.671051025390625,0.132049560546875
1686424986100361200,1.377361328125,-0.02532958984375,0.747100830078125,0.009765625
1686424986110306300,1.387306396484375,0.038238525390625,0.5676422119140625,-0.003997802734375
1686424986120251100,1.397251220703125,0.2576141357421875,0.348419189453125,0.0537261962890625
1686424986130196000,1.407196044921875,0.34674072265625,0.4982147216796875,0.016632080078125
1686424986140142000,1.41714208984375,0.3072509765625,0.682403564453125,-0.0216064453125
1686424986150087200,1.427087158203125,0.0996856689453125,1.779815673828125,0.5725860595703125
1686424986160032000,1.437031982421875,0.134246826171875,2.595062255859375,0.3999176025390625
1686424986169977000,1.44697705078125,0.222686767578125,2.605804443359375,-0.038116455078125
1686424986179923000,1.4569228515625,0.026336669921875,2.79248046875,-0.2324371337890625
1686424986189868300,1.466868408203125,-0.0681304931640625,2.684814453125,-0.401092529296875
1686424986199813000,1.476813232421875,-0.1674346923828125,2.25,-0.4111480712890625
1686424986209758000,1.486758056640625,-0.1688690185546875,1.643035888671875,-0.25286865234375
1686424986219704000,1.4967041015625,-0.11370849609375,1.0588531494140625,-0.1387939453125
1686424986229649200,1.506649169921875,0.0070037841796875,0.6990509033203125,-0.1119384765625
1686424986239594200,1.51659423828125,0.04168701171875,0.5370025634765625,-0.0651397705078125
1686424986249540000,1.5265400390625,0.061309814453125,0.4587249755859375,0.035858154296875
1686424986259485200,1.536485107421875,0.04052734375,0.4131011962890625,0.2039031982421875
1686424986269430300,1.54643017578125,0.058013916015625,0.5624237060546875,0.151123046875
1686424986279375000,1.556375,0.1034698486328125,0.661163330078125,0.1104736328125
1686424986289321200,1.5663212890625,0.1531982421875,0.727996826171875,0.0915069580078125
1686424986299266000,1.57626611328125,0.19476318359375,0.7670745849609375,0.0610504150390625
1686424986309211100,1.586211181640625,0.214019775390625,0.7877655029296875,0.03564453125
1686424986319156200,1.59615625,0.2109527587890625,0.82476806640625,0.0548095703125
1686424986329102000,1.60610205078125,0.209197998046875,0.81951904296875,0.0821685791015625
1686424986339047200,1.616047119140625,0.222198486328125,0.7862396240234375,0.1011962890625
1686424986348992000,1.625991943359375,0.252105712890625,0.7463531494140625,0.130279541015625
1686424986358937300,1.635937255859375,0.2099609375,0.708953857421875,0.1273956298828125
1686424986368883200,1.64588330078125,0.1946258544921875,0.6824493408203125,0.13079833984375
1686424986378828000,1.655828125,0.2206268310546875,0.680572509765625,0.1351318359375
1686424986388773000,1.665773193359375,0.215576171875,0.700408935546875,0.1017913818359375
1686424986398718200,1.67571826171875,0.231231689453125,0.7425537109375,0.0621490478515625
1686424986408664300,1.685664306640625,0.2653656005859375,0.782196044921875,0.0592041015625
1686424986418609200,1.695609130859375,0.32318115234375,0.8122406005859375,0.0635223388671875
1686424986428554000,1.705553955078125,0.4133453369140625,0.8323516845703125,0.0766754150390625
1686424986438500000,1.7155,0.5042572021484375,0.878326416015625,0.0535125732421875
1686424986448445200,1.725445068359375,0.5316925048828125,0.9404296875,-0.05316162109375
1686424986458390300,1.735390380859375,0.51959228515625,1.0597381591796875,-0.16522216796875
1686424986468335000,1.745335205078125,0.4697113037109375,1.2350311279296875,-0.2259674072265625
1686424986478281200,1.75528125,0.402313232421875,1.348602294921875,-0.162811279296875
1686424986488226000,1.76522607421875,0.38134765625,1.368194580078125,-0.0540771484375
1686424986498171100,1.775171142578125,0.43975830078125,1.3619232177734375,0.0452117919921875
1686424986508116200,1.7851162109375,0.51507568359375,1.3118438720703125,0.10772705078125
1686424986518062000,1.79506201171875,0.59698486328125,1.267486572265625,0.1708526611328125
1686424986528007200,1.805007080078125,0.663421630859375,1.26470947265625,0.2548065185546875
1686424986537952300,1.8149521484375,0.635528564453125,1.2288665771484375,0.25958251953125
1686424986547897000,1.82489697265625,0.5467987060546875,1.1453704833984375,0.213836669921875
1686424986557843200,1.83484326171875,0.43572998046875,1.045166015625,0.157318115234375
1686424986567788000,1.8447880859375,0.336273193359375,0.9981231689453125,0.0895538330078125
1686424986577733000,1.854733154296875,0.251556396484375,1.0300140380859375,0.00653076171875
1686424986587679200,1.86467919921875,0.1764984130859375,1.1149749755859375,-0.1020660400390625
1686424986597624000,1.8746240234375,0.1181640625,1.2204437255859375,-0.2119293212890625
1686424986607569200,1.884569091796875,0.0820159912109375,1.304229736328125,-0.290435791015625
1686424986617514200,1.89451416015625,0.0717315673828125,1.3111114501953125,-0.3175048828125
1686424986627460400,1.90446044921875,0.08404541015625,1.2710113525390625,-0.3183746337890625
1686424986637405200,1.9144052734375,0.0997467041015625,1.2368011474609375,-0.3676300048828125
1686424986647350300,1.924350341796875,0.124908447265625,1.2006683349609375,-0.4545745849609375
1686424986657295400,1.93429541015625,0.17559814453125,1.105712890625,-0.50677490234375
1686424986667241200,1.9442412109375,0.2017059326171875,0.9439239501953125,-0.3690948486328125
1686424986677186600,1.9541865234375,0.15301513671875,0.84735107421875,-0.20928955078125
1686424986687131400,1.96413134765625,0.0870513916015625,0.8134307861328125,-0.1423492431640625
1686424986697077500,1.974077392578125,0.075469970703125,0.8212890625,-0.116424560546875
1686424986707022300,1.984022216796875,0.058013916015625,0.85565185546875,-0.1096954345703125
1686424986716967400,1.993967529296875,0.026580810546875,0.892181396484375,-0.10302734375
1686424986726912500,2.00391259765625,0.00927734375,0.9212493896484375,-0.0839385986328125
1686424986736858400,2.0138583984375,0.0002593994140625,0.9321746826171875,-0.0444793701171875
1686424986746803200,2.02380322265625,-0.0077972412109375,0.9218902587890625,0.0062713623046875
1686424986756748500,2.03374853515625,-0.01507568359375,0.9178466796875,0.03790283203125
1686424986766693400,2.043693359375,-0.02471923828125,0.9214935302734375,0.04779052734375
1686424986776639500,2.053639404296875,-0.0351104736328125,0.92626953125,0.049072265625
1686424986786584300,2.063584228515625,-0.0293731689453125,0.93560791015625,0.0693206787109375
1686424986796529400,2.073529296875,-0.030029296875,0.93243408203125,0.081024169921875
1686424986806475500,2.0834755859375,-0.0316009521484375,0.9339752197265625,0.090362548828125
1686424986816420400,2.09342041015625,0.00250244140625,0.90325927734375,0.08984375
1686424986826365400,2.103365478515625,0.03759765625,0.876800537109375,0.050384521484375
1686424986836310300,2.113310302734375,0.03802490234375,0.8905792236328125,0.028594970703125
1686424986846256400,2.12325634765625,0.0154571533203125,0.887298583984375,0.022491455078125
1686424986856201500,2.133201416015625,-0.0081329345703125,0.856964111328125,0.042938232421875
1686424986866146300,2.143146240234375,-0.01092529296875,0.8157958984375,0.0519866943359375
1686424986876091400,2.15309130859375,-0.00189208984375,0.7868499755859375,0.0718994140625
1686424986886037200,2.163037353515625,0.0042266845703125,0.7612457275390625,0.0888214111328125
1686424986895982600,2.172982666015625,0.0019073486328125,0.7257537841796875,0.095245361328125
1686424986905927400,2.182927490234375,0.01458740234375,0.7088470458984375,0.11102294921875
1686424986915873300,2.192873291015625,0.012359619140625,0.726470947265625,0.1341094970703125
1686424986925818400,2.202818359375,0.0015869140625,0.7504119873046875,0.1462860107421875
1686424986935763500,2.212763427734375,-0.0011444091796875,0.766815185546875,0.1604461669921875
1686424986945708500,2.22270849609375,0.0018463134765625,0.7861328125,0.16363525390625
1686424986955654400,2.232654296875,0.00250244140625,0.81396484375,0.157562255859375
1686424986965599200,2.24259912109375,0.0079193115234375,0.850738525390625,0.148956298828125
1686424986975544600,2.252544677734375,0.016357421875,0.8858642578125,0.1481781005859375
1686424986985489400,2.262489501953125,0.0267333984375,0.92303466796875,0.153961181640625
1686424986995435500,2.272435546875,0.0286102294921875,0.9557037353515625,0.1580657958984375
1686424987005380400,2.28238037109375,0.0353240966796875,0.9847564697265625,0.169036865234375
1686424987015325200,2.2923251953125,0.050750732421875,1.0072479248046875,0.1865692138671875
1686424987025271300,2.302271240234375,0.0757904052734375,1.0308837890625,0.2090911865234375
1686424987035216400,2.31221630859375,0.1042938232421875,1.0654449462890625,0.23773193359375
1686424987045161500,2.322161376953125,0.1273345947265625,1.107818603515625,0.25732421875
1686424987055106300,2.332106201171875,0.155059814453125,1.1627044677734375,0.2889862060546875
1686424987065052400,2.342052490234375,0.1752777099609375,1.216217041015625,0.30767822265625
1686424987074997500,2.35199755859375,0.1979217529296875,1.2652740478515625,0.3277130126953125
1686424987084942300,2.3619423828125,0.2202606201171875,1.3075103759765625,0.3495941162109375
1686424987094887400,2.371887451171875,0.239044189453125,1.3388214111328125,0.376220703125
1686424987104833300,2.381833251953125,0.2662811279296875,1.364471435546875,0.4124755859375
1686424987114778600,2.391778564453125,0.3062591552734375,1.403472900390625,0.4554901123046875
1686424987124723500,2.401723388671875,0.349761962890625,1.4472198486328125,0.48828125
1686424987134669300,2.41166943359375,0.3902130126953125,1.494293212890625,0.5001983642578125
1686424987144614400,2.421614501953125,0.4372711181640625,1.533843994140625,0.468994140625
1686424987154559500,2.4315595703125,0.50830078125,1.5580291748046875,0.4298095703125
1686424987164504300,2.44150439453125,0.5094146728515625,1.5488433837890625,0.3796234130859375
1686424987174450400,2.451450439453125,0.4124908447265625,1.5101318359375,0.3204193115234375
1686424987184395300,2.461395263671875,0.2121429443359375,1.4437103271484375,0.283294677734375
1686424987194340400,2.47134033203125,0.03472900390625,1.33184814453125,0.247314453125
1686424987204285400,2.481285400390625,-0.0463714599609375,1.201080322265625,0.22015380859375
1686424987214231600,2.4912314453125,-0.076416015625,1.0752716064453125,0.191497802734375
1686424987224176400,2.50117626953125,-0.091278076171875,0.9789886474609375,0.1696624755859375
1686424987234121200,2.511121337890625,-0.0972137451171875,0.9114227294921875,0.1377716064453125
1686424987244067300,2.5210673828125,-0.0940704345703125,0.8687744140625,0.096832275390625
1686424987254012400,2.531012451171875,-0.1060028076171875,0.872802734375,0.056854248046875
1686424987263957500,2.54095751953125,-0.137115478515625,0.9144439697265625,0.0063323974609375
1686424987273902300,2.55090234375,-0.1848602294921875,0.98370361328125,-0.0490264892578125
1686424987283848200,2.56084814453125,-0.2499542236328125,1.076324462890625,-0.1044921875
1686424987293793500,2.57079345703125,-0.30804443359375,1.165771484375,-0.1701812744140625
1686424987303738400,2.58073828125,-0.343353271484375,1.242340087890625,-0.2322998046875
1686424987313684500,2.5906845703125,-0.359375,1.3070068359375,-0.295013427734375
1686424987323629300,2.60062939453125,-0.3752899169921875,1.334197998046875,-0.3714447021484375
1686424987333574400,2.610574462890625,-0.387939453125,1.3538360595703125,-0.449188232421875
1686424987343519500,2.62051953125,-0.3314056396484375,1.340911865234375,-0.466400146484375
1686424987353465300,2.63046533203125,-0.22052001953125,1.235321044921875,-0.4734344482421875
1686424987363410400,2.640410400390625,-0.095245361328125,1.0915985107421875,-0.49468994140625
1686424987373355300,2.650355224609375,0.025726318359375,0.9153289794921875,-0.4312591552734375
1686424987383300400,2.66030029296875,0.1165008544921875,0.7420501708984375,-0.3327789306640625
1686424987393246500,2.67024658203125,0.1379547119140625,0.5865020751953125,-0.18792724609375
1686424987403191300,2.68019140625,0.1188507080078125,0.4708404541015625,-0.04254150390625
1686424987413136400,2.690136474609375,0.06146240234375,0.412109375,0.0321044921875
1686424987423082200,2.700082275390625,0.0500335693359375,0.3951568603515625,0.0354156494140625
1686424987433027600,2.710027587890625,0.0272216796875,0.4189300537109375,-0.002838134765625
1686424987442972400,2.719972412109375,-0.00018310546875,0.4640350341796875,-0.0568084716796875
1686424987452917200,2.729917236328125,-0.027252197265625,0.5169677734375,-0.0976104736328125
1686424987462863400,2.73986328125,-0.054290771484375,0.572540283203125,-0.116302490234375
1686424987472808400,2.749808349609375,-0.0812835693359375,0.613067626953125,-0.114471435546875
1686424987482753500,2.75975341796875,-0.0951690673828125,0.6502227783203125,-0.1077423095703125
1686424987492698400,2.769698486328125,-0.1051788330078125,0.68328857421875,-0.07672119140625
1686424987502644200,2.779644287109375,-0.1103515625,0.7003631591796875,-0.0408477783203125
1686424987512589600,2.789589599609375,-0.1044769287109375,0.7071990966796875,-0.0238494873046875
1686424987522534400,2.799534423828125,-0.103668212890625,0.706787109375,-0.0048675537109375
1686424987532480500,2.80948046875,-0.098388671875,0.706085205078125,0.0409393310546875
1686424987542425300,2.81942529296875,-0.0836639404296875,0.702484130859375,0.0833587646484375
1686424987552370400,2.829370361328125,-0.060150146484375,0.702392578125,0.1040496826171875
1686424987562315500,2.8393154296875,-0.0288238525390625,0.718963623046875,0.14471435546875
1686424987572261400,2.849261474609375,0.012115478515625,0.7457122802734375,0.158416748046875
1686424987582206500,2.85920654296875,0.06231689453125,0.7906341552734375,0.1820068359375
1686424987592151300,2.8691513671875,0.125885009765625,0.8583831787109375,0.1919403076171875
1686424987602096400,2.879096435546875,0.19744873046875,0.946624755859375,0.1911773681640625
1686424987612042500,2.88904248046875,0.2574462890625,1.0674896240234375,0.179718017578125
1686424987621987300,2.8989873046875,0.3011016845703125,1.266510009765625,0.10833740234375
1686424987631932400,2.908932373046875,0.3166961669921875,1.556793212890625,0.0574951171875
1686424987641878300,2.918878173828125,0.4047088623046875,1.7346954345703125,0.1695098876953125
1686424987651823600,2.92882373046875,0.60601806640625,1.70220947265625,0.3193817138671875
1686424987661768700,2.938768798828125,0.7813873291015625,1.5958099365234375,0.419921875
1686424987671713500,2.948713623046875,0.9528045654296875,1.49749755859375,0.4832916259765625
1686424987681659400,2.958659423828125,1.10113525390625,1.3931121826171875,0.41534423828125
1686424987691604700,2.968604736328125,1.1532745361328125,1.15826416015625,0.2674102783203125
1686424987701549600,2.978549560546875,1.1330413818359375,0.7720794677734375,0.0869140625
1686424987711495700,2.98849560546875,0.915069580078125,0.5457611083984375,-0.1432037353515625
1686424987721440500,2.9984404296875,0.4840545654296875,0.7382965087890625,-0.1791839599609375
1686424987731385300,3.00838525390625,0.2181549072265625,1.074676513671875,-0.1676788330078125
1686424987741330700,3.01833056640625,0.1404266357421875,1.2991485595703125,-0.246978759765625
1686424987751276500,3.028276611328125,0.1202850341796875,1.4550933837890625,-0.3045501708984375
1686424987761221600,3.0382216796875,0.190155029296875,1.526153564453125,-0.292510986328125
1686424987771166500,3.04816650390625,0.27166748046875,1.5005950927734375,-0.2621307373046875
1686424987781111600,3.058111572265625,0.2082366943359375,1.3564605712890625,-0.22735595703125
1686424987791057700,3.0680576171875,0.0933837890625,1.2008209228515625,-0.155364990234375
1686424987801002500,3.07800244140625,0.035003662109375,1.0616455078125,-0.068450927734375
1686424987810947600,3.087947509765625,0.009979248046875,0.9576416015625,-0.043975830078125
1686424987820893400,3.0978935546875,-0.0089263916015625,0.92657470703125,-0.131500244140625
1686424987830838800,3.1078388671875,-0.036712646484375,0.90887451171875,-0.23590087890625
1686424987840783600,3.11778369140625,-0.0429534912109375,0.8914794921875,-0.2773895263671875
1686424987850728400,3.127728515625,-0.0362701416015625,0.889617919921875,-0.2575531005859375
1686424987860674600,3.137674560546875,-0.0394134521484375,0.8984832763671875,-0.202301025390625
1686424987870619600,3.14761962890625,-0.0620269775390625,0.9269561767578125,-0.1474151611328125
1686424987880564500,3.157564453125,-0.084808349609375,0.98785400390625,-0.119781494140625
1686424987890510600,3.167510498046875,-0.0955047607421875,1.0428924560546875,-0.1149444580078125
1686424987900455400,3.177455322265625,-0.0999755859375,1.0908355712890625,-0.1222076416015625
1686424987910400500,3.187400390625,-0.1017303466796875,1.1257476806640625,-0.134246826171875
1686424987920345600,3.197345703125,-0.0959014892578125,1.1380615234375,-0.1259002685546875
1686424987930291700,3.207291748046875,-0.08294677734375,1.113555908203125,-0.1150054931640625
1686424987940236500,3.217236572265625,-0.06671142578125,1.0383758544921875,-0.1258087158203125
1686424987950181400,3.227181396484375,-0.049041748046875,0.9482421875,-0.1202850341796875
1686424987960127500,3.23712744140625,-0.038726806640625,0.862396240234375,-0.087005615234375
1686424987970072600,3.247072509765625,-0.0391082763671875,0.771331787109375,-0.0430145263671875
1686424987980017700,3.257017578125,-0.03759765625,0.6826019287109375,-0.00836181640625
1686424987989962500,3.26696240234375,-0.045501708984375,0.59967041015625,0.01654052734375
1686424987999908600,3.27690869140625,-0.0444793701171875,0.5424957275390625,0.017547607421875
1686424988009853700,3.286853759765625,-0.053741455078125,0.5037078857421875,-0.0091552734375
1686424988019798500,3.296798583984375,-0.067474365234375,0.4844512939453125,-0.0159759521484375
1686424988029743600,3.30674365234375,-0.0803985595703125,0.4846343994140625,-0.01519775390625
1686424988039689500,3.316689453125,-0.0903472900390625,0.5007171630859375,-0.0126495361328125
1686424988049634600,3.326634521484375,-0.1031036376953125,0.5526580810546875,-0.0355224609375
1686424988059579600,3.33657958984375,-0.1127471923828125,0.6051177978515625,-0.0483245849609375
1686424988069525500,3.346525390625,-0.1199493408203125,0.661529541015625,-0.0446624755859375
1686424988079470600,3.356470703125,-0.1236419677734375,0.7429351806640625,-0.042755126953125
1686424988089415400,3.36641552734375,-0.117767333984375,0.8297119140625,-0.0346221923828125
1686424988099360500,3.376360595703125,-0.10626220703125,0.9160003662109375,-0.0209197998046875
1686424988109306600,3.386306640625,-0.0823974609375,0.997283935546875,0.0119781494140625
1686424988119251500,3.39625146484375,-0.0551910400390625,1.0667724609375,0.0504608154296875
1686424988129196500,3.406196533203125,-0.0300140380859375,1.1241302490234375,0.07855224609375
1686424988139142400,3.416142333984375,0.0003509521484375,1.150787353515625,0.12078857421875
1686424988149087700,3.426087646484375,0.0268402099609375,1.1519317626953125,0.1655731201171875
1686424988159032600,3.436032470703125,0.049560546875,1.1429901123046875,0.198028564453125
1686424988168977400,3.445977294921875,0.0640716552734375,1.1236724853515625,0.21246337890625
1686424988178923500,3.455923583984375,0.077606201171875,1.10797119140625,0.21527099609375
1686424988188868600,3.46586865234375,0.0821380615234375,1.113037109375,0.2049560546875
1686424988198813700,3.475813720703125,0.0796966552734375,1.1362457275390625,0.189208984375
1686424988208759600,3.485759521484375,0.0675048828125,1.1694793701171875,0.2040252685546875
1686424988218704400,3.495704345703125,0.0659942626953125,1.2273712158203125,0.2251434326171875
1686424988228649700,3.505649658203125,0.073516845703125,1.2984619140625,0.2530670166015625
1686424988238594600,3.515594482421875,0.0980682373046875,1.392486572265625,0.3147735595703125
1686424988248540700,3.525540771484375,0.1368560791015625,1.4997406005859375,0.3865509033203125
1686424988258485500,3.535485595703125,0.197052001953125,1.631134033203125,0.447845458984375
1686424988268430600,3.5454306640625,0.253326416015625,1.7392120361328125,0.50860595703125
1686424988278375700,3.555375732421875,0.382049560546875,1.7296905517578125,0.564178466796875
1686424988288321500,3.565321533203125,0.5728302001953125,1.641815185546875,0.616546630859375
1686424988298266600,3.5752666015625,0.62249755859375,1.5526580810546875,0.60333251953125
1686424988308211500,3.58521142578125,0.878509521484375,1.4238433837890625,0.592742919921875
1686424988318157600,3.595157470703125,1.6932830810546875,1.1201171875,0.74853515625
1686424988328102700,3.6051025390625,0.966400146484375,1.008453369140625,0.61029052734375
1686424988338047500,3.615047607421875,0.2884521484375,1.1551361083984375,0.2983551025390625
1686424988347992600,3.62499267578125,0.0147857666015625,1.1447601318359375,0.21063232421875
1686424988357938400,3.6349384765625,-0.104644775390625,1.0655517578125,0.216522216796875
1686424988367883800,3.6448837890625,-0.1034088134765625,0.9766082763671875,0.225616455078125
1686424988377828600,3.65482861328125,-0.0779266357421875,0.9117279052734375,0.226837158203125
1686424988387774500,3.6647744140625,-0.057220458984375,0.9041290283203125,0.20843505859375
1686424988397719600,3.674719482421875,-0.0418701171875,0.934844970703125,0.1649322509765625
1686424988407664600,3.68466455078125,-0.0177459716796875,0.992706298828125,0.14306640625
1686424988417609500,3.694609375,-0.007171630859375,1.061492919921875,0.112274169921875
1686424988427555600,3.7045556640625,-0.0320892333984375,1.1643829345703125,0.0514373779296875
1686424988437500400,3.71450048828125,-0.078399658203125,1.2890625,-0.0353240966796875
1686424988447445500,3.724445556640625,-0.102752685546875,1.42169189453125,-0.13946533203125
1686424988457391600,3.7343916015625,-0.14703369140625,1.517547607421875,-0.2390899658203125
1686424988467336700,3.744336669921875,-0.2313079833984375,1.5307769775390625,-0.2897491455078125
1686424988477281500,3.754281494140625,-0.328399658203125,1.488433837890625,-0.3515625
1686424988487226400,3.764226318359375,-0.4427337646484375,1.415283203125,-0.4760284423828125
1686424988497172500,3.77417236328125,-0.4233856201171875,1.23016357421875,-0.4823760986328125
1686424988507117600,3.78411767578125,-0.24456787109375,1.02130126953125,-0.4239959716796875
1686424988517062700,3.794062744140625,-0.126373291015625,0.8564300537109375,-0.3226470947265625
1686424988527007500,3.804007568359375,-0.0389404296875,0.7349853515625,-0.245452880859375
1686424988536953600,3.81395361328125,0.1175079345703125,0.655670166015625,-0.2570343017578125
1686424988546898700,3.823898681640625,0.24920654296875,0.61846923828125,-0.2498016357421875
1686424988556843500,3.833843505859375,0.321746826171875,0.583038330078125,-0.1954803466796875
1686424988566789600,3.84378955078125,0.2774200439453125,0.5299224853515625,-0.0521087646484375
1686424988576734500,3.853734375,0.19110107421875,0.458160400390625,0.08563232421875
1686424988586679600,3.863679443359375,0.1340789794921875,0.4158935546875,0.0987701416015625
1686424988596624600,3.873624755859375,0.1173553466796875,0.3924560546875,0.036102294921875
1686424988606570500,3.883570556640625,0.0829620361328125,0.3795166015625,-0.0272369384765625
1686424988616515600,3.893515625,0.05218505859375,0.37982177734375,-0.0797882080078125
1686424988626460700,3.903460693359375,0.0088653564453125,0.3791351318359375,-0.1072235107421875
1686424988636406800,3.91340673828125,-0.0269775390625,0.385223388671875,-0.1002197265625
1686424988646351600,3.9233515625,-0.0583953857421875,0.4046478271484375,-0.0970001220703125
1686424988656296700,3.933296630859375,-0.0590362548828125,0.4247589111328125,-0.075469970703125
1686424988666241500,3.943241455078125,-0.0582733154296875,0.463897705078125,-0.068023681640625
1686424988676187600,3.953187744140625,-0.0717926025390625,0.51971435546875,-0.070587158203125
1686424988686132700,3.9631328125,-0.0761260986328125,0.582275390625,-0.075408935546875
1686424988696077600,3.97307763671875,-0.0822601318359375,0.631134033203125,-0.11358642578125
1686424988706023700,3.983023681640625,-0.0867462158203125,0.6954345703125,-0.1151275634765625
1686424988715968500,3.992968505859375,-0.0841827392578125,0.76837158203125,-0.0883636474609375
1686424988725913900,4.002913818359375,-0.0701446533203125,0.8639068603515625,-0.0746612548828125
1686424988735858700,4.012858642578125,-0.0410003662109375,0.9800262451171875,-0.0437469482421875
1686424988745804800,4.0228046875,0.03912353515625,1.1308746337890625,0.062408447265625
1686424988755749600,4.03274951171875,0.356109619140625,1.4319000244140625,0.164031982421875
1686424988765694700,4.04269482421875,0.718292236328125,2.008270263671875,0.3182373046875
1686424988775640800,4.052640869140625,0.780517578125,2.32281494140625,0.55401611328125
1686424988785585700,4.062585693359375,0.773193359375,2.098175048828125,0.6445770263671875
1686424988795530800,4.07253076171875,0.8520660400390625,1.7604827880859375,0.7064056396484375
1686424988805475600,4.0824755859375,0.9358062744140625,1.502166748046875,0.65191650390625
1686424988815421700,4.092421630859375,0.9540863037109375,1.1915435791015625,0.460052490234375
1686424988825366800,4.10236669921875,0.7572784423828125,0.800201416015625,0.3203582763671875
1686424988835311600,4.1123115234375,0.759796142578125,0.6093292236328125,0.245880126953125
1686424988845257700,4.1222578125,1.168609619140625,0.279205322265625,0.167694091796875
1686424988855202600,4.13220263671875,0.97332763671875,0.3892364501953125,0.0865020751953125
1686424988865147600,4.142147705078125,0.5343780517578125,0.78289794921875,0.071990966796875
1686424988875092700,4.1520927734375,0.3372344970703125,1.1611328125,-0.02801513671875
1686424988885038600,4.16203857421875,0.2444305419921875,1.63690185546875,-0.2460784912109375
1686424988894983700,4.171983642578125,0.2676849365234375,2.00286865234375,-0.402069091796875
1686424988904928800,4.1819287109375,0.403900146484375,2.09991455078125,-0.3706512451171875
1686424988914875000,4.191875,0.3598480224609375,1.9138946533203125,-0.33233642578125
1686424988924819700,4.20181982421875,0.1485748291015625,1.5233612060546875,-0.303497314453125
1686424988934764500,4.2117646484375,0.0229034423828125,1.191436767578125,-0.21441650390625
1686424988944710000,4.2217099609375,0.011444091796875,0.9554901123046875,-0.138214111328125
1686424988954655700,4.23165576171875,0.0243072509765625,0.847259521484375,-0.1423797607421875
1686424988964600800,4.241600830078125,0.0262908935546875,0.8336029052734375,-0.200927734375
1686424988974545700,4.251545654296875,0.02850341796875,0.8279571533203125,-0.25634765625
1686424988984491500,4.261491455078125,0.0188446044921875,0.849761962890625,-0.2800445556640625
1686424988994436900,4.271436767578125,-0.0005645751953125,0.91168212890625,-0.28179931640625
1686424989004381700,4.281381591796875,-0.0243988037109375,0.988677978515625,-0.2789306640625
1686424989014326800,4.291326904296875,-0.05010986328125,1.0446624755859375,-0.2863006591796875
1686424989024272600,4.301272705078125,-0.0690460205078125,1.089080810546875,-0.3052520751953125
1686424989034217500,4.311217529296875,-0.0785675048828125,1.10699462890625,-0.3280487060546875
1686424989044162800,4.321162841796875,-0.081298828125,1.079833984375,-0.3280029296875
1686424989054108700,4.331108642578125,-0.0694122314453125,1.0148468017578125,-0.29119873046875
1686424989064053800,4.3410537109375,-0.0552825927734375,0.921844482421875,-0.25341796875
1686424989073998600,4.35099853515625,-0.0384979248046875,0.8198089599609375,-0.2254486083984375
1686424989083943700,4.360943603515625,-0.0247650146484375,0.7403564453125,-0.2022552490234375
1686424989093889800,4.370889892578125,-0.0185089111328125,0.6695098876953125,-0.1893768310546875
1686424989103834600,4.380834716796875,-0.032379150390625,0.5988922119140625,-0.16888427734375
1686424989113779700,4.39077978515625,-0.01910400390625,0.5457000732421875,-0.1449737548828125
1686424989123724800,4.400724853515625,-0.027557373046875,0.5049591064453125,-0.17047119140625
1686424989133671000,4.4106708984375,-0.045440673828125,0.479522705078125,-0.174957275390625
1686424989143615700,4.42061572265625,-0.0653839111328125,0.4617462158203125,-0.1255645751953125
1686424989153560600,4.430560546875,-0.0675506591796875,0.44268798828125,-0.0904388427734375
1686424989163506700,4.440506591796875,-0.058563232421875,0.4440765380859375,-0.0724334716796875
1686424989173451800,4.45045166015625,-0.0554351806640625,0.4562225341796875,-0.0660247802734375
1686424989183396600,4.460396728515625,-0.048370361328125,0.4604339599609375,-0.042510986328125
1686424989193342700,4.4703427734375,-0.0354766845703125,0.4986114501953125,-0.022064208984375
1686424989203287600,4.48028759765625,-0.0254974365234375,0.5654296875,-0.01263427734375
1686424989213232600,4.490232666015625,-0.017486572265625,0.650360107421875,-0.017333984375
1686424989223177700,4.500177734375,-0.014190673828125,0.7523651123046875,-0.02679443359375
1686424989233123800,4.510123779296875,-0.0081634521484375,0.85931396484375,-0.020904541015625
1686424989243068700,4.520068603515625,0.0025634765625,0.9619598388671875,0.0125579833984375
1686424989253013500,4.530013427734375,0.0186614990234375,1.0566558837890625,0.0477447509765625
1686424989262958800,4.539958740234375,0.0376739501953125,1.1434783935546875,0.0908355712890625
1686424989272904700,4.54990478515625,0.0625152587890625,1.2264404296875,0.14105224609375
1686424989282849800,4.559849853515625,0.0869903564453125,1.2855224609375,0.1982421875
1686424989292794600,4.569794677734375,0.097503662109375,1.3184051513671875,0.2162933349609375
1686424989302740700,4.57974072265625,0.104095458984375,1.3348236083984375,0.2033538818359375
1686424989312685800,4.589685791015625,0.1100006103515625,1.3233795166015625,0.1957244873046875
1686424989322630700,4.599630615234375,0.124969482421875,1.31256103515625,0.2009735107421875
1686424989332576800,4.60957666015625,0.130889892578125,1.317108154296875,0.21539306640625
1686424989342521600,4.619521484375,0.1231689453125,1.35040283203125,0.2505340576171875
1686424989352466700,4.629466796875,0.12677001953125,1.422943115234375,0.2794647216796875
1686424989362411800,4.639411865234375,0.150177001953125,1.488250732421875,0.3366546630859375
1686424989372357600,4.649357666015625,0.168701171875,1.572540283203125,0.42236328125
1686424989382302700,4.659302734375,0.220611572265625,1.7064971923828125,0.509185791015625
1686424989392247600,4.66924755859375,0.2928466796875,1.830169677734375,0.576934814453125
1686424989402193700,4.679193603515625,0.3968505859375,1.8489532470703125,0.6469268798828125
1686424989412138800,4.689138671875,0.4808807373046875,1.7910308837890625,0.6837310791015625
1686424989422083600,4.69908349609375,0.4909210205078125,1.6546783447265625,0.6717376708984375
1686424989432028700,4.709028564453125,0.610076904296875,1.4309844970703125,0.640289306640625
1686424989441974500,4.718974609375,1.0189208984375,1.057098388671875,0.71337890625
1686424989451920000,4.728919921875,1.4158172607421875,0.6828460693359375,0.857513427734375
1686424989461864700,4.73886474609375,0.877655029296875,0.6635284423828125,0.64801025390625
1686424989471810600,4.748810546875,0.4068603515625,0.771270751953125,0.333221435546875
1686424989481755600,4.758755615234375,0.1350250244140625,0.8080596923828125,0.2243194580078125
1686424989491700700,4.76870068359375,0.008026123046875,0.824127197265625,0.164794921875
1686424989501645800,4.778645751953125,-0.014617919921875,0.8457489013671875,0.133941650390625
1686424989511591700,4.788591796875,0.0103302001953125,0.8789215087890625,0.1385650634765625
1686424989521536500,4.79853662109375,0.0399322509765625,0.9340057373046875,0.15179443359375
1686424989531481900,4.80848193359375,0.065643310546875,1.0283203125,0.146484375
1686424989541427700,4.818427734375,0.064849853515625,1.1378936767578125,0.0973968505859375
1686424989551372800,4.828372802734375,0.06787109375,1.2680511474609375,0.034942626953125
1686424989561317600,4.838317626953125,0.054840087890625,1.3708648681640625,0.0347137451171875
1686424989571262700,4.8482626953125,0.06231689453125,1.4416961669921875,0.04150390625
1686424989581208800,4.858208740234375,0.066314697265625,1.475555419921875,0.045135498046875
1686424989591153700,4.868153564453125,0.08642578125,1.4322357177734375,-0.0138397216796875
1686424989601098800,4.8780986328125,0.1127777099609375,1.3285675048828125,-0.0955810546875
1686424989611044600,4.888044677734375,0.0897674560546875,1.209136962890625,-0.117889404296875
1686424989620989700,4.89798974609375,0.029510498046875,1.10516357421875,-0.140106201171875
1686424989630934800,4.907934814453125,-0.0228424072265625,1.0209808349609375,-0.187835693359375
1686424989640879600,4.917879638671875,-0.048797607421875,0.9420318603515625,-0.2378387451171875
1686424989650825500,4.927825439453125,-0.066925048828125,0.8620758056640625,-0.3059539794921875
1686424989660770300,4.937770263671875,-0.0274505615234375,0.7932586669921875,-0.394256591796875
1686424989670715600,4.947715576171875,0.059051513671875,0.6905364990234375,-0.3192291259765625
1686424989680661500,4.95766162109375,0.1423492431640625,0.59771728515625,-0.2783355712890625
1686424989690606600,4.967606689453125,0.2412109375,0.531158447265625,-0.23309326171875
1686424989700551400,4.977551513671875,0.267303466796875,0.4660491943359375,-0.1419525146484375
1686424989710496500,4.98749658203125,0.23028564453125,0.4208984375,-0.128936767578125
1686424989720442600,4.997442626953125,0.1547088623046875,0.3952178955078125,-0.0650177001953125
1686424989730387500,5.007387451171875,0.104736328125,0.3661956787109375,-0.0160064697265625
1686424989740332500,5.01733251953125,0.07525634765625,0.3487701416015625,-0.029937744140625
1686424989750278400,5.0272783203125,0.0479888916015625,0.3466644287109375,-0.0823516845703125
1686424989760223700,5.0372236328125,0.024749755859375,0.3558197021484375,-0.1158447265625
1686424989770168600,5.04716845703125,0.0113067626953125,0.38165283203125,-0.134735107421875
1686424989780113400,5.057113525390625,-0.01898193359375,0.4117584228515625,-0.11883544921875
1686424989790059500,5.0670595703125,-0.0265045166015625,0.4600830078125,-0.1115264892578125
1686424989800004600,5.077004638671875,-0.0175018310546875,0.52490234375,-0.126190185546875
1686424989809949700,5.08694970703125,-0.007476806640625,0.6159515380859375,-0.1512908935546875
1686424989819895600,5.0968955078125,0.0013427734375,0.724456787109375,-0.192626953125
1686424989829840400,5.10684033203125,0.000640869140625,0.8334808349609375,-0.2125701904296875
1686424989839785500,5.116785400390625,0.0123443603515625,0.9564971923828125,-0.21075439453125
1686424989849730600,5.12673046875,0.0421142578125,1.1038665771484375,-0.177947998046875
1686424989859676700,5.1366767578125,0.11358642578125,1.279388427734375,-0.1139678955078125
1686424989869621500,5.14662158203125,0.3756256103515625,1.6012420654296875,0.0374755859375
1686424989879566300,5.15656640625,0.693115234375,1.9933319091796875,0.2090301513671875
1686424989889512400,5.166512451171875,0.7424468994140625,1.9479522705078125,0.3214111328125
1686424989899457500,5.17645751953125,0.6819305419921875,1.69415283203125,0.4143524169921875
1686424989909402600,5.186402587890625,0.677581787109375,1.4974365234375,0.49981689453125
1686424989919347500,5.196347412109375,0.76715087890625,1.3857421875,0.558013916015625
1686424989929293600,5.20629345703125,1.0349273681640625,1.20703125,0.4758758544921875
1686424989939238700,5.21623876953125,1.423126220703125,1.021209716796875,0.319732666015625
1686424989949183500,5.22618359375,1.380523681640625,0.681915283203125,0.0048980712890625
1686424989959129600,5.236129638671875,1.223236083984375,0.702423095703125,-0.1690216064453125
1686424989969074400,5.246074462890625,0.8175201416015625,1.0670318603515625,-0.091522216796875
1686424989979019500,5.25601953125,0.4281463623046875,1.3345794677734375,-0.0519866943359375
1686424989988964600,5.265964599609375,0.1939544677734375,1.4442596435546875,-0.163604736328125
1686424989998910500,5.275910400390625,0.157989501953125,1.4433746337890625,-0.266021728515625
1686424990008855600,5.28585546875,0.255767822265625,1.3680419921875,-0.291656494140625
1686424990018800400,5.29580029296875,0.2797393798828125,1.250701904296875,-0.273651123046875
1686424990028746500,5.30574658203125,0.244476318359375,1.119140625,-0.253021240234375
1686424990038691600,5.315691650390625,0.2064361572265625,1.0318450927734375,-0.2100830078125
1686424990048636400,5.325636474609375,0.1797027587890625,0.997711181640625,-0.20220947265625
1686424990058582500,5.33558251953125,0.177947998046875,1.015411376953125,-0.2430877685546875
1686424990068527400,5.34552734375,0.193145751953125,1.0487060546875,-0.3023834228515625
1686424990078472700,5.35547265625,0.2197265625,1.06976318359375,-0.3443603515625
1686424990088417500,5.36541748046875,0.24407958984375,1.066253662109375,-0.343658447265625
1686424990098363600,5.37536376953125,0.270751953125,1.04986572265625,-0.3246917724609375
1686424990108308500,5.38530859375,0.268402099609375,1.0204010009765625,-0.297088623046875
1686424990118253600,5.395253662109375,0.254425048828125,0.99176025390625,-0.267730712890625
1686424990128199700,5.40519970703125,0.223388671875,0.9880523681640625,-0.2687225341796875
1686424990138144500,5.41514453125,0.190460205078125,0.9828338623046875,-0.281158447265625
1686424990148089300,5.42508935546875,0.16656494140625,0.972259521484375,-0.2833099365234375
1686424990158034700,5.43503466796875,0.1529693603515625,0.956329345703125,-0.2718505859375
1686424990167980500,5.44498046875,0.1426544189453125,0.940338134765625,-0.243194580078125
1686424990177925600,5.454925537109375,0.12677001953125,0.900360107421875,-0.2021331787109375
1686424990187870500,5.464870361328125,0.11700439453125,0.85223388671875,-0.162933349609375
1686424990197816600,5.474816650390625,0.1016998291015625,0.7875823974609375,-0.1225128173828125
1686424990207761400,5.484761474609375,0.0835723876953125,0.71954345703125,-0.0892791748046875
1686424990217706500,5.49470654296875,0.063995361328125,0.654327392578125,-0.070037841796875
1686424990227651600,5.504651611328125,0.0524139404296875,0.5970458984375,-0.0424346923828125
1686424990237597400,5.514597412109375,0.0492095947265625,0.553131103515625,-0.0225067138671875
1686424990247542500,5.52454248046875,0.045928955078125,0.5160675048828125,-0.007110595703125
1686424990257487600,5.534487548828125,0.0410003662109375,0.4843597412109375,-0.0004425048828125
1686424990267433700,5.544433837890625,0.0475921630859375,0.4642486572265625,0.0135650634765625
1686424990277378600,5.554378662109375,0.0594329833984375,0.4641876220703125,0.0143280029296875
1686424990287323400,5.564323486328125,0.07354736328125,0.4805450439453125,0.0179595947265625
1686424990297269500,5.57426953125,0.0912628173828125,0.5113372802734375,0.0252685546875
1686424990307214600,5.584214599609375,0.1145782470703125,0.554656982421875,0.049224853515625
1686424990317159400,5.594159423828125,0.1381072998046875,0.629302978515625,0.039459228515625
1686424990327104500,5.6041044921875,0.1559295654296875,0.7185211181640625,0.02874755859375
1686424990337050400,5.61405029296875,0.1664886474609375,0.8052978515625,0.0202484130859375
1686424990346995700,5.62399560546875,0.175994873046875,0.888214111328125,0.00994873046875
1686424990356940500,5.6339404296875,0.1873779296875,0.9607391357421875,0.025909423828125
1686424990366886700,5.64388671875,0.1958770751953125,1.0263824462890625,0.05633544921875
1686424990376831500,5.65383154296875,0.1998291015625,1.0932769775390625,0.087890625
1686424990386776300,5.6637763671875,0.2112884521484375,1.1537628173828125,0.1063232421875
1686424990396721700,5.6737216796875,0.2257537841796875,1.212005615234375,0.1048736572265625
1686424990406667500,5.68366748046875,0.2378692626953125,1.2697906494140625,0.1023101806640625
1686424990416612600,5.693612548828125,0.2445526123046875,1.3282623291015625,0.1008453369140625
1686424990426557400,5.703557373046875,0.2436370849609375,1.3762054443359375,0.1092529296875
1686424990436503300,5.71350341796875,0.237579345703125,1.41455078125,0.114349365234375
1686424990446448600,5.72344873046875,0.2466888427734375,1.4445037841796875,0.1203460693359375
1686424990456393500,5.7333935546875,0.26348876953125,1.462432861328125,0.1312713623046875
1686424990466339600,5.743339599609375,0.2850341796875,1.4873504638671875,0.1526641845703125
1686424990476284400,5.753284423828125,0.260040283203125,1.46368408203125,0.2207183837890625
1686424990486229500,5.7632294921875,0.259979248046875,1.494293212890625,0.3159027099609375
1686424990496174600,5.773174560546875,0.3704071044921875,1.5980682373046875,0.3428802490234375
1686424990506120400,5.783120361328125,0.4093170166015625,1.578399658203125,0.3952484130859375
1686424990516065500,5.7930654296875,0.386199951171875,1.5431671142578125,0.4078826904296875
1686424990526010600,5.8030107421875,0.3546142578125,1.4554901123046875,0.420379638671875
1686424990535956700,5.812956787109375,0.369293212890625,1.3869781494140625,0.4644012451171875
1686424990545901600,5.822901611328125,0.390625,1.2745819091796875,0.4719696044921875
1686424990555846400,5.832846435546875,0.3841705322265625,1.0863494873046875,0.477264404296875
1686424990565791500,5.84279150390625,0.41748046875,0.9157562255859375,0.4698944091796875
1686424990575737600,5.852737548828125,0.4783782958984375,0.787353515625,0.433563232421875
1686424990585682700,5.8626826171875,0.5708770751953125,0.6738433837890625,0.3890533447265625
1686424990595627500,5.87262744140625,0.674102783203125,0.6233978271484375,0.333038330078125
1686424990605573400,5.882573486328125,0.7186126708984375,0.6832427978515625,0.2433624267578125
1686424990615518500,5.8925185546875,0.6074066162109375,0.852691650390625,0.1087799072265625
1686424990625463600,5.902463623046875,0.3918304443359375,1.072174072265625,0.0496978759765625
1686424990635409700,5.91240966796875,0.2386627197265625,1.2583465576171875,0.0283050537109375
1686424990645354500,5.9223544921875,0.152191162109375,1.39031982421875,-0.0154571533203125
1686424990655299000,5.932299072265625,0.1269378662109375,1.4040679931640625,-0.012847900390625
1686424990665244000,5.942243896484375,0.11212158203125,1.370147705078125,-0.0206298828125
1686424990675190000,5.95218994140625,0.1145172119140625,1.315338134765625,-0.0650482177734375
1686424990685134800,5.962134765625,0.12738037109375,1.2433929443359375,-0.104339599609375
1686424990695080000,5.972079833984375,0.1486358642578125,1.164794921875,-0.1394805908203125
1686424990705025800,5.98202587890625,0.1757354736328125,1.0894012451171875,-0.1744842529296875
1686424990714971000,5.991970947265625,0.1590118408203125,0.986480712890625,-0.14837646484375
1686424990724916000,6.001916015625,0.1297607421875,0.87994384765625,-0.1276397705078125
1686424990734860800,6.01186083984375,0.11297607421875,0.7871551513671875,-0.1224822998046875
1686424990744807000,6.021806884765625,0.10198974609375,0.70880126953125,-0.1220550537109375
1686424990754752000,6.031751953125,0.08721923828125,0.644012451171875,-0.119720458984375
1686424990764696800,6.04169677734375,0.06817626953125,0.58795166015625,-0.128753662109375
1686424990774643000,6.051642822265625,0.0601043701171875,0.560028076171875,-0.15118408203125
1686424990784587800,6.061587890625,0.0476837158203125,0.5390472412109375,-0.1774444580078125
1686424990794533000,6.071533203125,0.0438385009765625,0.5253753662109375,-0.202545166015625
1686424990804479000,6.08147900390625,0.045989990234375,0.51080322265625,-0.1952972412109375
1686424990814424000,6.091424072265625,0.0405731201171875,0.486480712890625,-0.16729736328125
1686424990824369000,6.101368896484375,0.033111572265625,0.476043701171875,-0.1544189453125
1686424990834314000,6.11131396484375,0.0300140380859375,0.49859619140625,-0.150543212890625
1686424990844260000,6.121260009765625,0.02862548828125,0.523681640625,-0.1483154296875
1686424990854205000,6.131204833984375,0.0279693603515625,0.542144775390625,-0.1474456787109375
1686424990864150000,6.14114990234375,0.0249176025390625,0.565582275390625,-0.145416259765625
1686424990874095900,6.151095947265625,0.0294036865234375,0.6020355224609375,-0.1591949462890625
1686424990884041000,6.161041015625,0.054443359375,0.633209228515625,-0.1685791015625
1686424990893986000,6.170986083984375,0.1053924560546875,0.627716064453125,-0.1098175048828125
1686424990903931000,6.180930908203125,0.1448211669921875,0.6669921875,-0.0622711181640625
1686424990913877000,6.190876953125,0.1752471923828125,0.76165771484375,-0.048553466796875
1686424990923821800,6.20082177734375,0.1941375732421875,0.8877105712890625,-0.0478363037109375
1686424990933767000,6.210766845703125,0.2205810546875,1.020233154296875,-0.051422119140625
1686424990943713000,6.220713134765625,0.2537994384765625,1.1526336669921875,-0.051483154296875
1686424990953657900,6.230657958984375,0.3940277099609375,1.2723388671875,-0.043670654296875
1686424990963603000,6.24060302734375,0.6266937255859375,1.4479522705078125,0.037689208984375
1686424990973548800,6.250548828125,0.657440185546875,1.7635040283203125,0.137420654296875
1686424990983494100,6.260494140625,0.5498809814453125,1.82989501953125,0.2342681884765625
1686424990993439000,6.27043896484375,0.65765380859375,1.690704345703125,0.424163818359375
1686424991003383800,6.2803837890625,0.781402587890625,1.500152587890625,0.5267181396484375
1686424991013330000,6.290329833984375,0.74896240234375,1.2218017578125,0.53399658203125
1686424991023275000,6.30027490234375,0.8107452392578125,0.9630584716796875,0.5295867919921875
1686424991033220000,6.31022021484375,0.9456634521484375,0.71820068359375,0.448974609375
1686424991043166000,6.320166015625,0.9254302978515625,0.505157470703125,0.247528076171875
1686424991053110800,6.33011083984375,0.700836181640625,0.5754547119140625,0.0879974365234375
1686424991063056000,6.340055908203125,0.42822265625,0.87164306640625,0.030029296875
1686424991073001000,6.3500009765625,0.268463134765625,1.173095703125,-0.050811767578125
1686424991082947000,6.359947021484375,0.1946258544921875,1.40631103515625,-0.1404876708984375
1686424991092892000,6.369891845703125,0.2099456787109375,1.4810333251953125,-0.256866455078125
1686424991102836700,6.379836669921875,0.217071533203125,1.4561614990234375,-0.250701904296875
1686424991112782800,6.389782958984375,0.1601104736328125,1.415679931640625,-0.1892547607421875
1686424991122728000,6.39972802734375,0.0778961181640625,1.3545074462890625,-0.167510986328125
1686424991132673000,6.409673095703125,0.0222625732421875,1.2951202392578125,-0.1714324951171875
1686424991142619000,6.419618896484375,0.0015716552734375,1.2210845947265625,-0.190338134765625
1686424991152564000,6.42956396484375,0.0019378662109375,1.118865966796875,-0.2290802001953125
1686424991162509000,6.439509033203125,0.03338623046875,1.019805908203125,-0.2452850341796875
1686424991172454000,6.449453857421875,0.0579071044921875,0.9630584716796875,-0.2425079345703125
1686424991182400000,6.45939990234375,0.07354736328125,0.946044921875,-0.2333221435546875
1686424991192344800,6.4693447265625,0.081298828125,0.9591522216796875,-0.2032470703125
1686424991202290200,6.479290283203125,0.07733154296875,1.001708984375,-0.170196533203125
1686424991212236000,6.489236083984375,0.06182861328125,1.0574951171875,-0.1455230712890625
1686424991222180900,6.499180908203125,0.0527496337890625,1.10284423828125,-0.1302490234375
1686424991232126000,6.5091259765625,0.046417236328125,1.14239501953125,-0.1186065673828125
1686424991242071800,6.51907177734375,0.0518951416015625,1.1519927978515625,-0.0966339111328125
1686424991252017000,6.529016845703125,0.0482330322265625,1.1217193603515625,-0.0777130126953125
1686424991261962000,6.5389619140625,0.0333709716796875,1.0587921142578125,-0.05712890625
1686424991271906800,6.54890673828125,0.023712158203125,0.9723663330078125,-0.028961181640625
1686424991281853000,6.55885302734375,0.0163116455078125,0.8764190673828125,0.0035858154296875
1686424991291797800,6.5687978515625,0.007293701171875,0.779022216796875,0.029083251953125
1686424991301743000,6.5787431640625,0.0048675537109375,0.6879730224609375,0.0489501953125
1686424991311689000,6.58868896484375,0.007049560546875,0.6049957275390625,0.059539794921875
1686424991321634000,6.598634033203125,0.0048980712890625,0.5407867431640625,0.0669097900390625
1686424991331579000,6.608578857421875,0.0025634765625,0.490936279296875,0.074798583984375
1686424991341524700,6.618524658203125,-0.01068115234375,0.4561309814453125,0.0705718994140625
1686424991351470000,6.628469970703125,-0.0057220458984375,0.4300537109375,0.057373046875
1686424991361415000,6.638414794921875,-0.0040435791015625,0.4265289306640625,0.036773681640625
1686424991371359700,6.64835986328125,0.004852294921875,0.444305419921875,0.026397705078125
1686424991381305900,6.658305908203125,0.0270843505859375,0.478668212890625,0.0188751220703125
1686424991391251000,6.6682509765625,0.0562286376953125,0.5288543701171875,0.007720947265625
1686424991401196000,6.678196044921875,0.07965087890625,0.5997772216796875,0.0059967041015625
1686424991411142000,6.688141845703125,0.10235595703125,0.67669677734375,0.01983642578125
1686424991421087000,6.6980869140625,0.1298675537109375,0.763427734375,0.031097412109375
1686424991431032000,6.708031982421875,0.1642913818359375,0.851165771484375,0.0359954833984375
1686424991440978200,6.717978271484375,0.2004852294921875,0.9331207275390625,0.035430908203125
1686424991450923000,6.727923095703125,0.222137451171875,1.000457763671875,0.0336151123046875
1686424991460867800,6.737867919921875,0.231201171875,1.0526885986328125,0.0507354736328125
1686424991470813000,6.74781298828125,0.235687255859375,1.0958709716796875,0.06378173828125
1686424991480758800,6.7577587890625,0.2382354736328125,1.1360321044921875,0.0666656494140625
1686424991490704100,6.7677041015625,0.2387542724609375,1.173095703125,0.072967529296875
1686424991500649000,6.77764892578125,0.2167510986328125,1.2054443359375,0.0754547119140625
1686424991510594800,6.7875947265625,0.21051025390625,1.2330169677734375,0.099853515625
1686424991520540000,6.797539794921875,0.19427490234375,1.261505126953125,0.109283447265625
1686424991530485000,6.807485107421875,0.1690521240234375,1.292144775390625,0.1302947998046875
1686424991540431000,6.81743115234375,0.1723175048828125,1.2977142333984375,0.1717681884765625
1686424991550376000,6.8273759765625,0.242919921875,1.3060150146484375,0.22088623046875
1686424991560320800,6.83732080078125,0.348358154296875,1.377685546875,0.2824249267578125
1686424991570266000,6.84726611328125,0.4003448486328125,1.49798583984375,0.3354949951171875
1686424991580212000,6.8572119140625,0.3886566162109375,1.629364013671875,0.3770599365234375
1686424991590157000,6.867156982421875,0.3643951416015625,1.714111328125,0.4516143798828125
1686424991600102000,6.877101806640625,0.373779296875,1.7221832275390625,0.54644775390625
1686424991610048000,6.887048095703125,0.47314453125,1.65576171875,0.6184844970703125
1686424991619993000,6.8969931640625,0.8702850341796875,1.4414825439453125,0.7630615234375
1686424991629938000,6.90693798828125,0.9259490966796875,1.19415283203125,0.792694091796875
1686424991639884000,6.916884033203125,0.539947509765625,1.1866455078125,0.4636383056640625
1686424991649828900,6.926828857421875,0.2851104736328125,1.1904296875,0.2247161865234375
1686424991659774700,6.936774658203125,0.167144775390625,1.1013641357421875,0.158294677734375
1686424991669719800,6.9467197265625,0.078216552734375,1.043365478515625,0.1287841796875
1686424991679666000,6.956666015625,0.034576416015625,1.0058746337890625,0.10858154296875
1686424991689610800,6.96661083984375,0.021453857421875,0.969451904296875,0.0967864990234375
1686424991699555800,6.976555908203125,0.0134124755859375,0.9768829345703125,0.081390380859375
1686424991709501700,6.986501708984375,0.0106964111328125,1.03948974609375,0.0466156005859375
1686424991719446800,6.99644677734375,0.0102996826171875,1.13214111328125,0.0072021484375
1686424991729391900,7.006391845703125,0.0048370361328125,1.2218780517578125,-0.0239410400390625
1686424991739336700,7.016336669921875,-0.0129241943359375,1.3061370849609375,-0.1002197265625
1686424991749282800,7.02628271484375,0.004669189453125,1.3407745361328125,-0.149566650390625
1686424991759227600,7.0362275390625,0.0148468017578125,1.330810546875,-0.1764678955078125
1686424991769173000,7.046173095703125,0.022369384765625,1.287506103515625,-0.1885833740234375
1686424991779118800,7.056118896484375,0.0224151611328125,1.212371826171875,-0.1909027099609375
1686424991789064000,7.06606396484375,0.0070648193359375,1.1234893798828125,-0.2050933837890625
1686424991799008800,7.0760087890625,-0.0107269287109375,1.0304412841796875,-0.226470947265625
1686424991808954600,7.08595458984375,-0.03021240234375,0.94207763671875,-0.2646484375
1686424991818900000,7.09589990234375,0.00164794921875,0.8903961181640625,-0.3567352294921875
1686424991828844800,7.1058447265625,0.0457000732421875,0.79937744140625,-0.2836151123046875
1686424991838789600,7.11578955078125,0.0848846435546875,0.7023468017578125,-0.2152557373046875
1686424991848735700,7.12573583984375,0.145782470703125,0.621124267578125,-0.159576416015625
1686424991858680800,7.135680908203125,0.1945953369140625,0.557586669921875,-0.103271484375
1686424991868626000,7.1456259765625,0.226226806640625,0.51641845703125,-0.03033447265625
1686424991878571800,7.15557177734375,0.2022247314453125,0.4891357421875,0.037200927734375
1686424991888516900,7.165516845703125,0.1493072509765625,0.4381561279296875,0.0614776611328125
1686424991898461700,7.175461669921875,0.13153076171875,0.3950347900390625,0.007476806640625
1686424991908407800,7.18540771484375,0.076141357421875,0.3799285888671875,-0.050811767578125
1686424991918353000,7.195352783203125,0.0296478271484375,0.3726043701171875,-0.090240478515625
1686424991928297700,7.205297607421875,-0.008331298828125,0.3787384033203125,-0.115020751953125
1686424991938242800,7.215242919921875,-0.037689208984375,0.3971710205078125,-0.1319427490234375
1686424991948188700,7.225188720703125,-0.05035400390625,0.4340057373046875,-0.135223388671875
1686424991958134000,7.235134033203125,-0.055084228515625,0.4845123291015625,-0.1233978271484375
1686424991968078800,7.245078857421875,-0.0506134033203125,0.553253173828125,-0.1069488525390625
1686424991978024700,7.255024658203125,-0.0450286865234375,0.6285858154296875,-0.097930908203125
1686424991987969800,7.2649697265625,-0.0413970947265625,0.7076568603515625,-0.0872802734375
1686424991997915000,7.274914794921875,-0.029541015625,0.7912445068359375,-0.061981201171875
1686424992007861000,7.284861083984375,-0.0010833740234375,0.876556396484375,-0.0330657958984375
1686424992017805800,7.294805908203125,0.0458221435546875,0.96319580078125,0.0095672607421875
1686424992027750700,7.304750732421875,0.105987548828125,1.036529541015625,0.0417022705078125
1686424992037696800,7.31469677734375,0.1876220703125,1.13714599609375,0.088592529296875
1686424992047641900,7.324641845703125,0.3470001220703125,1.24481201171875,0.2110137939453125
1686424992057587000,7.3345869140625,0.6477813720703125,1.383270263671875,0.400146484375
1686424992067531800,7.34453173828125,0.7303314208984375,1.6296539306640625,0.429046630859375
1686424992077478000,7.354477783203125,0.609649658203125,1.675537109375,0.3221435546875
1686424992087422700,7.364422607421875,0.571014404296875,1.548187255859375,0.306793212890625
1686424992097367800,7.374367919921875,0.718780517578125,1.453582763671875,0.446380615234375
1686424992107314000,7.38431396484375,0.9900665283203125,1.34967041015625,0.5921783447265625
1686424992117258800,7.3942587890625,1.317047119140625,1.1692962646484375,0.559783935546875
1686424992127203600,7.40420361328125,1.42938232421875,0.7556304931640625,0.2691497802734375
1686424992137149700,7.414149658203125,1.2769012451171875,0.3701171875,0.055633544921875
1686424992147094800,7.4240947265625,0.860687255859375,0.5594635009765625,0.07769775390625
1686424992157039900,7.434039794921875,0.4351348876953125,0.96539306640625,0.107635498046875
1686424992166984700,7.443984619140625,0.219970703125,1.2695770263671875,0.024932861328125
1686424992176930800,7.453930908203125,0.1385955810546875,1.53118896484375,-0.0611724853515625
1686424992186876000,7.4638759765625,0.1496429443359375,1.663818359375,-0.173309326171875
1686424992196820700,7.47382080078125,0.2580108642578125,1.5908050537109375,-0.200775146484375
1686424992206766800,7.483766845703125,0.325897216796875,1.49346923828125,-0.13555908203125
1686424992216711700,7.493711669921875,0.2483367919921875,1.3865814208984375,-0.079193115234375
1686424992226657000,7.503656982421875,0.0788726806640625,1.284210205078125,-0.066314697265625
1686424992236603000,7.513602783203125,-0.0641021728515625,1.1912841796875,-0.0985107421875
1686424992246548000,7.5235478515625,-0.1401214599609375,1.128173828125,-0.1109619140625
1686424992256492800,7.533492919921875,-0.1928863525390625,1.11541748046875,-0.1311187744140625
1686424992266438000,7.54343798828125,-0.1995849609375,1.11224365234375,-0.1535491943359375
1686424992276384000,7.553384033203125,-0.1432647705078125,1.095947265625,-0.1594696044921875
1686424992286328800,7.563328857421875,-0.0866851806640625,1.07080078125,-0.16558837890625
1686424992296273700,7.573273681640625,-0.0608673095703125,1.0572357177734375,-0.1347808837890625
1686424992306219800,7.5832197265625,-0.0699310302734375,1.069488525390625,-0.095245361328125
1686424992316164600,7.59316455078125,-0.090301513671875,1.1125030517578125,-0.0655975341796875
1686424992326110000,7.60310986328125,-0.09161376953125,1.146240234375,-0.0564727783203125
1686424992336055800,7.613055908203125,-0.0968780517578125,1.11444091796875,-0.0462799072265625
1686424992346001000,7.6230009765625,-0.1078643798828125,1.057891845703125,-0.01141357421875
1686424992355945700,7.63294580078125,-0.1226348876953125,0.988250732421875,0.0147247314453125
1686424992365891800,7.642891845703125,-0.120208740234375,0.896453857421875,0.041748046875
1686424992375837000,7.6528369140625,-0.112548828125,0.8084564208984375,0.0650634765625
1686424992385781800,7.66278173828125,-0.106964111328125,0.7024688720703125,0.0638275146484375
1686424992395726800,7.672726806640625,-0.0969085693359375,0.5894012451171875,0.0626983642578125
1686424992405672700,7.682672607421875,-0.091888427734375,0.5039825439453125,0.059356689453125
1686424992415617800,7.69261767578125,-0.085906982421875,0.4440765380859375,0.0577545166015625
1686424992425563000,7.70256298828125,-0.080322265625,0.427947998046875,0.0519866943359375
1686424992435508700,7.7125087890625,-0.08001708984375,0.4558868408203125,0.0500030517578125
1686424992445453800,7.722453857421875,-0.0780487060546875,0.5124664306640625,0.0606231689453125
1686424992455399000,7.73239892578125,-0.0852813720703125,0.552154541015625,0.050567626953125
1686424992465345000,7.742344970703125,-0.0809173583984375,0.5749969482421875,0.0107879638671875
1686424992475289900,7.752289794921875,-0.080902099609375,0.5736236572265625,-0.0251617431640625
1686424992485234700,7.762234619140625,-0.0744171142578125,0.5882415771484375,-0.0419769287109375
1686424992495179800,7.7721796875,-0.068817138671875,0.6215057373046875,-0.0436859130859375
1686424992505126000,7.7821259765625,-0.0588836669921875,0.654998779296875,-0.002197265625
1686424992515071000,7.792071044921875,-0.0348663330078125,0.6994781494140625,0.071136474609375
1686424992525015800,7.802015869140625,0.012359619140625,0.8053131103515625,0.1219329833984375
1686424992534961700,7.811961669921875,0.07098388671875,0.99261474609375,0.133209228515625
1686424992544906800,7.82190673828125,0.1109619140625,1.16741943359375,0.168792724609375
1686424992554851800,7.831851806640625,0.1288299560546875,1.2858123779296875,0.2409515380859375
1686424992564798000,7.8417978515625,0.1350860595703125,1.3195648193359375,0.2885284423828125
1686424992574742800,7.85174267578125,0.1580657958984375,1.294952392578125,0.3140411376953125
1686424992584687600,7.8616875,0.2140045166015625,1.2418670654296875,0.314544677734375
1686424992594633700,7.8716337890625,0.3244781494140625,1.17138671875,0.2798614501953125
1686424992604578800,7.881578857421875,0.5879058837890625,1.1044921875,0.26519775390625
1686424992614524000,7.89152392578125,1.0928955078125,1.0514068603515625,0.2810821533203125
1686424992624468700,7.90146875,1.305755615234375,1.1677703857421875,0.2364959716796875
1686424992634414800,7.911414794921875,1.3464813232421875,1.3476715087890625,0.1873626708984375
1686424992644360000,7.92135986328125,1.1990814208984375,1.5209503173828125,0.231048583984375
1686424992654304300,7.93130419921875,0.8404388427734375,1.6123504638671875,0.2471923828125
1686424992664250000,7.94125,0.478912353515625,1.656402587890625,0.2437896728515625
1686424992674195000,7.95119482421875,0.2175445556640625,1.676116943359375,0.25714111328125
1686424992684140300,7.961140380859375,0.0189208984375,1.7157135009765625,0.3177337646484375
1686424992694086100,7.971086181640625,-0.161712646484375,1.6994171142578125,0.292572021484375
1686424992704031200,7.98103125,-0.218658447265625,1.617889404296875,0.3149566650390625
1686424992713976000,7.99097607421875,-0.2570343017578125,1.503753662109375,0.3444366455078125
1686424992723921200,8.000921142578125,-0.226165771484375,1.3377532958984375,0.2988739013671875
1686424992733867300,8.0108671875,-0.1642913818359375,1.1949615478515625,0.2838287353515625
1686424992743812000,8.02081201171875,-0.1262054443359375,1.0823211669921875,0.2621307373046875
1686424992753757200,8.030757080078125,-0.0951385498046875,1.00128173828125,0.2313690185546875
1686424992763703000,8.040703125,-0.08673095703125,0.9494781494140625,0.18438720703125
1686424992773648400,8.0506484375,-0.1026763916015625,0.91912841796875,0.13629150390625
1686424992783593200,8.06059326171875,-0.146697998046875,0.9049530029296875,0.061798095703125
1686424992793539000,8.0705390625,-0.20166015625,0.9110107421875,-0.03094482421875
1686424992803484200,8.080484130859375,-0.266998291015625,0.95806884765625,-0.14910888671875
1686424992813429000,8.090428955078124,-0.3428497314453125,1.03912353515625,-0.29400634765625
1686424992823375000,8.100375,-0.427642822265625,1.151641845703125,-0.497802734375
1686424992833320200,8.1103203125,-0.4720611572265625,1.2820281982421875,-0.69964599609375
1686424992843265000,8.12026513671875,-0.4407501220703125,1.4010009765625,-0.773345947265625
1686424992853210000,8.130210205078125,-0.3407440185546875,1.496490478515625,-0.633270263671875
1686424992863156000,8.140156005859374,-0.2439117431640625,1.44378662109375,-0.420166015625
1686424992873101300,8.150101318359376,-0.123199462890625,1.1604156494140625,-0.3791961669921875
1686424992883046100,8.160046142578125,-0.0065460205078125,0.84197998046875,-0.4380340576171875
1686424992892992300,8.1699921875,0.05963134765625,0.6484832763671875,-0.42657470703125
1686424992902937000,8.17993701171875,0.0997314453125,0.530792236328125,-0.294647216796875
1686424992912882200,8.189882080078124,0.112823486328125,0.457733154296875,-0.1282501220703125
1686424992922828300,8.199828369140626,0.084716796875,0.4241943359375,0.037322998046875
1686424992932773000,8.209773193359375,0.08953857421875,0.453643798828125,0.129364013671875
1686424992942718200,8.21971826171875,0.1067047119140625,0.4364013671875,0.1113433837890625
1686424992952664000,8.2296640625,0.0860748291015625,0.4466094970703125,0.1103668212890625
1686424992962609200,8.239609130859375,0.0726470947265625,0.484619140625,0.100555419921875
1686424992972554200,8.24955419921875,0.0585479736328125,0.4981842041015625,0.068695068359375
1686424992982499000,8.2594990234375,0.009796142578125,0.4761505126953125,0.0198974609375
1686424992992445200,8.269445068359374,-0.015228271484375,0.4840240478515625,0.0124359130859375
1686424993002390300,8.279390380859375,-0.0343475341796875,0.4907989501953125,0.0004730224609375
1686424993012335000,8.289335205078125,-0.0252227783203125,0.5,0.023162841796875
1686424993022281200,8.29928125,-0.0245361328125,0.508819580078125,0.0496826171875
1686424993032226000,8.30922607421875,-0.0316619873046875,0.5273895263671875,0.0590362548828125
1686424993042171100,8.319171142578124,-0.027862548828125,0.5730133056640625,0.06158447265625
1686424993052117000,8.329116943359375,-0.0213775634765625,0.62890625,0.0574493408203125
1686424993062062300,8.339062255859375,-0.0035858154296875,0.687744140625,0.0598602294921875
1686424993072007200,8.349007080078126,0.041534423828125,0.7558135986328125,0.0698089599609375
1686424993081953000,8.358953125,0.140289306640625,0.82989501953125,0.063629150390625
1686424993091898000,8.368898193359374,0.2485198974609375,0.9144439697265625,0.02490234375
1686424993101843200,8.37884326171875,0.3281097412109375,0.9995269775390625,-0.0223541259765625
1686424993111788000,8.3887880859375,0.364166259765625,1.1032562255859375,-0.071441650390625
1686424993121734100,8.398734130859374,0.3526611328125,1.221771240234375,-0.116790771484375
1686424993131679000,8.408678955078125,0.296844482421875,1.35980224609375,-0.1514434814453125
1686424993141624300,8.418624267578124,0.2146453857421875,1.528656005859375,-0.187896728515625
1686424993151570200,8.428570068359376,0.2433929443359375,1.7126617431640625,-0.1262359619140625
1686424993161515300,8.438515380859375,0.5303955078125,1.80474853515625,0.0528106689453125
1686424993171460000,8.448460205078124,0.9655914306640625,1.726806640625,0.201141357421875
1686424993181406200,8.45840625,1.206756591796875,1.6126251220703125,0.2264556884765625
1686424993191351300,8.468351318359375,1.1113739013671875,1.49365234375,0.17535400390625
1686424993201296100,8.478296142578126,0.8526458740234375,1.3282318115234375,0.1278228759765625
1686424993211242200,8.4882421875,0.5720977783203125,1.2152557373046875,0.0882720947265625
1686424993221187000,8.49818701171875,0.34521484375,1.1649169921875,0.059661865234375
1686424993231132200,8.508132080078125,0.172149658203125,1.1518402099609375,0.0063018798828125
1686424993241077200,8.5180771484375,0.0149993896484375,1.1423797607421875,-0.1339263916015625
1686424993251023000,8.528023193359376,-0.11083984375,1.1393890380859375,-0.3161163330078125
1686424993260968200,8.53796826171875,-0.199676513671875,1.175537109375,-0.4739227294921875
1686424993270913000,8.5479130859375,-0.229461669921875,1.2536163330078125,-0.590087890625
1686424993280859100,8.557859130859375,-0.2273101806640625,1.2761993408203125,-0.668731689453125
1686424993290804200,8.56780419921875,-0.188140869140625,1.2841796875,-0.650054931640625
1686424993300749000,8.5777490234375,-0.076446533203125,1.2755279541015625,-0.549224853515625
1686424993310695200,8.587695068359375,0.029144287109375,1.215301513671875,-0.4061737060546875
1686424993320640000,8.597639892578124,0.06964111328125,1.060333251953125,-0.2705841064453125
1686424993330585300,8.60758544921875,0.03363037109375,0.8639678955078125,-0.2142333984375
1686424993340530200,8.6175302734375,-0.0760040283203125,0.7995758056640625,-0.286651611328125
1686424993350476300,8.627476318359374,-0.1616668701171875,0.8266143798828125,-0.321136474609375
1686424993360421000,8.637421142578125,-0.140106201171875,0.8508758544921875,-0.2402191162109375
1686424993370366200,8.6473662109375,-0.1384735107421875,0.885772705078125,-0.1730194091796875
1686424993380312300,8.657312255859376,-0.155517578125,0.912445068359375,-0.1352691650390625
1686424993390257200,8.667257080078125,-0.1621856689453125,0.931427001953125,-0.1044769287109375
1686424993400202000,8.677201904296876,-0.1622467041015625,0.961090087890625,-0.0938568115234375
1686424993410148000,8.687148193359375,-0.1655731201171875,0.9964752197265625,-0.1033172607421875
1686424993420093200,8.69709326171875,-0.166717529296875,1.0234222412109375,-0.105499267578125
1686424993430038300,8.707038330078126,-0.15673828125,1.019439697265625,-0.1085968017578125
1686424993439984000,8.716984130859375,-0.126556396484375,0.972991943359375,-0.0897979736328125
1686424993449929200,8.72692919921875,-0.09100341796875,0.915557861328125,-0.0748291015625
1686424993459874000,8.7368740234375,-0.0615081787109375,0.864288330078125,-0.05023193359375
1686424993469820200,8.746820068359375,-0.047271728515625,0.807464599609375,-0.0183258056640625
1686424993479765200,8.75676513671875,-0.0387725830078125,0.73663330078125,-0.0010833740234375
1686424993489710000,8.7667099609375,-0.0374908447265625,0.662109375,0.015655517578125
1686424993499655200,8.7766552734375,-0.0489349365234375,0.6065216064453125,0.0120391845703125
1686424993509601000,8.78660107421875,-0.0638885498046875,0.557159423828125,0.010894775390625
1686424993519546400,8.79654638671875,-0.0590667724609375,0.505035400390625,0.0260772705078125
1686424993529491200,8.8064912109375,-0.061737060546875,0.4632720947265625,0.032562255859375
1686424993539437000,8.81643701171875,-0.0839691162109375,0.449676513671875,0.0233001708984375
1686424993549382100,8.826382080078124,-0.1068115234375,0.482666015625,0.028350830078125
1686424993559327200,8.8363271484375,-0.1404571533203125,0.5426025390625,0.0208740234375
1686424993569273300,8.8462734375,-0.17327880859375,0.6194305419921875,0.0130767822265625
1686424993579218200,8.85621826171875,-0.1980133056640625,0.7163238525390625,-0.000946044921875
1686424993589163000,8.8661630859375,-0.217620849609375,0.8180999755859375,-0.0162811279296875
1686424993599109000,8.876109130859374,-0.2219085693359375,0.911346435546875,-0.01007080078125
1686424993609054200,8.88605419921875,-0.2044525146484375,0.990753173828125,0.031005859375
1686424993618999300,8.895999267578125,-0.173553466796875,1.0591888427734375,0.0903167724609375
1686424993628944100,8.905944091796876,-0.1392059326171875,1.1341400146484375,0.13720703125
1686424993638890200,8.91589013671875,-0.1047515869140625,1.2169189453125,0.1700592041015625
1686424993648835000,8.9258349609375,-0.071197509765625,1.2840728759765625,0.195648193359375
1686424993658780400,8.935780517578126,-0.0436553955078125,1.3295745849609375,0.20745849609375
1686424993668726300,8.945726318359375,-0.0267333984375,1.3705902099609375,0.2126922607421875
1686424993678671400,8.95567138671875,-0.0039215087890625,1.405670166015625,0.2146453857421875
1686424993688616200,8.9656162109375,0.0124359130859375,1.438720703125,0.2183990478515625
1686424993698562300,8.975562255859375,0.030731201171875,1.4445953369140625,0.233642578125
1686424993708507400,8.98550732421875,0.066070556640625,1.4283599853515625,0.2736358642578125
1686424993718452200,8.9954521484375,0.12353515625,1.4067535400390625,0.317535400390625
1686424993728398300,9.0053984375,0.28759765625,1.43115234375,0.3745880126953125
1686424993738343200,9.01534326171875,0.75030517578125,1.470123291015625,0.50994873046875
1686424993748288500,9.02528857421875,1.0891876220703125,1.6151275634765625,0.60009765625
1686424993758233300,9.0352333984375,1.0807037353515625,1.76171875,0.6171722412109375
1686424993768179200,9.04517919921875,1.3230743408203125,1.720001220703125,0.554351806640625
1686424993778124300,9.055124267578124,1.4538421630859375,1.5600128173828125,0.50445556640625
1686424993788069400,9.0650693359375,0.6453399658203125,1.4719085693359375,0.278717041015625
1686424993798015200,9.07501513671875,0.1381683349609375,1.4708251953125,0.124481201171875
1686424993807960300,9.084960205078126,-0.047637939453125,1.3861846923828125,0.1108551025390625
1686424993817905200,9.0949052734375,-0.127044677734375,1.235870361328125,0.0573272705078125
1686424993827851300,9.104851318359374,-0.1560821533203125,1.1369171142578125,0.0921630859375
1686424993837796000,9.114796142578125,-0.1658477783203125,1.054901123046875,0.1256561279296875
1686424993847741400,9.124741455078125,-0.156005859375,0.9758758544921875,0.1215667724609375
1686424993857687300,9.134687255859374,-0.133941650390625,0.9388427734375,0.099273681640625
1686424993867632400,9.14463232421875,-0.1222686767578125,0.9401397705078125,0.030517578125
1686424993877577200,9.1545771484375,-0.161590576171875,1.0103759765625,-0.0717620849609375
1686424993887523000,9.164523193359376,-0.24847412109375,1.1059417724609375,-0.1655731201171875
1686424993897468400,9.174468505859375,-0.35614013671875,1.21148681640625,-0.2489166259765625
1686424993907413200,9.184413330078126,-0.435150146484375,1.303619384765625,-0.3373870849609375
1686424993917358000,9.194358154296875,-0.4631500244140625,1.3802642822265625,-0.4199676513671875
1686424993927304200,9.20430419921875,-0.4559173583984375,1.43341064453125,-0.50775146484375
1686424993937249300,9.214249267578126,-0.430938720703125,1.4425811767578125,-0.580657958984375
1686424993947194400,9.2241943359375,-0.3221435546875,1.3992156982421875,-0.5866851806640625
1686424993957140200,9.23414013671875,-0.18853759765625,1.294281005859375,-0.5711669921875
1686424993967085300,9.244085205078125,-0.0720977783203125,1.133087158203125,-0.51654052734375
1686424993977030400,9.254030517578125,0.07769775390625,0.92584228515625,-0.4447174072265625
1686424993986976500,9.2639765625,0.1883697509765625,0.7393646240234375,-0.334136962890625
1686424993996921300,9.27392138671875,0.2235870361328125,0.5860443115234375,-0.22021484375
1686424994006866200,9.2838662109375,0.1927490234375,0.46575927734375,-0.0673980712890625
1686424994016812300,9.293812255859375,0.14874267578125,0.3880157470703125,0.0882415771484375
1686424994026757000,9.303757080078125,0.11151123046875,0.359954833984375,0.1617889404296875
1686424994036702500,9.313702392578126,0.083465576171875,0.361236572265625,0.1597747802734375
1686424994046648300,9.3236484375,0.0630035400390625,0.375701904296875,0.112762451171875
1686424994056593200,9.33359326171875,0.012115478515625,0.3887481689453125,0.0517120361328125
1686424994066538200,9.343538330078125,0.00250244140625,0.3924713134765625,-0.0067901611328125
1686424994076483300,9.3534833984375,-0.006103515625,0.391265869140625,-0.051727294921875
1686424994086429400,9.363429443359376,0.004241943359375,0.37969970703125,-0.0652618408203125
1686424994096374300,9.373374267578125,-0.0035247802734375,0.3743133544921875,-0.0668182373046875
1686424994106319000,9.383319091796874,-0.0109710693359375,0.3777313232421875,-0.0689849853515625
1686424994116265200,9.39326513671875,-0.015350341796875,0.37481689453125,-0.065582275390625
1686424994126210300,9.403210205078125,-0.0196685791015625,0.4001922607421875,-0.067901611328125
1686424994136155400,9.4131552734375,-0.0113372802734375,0.4376678466796875,-0.0676422119140625
1686424994146101200,9.423101318359375,0.000396728515625,0.4983673095703125,-0.055450439453125
1686424994156046300,9.43304638671875,0.021697998046875,0.578277587890625,-0.030853271484375
1686424994165991400,9.442991455078126,0.052398681640625,0.6804656982421875,0.0039520263671875
1686424994175937300,9.452937255859375,0.100738525390625,0.797454833984375,0.027069091796875
1686424994185882400,9.46288232421875,0.1494140625,0.9405975341796875,0.049591064453125
1686424994195827200,9.4728271484375,0.18597412109375,1.108734130859375,0.06378173828125
1686424994205772300,9.482772216796874,0.2401580810546875,1.314666748046875,0.0631256103515625
1686424994215718100,9.49271826171875,0.34881591796875,1.598114013671875,0.01409912109375
1686424994225663200,9.502663330078125,0.5193939208984375,1.8928070068359375,-0.0321197509765625
1686424994235608300,9.5126083984375,0.668701171875,1.90960693359375,0.05126953125
1686424994245554200,9.52255419921875,0.7322998046875,1.65582275390625,0.190216064453125
1686424994255499300,9.532499267578125,0.794525146484375,1.4401397705078125,0.3477630615234375
1686424994265444400,9.5424443359375,0.9501495361328125,1.2724609375,0.4758453369140625
1686424994275390500,9.552390380859375,1.308135986328125,1.1076202392578125,0.490142822265625
1686424994285335300,9.562335205078124,1.69793701171875,0.7320404052734375,0.3252716064453125
1686424994295280000,9.572280029296875,1.55401611328125,0.47454833984375,0.1436004638671875
1686424994305226200,9.582226318359375,0.97088623046875,0.6923675537109375,0.0834503173828125
1686424994315171300,9.59217138671875,0.546539306640625,1.1070709228515625,0.0255126953125
1686424994325116400,9.602116455078125,0.241729736328125,1.4462127685546875,-0.110626220703125
1686424994335062300,9.612062255859374,0.152740478515625,1.6775054931640625,-0.2887115478515625
1686424994345007000,9.622007080078125,0.15240478515625,1.7756195068359375,-0.4354705810546875
1686424994354952400,9.631952392578125,0.19281005859375,1.666473388671875,-0.5190582275390625
1686424994364897300,9.641897216796876,0.24163818359375,1.4137725830078125,-0.5
1686424994374843400,9.651843505859375,0.2655029296875,1.232086181640625,-0.49859619140625
1686424994384788200,9.661788330078124,0.2505035400390625,1.0905303955078125,-0.4803924560546875
1686424994394733300,9.6717333984375,0.1993865966796875,0.9594879150390625,-0.4630279541015625
1686424994404679400,9.681679443359375,0.1567840576171875,0.8501739501953125,-0.422119140625
1686424994414624300,9.691624267578124,0.1069793701171875,0.792205810546875,-0.3467864990234375
1686424994424569300,9.7015693359375,0.0657806396484375,0.790313720703125,-0.33380126953125
1686424994434515200,9.71151513671875,0.0801849365234375,0.84185791015625,-0.344329833984375
1686424994444460300,9.721460205078126,0.104705810546875,0.9278106689453125,-0.3323516845703125
1686424994454405400,9.7314052734375,0.1203155517578125,0.9972076416015625,-0.2757415771484375
1686424994464351200,9.741351318359374,0.123199462890625,1.049468994140625,-0.203521728515625
1686424994474296300,9.75129638671875,0.1151123046875,1.1043548583984375,-0.148529052734375
1686424994484241200,9.7612412109375,0.099029541015625,1.15960693359375,-0.1339874267578125
1686424994494186200,9.771186279296876,0.09698486328125,1.1847991943359375,-0.1318817138671875
1686424994504132400,9.78113232421875,0.0968170166015625,1.1721038818359375,-0.1319732666015625
1686424994514077200,9.7910771484375,0.09832763671875,1.1368408203125,-0.12158203125
1686424994524022300,9.801022216796875,0.1198577880859375,1.0719146728515625,-0.0906982421875
1686424994533968100,9.810968017578125,0.12286376953125,0.992919921875,-0.053253173828125
1686424994543913500,9.82091357421875,0.081573486328125,0.864044189453125,-0.0101318359375
1686424994553858300,9.8308583984375,0.0607757568359375,0.7393646240234375,0.0166168212890625
1686424994563804400,9.840804443359374,0.0487518310546875,0.64019775390625,0.041839599609375
1686424994573749200,9.850749267578125,0.0372772216796875,0.5521697998046875,0.065643310546875
1686424994583694300,9.8606943359375,0.03216552734375,0.489044189453125,0.074127197265625
1686424994593640400,9.870640380859374,0.0256500244140625,0.4305267333984375,0.080963134765625
1686424994603585300,9.880585205078125,0.018646240234375,0.386016845703125,0.0725555419921875
1686424994613530000,9.890530029296874,0.0120086669921875,0.350006103515625,0.0599822998046875
1686424994623476200,9.900476318359376,0.0198211669921875,0.321929931640625,0.0457916259765625
1686424994633421000,9.910421142578125,0.0344390869140625,0.3202972412109375,0.0300445556640625
1686424994643366400,9.920366455078126,0.0592193603515625,0.3731689453125,0.032958984375
1686424994653312300,9.930312255859375,0.0836334228515625,0.458099365234375,0.0440521240234375
1686424994663257000,9.940257080078124,0.09539794921875,0.5555877685546875,0.0510711669921875
1686424994673202000,9.950201904296875,0.1041107177734375,0.65814208984375,0.0538330078125
1686424994683147300,9.960147216796875,0.1192626953125,0.7585296630859375,0.04791259765625
1686424994693093000,9.970093017578124,0.133880615234375,0.8598480224609375,0.0377349853515625
1686424994703038200,9.9800380859375,0.1461334228515625,0.9642791748046875,0.032623291015625
1686424994712983000,9.989983154296874,0.1565093994140625,1.06060791015625,0.0559539794921875
1686424994722929200,9.99992919921875,0.1680908203125,1.1454925537109375,0.0869140625
1686424994732874200,10.009874267578125,0.18243408203125,1.2338714599609375,0.128204345703125
1686424994742819000,10.019819091796874,0.1938323974609375,1.322662353515625,0.1755218505859375
1686424994752765200,10.02976513671875,0.2275238037109375,1.397491455078125,0.2305450439453125
1686424994762710000,10.0397099609375,0.29656982421875,1.4351348876953125,0.291656494140625
1686424994772655400,10.0496552734375,0.3723907470703125,1.417388916015625,0.3385467529296875
1686424994782601200,10.059601318359375,0.3979949951171875,1.3798980712890625,0.3647308349609375
1686424994792546000,10.069546142578124,0.39678955078125,1.37139892578125,0.3775634765625
1686424994802491100,10.0794912109375,0.4124298095703125,1.387725830078125,0.39666748046875
1686424994812437000,10.08943701171875,0.450531005859375,1.436126708984375,0.437286376953125
1686424994822382300,10.09938232421875,0.5302734375,1.490509033203125,0.466278076171875
1686424994832327200,10.1093271484375,0.72015380859375,1.5352630615234375,0.487396240234375
1686424994842272000,10.11927197265625,1.0256500244140625,1.5620880126953125,0.4615478515625
1686424994852218000,10.129218017578125,1.1716461181640625,1.6026763916015625,0.3671112060546875
1686424994862163000,10.139162841796875,0.72271728515625,1.6125640869140625,0.2937774658203125
1686424994872108300,10.1491083984375,0.303253173828125,1.5974884033203125,0.261016845703125
1686424994882054100,10.15905419921875,0.07513427734375,1.5281219482421875,0.229522705078125
1686424994891999200,10.168999267578124,-0.0441741943359375,1.3527069091796875,0.1871337890625
1686424994901944000,10.178944091796875,-0.0808563232421875,1.17449951171875,0.1287841796875
1686424994911890200,10.18889013671875,-0.08349609375,1.031158447265625,0.0955810546875
1686424994921835300,10.198835205078124,-0.082763671875,0.953643798828125,0.0944366455078125
1686424994931780000,10.208780029296875,-0.073394775390625,0.913665771484375,0.0801849365234375
1686424994941726200,10.218726318359375,-0.064605712890625,0.9176025390625,0.0517578125
1686424994951671000,10.228671142578126,-0.0532073974609375,0.9579620361328125,0.0186004638671875
1686424994961616100,10.2386162109375,-0.077392578125,1.0487060546875,-0.0346527099609375
1686424994971562200,10.248562255859374,-0.1541900634765625,1.1888885498046875,-0.12249755859375
1686424994981507000,10.258507080078125,-0.26129150390625,1.311248779296875,-0.2233734130859375
1686424994991452200,10.2684521484375,-0.3872833251953125,1.43511962890625,-0.35101318359375
1686424995001398000,10.27839794921875,-0.4601898193359375,1.517425537109375,-0.467987060546875
1686424995011343400,10.28834326171875,-0.4707794189453125,1.5096893310546875,-0.5102996826171875
1686424995021288200,10.2982880859375,-0.4841156005859375,1.4604644775390625,-0.60137939453125
1686424995031233000,10.30823291015625,-0.3878326416015625,1.375946044921875,-0.5984649658203125
1686424995041179100,10.31817919921875,-0.2176666259765625,1.2342681884765625,-0.5134124755859375
1686424995051124000,10.3281240234375,-0.0894622802734375,1.0843353271484375,-0.4856109619140625
1686424995061069300,10.3380693359375,0.0912628173828125,0.9635772705078125,-0.4984588623046875
1686424995071015200,10.34801513671875,0.298675537109375,0.8112030029296875,-0.4822540283203125
1686424995080960000,10.3579599609375,0.3656158447265625,0.63623046875,-0.3808135986328125
1686424995090905000,10.367905029296875,0.31097412109375,0.487884521484375,-0.131744384765625
1686424995100851000,10.377850830078126,0.1897430419921875,0.3665618896484375,0.1337890625
1686424995110796300,10.38779638671875,0.09295654296875,0.3482513427734375,0.2681427001953125
1686424995120741000,10.3977412109375,0.020172119140625,0.3703155517578125,0.2830352783203125
1686424995130687200,10.407687255859376,0.0112762451171875,0.397216796875,0.2424774169921875
1686424995140632000,10.417632080078125,0.0142822265625,0.411834716796875,0.2030487060546875
1686424995150577200,10.4275771484375,-0.013641357421875,0.44134521484375,0.1578369140625
1686424995160523300,10.437523193359375,-0.0352630615234375,0.45318603515625,0.10845947265625
1686424995170468000,10.447468017578124,-0.0458831787109375,0.4522247314453125,0.0829925537109375
1686424995180413200,10.4574130859375,-0.0441436767578125,0.4387969970703125,0.0940399169921875
1686424995190358300,10.467358154296875,-0.0420379638671875,0.43853759765625,0.0962677001953125
1686424995200304400,10.477304443359374,-0.03656005859375,0.4510498046875,0.09613037109375
1686424995210249200,10.487249267578125,-0.0135040283203125,0.4609832763671875,0.0888671875
1686424995220194000,10.497194091796874,0.0012359619140625,0.473052978515625,0.0834197998046875
1686424995230140200,10.50714013671875,0.0195465087890625,0.49371337890625,0.06402587890625
1686424995240085200,10.517085205078125,0.0496368408203125,0.5216064453125,0.0320281982421875
1686424995250030000,10.527030029296874,0.0780029296875,0.570587158203125,-0.0047607421875
1686424995259976200,10.53697607421875,0.11383056640625,0.6457061767578125,-0.0323028564453125
1686424995269921000,10.546921142578125,0.1670379638671875,0.7476806640625,-0.0489959716796875
1686424995279866000,10.5568662109375,0.2232818603515625,0.903594970703125,-0.0470428466796875
1686424995289812000,10.56681201171875,0.2855682373046875,1.17266845703125,-0.0049591064453125
1686424995299757300,10.57675732421875,0.34844970703125,1.520111083984375,0.014190673828125
1686424995309702100,10.5867021484375,0.3976287841796875,1.8460693359375,-0.09295654296875
1686424995319648300,10.596648193359375,0.4988250732421875,2.0222015380859375,-0.1341705322265625
1686424995329593000,10.606593017578126,0.6064605712890625,1.810211181640625,0.053375244140625
1686424995339538200,10.6165380859375,0.641510009765625,1.47637939453125,0.223419189453125
1686424995349484300,10.626484375,0.6241607666015625,1.2559967041015625,0.29901123046875
1686424995359429000,10.63642919921875,0.73419189453125,1.1470489501953125,0.3293609619140625
1686424995369374000,10.6463740234375,1.41314697265625,1.0438690185546875,0.2364959716796875
1686424995379320000,10.656320068359374,2.069976806640625,0.8360748291015625,-0.06561279296875
1686424995389265200,10.66626513671875,1.7620391845703125,0.7840423583984375,-0.2170257568359375
1686424995399210200,10.676210205078124,1.023681640625,1.01519775390625,-0.2644500732421875
1686424995409155000,10.686155029296875,0.3770751953125,1.329071044921875,-0.4202880859375
1686424995419101200,10.69610107421875,0.0086669921875,1.520538330078125,-0.5969390869140625
1686424995429046300,10.70604638671875,-0.063812255859375,1.598602294921875,-0.7124176025390625
1686424995438991000,10.7159912109375,-0.0441131591796875,1.5113067626953125,-0.6781463623046875
1686424995448937200,10.725937255859375,0.0578460693359375,1.338287353515625,-0.5699920654296875
1686424995458882000,10.735882080078126,0.16070556640625,1.201873779296875,-0.4669036865234375
1686424995468827100,10.7458271484375,0.22113037109375,1.069061279296875,-0.3935699462890625
1686424995478773000,10.75577294921875,0.2444915771484375,0.9658355712890625,-0.326416015625
1686424995488718300,10.76571826171875,0.245208740234375,0.9029541015625,-0.28045654296875
1686424995498663200,10.7756630859375,0.229248046875,0.877227783203125,-0.3135528564453125
1686424995508609000,10.785609130859376,0.1838531494140625,0.8955230712890625,-0.3555908203125
1686424995518554000,10.79555419921875,0.1169586181640625,0.9498291015625,-0.3578033447265625
1686424995528499200,10.805499267578124,0.0890350341796875,1.0142059326171875,-0.3130950927734375
1686424995538445300,10.8154453125,0.10162353515625,1.0471954345703125,-0.2433929443359375
1686424995548390100,10.82539013671875,0.1215972900390625,1.062103271484375,-0.1886749267578125
1686424995558335000,10.8353349609375,0.127899169921875,1.0670318603515625,-0.1423492431640625
1686424995568281000,10.845281005859375,0.12969970703125,1.07427978515625,-0.142822265625
1686424995578226200,10.85522607421875,0.1320953369140625,1.07769775390625,-0.1398162841796875
1686424995588171300,10.865171142578125,0.1354217529296875,1.060394287109375,-0.1120758056640625
1686424995598116000,10.8751162109375,0.1275787353515625,1.029052734375,-0.08306884765625
1686424995608062200,10.885062255859374,0.1046600341796875,0.9581451416015625,-0.0851898193359375
1686424995618007300,10.89500732421875,0.08856201171875,0.877532958984375,-0.08319091796875
1686424995627952000,10.9049521484375,0.082275390625,0.7982330322265625,-0.063873291015625
1686424995637898200,10.914898193359376,0.0889129638671875,0.7259063720703125,-0.0488128662109375
1686424995647843000,10.924843017578125,0.0965728759765625,0.6627349853515625,-0.02801513671875
1686424995657788000,10.934787841796876,0.10418701171875,0.6085968017578125,-0.0012359619140625
1686424995667734000,10.944734130859375,0.084564208984375,0.567169189453125,-0.001861572265625
1686424995677678800,10.954678955078125,0.062255859375,0.537628173828125,-0.008331298828125
1686424995687624000,10.9646240234375,0.0440216064453125,0.5210113525390625,-0.010528564453125
1686424995697569800,10.97456982421875,0.0302581787109375,0.524688720703125,-0.004669189453125
1686424995707515000,10.984514892578124,0.0279541015625,0.525115966796875,-0.0006256103515625
1686424995717460000,10.9944599609375,0.04888916015625,0.5263214111328125,0.0177764892578125
1686424995727405800,11.00440576171875,0.03765869140625,0.5399322509765625,0.02587890625
1686424995737351000,11.014350830078126,0.0533447265625,0.5689544677734375,0.0441741943359375
1686424995747295700,11.024295654296875,0.0764617919921875,0.62579345703125,0.050445556640625
1686424995757241900,11.034241943359374,0.080352783203125,0.6995391845703125,0.057464599609375
1686424995767187000,11.04418701171875,0.09722900390625,0.77581787109375,0.078948974609375
1686424995777131800,11.0541318359375,0.110015869140625,0.8446807861328125,0.0984954833984375
1686424995787076900,11.064076904296876,0.1159515380859375,0.9175262451171875,0.1279449462890625
1686424995797022700,11.074022705078125,0.1300506591796875,0.9967803955078125,0.169708251953125
1686424995806968000,11.083968017578124,0.1641082763671875,1.0787353515625,0.2095947265625
1686424995816913000,11.093912841796875,0.2038726806640625,1.1527862548828125,0.242462158203125
1686424995826859000,11.10385888671875,0.232025146484375,1.2016448974609375,0.2603607177734375
1686424995836803800,11.113803955078126,0.2425689697265625,1.21063232421875,0.2552032470703125
1686424995846749000,11.1237490234375,0.2406463623046875,1.2016143798828125,0.2445068359375
1686424995856695000,11.133695068359375,0.24603271484375,1.2283172607421875,0.2391815185546875
1686424995866640000,11.143639892578125,0.2508392333984375,1.278045654296875,0.2580718994140625
1686424995876585000,11.1535849609375,0.2857666015625,1.344512939453125,0.3021240234375
1686424995886530800,11.16353076171875,0.346435546875,1.4014892578125,0.342864990234375
1686424995896476000,11.173475830078125,0.4315032958984375,1.4613037109375,0.4058685302734375
1686424995906421000,11.1834208984375,0.54058837890625,1.52349853515625,0.4718780517578125
1686424995916366800,11.193366943359376,0.6302490234375,1.5554656982421875,0.555450439453125
1686424995926312000,11.20331201171875,0.6724853515625,1.5478515625,0.6279144287109375
1686424995936256800,11.2132568359375,0.75311279296875,1.5251007080078125,0.6425323486328125
1686424995946203000,11.223202880859375,1.29052734375,1.4703369140625,0.5955047607421875
1686424995956148000,11.23314794921875,1.6717071533203125,1.3748626708984375,0.5171356201171875
1686424995966092800,11.2430927734375,0.660491943359375,1.348358154296875,0.3653717041015625
1686424995976039000,11.253038818359375,0.239776611328125,1.31146240234375,0.30010986328125
1686424995985983700,11.262983642578124,0.0697174072265625,1.2810821533203125,0.2792510986328125
1686424995995929000,11.27292919921875,-0.033477783203125,1.20257568359375,0.25030517578125
1686424996005874000,11.2828740234375,-0.069580078125,1.0967254638671875,0.1872711181640625
1686424996015819800,11.29281982421875,-0.0760498046875,1.0041351318359375,0.16058349609375
1686424996025764900,11.302764892578125,-0.063812255859375,0.9134368896484375,0.1425323486328125
1686424996035710000,11.3127099609375,-0.0451507568359375,0.852447509765625,0.112030029296875
1686424996045656000,11.322656005859375,-0.02362060546875,0.85430908203125,0.0708465576171875
1686424996055601000,11.332600830078125,-0.023345947265625,0.9321136474609375,0.029632568359375
1686424996065545700,11.342545654296876,-0.06036376953125,1.0580902099609375,-0.0447998046875
1686424996075491800,11.352491943359375,-0.0829315185546875,1.174591064453125,-0.07720947265625
1686424996085437000,11.36243701171875,-0.1180877685546875,1.3137359619140625,-0.14398193359375
1686424996095382000,11.372382080078125,-0.19598388671875,1.4350128173828125,-0.243255615234375
1686424996105327900,11.382327880859375,-0.2995147705078125,1.5054931640625,-0.3370819091796875
1686424996115273000,11.39227294921875,-0.3681488037109375,1.5736541748046875,-0.4303741455078125
1686424996125217800,11.4022177734375,-0.38885498046875,1.5341949462890625,-0.4799346923828125
1686424996135164000,11.412163818359375,-0.3848876953125,1.416595458984375,-0.51715087890625
1686424996145109000,11.42210888671875,-0.244232177734375,1.2638092041015625,-0.478363037109375
1686424996155053800,11.4320537109375,-0.096893310546875,1.1108245849609375,-0.375518798828125
1686424996165000000,11.442,0.0556640625,0.985809326171875,-0.343536376953125
1686424996174944800,11.45194482421875,0.22412109375,0.848114013671875,-0.3199310302734375
1686424996184889900,11.461889892578125,0.319915771484375,0.72265625,-0.2808685302734375
1686424996194835000,11.4718349609375,0.3315887451171875,0.594573974609375,-0.1398773193359375
1686424996204780800,11.48178076171875,0.265869140625,0.5175323486328125,0.08978271484375
1686424996214726000,11.491725830078124,0.14794921875,0.496826171875,0.2507476806640625
1686424996224671000,11.5016708984375,0.09478759765625,0.4713287353515625,0.2399139404296875
1686424996234617000,11.5116171875,0.036041259765625,0.4638671875,0.2012786865234375
1686424996244562000,11.52156201171875,0.0040283203125,0.4727935791015625,0.13604736328125
1686424996254506800,11.5315068359375,-0.0049591064453125,0.462310791015625,0.086151123046875
1686424996264452900,11.541452880859374,-0.0109405517578125,0.432037353515625,0.05535888671875
1686424996274398000,11.55139794921875,-0.0113372802734375,0.3898773193359375,0.0305633544921875
1686424996284343000,11.561343017578125,-0.0105743408203125,0.35113525390625,0.01531982421875
1686424996294289000,11.571288818359376,-0.0098724365234375,0.346923828125,-0.0188751220703125
1686424996304233700,11.581233642578125,-0.0065155029296875,0.3508148193359375,-0.04046630859375
1686424996314178800,11.5911787109375,-0.0090789794921875,0.3595123291015625,-0.0643157958984375
1686424996324125000,11.601125,-0.0044403076171875,0.3921966552734375,-0.093841552734375
1686424996334070000,11.611070068359375,0.0110321044921875,0.4349517822265625,-0.1127471923828125
1686424996344014800,11.621014892578126,0.0315093994140625,0.48834228515625,-0.1205596923828125
1686424996353961000,11.6309609375,0.0655364990234375,0.56597900390625,-0.1117706298828125
1686424996363905800,11.64090576171875,0.1228485107421875,0.6699371337890625,-0.0543365478515625
1686424996373851000,11.650850830078125,0.214599609375,0.8141326904296875,0.0505828857421875
1686424996383797000,11.660796875,0.32379150390625,1.0241546630859375,0.149078369140625
1686424996393741800,11.670741943359374,0.4012603759765625,1.2585906982421875,0.1502227783203125
1686424996403687000,11.68068701171875,0.49420166015625,1.5226287841796875,0.06304931640625
1686424996413632800,11.6906328125,0.532135009765625,1.8145904541015625,-0.0359954833984375
1686424996423577900,11.700577880859376,0.53839111328125,1.838134765625,-0.0805816650390625
1686424996433523000,11.71052294921875,0.5994873046875,1.667449951171875,0.0542144775390625
1686424996443467800,11.7204677734375,0.690643310546875,1.5451507568359375,0.2184906005859375
1686424996453414000,11.730413818359375,0.872283935546875,1.4461669921875,0.3483428955078125
1686424996463359000,11.74035888671875,1.50726318359375,1.3104705810546875,0.46051025390625
1686424996473303800,11.7503037109375,2.237884521484375,1.0401458740234375,0.2978668212890625
1686424996483250000,11.76025,1.813873291015625,0.7808990478515625,0.037322998046875
1686424996493194800,11.77019482421875,1.0601654052734375,0.8011016845703125,-0.0141143798828125
1686424996503140000,11.78014013671875,0.470123291015625,1.113067626953125,-0.1718902587890625
1686424996513086000,11.7900859375,0.1519622802734375,1.3663177490234375,-0.315155029296875
1686424996523031000,11.800031005859376,0.0795135498046875,1.5185699462890625,-0.432861328125
1686424996532975900,11.809975830078125,0.1086578369140625,1.5563507080078125,-0.5342864990234375
1686424996542922000,11.819921875,0.19097900390625,1.5040740966796875,-0.5023040771484375
1686424996552866800,11.82986669921875,0.327392578125,1.3553619384765625,-0.4700927734375
1686424996562812000,11.83981201171875,0.38946533203125,1.1610260009765625,-0.395172119140625
1686424996572758000,11.849758056640624,0.3253631591796875,0.9705963134765625,-0.325836181640625
1686424996582702800,11.859702880859375,0.2497406005859375,0.8285369873046875,-0.2780914306640625
1686424996592647700,11.869647705078124,0.205535888671875,0.7618408203125,-0.2576751708984375
1686424996602593800,11.87959375,0.14599609375,0.7847442626953125,-0.27301025390625
1686424996612539000,11.889538818359375,0.1017913818359375,0.8351287841796875,-0.2720947265625
1686424996622484000,11.89948388671875,0.08636474609375,0.8873138427734375,-0.244049072265625
1686424996632429800,11.909429931640625,0.0821685791015625,0.932098388671875,-0.199554443359375
1686424996642375000,11.919375,0.086639404296875,0.9685211181640625,-0.1298828125
1686424996652320000,11.929320068359376,0.1086273193359375,0.9942626953125,-0.0792083740234375
1686424996662266000,11.93926611328125,0.12774658203125,0.98858642578125,-0.0470123291015625
1686424996672211200,11.949211181640624,0.130157470703125,0.9835052490234375,-0.053863525390625
1686424996682156000,11.959156005859375,0.14080810546875,1.00042724609375,-0.10028076171875
1686424996692101000,11.96910107421875,0.1394805908203125,0.982147216796875,-0.1569366455078125
1686424996702047200,11.979047119140626,0.083709716796875,0.932861328125,-0.1562347412109375
1686424996711992000,11.988991943359375,0.056549072265625,0.9026031494140625,-0.1089019775390625
1686424996721937200,11.998937255859374,0.0937042236328125,0.8631744384765625,-0.094940185546875
1686424996731883000,12.008883056640625,0.10845947265625,0.7817230224609375,-0.0831451416015625
1686424996741827800,12.018827880859375,0.0955352783203125,0.68682861328125,-0.0459136962890625
1686424996751773200,12.028773193359376,0.0808258056640625,0.61407470703125,-0.00799560546875
1686424996761719000,12.038718994140625,0.07177734375,0.5497894287109375,0.0253143310546875
1686424996771664100,12.0486640625,0.05963134765625,0.5067901611328125,0.027587890625
1686424996781609000,12.05860888671875,0.0479888916015625,0.4822235107421875,0.02606201171875
1686424996791555000,12.06855517578125,0.038818359375,0.47955322265625,0.0226593017578125
1686424996801500200,12.078500244140624,0.0378570556640625,0.47967529296875,0.031036376953125
1686424996811445000,12.088445068359375,0.0364532470703125,0.4992218017578125,0.0234832763671875
1686424996821391000,12.09839111328125,0.0493011474609375,0.5268096923828125,0.0189361572265625
1686424996831336000,12.1083359375,0.0633087158203125,0.5806732177734375,0.039093017578125
1686424996841281300,12.11828125,0.0802154541015625,0.638397216796875,0.0705413818359375
1686424996851227100,12.12822705078125,0.100250244140625,0.7272796630859375,0.0868377685546875
1686424996861172000,12.138171875,0.12908935546875,0.8224029541015625,0.10357666015625
1686424996871117000,12.148116943359375,0.153411865234375,0.9143829345703125,0.1268310546875
1686424996881063000,12.15806298828125,0.1714935302734375,1.0029144287109375,0.152801513671875
1686424996891008300,12.16800830078125,0.1826934814453125,1.084930419921875,0.165618896484375
1686424996900953000,12.177953125,0.192108154296875,1.16314697265625,0.1561279296875
1686424996910899200,12.187899169921875,0.195526123046875,1.2351837158203125,0.162261962890625
1686424996920844000,12.197843994140625,0.2028961181640625,1.2924652099609375,0.1963043212890625
1686424996930789000,12.2077890625,0.2188720703125,1.316619873046875,0.2182159423828125
1686424996940735000,12.21773486328125,0.235626220703125,1.310516357421875,0.2309417724609375
1686424996950680000,12.22768017578125,0.2468109130859375,1.3204345703125,0.24481201171875
1686424996960625200,12.237625244140625,0.2599334716796875,1.3499298095703125,0.280792236328125
1686424996970570000,12.247570068359375,0.293426513671875,1.3991241455078125,0.3128662109375
1686424996980515800,12.257515869140626,0.3438873291015625,1.461212158203125,0.3595733642578125
1686424996990461200,12.267461181640625,0.4327850341796875,1.523834228515625,0.4288482666015625
1686424997000406000,12.277406005859374,0.5708770751953125,1.5636749267578125,0.5479736328125
1686424997010352000,12.28735205078125,0.5946502685546875,1.5975189208984375,0.6295166015625
1686424997020297000,12.297296875,0.5392303466796875,1.579498291015625,0.65875244140625
1686424997030242000,12.307241943359376,0.56304931640625,1.53875732421875,0.5822601318359375
1686424997040188200,12.317188232421875,0.890777587890625,1.403594970703125,0.509613037109375
1686424997050133000,12.327133056640625,1.0575714111328125,1.2111053466796875,0.45166015625
1686424997060078000,12.337078125,0.479156494140625,1.223480224609375,0.2760467529296875
1686424997070024000,12.34702392578125,0.16986083984375,1.274261474609375,0.200225830078125
1686424997079969300,12.35696923828125,0.024505615234375,1.2243804931640625,0.1734619140625
1686424997089914000,12.3669140625,-0.0528411865234375,1.1404266357421875,0.1511383056640625
1686424997099860000,12.37685986328125,-0.077178955078125,1.0698394775390625,0.13580322265625
1686424997109805000,12.38680517578125,-0.07781982421875,1.0139312744140625,0.1190032958984375
1686424997119750100,12.396750244140625,-0.0628204345703125,1.0162200927734375,0.0931396484375
1686424997129696300,12.4066962890625,-0.030853271484375,1.1011199951171875,0.01458740234375
1686424997139641000,12.41664111328125,-0.0339508056640625,1.213592529296875,-0.0766754150390625
1686424997149586000,12.4265859375,-0.083099365234375,1.2989959716796875,-0.13226318359375
1686424997159532000,12.436531982421876,-0.1529693603515625,1.3841400146484375,-0.2264251708984375
1686424997169476900,12.446476806640625,-0.253875732421875,1.453094482421875,-0.350738525390625
1686424997179422200,12.456422119140624,-0.3350677490234375,1.4478302001953125,-0.4413299560546875
1686424997189368000,12.4663681640625,-0.4256134033203125,1.3741302490234375,-0.5673370361328125
1686424997199313200,12.476313232421875,-0.3725738525390625,1.26019287109375,-0.6411285400390625
1686424997209258000,12.486258056640626,-0.208953857421875,1.111541748046875,-0.5676422119140625
1686424997219203000,12.496203125,-0.0872802734375,1.0008544921875,-0.5033416748046875
1686424997229149200,12.506149169921875,0.070404052734375,0.8735809326171875,-0.4593658447265625
1686424997239094000,12.516093994140626,0.2182159423828125,0.7485809326171875,-0.4010162353515625
1686424997249039000,12.5260390625,0.3491973876953125,0.6428070068359375,-0.3465423583984375
1686424997258985000,12.53598486328125,0.3552093505859375,0.54534912109375,-0.1874847412109375
1686424997268930000,12.545929931640625,0.2628631591796875,0.4733428955078125,0.0800323486328125
1686424997278875100,12.555875244140625,0.149810791015625,0.43719482421875,0.2368316650390625
1686424997288821000,12.565821044921876,0.1126861572265625,0.405914306640625,0.243133544921875
1686424997298766000,12.57576611328125,0.08306884765625,0.4020843505859375,0.1777191162109375
1686424997308711200,12.585711181640624,0.057403564453125,0.4122467041015625,0.095458984375
1686424997318657300,12.5956572265625,0.0434722900390625,0.42437744140625,0.039306640625
1686424997328602000,12.60560205078125,0.0182342529296875,0.4150543212890625,-0.002105712890625
1686424997338547000,12.615546875,-0.0097503662109375,0.3965301513671875,-0.0212860107421875
1686424997348493000,12.6254931640625,-0.021087646484375,0.384857177734375,-0.0370635986328125
1686424997358438000,12.63543798828125,-0.032501220703125,0.390472412109375,-0.0639190673828125
1686424997368383200,12.64538330078125,-0.0222625732421875,0.41070556640625,-0.069244384765625
1686424997378329000,12.6553291015625,0.0003204345703125,0.4404144287109375,-0.0623931884765625
1686424997388274000,12.66527392578125,-0.003509521484375,0.4911041259765625,-0.0675811767578125
1686424997398219000,12.675218994140625,-0.0004730224609375,0.575225830078125,-0.0680694580078125
1686424997408164900,12.685164794921874,0.016448974609375,0.68243408203125,-0.0451507568359375
1686424997418110200,12.695110107421876,0.022857666015625,0.8152313232421875,-0.0348358154296875
1686424997428055000,12.705054931640625,0.0465087890625,0.9448394775390625,-0.0022125244140625
1686424997438001200,12.715001220703124,0.0829010009765625,1.056610107421875,0.0333404541015625
1686424997447946000,12.724946044921875,0.1757354736328125,1.1559600830078125,0.063751220703125
1686424997457891000,12.73489111328125,0.36517333984375,1.2823944091796875,0.16424560546875
1686424997467837200,12.744837158203126,0.6399383544921875,1.5395355224609375,0.2794952392578125
1686424997477782000,12.754781982421875,0.6737213134765625,1.737091064453125,0.1985931396484375
1686424997487727000,12.76472705078125,0.5613555908203125,1.607666015625,0.0962066650390625
1686424997497673000,12.7746728515625,0.506988525390625,1.385498046875,0.16680908203125
1686424997507618000,12.7846181640625,0.5633697509765625,1.25677490234375,0.3438720703125
1686424997517563100,12.794563232421876,0.859344482421875,1.2119598388671875,0.537384033203125
1686424997527509000,12.804509033203125,1.622161865234375,1.10638427734375,0.5941314697265625
1686424997537454000,12.8144541015625,1.9508056640625,0.8256072998046875,0.2817230224609375
1686424997547399200,12.824399169921875,1.36572265625,0.7955322265625,0.013946533203125
1686424997557344000,12.834343994140625,0.6951751708984375,1.103515625,-0.149566650390625
1686424997567290000,12.8442900390625,0.3170013427734375,1.3587493896484375,-0.2501678466796875
1686424997577235000,12.85423486328125,0.1915130615234375,1.5833282470703125,-0.3536529541015625
1686424997587180000,12.864179931640624,0.1717681884765625,1.6808319091796875,-0.4790802001953125
1686424997597126000,12.8741259765625,0.2608642578125,1.572509765625,-0.51727294921875
1686424997607071200,12.8840712890625,0.29656982421875,1.379119873046875,-0.53204345703125
1686424997617016000,12.89401611328125,0.310516357421875,1.1972808837890625,-0.544097900390625
1686424997626962200,12.903962158203125,0.2990875244140625,1.059906005859375,-0.524261474609375
1686424997636907000,12.913906982421874,0.2635650634765625,0.964599609375,-0.5064697265625
1686424997646852000,12.92385205078125,0.2082061767578125,0.8924102783203125,-0.44244384765625
1686424997656798200,12.933798095703125,0.1326141357421875,0.860015869140625,-0.3874969482421875
1686424997666743000,12.943742919921876,0.0685577392578125,0.870574951171875,-0.3625030517578125
1686424997676688000,12.95368798828125,0.0573577880859375,0.9143524169921875,-0.3379364013671875
1686424997686634000,12.963634033203125,0.0948028564453125,0.964324951171875,-0.2831268310546875
1686424997696579000,12.9735791015625,0.14495849609375,0.98828125,-0.18536376953125
1686424997706524200,12.983524169921875,0.1572723388671875,1.0092010498046875,-0.137481689453125
1686424997716470000,12.993469970703124,0.165740966796875,1.038238525390625,-0.0946044921875
1686424997726415000,13.0034150390625,0.1550445556640625,1.0552825927734375,-0.0887908935546875
1686424997736360200,13.013360107421875,0.13897705078125,1.052276611328125,-0.1136932373046875
1686424997746306300,13.023306396484376,0.0931243896484375,1.025787353515625,-0.1851959228515625
1686424997756251100,13.033251220703125,0.021514892578125,0.9930267333984375,-0.2194061279296875
1686424997766196000,13.043196044921874,0.0397186279296875,0.922454833984375,-0.130126953125
1686424997776142000,13.05314208984375,0.080718994140625,0.8091278076171875,-0.0374908447265625
