time,seconds_elapsed,z,y,x
1686424984823638300,0.10063818359375,-0.33919164538383484,1.347776174545288,-0.1418652981519699
1686424984833583000,0.1105830078125,-0.4532025456428528,1.1328362226486206,-0.11900452524423599
1686424984843528200,0.120528076171875,-0.5468429923057556,0.9522426724433899,-0.1416800171136856
1686424984853473300,0.130473388671875,-0.5729584693908691,0.9162841439247131,-0.2074025571346283
1686424984863419400,0.14041943359375,-0.5664204359054565,0.9768790602684021,-0.32523226737976074
1686424984873364200,0.1503642578125,-0.5549609065055847,1.0659797191619873,-0.4495695233345032
1686424984883309000,0.16030908203125,-0.5900145173072815,1.1654560565948486,-0.559492826461792
1686424984893254400,0.17025439453125,-0.6797202825546265,1.2821234464645386,-0.652826189994812
1686424984903200300,0.1802001953125,-0.7978096008300781,1.4048019647598267,-0.7811689972877502
1686424984913145300,0.190145263671875,-1.0098696947097778,1.55890953540802,-0.9148514866828918
1686424984923090200,0.200090087890625,-1.307465672492981,1.681750774383545,-0.9672233462333679
1686424984933035000,0.210034912109375,-1.524227261543274,1.6752747297286987,-0.9610866904258728
1686424984942981000,0.219981201171875,-1.63339102268219,1.6075867414474487,-0.9162142872810364
1686424984952926200,0.22992626953125,-1.709028959274292,1.588901162147522,-0.7771300673484802
1686424984962871300,0.239871337890625,-1.7728947401046753,1.7022978067398071,-0.5536764860153198
1686424984972816100,0.249816162109375,-1.8220537900924683,1.8934974670410156,-0.26596760749816895
1686424984982762000,0.259761962890625,-1.8509352207183838,2.1228320598602295,0.01319161243736744
1686424984992707300,0.269707275390625,-1.8491824865341187,2.4176628589630127,0.2444322109222412
1686424985002652200,0.279652099609375,-1.8150866031646729,2.758610486984253,0.4185539484024048
1686424985012598300,0.289598388671875,-1.75326669216156,3.0037221908569336,0.5445070266723633
1686424985022543000,0.299543212890625,-1.6366287469863892,3.1117730140686035,0.6482070684432983
1686424985032488200,0.30948828125,-1.4509892463684082,3.0999698638916016,0.7626690864562988
1686424985042433300,0.319433349609375,-1.226263403892517,3.086927890777588,0.9066933989524841
1686424985052379100,0.329379150390625,-1.0115238428115845,3.1444132328033447,1.1060904264450073
1686424985062324200,0.33932421875,-0.8454225063323975,3.238518714904785,1.3357521295547485
1686424985072269300,0.349269287109375,-0.7884881496429443,3.3392937183380127,1.5123759508132935
1686424985082214100,0.359214111328125,-0.8001818656921387,3.5819432735443115,1.6019015312194824
1686424985092160300,0.36916015625,-0.8095737099647522,3.9201836585998535,1.5710294246673584
1686424985102105000,0.37910498046875,-0.8107261061668396,4.1886162757873535,1.4951571226119995
1686424985112050200,0.38905029296875,-0.8191362619400024,4.256851673126221,1.46522057056427
1686424985121995300,0.398995361328125,-0.8849866390228271,4.123908996582031,1.514818787574768
1686424985131941000,0.408941162109375,-1.0437155961990356,3.943528890609741,1.682938814163208
1686424985141886200,0.41888623046875,-1.161059856414795,3.656012535095215,1.9218952655792236
1686424985151831000,0.4288310546875,-1.2023377418518066,3.142106056213379,2.143903970718384
1686424985161776400,0.4387763671875,-1.2406259775161743,2.5713603496551514,2.3633320331573486
1686424985171722200,0.44872216796875,-1.47128427028656,2.294279098510742,2.6729142665863037
1686424985181667000,0.4586669921875,-1.9064629077911377,2.2914364337921143,3.1244325637817383
1686424985191612200,0.468612060546875,-2.4112534523010254,2.2467920780181885,3.6270222663879395
1686424985201557200,0.47855712890625,-2.751241445541382,2.105642557144165,4.088254451751709
1686424985211503400,0.48850341796875,-2.8385634422302246,1.8606204986572266,4.470955848693848
1686424985221448200,0.4984482421875,-2.7989144325256348,1.6363282203674316,4.875336647033691
1686424985231393000,0.50839306640625,-2.7672598361968994,1.1804420948028564,5.588589668273926
1686424985241338400,0.51833837890625,-2.8734405040740967,1.0912411212921143,6.522776126861572
1686424985251284200,0.5282841796875,-3.0763392448425293,0.6916391253471375,7.490474700927734
1686424985261229300,0.538229248046875,-3.2125766277313232,0.5147690176963806,8.18241024017334
1686424985271174100,0.548174072265625,-3.2605390548706055,0.6374824643135071,8.600777626037598
1686424985281119200,0.558119140625,-3.257803201675415,1.0018458366394043,8.788021087646484
1686424985291065300,0.5680654296875,-3.2242584228515625,1.168419361114502,8.777281761169434
1686424985301010200,0.57801025390625,-3.204237461090088,1.045056939125061,8.597846031188965
1686424985310955300,0.587955322265625,-3.261754274368286,0.7113032937049866,8.267942428588867
1686424985320901000,0.597901123046875,-3.366513729095459,0.18830665946006775,7.762131690979004
1686424985330846200,0.60784619140625,-3.4939348697662354,-0.48939839005470276,7.070244312286377
1686424985340791300,0.617791259765625,-3.548264265060425,-1.1879875659942627,6.212615966796875
1686424985350736100,0.627736083984375,-3.4680490493774414,-1.6478995084762573,5.257222652435303
1686424985360682200,0.63768212890625,-3.203464984893799,-1.7430830001831055,4.2793378829956055
1686424985370627000,0.647626953125,-2.7534475326538086,-1.596144437789917,3.3450090885162354
1686424985380572200,0.657572265625,-2.2413647174835205,-1.2971292734146118,2.5109364986419678
1686424985390517200,0.667517333984375,-1.7648346424102783,-1.0839985609054565,1.7812366485595703
1686424985400463000,0.677463134765625,-1.4036452770233154,-1.0601235628128052,1.1543023586273193
1686424985410408200,0.687408203125,-1.0592279434204102,-1.0094703435897827,0.5531222820281982
1686424985420353300,0.697353271484375,-0.4916001856327057,-0.5687969923019409,-0.6303406953811646
1686424985430298000,0.707298095703125,0.11807356774806976,-0.3601717948913574,-1.8798294067382812
1686424985440244200,0.717244140625,0.39273178577423096,-0.6828984618186951,-2.206719160079956
1686424985450189000,0.72718896484375,0.2783157527446747,-1.1415936946868896,-1.6296706199645996
1686424985460134100,0.737134033203125,-0.008822549134492874,-1.4245593547821045,-0.8575697541236877
1686424985470079200,0.747079345703125,-0.14648227393627167,-1.325974464416504,-0.38294774293899536
1686424985480025300,0.757025390625,-0.021364837884902954,-0.9867619872093201,-0.1457194834947586
1686424985489970200,0.76697021484375,0.19329942762851715,-0.5350118279457092,0.05200400948524475
1686424985499915000,0.7769150390625,0.2669840157032013,-0.09371644258499146,0.31834861636161804
1686424985509860400,0.7868603515625,0.18446393311023712,0.09854137897491455,0.5988734364509583
1686424985519806200,0.79680615234375,0.04264422133564949,0.21993757784366608,0.764690101146698
1686424985529751300,0.806751220703125,-0.05376846715807915,0.30370083451271057,0.7841407060623169
1686424985539696000,0.816696044921875,-0.10442179441452026,0.35403111577033997,0.7486239671707153
1686424985549641200,0.82664111328125,-0.16953781247138977,0.3943648040294647,0.7158892750740051
1686424985559587300,0.83658740234375,-0.2452770471572876,0.36953774094581604,0.6250534057617188
1686424985569532200,0.8465322265625,-0.28695017099380493,0.3818916976451874,0.4649146795272827
1686424985579477200,0.856477294921875,-0.292325496673584,0.5100997090339661,0.2873561382293701
1686424985589422300,0.86642236328125,-0.286074697971344,0.6652592420578003,0.18957816064357758
1686424985599368200,0.8763681640625,-0.3052140474319458,0.6790799498558044,0.23042172193527222
1686424985609313300,0.886313232421875,-0.38977110385894775,0.5422746539115906,0.3246782422065735
1686424985619258000,0.896258056640625,-0.5079707503318787,0.2841508984565735,0.4261244237422943
1686424985629204200,0.906204345703125,-0.5988619327545166,-0.08079538494348526,0.6460029482841492
1686424985639149300,0.9161494140625,-0.5715312361717224,-0.2762594223022461,0.6584972143173218
1686424985649094100,0.92609423828125,-0.47710540890693665,-0.3511190414428711,0.4187663495540619
1686424985659039200,0.936039306640625,-0.39687579870224,-0.5003279447555542,0.16928595304489136
1686424985668985000,0.945985107421875,-0.3884354531764984,-0.6083065271377563,0.040868837386369705
1686424985678930000,0.955929931640625,-0.3574487566947937,-0.6723158955574036,-0.022570589557290077
1686424985688875300,0.965875244140625,-0.3053773045539856,-0.6327736377716064,-0.04559772461652756
1686424985698820000,0.975820068359375,-0.261822909116745,-0.5602594614028931,-0.11140257120132446
1686424985708766200,0.98576611328125,-0.26640114188194275,-0.47007498145103455,-0.2737809419631958
1686424985718711000,0.9957109375,-0.32870739698410034,-0.37524861097335815,-0.5265527367591858
1686424985728656100,1.00565625,-0.4148325026035309,-0.4139215350151062,-0.7030065059661865
1686424985738601200,1.015601318359375,-0.47051653265953064,-0.569710373878479,-0.771271824836731
1686424985748547000,1.025547119140625,-0.4823343753814697,-0.7203354835510254,-0.8015578985214233
1686424985758492200,1.0354921875,-0.37646493315696716,-0.8586714863777161,-0.6645159125328064
1686424985768437200,1.045437255859375,-0.2249174863100052,-0.8743847012519836,-0.6656927466392517
1686424985778382000,1.055382080078125,0.036576174199581146,-0.8215249180793762,-0.8363880515098572
1686424985788328200,1.065328125,0.3084706962108612,-0.7729700207710266,-0.8453034162521362
1686424985798273000,1.07527294921875,0.5683451294898987,-0.702713131904602,-0.9694850444793701
1686424985808218400,1.08521826171875,0.6981871128082275,-0.7157423496246338,-1.0534383058547974
1686424985818163200,1.0951630859375,0.6525360345840454,-0.7161710858345032,-1.097385287284851
1686424985828109300,1.105109375,0.5795943737030029,-0.6341352462768555,-1.2330689430236816
1686424985838054100,1.11505419921875,0.4208199381828308,-0.5747656226158142,-1.4333511590957642
1686424985847999000,1.1249990234375,0.21193523705005646,-0.6288694739341736,-1.4950517416000366
1686424985857945000,1.134945068359375,0.0020874589681625366,-0.7639697790145874,-1.4756218194961548
1686424985867890200,1.14489013671875,-0.1803315430879593,-0.8572978973388672,-1.4310903549194336
1686424985877835000,1.1548349609375,-0.2927393317222595,-0.8128148317337036,-1.4123733043670654
1686424985887780000,1.164780029296875,-0.42508116364479065,-0.7349870204925537,-1.4019200801849365
1686424985897726000,1.174725830078125,-0.5396867990493774,-0.6127282381057739,-1.4258382320404053
1686424985907671300,1.18467138671875,-0.7497066259384155,-0.476074755191803,-1.4381535053253174
1686424985917616000,1.1946162109375,-0.9810141324996948,-0.2505452036857605,-1.5313787460327148
1686424985927561000,1.20456103515625,-1.2768633365631104,0.05464073270559311,-1.5975525379180908
1686424985937507000,1.214507080078125,-1.5877668857574463,0.19728045165538788,-1.5707998275756836
1686424985947452200,1.2244521484375,-1.9732203483581543,0.25920212268829346,-1.3855046033859253
1686424985957397200,1.234397216796875,-2.4474689960479736,0.44729265570640564,-1.0926064252853394
1686424985967342000,1.244342041015625,-2.917137622833252,0.744890570640564,-0.7139871716499329
1686424985977288200,1.2542880859375,-3.200033187866211,0.965086817741394,-0.3992231488227844
1686424985987233300,1.2642333984375,-3.2355239391326904,1.0915656089782715,-0.3620694577693939
1686424985997178000,1.27417822265625,-3.287459135055542,0.9880024790763855,-0.4754306375980377
1686424986007124200,1.284124267578125,-3.471900224685669,0.8290650248527527,-0.5649385452270508
1686424986017069000,1.294069091796875,-3.819324254989624,0.8191453218460083,-0.5366528630256653
1686424986027014100,1.30401416015625,-4.320804595947266,0.8534368872642517,-0.4334069490432739
1686424986036959200,1.313959228515625,-4.900356769561768,0.9080241918563843,-0.25007253885269165
1686424986046905000,1.323905029296875,-5.409650802612305,0.9430251717567444,0.00037855724804103374
1686424986056850200,1.33385009765625,-5.8028106689453125,0.8737694025039673,0.3890719711780548
1686424986066795000,1.343794921875,-6.00164270401001,0.8182321786880493,0.8253737092018127
1686424986076740400,1.353740234375,-6.168047904968262,0.6711550951004028,1.1453791856765747
1686424986086686200,1.363686279296875,-6.404922962188721,0.607269287109375,1.278531789779663
1686424986096631000,1.373631103515625,-6.717532157897949,0.6087358593940735,1.215980887413025
1686424986106576100,1.383576171875,-6.848069190979004,0.22730909287929535,1.0327131748199463
1686424986116521200,1.393521240234375,-6.687352180480957,-0.11299043148756027,0.6062998175621033
1686424986126467300,1.40346728515625,-6.496920108795166,-0.1692952662706375,0.08061415702104568
1686424986136412200,1.413412109375,-6.258174419403076,-0.23525165021419525,-0.36791250109672546
1686424986146357000,1.42335693359375,-5.440988540649414,-0.2507575452327728,-0.49918290972709656
1686424986156303000,1.43330322265625,-4.822678565979004,-0.4222334325313568,-0.8347574472427368
1686424986166248200,1.443248291015625,-4.323976516723633,-1.267268419265747,-1.0052590370178223
1686424986176193300,1.453193359375,-3.541990041732788,-1.8561524152755737,-0.8619346618652344
1686424986186138000,1.46313818359375,-2.603748083114624,-2.061027765274048,-0.474291056394577
1686424986196084200,1.473084228515625,-1.6766449213027954,-1.7322827577590942,0.07593479752540588
1686424986206029000,1.483029052734375,-0.8911839127540588,-1.0142754316329956,0.5539515614509583
1686424986215974100,1.49297412109375,-0.42878323793411255,-0.39457201957702637,0.797336757183075
1686424986225919200,1.502919189453125,-0.25592806935310364,0.10474026948213577,0.8615251183509827
1686424986235865000,1.512864990234375,-0.21378540992736816,0.5139075517654419,0.8246129155158997
1686424986245810200,1.52281005859375,-0.3369888961315155,0.4700375199317932,0.6409094929695129
1686424986255755300,1.53275537109375,-0.3674655854701996,0.5982524752616882,0.5151014924049377
1686424986265700000,1.5427001953125,-0.26601460576057434,1.2032768726348877,0.5384065508842468
1686424986275646200,1.552646240234375,-0.16493354737758636,1.7689034938812256,0.5236672759056091
1686424986285591000,1.562591064453125,-0.10626097768545151,2.2251205444335938,0.4252994656562805
1686424986295536000,1.5725361328125,-0.05933048576116562,2.52628231048584,0.27042439579963684
1686424986305481200,1.582481201171875,-0.019278090447187424,2.708850145339966,0.083099365234375
1686424986315427000,1.592427001953125,-0.021930333226919174,2.807515859603882,-0.08596981316804886
1686424986325372200,1.6023720703125,-0.028100986033678055,2.8518707752227783,-0.22630396485328674
1686424986335317200,1.612317138671875,-0.0250529982149601,2.854605197906494,-0.3534528613090515
1686424986345263400,1.622263427734375,-0.01060247141867876,2.7412195205688477,-0.4718342125415802
1686424986355208200,1.632208251953125,-0.010334290564060211,2.6997828483581543,-0.491088330745697
1686424986365153000,1.642153076171875,0.02448715642094612,2.607959747314453,-0.4882398545742035
1686424986375098000,1.65209814453125,0.08938252925872803,2.5399715900421143,-0.4740643799304962
1686424986385044200,1.662044189453125,0.11951851844787598,2.5394508838653564,-0.39365819096565247
1686424986394989300,1.6719892578125,0.1211414486169815,2.4513115882873535,-0.2514789402484894
1686424986404934100,1.68193408203125,0.14972873032093048,2.222121000289917,-0.012889329344034195
1686424986414879000,1.69187890625,0.18945856392383575,1.6078650951385498,0.444876104593277
1686424986424825000,1.7018251953125,0.23345141112804413,0.880618155002594,0.8556722402572632
1686424986434770200,1.711770263671875,0.253576397895813,0.44026345014572144,0.8707595467567444
1686424986444715300,1.72171533203125,0.1934056580066681,0.2922670245170593,0.5803766846656799
1686424986454660000,1.73166015625,0.032573357224464417,0.21431228518486023,0.12364134937524796
1686424986464606000,1.74160595703125,-0.19131679832935333,0.1085028126835823,-0.3612907826900482
1686424986474551300,1.75155126953125,-0.36227282881736755,-0.018416255712509155,-0.7598999738693237
1686424986484496100,1.76149609375,-0.47375357151031494,-0.09675421565771103,-1.052736759185791
1686424986494442200,1.771442138671875,-0.5712860226631165,-0.053995560854673386,-1.2699793577194214
1686424986504387000,1.781386962890625,-0.6445983648300171,0.023684242740273476,-1.3381587266921997
1686424986514332200,1.791332275390625,-0.6107312440872192,0.22005881369113922,-1.314218282699585
1686424986524277200,1.80127734375,-0.42991170287132263,0.5261158347129822,-1.229775309562683
1686424986534223000,1.81122314453125,-0.20314165949821472,0.7446540594100952,-1.0974245071411133
1686424986544168200,1.821168212890625,0.005224139429628849,0.7203478813171387,-0.9348090291023254
1686424986554113000,1.831113037109375,0.15943609178066254,0.4178103506565094,-0.7615341544151306
1686424986564058000,1.84105810546875,0.25830286741256714,-0.08546803891658783,-0.6052290797233582
1686424986574004200,1.851004150390625,0.3022327721118927,-0.7079033851623535,-0.45711952447891235
1686424986583949000,1.860948974609375,0.25904056429862976,-1.3461452722549438,-0.3069918155670166
1686424986593894100,1.87089404296875,0.10215321183204651,-1.9020538330078125,-0.135438933968544
1686424986603839200,1.880839111328125,-0.12075704336166382,-2.3147494792938232,0.06707275658845901
1686424986613785300,1.890785400390625,-0.3306439518928528,-2.5465312004089355,0.23533234000205994
1686424986623730200,1.900730224609375,-0.4910281002521515,-2.6467690467834473,0.32456275820732117
1686424986633675000,1.910675048828125,-0.6797090172767639,-2.6884963512420654,0.31356334686279297
1686424986643621000,1.92062109375,-0.9332613348960876,-2.64754056930542,0.1886616051197052
1686424986653566500,1.93056640625,-1.1531023979187012,-2.4108166694641113,-0.07420438528060913
1686424986663511600,1.940511474609375,-1.1017361879348755,-2.092195749282837,-0.38123899698257446
1686424986673456400,1.950456298828125,-0.8661580085754395,-1.961559534072876,-0.6077203154563904
1686424986683402200,1.96040234375,-0.581807553768158,-1.9852294921875,-0.7438622713088989
1686424986693347300,1.970347412109375,-0.330279678106308,-1.9856785535812378,-0.8426253199577332
1686424986703292400,1.98029248046875,-0.15878047049045563,-1.9360933303833008,-0.8655632734298706
1686424986713237200,1.9902373046875,-0.06769663840532303,-1.8472071886062622,-0.8197814226150513
1686424986723183400,2.000183349609375,-0.029713422060012817,-1.7502386569976807,-0.7142888903617859
1686424986733128200,2.010128173828125,0.008572980761528015,-1.6473666429519653,-0.5782653093338013
1686424986743073500,2.020073486328125,0.08050525933504105,-1.5923144817352295,-0.4241011142730713
1686424986753019400,2.030019287109375,0.17766588926315308,-1.5890926122665405,-0.26590535044670105
1686424986762964500,2.039964599609375,0.27591076493263245,-1.6248016357421875,-0.09355546534061432
1686424986772909300,2.049909423828125,0.36618420481681824,-1.6739716529846191,0.08707796037197113
1686424986782854400,2.0598544921875,0.4653911590576172,-1.7091569900512695,0.26212823390960693
1686424986792800500,2.069800537109375,0.5535204410552979,-1.6616264581680298,0.43641507625579834
1686424986802745300,2.079745361328125,0.646038830280304,-1.5385185480117798,0.5879269242286682
1686424986812690400,2.0896904296875,0.6643011569976807,-1.36794912815094,0.6546026468276978
1686424986822635500,2.099635498046875,0.5476019382476807,-1.1473058462142944,0.6565856337547302
1686424986832581600,2.10958154296875,0.3804140090942383,-0.9034979939460754,0.6550945043563843
1686424986842526500,2.1195263671875,0.22784754633903503,-0.6294760704040527,0.6585458517074585
1686424986852471300,2.12947119140625,0.10852673649787903,-0.3104326128959656,0.6488841772079468
1686424986862417400,2.13941748046875,-0.006848875433206558,0.002760103903710842,0.6201886534690857
1686424986872362500,2.149362548828125,-0.10233491659164429,0.31457018852233887,0.5660167932510376
1686424986882307300,2.159307373046875,-0.19149023294448853,0.6169033050537109,0.49565306305885315
1686424986892252400,2.16925244140625,-0.2794957160949707,0.8676676154136658,0.4346237778663635
1686424986902198300,2.1791982421875,-0.33890673518180847,1.099462866783142,0.36726465821266174
1686424986912143400,2.189143310546875,-0.35333573818206787,1.2707674503326416,0.31862762570381165
1686424986922088400,2.19908837890625,-0.32440102100372314,1.357851505279541,0.30774661898612976
1686424986932033300,2.209033203125,-0.25439611077308655,1.3724526166915894,0.3161108195781708
1686424986941979400,2.2189794921875,-0.1782814860343933,1.3207497596740723,0.35038843750953674
1686424986951924200,2.22892431640625,-0.1033148467540741,1.2396304607391357,0.3939846456050873
1686424986961869600,2.23886962890625,-0.03819502517580986,1.1122846603393555,0.4617176353931427
1686424986971815400,2.2488154296875,-0.00852634571492672,0.9909272789955139,0.5498126149177551
1686424986981760500,2.258760498046875,0.009355203248560429,0.9226891398429871,0.656528651714325
1686424986991705300,2.268705322265625,0.013941432349383831,0.8929435014724731,0.7856805324554443
1686424987001650400,2.278650390625,0.02422485500574112,0.9342941045761108,0.9346628785133362
1686424987011596500,2.288596435546875,0.03366868942975998,0.9890295267105103,1.102351427078247
1686424987021541400,2.298541259765625,0.06152619421482086,1.0556962490081787,1.2944626808166504
1686424987031486500,2.308486572265625,0.1071498692035675,1.1333961486816406,1.5245217084884644
1686424987041431600,2.318431640625,0.14306016266345978,1.180618405342102,1.8006759881973267
1686424987051377400,2.32837744140625,0.18153831362724304,1.1340948343276978,2.1059632301330566
1686424987061322500,2.338322509765625,0.2054809331893921,0.985842764377594,2.440549373626709
1686424987071267300,2.348267333984375,0.2218540459871292,0.7464330792427063,2.7628276348114014
1686424987081213400,2.35821337890625,0.23724065721035004,0.4618320167064667,3.043520212173462
1686424987091158300,2.368158203125,0.24163886904716492,0.13952161371707916,3.290379524230957
1686424987101103400,2.378103271484375,0.25019776821136475,-0.2329699844121933,3.494642496109009
1686424987111048400,2.38804833984375,0.26209011673927307,-0.6928190588951111,3.6262447834014893
1686424987120994300,2.397994384765625,0.26369979977607727,-1.1012327671051025,3.6400082111358643
1686424987130939400,2.407939453125,0.23873907327651978,-1.2093623876571655,3.4433116912841797
1686424987140884500,2.417884521484375,0.15331339836120605,-0.7554470896720886,2.9592435359954834
1686424987150829300,2.427829345703125,0.04852599650621414,0.050859034061431885,2.1127874851226807
1686424987160775400,2.437775390625,-0.04719070717692375,0.8103362917900085,1.0010945796966553
1686424987170720300,2.44772021484375,-0.09985684603452682,1.2743182182312012,-0.16098038852214813
1686424987180665600,2.45766552734375,-0.09704750776290894,1.4613679647445679,-1.0924128293991089
1686424987190611500,2.467611572265625,-0.05723005533218384,1.5245914459228516,-1.675551176071167
1686424987200556500,2.477556640625,-0.014267217367887497,1.5204195976257324,-2.0252411365509033
1686424987210501400,2.48750146484375,0.022100910544395447,1.4508227109909058,-2.240232467651367
1686424987220446500,2.497446533203125,0.06234060227870941,1.300760269165039,-2.3629021644592285
1686424987230392600,2.507392578125,0.0886201411485672,1.029139757156372,-2.4137189388275146
1686424987240337400,2.51733740234375,0.10470209270715714,0.589104413986206,-2.4018688201904297
1686424987250282200,2.5272822265625,0.10413883626461029,0.011934829875826836,-2.3212461471557617
1686424987260227300,2.537227294921875,0.07397904247045517,-0.7180808782577515,-2.171583890914917
1686424987270173200,2.547173095703125,0.02740488573908806,-1.6757993698120117,-1.9239850044250488
1686424987280118500,2.557118408203125,-0.02399621345102787,-2.841167688369751,-1.5811067819595337
1686424987290063400,2.5670634765625,-0.09652234613895416,-4.092935085296631,-1.1703161001205444
1686424987300009500,2.577009521484375,-0.16320331394672394,-5.3045854568481445,-0.7287519574165344
1686424987309954300,2.586954345703125,-0.20786452293395996,-6.366361141204834,-0.3084619641304016
1686424987319899400,2.5968994140625,-0.20875591039657593,-7.230881690979004,0.06367362290620804
1686424987329844500,2.606844482421875,-0.11408533155918121,-7.918215274810791,0.4103383719921112
1686424987339790300,2.616790283203125,0.050663337111473083,-8.122406005859375,0.6507998704910278
1686424987349735400,2.6267353515625,0.2024534046649933,-7.762965202331543,0.7041179537773132
1686424987359680500,2.636680419921875,0.31205296516418457,-6.900381088256836,0.5659592151641846
1686424987369626400,2.64662646484375,0.42371851205825806,-5.604925155639648,0.2495807707309723
1686424987379571500,2.656571533203125,0.4891001284122467,-4.066371917724609,-0.14295250177383423
1686424987389516300,2.666516357421875,0.5609676837921143,-2.56955885887146,-0.5233051180839539
1686424987399461600,2.676461669921875,0.6534515023231506,-1.3063217401504517,-0.8362189531326294
1686424987409407500,2.686407470703125,0.7099957466125488,-0.34946393966674805,-1.0416743755340576
1686424987419352300,2.696352294921875,0.689744770526886,0.48737335205078125,-1.2075566053390503
1686424987429297400,2.70629736328125,0.5614815950393677,1.1746944189071655,-1.3153592348098755
1686424987439242200,2.7162421875,0.34168559312820435,1.6935079097747803,-1.361549973487854
1686424987449188400,2.726188232421875,0.08922111988067627,2.0261647701263428,-1.3373405933380127
1686424987459133400,2.736133544921875,-0.13461562991142273,2.1897008419036865,-1.2466200590133667
1686424987469078300,2.746078369140625,-0.29770949482917786,2.2146801948547363,-1.1025632619857788
1686424987479024400,2.7560244140625,-0.39923998713493347,2.1779050827026367,-0.9316465258598328
1686424987488969200,2.76596923828125,-0.40553247928619385,2.1268365383148193,-0.7365542650222778
1686424987498914600,2.77591455078125,-0.3461031913757324,2.09456729888916,-0.5441029667854309
1686424987508859400,2.785859375,-0.2758926749229431,2.0639798641204834,-0.3616308867931366
1686424987518805500,2.795805419921875,-0.1941894292831421,2.013552188873291,-0.1696845442056656
1686424987528750300,2.805750244140625,-0.09123560786247253,1.9684056043624878,0.02248542755842209
1686424987538695400,2.8156953125,0.033726271241903305,1.968689203262329,0.20121616125106812
1686424987548640500,2.825640625,0.15944930911064148,2.0632882118225098,0.34645164012908936
1686424987558586400,2.83558642578125,0.3172122538089752,2.2689616680145264,0.44434094429016113
1686424987568531500,2.845531494140625,0.47717610001564026,2.586247444152832,0.47776681184768677
1686424987578476500,2.8554765625,0.6590051054954529,3.0551252365112305,0.43255868554115295
1686424987588422400,2.86542236328125,0.8071021437644958,3.669888973236084,0.3124693036079407
1686424987598367500,2.875367431640625,0.9076219201087952,4.381289005279541,0.10412576049566269
1686424987608312300,2.885312255859375,0.902248203754425,5.0990214347839355,-0.1600145399570465
1686424987618257400,2.89525732421875,0.6371591687202454,5.765156269073486,-0.4310837984085083
1686424987628203500,2.90520361328125,0.10739010572433472,6.418615818023682,-0.6327288150787354
1686424987638148400,2.9151484375,-0.378086656332016,7.055821418762207,-0.8848159909248352
1686424987648093400,2.925093505859375,-0.6554991006851196,7.625359535217285,-1.2854816913604736
1686424987658039600,2.93503955078125,-0.6857000589370728,7.915900230407715,-1.8284573554992676
1686424987667984400,2.944984375,-0.5475429892539978,7.813625335693359,-2.5129311084747314
1686424987677929700,2.9549296875,-0.4489017128944397,6.905832290649414,-3.1403656005859375
1686424987687874600,2.96487451171875,-0.37877508997917175,3.876282215118408,-2.9331300258636475
1686424987697820700,2.974820556640625,-0.12254773825407028,-0.4503087103366852,-1.7267401218414307
1686424987707765500,2.984765625,0.0274934284389019,-2.405499219894409,-0.7980801463127136
1686424987717710600,2.994710693359375,-0.0481400191783905,-2.7776079177856445,-0.07335179299116135
1686424987727655700,3.00465576171875,-0.391574889421463,-2.8567380905151367,0.48067039251327515
1686424987737601500,3.0146015625,-0.9317516684532166,-3.144993782043457,0.8288284540176392
1686424987747546600,3.024546630859375,-1.4910932779312134,-3.8098084926605225,1.0304523706436157
1686424987757491700,3.03449169921875,-1.8740402460098267,-4.554330825805664,0.9946834444999695
1686424987767437600,3.0444375,-2.020749807357788,-5.101436614990234,0.8092294335365295
1686424987777382700,3.054382568359375,-1.9604952335357666,-5.384673118591309,0.6754176616668701
1686424987787327500,3.064327392578125,-1.683421015739441,-5.435623645782471,0.6317777633666992
1686424987797272600,3.0742724609375,-1.1399176120758057,-5.27919864654541,0.6008040904998779
1686424987807218400,3.084218505859375,-0.4738379120826721,-5.0260491371154785,0.5479472875595093
1686424987817163500,3.09416357421875,0.009634526446461678,-4.855128765106201,0.5080342888832092
1686424987827108600,3.104108642578125,0.21983996033668518,-4.774061679840088,0.5081879496574402
1686424987837054500,3.114054443359375,0.2758242189884186,-4.615478992462158,0.5035583972930908
1686424987846999600,3.12399951171875,0.2736414968967438,-4.283505439758301,0.4709482789039612
1686424987856944600,3.133944580078125,0.28771495819091797,-3.8006019592285156,0.4241138994693756
1686424987866889500,3.143889404296875,0.37833458185195923,-3.2453088760375977,0.38353532552719116
1686424987876835600,3.153835693359375,0.4960390329360962,-2.7896082401275635,0.3628593981266022
1686424987886780400,3.163780517578125,0.6187143325805664,-2.4286108016967773,0.33964967727661133
1686424987896725800,3.173725830078125,0.6914645433425903,-2.1490402221679688,0.3111623525619507
1686424987906671600,3.183671630859375,0.6738805174827576,-1.9004740715026855,0.27083224058151245
1686424987916616700,3.19361669921875,0.6056612730026245,-1.5705722570419312,0.19224101305007935
1686424987926561500,3.2035615234375,0.48909494280815125,-1.1827473640441895,0.07226266711950302
1686424987936506600,3.213506591796875,0.30251577496528625,-0.8427072763442993,-0.0850079357624054
1686424987946452700,3.22345263671875,0.0887446403503418,-0.5896319150924683,-0.25612667202949524
1686424987956397600,3.2333974609375,-0.10048536211252213,-0.37213200330734253,-0.4194059371948242
1686424987966342700,3.2433427734375,-0.23266363143920898,-0.16655676066875458,-0.5612925291061401
1686424987976287500,3.25328759765625,-0.31844764947891235,-0.01163552887737751,-0.6836788058280945
1686424987986233600,3.263233642578125,-0.3556496202945709,0.06380517035722733,-0.7777552008628845
1686424987996178700,3.2731787109375,-0.37662819027900696,0.047227829694747925,-0.843897819519043
1686424988006123500,3.28312353515625,-0.4247848093509674,-0.017039842903614044,-0.8751944899559021
1686424988016069600,3.293069580078125,-0.47728610038757324,-0.08754037320613861,-0.862306535243988
1686424988026014500,3.303014404296875,-0.5304797887802124,-0.16875293850898743,-0.8106140494346619
1686424988035959600,3.31295947265625,-0.5601195693016052,-0.27264639735221863,-0.7152734994888306
1686424988045904600,3.322904541015625,-0.5983750820159912,-0.4287225604057312,-0.5762868523597717
1686424988055850500,3.3328505859375,-0.6180353760719299,-0.6152167916297913,-0.3973846137523651
1686424988065795600,3.342795654296875,-0.6216346621513367,-0.7848926782608032,-0.17182154953479767
1686424988075740700,3.35274072265625,-0.6187177300453186,-0.9221011996269226,0.07180697470903397
1686424988085685500,3.362685546875,-0.6195632815361023,-0.9827943444252014,0.3151501417160034
1686424988095631600,3.372631591796875,-0.6157048344612122,-0.9616740942001343,0.5361119508743286
1686424988105576400,3.382576416015625,-0.5903757810592651,-0.8293541073799133,0.7147058844566345
1686424988115521800,3.392521728515625,-0.5457127690315247,-0.584312915802002,0.8453278541564941
1686424988125467600,3.402467529296875,-0.4977548122406006,-0.2466168850660324,0.9247161746025085
1686424988135412500,3.41241259765625,-0.42885923385620117,0.1909364014863968,0.9470201730728149
1686424988145357600,3.422357666015625,-0.3444277048110962,0.6766067147254944,0.930426836013794
1686424988155302400,3.432302490234375,-0.27324968576431274,1.2257012128829956,0.8831275105476379
1686424988165248500,3.44224853515625,-0.23639313876628876,1.8157156705856323,0.8078879117965698
1686424988175193600,3.452193603515625,-0.250889390707016,2.406034231185913,0.7237211465835571
1686424988185138400,3.462138427734375,-0.31667932868003845,2.97847056388855,0.6556925773620605
1686424988195084500,3.47208447265625,-0.42482471466064453,3.4752912521362305,0.6279160380363464
1686424988205029400,3.482029296875,-0.48174580931663513,3.85017466545105,0.6586595773696899
1686424988214974700,3.491974609375,-0.4784242808818817,4.08797025680542,0.7222042083740234
1686424988224919600,3.50191943359375,-0.4276612401008606,4.268566608428955,0.8162862062454224
1686424988234865700,3.51186572265625,-0.3108411431312561,4.356833457946777,0.9792302846908569
1686424988244810500,3.521810546875,-0.1912606656551361,4.226319789886475,1.326467514038086
1686424988254755600,3.531755615234375,-0.08005091547966003,3.7222349643707275,1.9814355373382568
1686424988264701700,3.54170166015625,0.045634038746356964,2.6474597454071045,3.044959306716919
1686424988274646500,3.551646484375,0.07509145885705948,0.6312916278839111,4.409501552581787
1686424988284591600,3.561591552734375,-0.00912941712886095,-1.670749545097351,5.227341651916504
1686424988294536700,3.57153662109375,-0.03292456641793251,-2.8436038494110107,5.064195156097412
1686424988304482600,3.581482666015625,0.09723582863807678,-1.9105314016342163,3.6124823093414307
1686424988314427600,3.591427734375,0.5752277374267578,0.9503880143165588,0.8042598962783813
1686424988324372500,3.60137255859375,0.7262638807296753,2.187429189682007,-1.023892879486084
1686424988334318600,3.611318603515625,0.4417760670185089,2.4847519397735596,-1.9808006286621094
1686424988344263700,3.621263671875,0.19806993007659912,2.4011776447296143,-2.297545909881592
1686424988354208500,3.63120849609375,0.13112041354179382,2.1461470127105713,-2.3616127967834473
1686424988364153600,3.641153564453125,0.21162138879299164,1.7296926975250244,-2.3458411693573
1686424988374099500,3.651099365234375,0.3755285143852234,1.297730803489685,-2.314831256866455
1686424988384044500,3.66104443359375,0.5671602487564087,0.8884716033935547,-2.297640800476074
1686424988393989600,3.67098974609375,0.7479196190834045,0.4826688766479492,-2.2740659713745117
1686424988403935700,3.680935791015625,0.9532378911972046,0.02296864427626133,-2.2620511054992676
1686424988413880600,3.690880615234375,1.1415133476257324,-0.4246779680252075,-2.214852809906006
1686424988423825400,3.700825439453125,1.2560385465621948,-0.7551655769348145,-2.0640814304351807
1686424988433770800,3.710770751953125,1.2420786619186401,-1.0332459211349487,-1.8025330305099487
1686424988443716600,3.720716552734375,1.1122490167617798,-1.422009825706482,-1.4551159143447876
1686424988453661700,3.73066162109375,0.8756139278411865,-2.157106399536133,-1.0355397462844849
1686424988463606500,3.7406064453125,0.649261474609375,-3.392152786254883,-0.5297099947929382
1686424988473551600,3.750551513671875,0.4050730764865875,-4.978916168212891,0.07510517537593842
1686424988483497700,3.760497802734375,0.07789468765258789,-6.891086101531982,0.7919530272483826
1686424988493442600,3.770442626953125,-0.15334036946296692,-8.276135444641113,1.3314611911773682
1686424988503387400,3.780387451171875,-0.27357277274131775,-8.970231056213379,1.6286548376083374
1686424988513333500,3.79033349609375,-0.22443841397762299,-9.024101257324219,1.737960934638977
1686424988523278600,3.800278564453125,-0.12963439524173737,-8.44250774383545,1.6878612041473389
1686424988533223700,3.8102236328125,-0.10635697096586227,-7.157104969024658,1.3898686170578003
1686424988543168500,3.82016845703125,-0.11413606256246567,-5.329638957977295,0.9103487133979797
1686424988553114600,3.830114501953125,-0.07014770060777664,-3.193805456161499,0.3626800775527954
1686424988563059500,3.8400595703125,0.11099332571029663,-1.2011853456497192,-0.0861765593290329
1686424988573004500,3.850004638671875,0.3825586140155792,0.36863383650779724,-0.3962250053882599
1686424988582950700,3.85995068359375,0.5761443376541138,1.5301991701126099,-0.6229681372642517
1686424988592895500,3.8698955078125,0.6138209104537964,2.3747241497039795,-0.8117058873176575
1686424988602840600,3.879840576171875,0.516035795211792,2.9590940475463867,-0.9530960321426392
1686424988612785700,3.88978564453125,0.31734132766723633,3.3373873233795166,-1.0335025787353516
1686424988622731800,3.899731689453125,0.10117947310209274,3.543214797973633,-1.0306739807128906
1686424988632676600,3.909676513671875,-0.0973593220114708,3.5965006351470947,-0.9646996259689331
1686424988642621400,3.919621337890625,-0.24660447239875793,3.5393476486206055,-0.8317924737930298
1686424988652567600,3.929567626953125,-0.30086225271224976,3.3197665214538574,-0.680390477180481
1686424988662513000,3.939512939453125,-0.27409934997558594,3.0419530868530273,-0.5101097822189331
1686424988672457700,3.949457763671875,-0.20448997616767883,2.7973129749298096,-0.3355161249637604
1686424988682402600,3.959402587890625,-0.12608171999454498,2.614086151123047,-0.14686071872711182
1686424988692348700,3.9693486328125,-0.0753515362739563,2.4690158367156982,0.06638021767139435
1686424988702293800,3.979293701171875,0.0030796239152550697,2.357619285583496,0.3088269531726837
1686424988712238800,3.98923876953125,0.11109545826911926,2.334057331085205,0.5371301174163818
1686424988722184700,3.999184814453125,0.23801451921463013,2.412177324295044,0.7396517992019653
1686424988732129800,4.0091298828125,0.38459235429763794,2.612260341644287,0.8960776925086975
1686424988742074600,4.01907470703125,0.593415379524231,3.1641886234283447,0.8968201875686646
1686424988752019700,4.029019775390625,0.6033469438552856,4.5968451499938965,0.3869078457355499
1686424988761965800,4.0389658203125,0.2975020408630371,6.741230487823486,-0.5299964547157288
1686424988771910700,4.04891064453125,-0.07509425282478333,8.550898551940918,-1.3691699504852295
1686424988781855500,4.05885546875,-0.2948518991470337,9.831568717956543,-2.0851173400878906
1686424988791801600,4.068801513671875,-0.31437063217163086,10.63358211517334,-2.802316665649414
1686424988801746700,4.07874658203125,-0.2923084497451782,10.977355003356934,-3.5686960220336914
1686424988811691800,4.08869189453125,-0.31475281715393066,10.879150390625,-4.2256059646606445
1686424988821636600,4.09863671875,-0.247818261384964,9.473904609680176,-4.163569927215576
1686424988831582700,4.108582763671875,0.039771515876054764,4.649504661560059,-2.3655216693878174
1686424988841527800,4.11852783203125,0.3677387237548828,-0.9404043555259705,-0.11106682568788528
1686424988851472600,4.12847265625,0.579850435256958,-3.1986238956451416,0.9369452595710754
1686424988861417700,4.138417724609375,0.6628968715667725,-3.9862358570098877,1.4584903717041016
1686424988871363600,4.148363525390625,0.4336571991443634,-4.474194049835205,1.753358006477356
1686424988881308700,4.15830859375,-0.20722746849060059,-5.031031131744385,1.9300205707550049
1686424988891253800,4.168253662109375,-0.9780475497245789,-5.567382335662842,1.872477412223816
1686424988901199600,4.17819970703125,-1.5274803638458252,-5.7945876121521,1.487140417098999
1686424988911144700,4.188144775390625,-1.8675265312194824,-5.800439834594727,1.094191312789917
1686424988921089500,4.198089599609375,-1.955743432044983,-5.767909049987793,0.9027496576309204
1686424988931035000,4.208034912109375,-1.7281564474105835,-5.772035121917725,0.8127905130386353
1686424988940980700,4.217980712890625,-1.2651203870773315,-5.839962959289551,0.6906595230102539
1686424988950925600,4.227925537109375,-0.7429015040397644,-5.979235649108887,0.5394926071166992
1686424988960870700,4.23787060546875,-0.29451411962509155,-6.112941265106201,0.3981994092464447
1686424988970816500,4.24781640625,0.033162347972393036,-6.089085578918457,0.24312058091163635
1686424988980761900,4.257761962890625,0.27109581232070923,-5.801295280456543,0.11143817007541656
1686424988990706700,4.267706787109375,0.45955607295036316,-5.253321170806885,-0.03452788665890694
1686424989000651500,4.277651611328125,0.6397860646247864,-4.537997722625732,-0.18083901703357697
1686424989010597600,4.28759765625,0.7687537670135498,-3.8477530479431152,-0.3050873875617981
1686424989020542700,4.297542724609375,0.8159242272377014,-3.3026087284088135,-0.4102489650249481
1686424989030487800,4.30748779296875,0.7376031875610352,-2.9279351234436035,-0.4892739951610565
1686424989040433700,4.31743359375,0.5954852104187012,-2.61468768119812,-0.5594797134399414
1686424989050378800,4.327378662109375,0.45764368772506714,-2.278972864151001,-0.6343207359313965
1686424989060323800,4.33732373046875,0.32235589623451233,-1.9345194101333618,-0.7191832065582275
1686424989070268700,4.3472685546875,0.18080756068229675,-1.6306438446044922,-0.8097744584083557
1686424989080214800,4.35721484375,0.026474980637431145,-1.3605345487594604,-0.9056069850921631
1686424989090159600,4.36715966796875,-0.14527158439159393,-1.1489118337631226,-0.987211287021637
1686424989100104700,4.377104736328125,-0.2911126911640167,-0.9880382418632507,-1.049256443977356
1686424989110050600,4.387050537109375,-0.4047912657260895,-0.8428947925567627,-1.1086993217468262
1686424989119995600,4.39699560546875,-0.5336081385612488,-0.7574288845062256,-1.1279339790344238
1686424989129940700,4.406940673828125,-0.6302952170372009,-0.73972487449646,-1.1012057065963745
1686424989139885600,4.416885498046875,-0.6491485238075256,-0.7972478270530701,-1.0359575748443604
1686424989149831700,4.426831787109375,-0.6161845326423645,-0.8759280443191528,-0.9606834650039673
1686424989159776800,4.43677685546875,-0.5781612396240234,-0.9080897569656372,-0.875760018825531
1686424989169721600,4.4467216796875,-0.5602324604988098,-0.903228223323822,-0.7671810388565063
1686424989179667700,4.456667724609375,-0.5369518995285034,-0.8822510242462158,-0.656400740146637
1686424989189612500,4.466612548828125,-0.5150085687637329,-0.8243146538734436,-0.5516703128814697
1686424989199558000,4.476557861328125,-0.5126665830612183,-0.7075930833816528,-0.44926247000694275
1686424989209502700,4.486502685546875,-0.5461727380752563,-0.5421155691146851,-0.34732139110565186
1686424989219448800,4.49644873046875,-0.6080507636070251,-0.3492862284183502,-0.2378729283809662
1686424989229393700,4.5063935546875,-0.65961092710495,-0.16110765933990479,-0.12281475216150284
1686424989239338800,4.5163388671875,-0.6650888323783875,0.04643195495009422,-0.01190741453319788
1686424989249284900,4.526284912109375,-0.6503580808639526,0.300083190202713,0.08817768841981888
1686424989259229700,4.536229736328125,-0.5968948602676392,0.6287683844566345,0.1669641137123108
1686424989269174500,4.546174560546875,-0.4959113895893097,1.0090628862380981,0.23163330554962158
1686424989279119600,4.55611962890625,-0.36580559611320496,1.4410712718963623,0.2764100730419159
1686424989289065500,4.5660654296875,-0.29279688000679016,1.9307897090911865,0.3243734836578369
1686424989299010800,4.5760107421875,-0.2938464283943176,2.4574663639068604,0.39581170678138733
1686424989308955600,4.58595556640625,-0.34220102429389954,2.906189441680908,0.4424671530723572
1686424989318901800,4.59590185546875,-0.4467010498046875,3.2440671920776367,0.45738884806632996
1686424989328846600,4.6058466796875,-0.5566961169242859,3.512373447418213,0.48314619064331055
1686424989338791700,4.615791748046875,-0.6293721795082092,3.815211534500122,0.6062400937080383
1686424989348736800,4.62573681640625,-0.6350711584091187,4.0795698165893555,0.8083434104919434
1686424989358682600,4.6356826171875,-0.5392482280731201,4.285106182098389,1.0766419172286987
1686424989368627700,4.645627685546875,-0.3718854486942291,4.362792015075684,1.5572106838226318
1686424989378572800,4.65557275390625,-0.19490642845630646,4.102143287658691,2.1531944274902344
1686424989388519000,4.665518798828125,-0.07878690958023071,3.351598024368286,2.959458112716675
1686424989398463700,4.675463623046875,-0.06789697706699371,1.7484925985336304,3.7501819133758545
1686424989408408600,4.68540869140625,-0.15848426520824432,-0.7099531292915344,4.153099060058594
1686424989418354000,4.69535400390625,-0.2700003981590271,-2.618445634841919,4.11466646194458
1686424989428299800,4.7052998046875,-0.2359505593776703,-3.186570644378662,3.383556604385376
1686424989438244600,4.71524462890625,0.15587526559829712,-2.310706853866577,1.7549140453338623
1686424989448189700,4.725189697265625,0.8054196238517761,-0.614772617816925,-0.35338088870048523
1686424989458135600,4.735135498046875,1.135796308517456,0.6425427794456482,-1.7003082036972046
1686424989468080600,4.74508056640625,1.1658918857574463,1.30271315574646,-2.3512797355651855
1686424989478025700,4.755025634765625,1.120120644569397,1.4493484497070312,-2.518599271774292
1686424989487970600,4.764970458984375,1.0441526174545288,1.2900876998901367,-2.4553468227386475
1686424989497916700,4.774916748046875,0.9823256731033325,1.0894782543182373,-2.3115720748901367
1686424989507861500,4.784861572265625,0.9772046804428101,0.8805592060089111,-2.151822328567505
1686424989517806800,4.794806884765625,1.0233467817306519,0.6428260207176208,-1.9652963876724243
1686424989527752700,4.804752685546875,1.112169861793518,0.353838175535202,-1.7413864135742188
1686424989537697800,4.81469775390625,1.1637790203094482,-0.011149397119879723,-1.4558957815170288
1686424989547642600,4.824642578125,1.1741310358047485,-0.3852579593658447,-1.1426844596862793
1686424989557587700,4.834587646484375,1.2224177122116089,-0.6255709528923035,-0.8067184090614319
1686424989567533800,4.844533935546875,1.3060203790664673,-0.7478304505348206,-0.4994134306907654
1686424989577478700,4.854478759765625,1.3847010135650635,-0.8943354487419128,-0.1951504945755005
1686424989587423700,4.864423828125,1.3794575929641724,-1.0043810606002808,0.035342663526535034
1686424989597369600,4.87436962890625,1.2624742984771729,-1.2774783372879028,0.17197534441947937
1686424989607314700,4.884314697265625,1.143798589706421,-1.7831913232803345,0.3000233471393585
1686424989617259800,4.894259765625,0.9654746651649475,-2.411278247833252,0.4685889482498169
1686424989627204600,4.90420458984375,0.7182452082633972,-3.078207015991211,0.6181135177612305
1686424989637150700,4.914150634765625,0.3986581861972809,-3.6041529178619385,0.7610298991203308
1686424989647095800,4.924095703125,0.03261096775531769,-3.9240849018096924,0.8987642526626587
1686424989657040600,4.93404052734375,-0.354207843542099,-3.9303646087646484,0.9389519095420837
1686424989666986500,4.943986572265625,-0.5826437473297119,-3.5337045192718506,0.8602819442749023
1686424989676931600,4.953931640625,-0.7455692887306213,-2.817469596862793,0.6518813371658325
1686424989686876400,4.96387646484375,-0.8079147934913635,-1.6886701583862305,0.3309032917022705
1686424989696821500,4.973821533203125,-0.7363684177398682,-0.3275165259838104,0.020516380667686462
1686424989706767600,4.983767578125,-0.6847042441368103,0.7833124995231628,-0.207590252161026
1686424989716712400,4.99371240234375,-0.5544455647468567,1.5427560806274414,-0.30283528566360474
1686424989726657500,5.003657470703125,-0.3365650773048401,2.0290753841400146,-0.328244149684906
1686424989736603400,5.013603271484375,-0.12449250370264053,2.3385231494903564,-0.28950050473213196
1686424989746548500,5.023548583984375,0.013177613727748394,2.4928829669952393,-0.21650981903076172
1686424989756493600,5.03349365234375,0.08015903830528259,2.590115547180176,-0.13523706793785095
1686424989766438400,5.0434384765625,0.10886352509260178,2.603794813156128,-0.05592154711484909
1686424989776384500,5.053384521484375,0.15899965167045593,2.500460624694824,0.04999849200248718
1686424989786329600,5.06332958984375,0.2152555286884308,2.2606091499328613,0.1423739492893219
1686424989796274400,5.0732744140625,0.24795036017894745,1.9494928121566772,0.21186381578445435
1686424989806220500,5.083220458984375,0.2504931390285492,1.6954669952392578,0.2778553366661072
1686424989816165400,5.093165283203125,0.2061118185520172,1.5354664325714111,0.3674936294555664
1686424989826110700,5.10311083984375,0.16008605062961578,1.4812195301055908,0.47083207964897156
1686424989836056600,5.113056640625,0.13586993515491486,1.5667335987091064,0.5633159279823303
1686424989846001700,5.123001708984375,0.14707694947719574,1.8339581489562988,0.6094620823860168
1686424989855946500,5.132946533203125,0.18910002708435059,2.466803550720215,0.5271810293197632
1686424989865891600,5.1428916015625,0.20702020823955536,4.077175140380859,0.007936905138194561
1686424989875837400,5.15283740234375,0.02615935169160366,6.246907711029053,-0.8148847818374634
1686424989885782500,5.162782470703125,-0.1347091794013977,8.043863296508789,-1.5208836793899536
1686424989895727600,5.1727275390625,-0.13196825981140137,9.30446720123291,-2.0423314571380615
1686424989905673500,5.182673583984375,0.03783681243658066,10.02165412902832,-2.463726282119751
1686424989915618300,5.192618408203125,0.31232935190200806,9.940664291381836,-2.870972156524658
1686424989925563600,5.202563720703125,0.5489423871040344,9.032649993896484,-3.398949146270752
1686424989935508500,5.212508544921875,0.6674461364746094,6.141143798828125,-3.2298340797424316
1686424989945454600,5.22245458984375,0.46466729044914246,0.9818646311759949,-1.3713057041168213
1686424989955399400,5.2323994140625,0.05873817577958107,-2.4517478942871094,-0.21591593325138092
1686424989965344500,5.242344482421875,-0.16567175090312958,-3.9537529945373535,0.22067999839782715
1686424989975290600,5.25229052734375,-0.42179006338119507,-4.53242301940918,0.5468924641609192
1686424989985235500,5.2622353515625,-0.8531573414802551,-4.90378999710083,0.8470304012298584
1686424989995180500,5.2721806640625,-1.371728539466858,-5.225500106811523,0.9464864134788513
1686424990005125600,5.282125732421875,-1.7607651948928833,-5.532115936279297,0.7636260986328125
1686424990015071700,5.29207177734375,-1.9629840850830078,-5.940830230712891,0.5167846083641052
1686424990025016600,5.3020166015625,-1.942745566368103,-6.279151439666748,0.30697935819625854
1686424990034961400,5.31196142578125,-1.7030693292617798,-6.601033687591553,0.14118053019046783
1686424990044907500,5.321907470703125,-1.3204379081726074,-6.9009199142456055,-0.002270016586408019
1686424990054852600,5.3318525390625,-0.9370008707046509,-6.984365463256836,-0.14054186642169952
1686424990064797700,5.341797607421875,-0.6068698763847351,-6.774327754974365,-0.30672043561935425
1686424990074742500,5.351742431640625,-0.3479222357273102,-6.326896667480469,-0.5044372081756592
1686424990084688400,5.3616884765625,-0.1526298224925995,-5.749911785125732,-0.7410421967506409
1686424990094633500,5.371633544921875,-0.030869822949171066,-5.146617412567139,-0.9801967740058899
1686424990104578600,5.38157861328125,0.03314514458179474,-4.639692306518555,-1.2232717275619507
1686424990114524700,5.391524658203125,0.07471629232168198,-4.277135372161865,-1.4475958347320557
1686424990124469500,5.401469482421875,0.075055792927742,-3.995929002761841,-1.633664608001709
1686424990134414300,5.411414306640625,0.04300278425216675,-3.7396180629730225,-1.7547627687454224
1686424990144360400,5.4213603515625,-0.012085983529686928,-3.4991440773010254,-1.8065683841705322
1686424990154305500,5.431305419921875,-0.11336413025856018,-3.2058920860290527,-1.8132712841033936
1686424990164250600,5.441250732421875,-0.22443647682666779,-2.843238115310669,-1.7705265283584595
1686424990174195500,5.451195556640625,-0.32633617520332336,-2.482774019241333,-1.6589018106460571
1686424990184141600,5.4611416015625,-0.4184836149215698,-2.121305227279663,-1.498414158821106
1686424990194086700,5.471086669921875,-0.5090917944908142,-1.7659354209899902,-1.3043551445007324
1686424990204031500,5.481031494140625,-0.6205405592918396,-1.445261001586914,-1.0987346172332764
1686424990213977600,5.4909775390625,-0.7390099763870239,-1.1945462226867676,-0.8792669773101807
1686424990223922400,5.50092236328125,-0.8466180562973022,-0.996094822883606,-0.6761159300804138
1686424990233867500,5.510867431640625,-0.9251946210861206,-0.8333980441093445,-0.4984053075313568
1686424990243812600,5.5208125,-0.9720603227615356,-0.6902057528495789,-0.3311055898666382
1686424990253758500,5.530758544921875,-0.9864113330841064,-0.5663173794746399,-0.17063651978969574
1686424990263703600,5.54070361328125,-0.9671550393104553,-0.4837118685245514,-0.04792767018079758
1686424990273648400,5.5506484375,-0.933490514755249,-0.43340739607810974,0.045476578176021576
1686424990283594500,5.560594482421875,-0.9096711874008179,-0.40122005343437195,0.08637645840644836
1686424990293539600,5.57053955078125,-0.8715642690658569,-0.36084359884262085,0.08363047242164612
1686424990303484400,5.580484375,-0.8135380744934082,-0.2999134957790375,0.025484271347522736
1686424990313429500,5.590429443359375,-0.7822243571281433,-0.21453972160816193,-0.06388555467128754
1686424990323375400,5.600375244140625,-0.7683820724487305,-0.1159839779138565,-0.1609681397676468
1686424990333320700,5.61032080078125,-0.7788904309272766,-0.01256544515490532,-0.25488823652267456
1686424990343265500,5.620265625,-0.8113371729850769,0.09525404870510101,-0.3270927369594574
1686424990353211600,5.630211669921875,-0.823890745639801,0.2183498740196228,-0.3918869197368622
1686424990363156500,5.640156494140625,-0.7948920130729675,0.36267250776290894,-0.4182884693145752
1686424990373101600,5.6501015625,-0.7241030931472778,0.5855777859687805,-0.4166514277458191
1686424990383047700,5.660047607421875,-0.6505184173583984,0.8588372468948364,-0.39202260971069336
1686424990392992500,5.669992431640625,-0.606019139289856,1.1515799760818481,-0.35461026430130005
1686424990402937300,5.679937255859375,-0.592194139957428,1.4470795392990112,-0.2938784658908844
1686424990412882700,5.689882568359375,-0.6103542447090149,1.7184505462646484,-0.20803333818912506
1686424990422828500,5.69982861328125,-0.6469177603721619,1.9761414527893066,-0.07454229146242142
1686424990432773600,5.709773681640625,-0.6984254121780396,2.222003936767578,0.09685315936803818
1686424990442718500,5.719718505859375,-0.7481772899627686,2.4487509727478027,0.2690611779689789
1686424990452664600,5.72966455078125,-0.7750763297080994,2.651794672012329,0.4239692687988281
1686424990462609400,5.739609375,-0.7553533911705017,2.845813751220703,0.5724657773971558
1686424990472554500,5.749554443359375,-0.8842751979827881,3.760246992111206,1.187902808189392
1686424990482499600,5.75949951171875,-0.7050503492355347,4.506299018859863,1.8740729093551636
1686424990492445400,5.769445556640625,-0.31361067295074463,4.291489601135254,2.2954020500183105
1686424990502390500,5.779390625,0.08627268671989441,3.6235857009887695,2.527637243270874
1686424990512335600,5.789335693359375,0.1804753541946411,2.9553914070129395,2.832442283630371
1686424990522281500,5.799281494140625,0.26386696100234985,2.170689582824707,3.1636087894439697
1686424990532226600,5.8092265625,0.24071477353572845,0.9103975892066956,3.2782328128814697
1686424990542171400,5.81917138671875,0.08592277020215988,-0.34477779269218445,3.1569924354553223
1686424990552117500,5.829117431640625,-0.043232280761003494,-1.1060993671417236,2.9258205890655518
1686424990562062600,5.8390625,-0.024735722690820694,-1.3455302715301514,2.5771210193634033
1686424990572007400,5.84900732421875,0.14948667585849762,-1.2895561456680298,2.082343578338623
1686424990581952500,5.858952392578125,0.40828245878219604,-0.97885662317276,1.4317773580551147
1686424990591898400,5.8688984375,0.7099642753601074,-0.3844560980796814,0.6643350720405579
1686424990601843700,5.87884375,0.9718214273452759,0.3351043164730072,-0.16098549962043762
1686424990611788500,5.88878857421875,1.1275540590286255,0.8080745339393616,-0.796320378780365
1686424990621734700,5.898734619140625,1.261689305305481,0.9078142642974854,-1.096724033355713
1686424990631679500,5.908679443359375,1.394230842590332,0.8613082766532898,-1.101278305053711
1686424990641624600,5.91862451171875,1.5074058771133423,0.6916649341583252,-0.9203671216964722
1686424990651569000,5.92856884765625,1.6282411813735962,0.5050066113471985,-0.6344634294509888
1686424990661515000,5.938514892578125,1.7014521360397339,0.4069553017616272,-0.30496686697006226
1686424990671459800,5.9484599609375,1.6806024312973022,0.5023677945137024,-0.027206335216760635
1686424990681405000,5.958405029296875,1.5895593166351318,0.7643028497695923,0.13898111879825592
1686424990691351000,5.96835107421875,1.4417740106582642,1.1665370464324951,0.17478013038635254
1686424990701295900,5.9782958984375,1.254475474357605,1.6058844327926636,0.12339907139539719
1686424990711241000,5.988240966796875,1.1172242164611816,1.9489654302597046,0.06731077283620834
1686424990721186800,5.998186767578125,0.9991467595100403,2.1801180839538574,0.02412913739681244
1686424990731132000,6.0081318359375,0.8930767178535461,2.340200901031494,-0.01405420247465372
1686424990741077000,6.018076904296875,0.784838080406189,2.4245316982269287,-0.0595511868596077
1686424990751021800,6.028021728515625,0.6916873455047607,2.4023094177246094,-0.11321228742599487
1686424990760968000,6.037968017578125,0.58054119348526,2.3476510047912598,-0.1494946926832199
1686424990770912800,6.047912841796875,0.44504514336586,2.2936737537384033,-0.17380934953689575
1686424990780858000,6.057858154296875,0.2754795551300049,2.2398767471313477,-0.17167991399765015
1686424990790804000,6.067803955078125,0.09233051538467407,2.150663375854492,-0.16134871542453766
1686424990800748800,6.077748779296875,-0.05168557167053223,2.006474018096924,-0.1402047723531723
1686424990810694000,6.08769384765625,-0.13942740857601166,1.822095274925232,-0.09531186521053314
1686424990820639000,6.097638916015625,-0.19869759678840637,1.600835919380188,-0.027453603222966194
1686424990830585000,6.107585205078125,-0.22127482295036316,1.338341474533081,0.05911564454436302
1686424990840530000,6.117530029296875,-0.22471505403518677,1.0496619939804077,0.14518603682518005
1686424990850474800,6.127474853515625,-0.18992671370506287,0.7445088028907776,0.22548407316207886
1686424990860420900,6.1374208984375,-0.13143318891525269,0.4282369017601013,0.29052358865737915
1686424990870366000,6.147365966796875,-0.07965493947267532,0.12537530064582825,0.3311096429824829
1686424990880311000,6.15731103515625,-0.010262124240398407,-0.10690382122993469,0.3086744248867035
1686424990890257000,6.1672568359375,0.16214905679225922,-0.24169650673866272,0.20058152079582214
1686424990900202000,6.177201904296875,0.3862338066101074,-0.3002219796180725,0.04866018518805504
1686424990910147000,6.18714697265625,0.5978353023529053,-0.3287747800350189,-0.11451809108257294
1686424990920092000,6.197091796875,0.7611091732978821,-0.281495064496994,-0.27067601680755615
1686424990930038000,6.2070380859375,0.8454179167747498,-0.030665237456560135,-0.38533201813697815
1686424990939982800,6.21698291015625,0.8318316340446472,0.48521459102630615,-0.47010567784309387
1686424990949928000,6.226927978515625,0.7202662229537964,1.3525185585021973,-0.6907680034637451
1686424990959873800,6.236873779296875,0.5402347445487976,2.5123939514160156,-1.1055355072021484
1686424990969819000,6.24681884765625,0.2503102421760559,3.4287405014038086,-1.358634114265442
1686424990979764000,6.256763916015625,0.00976109690964222,3.885477066040039,-1.3828555345535278
1686424990989709800,6.266709716796875,0.04986164718866348,4.101356506347656,-1.54811692237854
1686424990999655000,6.276655029296875,0.26089829206466675,3.8878910541534424,-1.7464805841445923
1686424991009600000,6.28660009765625,0.5643467903137207,3.0945472717285156,-1.7885982990264893
1686424991019544800,6.296544921875,0.9011256098747253,1.7958767414093018,-1.6070754528045654
1686424991029491000,6.306490966796875,1.0842094421386719,0.10815352201461792,-1.2145875692367554
1686424991039435800,6.316435791015625,0.9363901019096375,-1.302963376045227,-0.6090956330299377
1686424991049381000,6.326381103515625,0.5499652028083801,-1.8480091094970703,0.025897078216075897
1686424991059327000,6.336326904296875,0.08105378597974777,-1.872896671295166,0.5584602952003479
1686424991069272000,6.34627197265625,-0.4220871329307556,-1.8781119585037231,0.9054922461509705
1686424991079217000,6.356216796875,-0.985985517501831,-2.0395939350128174,1.0383918285369873
1686424991089162000,6.366161865234375,-1.5491784811019897,-2.362546443939209,0.9706512093544006
1686424991099108000,6.376108154296875,-1.7937155961990356,-2.8217318058013916,0.7755617499351501
1686424991109053000,6.386052978515625,-1.6931463479995728,-3.204843521118164,0.596339225769043
1686424991118998000,6.395998046875,-1.4288277626037598,-3.5440008640289307,0.5007302761077881
1686424991128943900,6.40594384765625,-1.0504592657089233,-3.817970037460327,0.4707809090614319
1686424991138889000,6.415888916015625,-0.6960548162460327,-3.9298901557922363,0.4276817739009857
1686424991148834000,6.425833984375,-0.46473637223243713,-3.8710243701934814,0.33146920800209045
1686424991158780000,6.43577978515625,-0.3247402310371399,-3.770610809326172,0.1597534418106079
1686424991168725000,6.44572509765625,-0.2346058189868927,-3.6322431564331055,-0.07838509976863861
1686424991178669800,6.455669921875,-0.18598586320877075,-3.4219839572906494,-0.3587144613265991
1686424991188615000,6.465614990234375,-0.15568654239177704,-3.0969150066375732,-0.6688856482505798
1686424991198561000,6.47556103515625,-0.12484356760978699,-2.6532692909240723,-0.9827772974967957
1686424991208505900,6.485505859375,-0.10597986727952957,-2.1622986793518066,-1.2713063955307007
1686424991218451000,6.495450927734375,-0.09959438443183899,-1.7517011165618896,-1.508973479270935
1686424991228396800,6.505396728515625,-0.10026576370000839,-1.396983027458191,-1.702374815940857
1686424991238342100,6.515342041015625,-0.11832361668348312,-1.0455230474472046,-1.8312361240386963
1686424991248287000,6.525286865234375,-0.16229347884655,-0.7544900178909302,-1.891831874847412
1686424991258232800,6.53523291015625,-0.21800287067890167,-0.4960424602031708,-1.8761404752731323
1686424991268178000,6.545177978515625,-0.2765854597091675,-0.2422964721918106,-1.7915513515472412
1686424991278123000,6.555123046875,-0.32261762022972107,-0.02260500378906727,-1.648240089416504
1686424991288068000,6.565068115234375,-0.35482269525527954,0.14217914640903473,-1.4470046758651733
1686424991298014000,6.575013916015625,-0.3613732159137726,0.26727867126464844,-1.2186843156814575
1686424991307958800,6.584958740234375,-0.35312166810035706,0.37649837136268616,-0.9755818843841553
1686424991317904000,6.59490380859375,-0.3218972682952881,0.4858541190624237,-0.7114455103874207
1686424991327850000,6.60485009765625,-0.26734909415245056,0.5739392042160034,-0.43096163868904114
1686424991337795000,6.614795166015625,-0.22673280537128448,0.640121340751648,-0.131031334400177
1686424991347740000,6.624739990234375,-0.19809077680110931,0.7028928399085999,0.16474519670009613
1686424991357684700,6.634684814453125,-0.21161110699176788,0.7579939961433411,0.46316447854042053
1686424991367630800,6.644630859375,-0.24638372659683228,0.8424204587936401,0.7456947565078735
1686424991377576000,6.654575927734375,-0.30631023645401,0.9117920398712158,0.989188551902771
1686424991387521000,6.66452099609375,-0.37757617235183716,0.9257267713546753,1.179023265838623
1686424991397467000,6.674466796875,-0.43071919679641724,0.8955487012863159,1.335317611694336
1686424991407412000,6.684411865234375,-0.4428589642047882,0.8306554555892944,1.459055781364441
1686424991417357000,6.694357177734375,-0.4333081543445587,0.7517592310905457,1.537306547164917
1686424991427303000,6.704302978515625,-0.4059966504573822,0.6908061504364014,1.5319796800613403
1686424991437248000,6.714248046875,-0.37552767992019653,0.6840035915374756,1.4373596906661987
1686424991447192800,6.72419287109375,-0.35030966997146606,0.7107577323913574,1.2776925563812256
1686424991457138200,6.73413818359375,-0.3169069290161133,0.764894425868988,1.0774376392364502
1686424991467084000,6.744083984375,-0.2824631929397583,0.8488540649414062,0.8683344721794128
1686424991477028900,6.75402880859375,-0.2597924470901489,0.9155320525169373,0.6598192453384399
1686424991486974000,6.763973876953125,-0.24722792208194733,0.9626960754394531,0.4793325364589691
1686424991496919800,6.773919921875,-0.2442828118801117,1.023263692855835,0.36683422327041626
1686424991506865200,6.783865234375,-0.22718876600265503,1.0614845752716064,0.3203604817390442
1686424991516810000,6.79381005859375,-0.23765423893928528,1.1740721464157104,0.4605677127838135
1686424991526756000,6.803756103515625,-0.287809818983078,1.4709450006484985,1.019116759300232
1686424991536701000,6.813700927734375,-0.33529821038246155,1.840988278388977,1.9197914600372314
1686424991546645800,6.823645751953125,-0.2966424226760864,1.8840595483779907,2.780137062072754
1686424991556591000,6.833591064453125,-0.14065830409526825,1.3797107934951782,3.2761354446411133
1686424991566537000,6.843536865234375,0.021130334585905075,0.5694735646247864,3.396862030029297
1686424991576482000,6.85348193359375,0.056612156331539154,-0.1097063198685646,3.3199682235717773
1686424991586427000,6.863427001953125,0.15593768656253815,-0.6490312814712524,3.1348466873168945
1686424991596372700,6.873372802734375,0.3556216359138489,-1.1355711221694946,2.815147876739502
1686424991606318000,6.883318115234375,0.477296382188797,-0.973152756690979,2.4141926765441895
1686424991616263000,6.893262939453125,0.7406440377235413,0.6334616541862488,1.3403849601745605
1686424991626209000,6.903208984375,0.9581142663955688,1.4696483612060547,0.08002638071775436
1686424991636153900,6.91315380859375,0.757356584072113,1.4610611200332642,-0.8519057035446167
1686424991646099000,6.923098876953125,0.4523005187511444,1.1693425178527832,-1.4134175777435303
1686424991656044800,6.933044921875,0.2934766411781311,0.902193009853363,-1.7253618240356445
1686424991665991000,6.942990966796875,0.2531324028968811,0.6226226091384888,-1.8608916997909546
1686424991675935700,6.952935791015625,0.33246147632598877,0.2277483344078064,-1.9110041856765747
1686424991685880800,6.962880859375,0.45626571774482727,-0.13911622762680054,-1.8907475471496582
1686424991695826700,6.97282666015625,0.6069449782371521,-0.429137647151947,-1.8050206899642944
1686424991705772000,6.98277197265625,0.7553285360336304,-0.6831004023551941,-1.6571329832077026
1686424991715716900,6.992716796875,0.9275460243225098,-1.0218900442123413,-1.4415339231491089
1686424991725662700,7.002662841796875,1.0762115716934204,-1.397814393043518,-1.158869743347168
1686424991735607800,7.01260791015625,1.1055028438568115,-1.7387434244155884,-0.8093517422676086
1686424991745553000,7.022552978515625,1.0420117378234863,-1.9521681070327759,-0.48514649271965027
1686424991755498000,7.032498046875,0.9182403087615967,-2.1298539638519287,-0.17655327916145325
1686424991765443800,7.04244384765625,0.8085089921951294,-2.3060240745544434,0.10365360975265503
1686424991775388700,7.052388671875,0.6685046553611755,-2.5524425506591797,0.35442957282066345
1686424991785333800,7.062333740234375,0.49672403931617737,-2.8588201999664307,0.5732500553131104
1686424991795279600,7.072279541015625,0.2982344627380371,-3.1590051651000977,0.7520490884780884
1686424991805225000,7.082224853515625,0.039056677371263504,-3.3919460773468018,0.9137881994247437
1686424991815169800,7.092169677734375,-0.2742464542388916,-3.3801779747009277,0.9492069482803345
1686424991825116000,7.102115966796875,-0.42900142073631287,-3.0577640533447266,0.9050205945968628
1686424991835060700,7.112060791015625,-0.4516914188861847,-2.517197608947754,0.7652619481086731
1686424991845005800,7.122005859375,-0.3686407506465912,-1.6753315925598145,0.5298805832862854
1686424991854951000,7.131950927734375,-0.2136538177728653,-0.6218735575675964,0.23181292414665222
1686424991864896800,7.141896728515625,0.00489742960780859,0.5468623638153076,-0.09385572373867035
1686424991874841900,7.151841796875,0.236935093998909,1.5276706218719482,-0.3600943982601166
1686424991884787000,7.161786865234375,0.4477378726005554,2.2833774089813232,-0.5824428200721741
1686424991894732800,7.17173291015625,0.5368693470954895,2.808228015899658,-0.7632068395614624
1686424991904678000,7.181677978515625,0.515610933303833,3.086355447769165,-0.8545623421669006
1686424991914622700,7.191622802734375,0.4243122339248657,3.1900954246520996,-0.8710731863975525
1686424991924568800,7.20156884765625,0.306647926568985,3.1504316329956055,-0.8044227361679077
1686424991934514000,7.211513916015625,0.18142610788345337,2.994502544403076,-0.6704877614974976
1686424991944458800,7.221458740234375,0.08812040090560913,2.764662742614746,-0.4885658919811249
1686424991954403800,7.23140380859375,0.03870689868927002,2.5024123191833496,-0.28067201375961304
1686424991964349700,7.241349609375,0.04020146653056145,2.2483479976654053,-0.07482616603374481
1686424991974294800,7.251294677734375,0.05155889689922333,2.0176610946655273,0.1201881691813469
1686424991984239900,7.261239990234375,0.05594432353973389,1.836129903793335,0.3094547688961029
1686424991994186000,7.27118603515625,0.07560793310403824,1.7108020782470703,0.49027225375175476
1686424992004130800,7.281130859375,0.11207646131515503,1.6831626892089844,0.6288359761238098
1686424992014075600,7.29107568359375,0.14811013638973236,1.7963337898254395,0.6917141675949097
1686424992024021800,7.301021728515625,0.1772640198469162,2.039583921432495,0.6482492685317993
1686424992033966800,7.310966796875,0.25108689069747925,2.517873764038086,0.47817322611808777
1686424992043912000,7.320911865234375,0.44038304686546326,3.451323986053467,0.0789768397808075
1686424992053856800,7.330856689453125,0.7253327965736389,5.146762847900391,-0.7078222632408142
1686424992063802600,7.340802734375,0.751995861530304,6.699854373931885,-1.3891392946243286
1686424992073748000,7.350748046875,0.5117490887641907,7.651861190795898,-1.7789322137832642
1686424992083692800,7.36069287109375,0.3002690374851227,8.019842147827148,-1.9829851388931274
1686424992093639000,7.370638916015625,0.3627074062824249,7.860144138336182,-2.277312994003296
1686424992103583700,7.380583740234375,0.6970470547676086,6.807374477386475,-2.629002571105957
1686424992113528800,7.39052880859375,1.0331906080245972,3.973724126815796,-2.5292863845825195
1686424992123475000,7.400474853515625,0.9619355797767639,-0.1307910531759262,-1.4086322784423828
1686424992133419800,7.410419677734375,0.7088726758956909,-2.6222572326660156,-0.3492400646209717
1686424992143364900,7.42036474609375,0.5693248510360718,-3.2424159049987793,0.1727416068315506
1686424992153309700,7.430309814453125,0.4303712844848633,-3.3221569061279297,0.6132214069366455
1686424992163255800,7.440255859375,0.11034984886646271,-3.3130524158477783,1.0734130144119263
1686424992173201000,7.450200927734375,-0.3621249198913574,-3.349989175796509,1.4396858215332031
1686424992183145700,7.460145751953125,-0.9419915080070496,-3.5024452209472656,1.5508971214294434
1686424992193091800,7.470091796875,-1.4627139568328857,-3.6769070625305176,1.3217488527297974
1686424992203036700,7.48003662109375,-1.752918004989624,-3.802577257156372,0.8783494830131531
1686424992212981800,7.489981689453125,-1.7893922328948975,-3.9610297679901123,0.4812917709350586
1686424992222928000,7.499927978515625,-1.5823978185653687,-4.0477800369262695,0.22828853130340576
1686424992232872700,7.509872802734375,-1.1785476207733154,-3.99601149559021,0.1014193519949913
1686424992242817800,7.51981787109375,-0.6811093688011169,-3.7640697956085205,0.06553804874420166
1686424992252763600,7.529763671875,-0.17188046872615814,-3.43971848487854,0.1089630201458931
1686424992262709000,7.539708984375,0.2739870250225067,-3.052877902984619,0.13128697872161865
1686424992272653800,7.54965380859375,0.5612290501594543,-2.652170181274414,0.037382498383522034
1686424992282598700,7.5595986328125,0.682440459728241,-2.191124200820923,-0.17926831543445587
1686424992292544800,7.569544677734375,0.7289120554924011,-1.6958738565444946,-0.4599112868309021
1686424992302489900,7.57948974609375,0.7411221265792847,-1.2585071325302124,-0.7453047037124634
1686424992312435000,7.58943505859375,0.7299340963363647,-0.9038703441619873,-1.017305612564087
1686424992322380800,7.599380859375,0.6739280819892883,-0.6044498085975647,-1.2988206148147583
1686424992332326000,7.609325927734375,0.5343064665794373,-0.2633763551712036,-1.5528301000595093
1686424992342271000,7.61927099609375,0.3582099676132202,0.1512729972600937,-1.7231621742248535
1686424992352216800,7.629216796875,0.1599178910255432,0.42286479473114014,-1.7693250179290771
1686424992362162000,7.639161865234375,-0.009951034560799599,0.5206856727600098,-1.7216004133224487
1686424992372106800,7.649106689453125,-0.15225787460803986,0.5073590278625488,-1.5758118629455566
1686424992382051600,7.659051513671875,-0.2717509865760803,0.4352791905403137,-1.3781789541244507
1686424992391997700,7.668997802734375,-0.35963401198387146,0.3391813039779663,-1.1524932384490967
1686424992401942800,7.67894287109375,-0.3883303701877594,0.23470258712768555,-0.9052128791809082
1686424992411887900,7.688887939453125,-0.3955267667770386,0.11723107099533081,-0.6503792405128479
1686424992421833700,7.698833740234375,-0.4046723246574402,0.00445924699306488,-0.38866639137268066
1686424992431778800,7.70877880859375,-0.40047529339790344,-0.1277366727590561,-0.11865215748548508
1686424992441724000,7.718723876953125,-0.3614208400249481,-0.25258246064186096,0.14742079377174377
1686424992451670000,7.728669921875,-0.32691869139671326,-0.39617204666137695,0.4046071171760559
1686424992461614800,7.73861474609375,-0.3487241268157959,-0.5838940739631653,0.6513341069221497
1686424992471559700,7.7485595703125,-0.4043988585472107,-0.7822202444076538,0.8952150940895081
1686424992481505800,7.758505859375,-0.4860790967941284,-0.9072881937026978,1.1104514598846436
1686424992491451000,7.768450927734375,-0.5815229415893555,-0.730054497718811,1.362450361251831
1686424992501395700,7.778395751953125,-0.6602613925933838,0.17764510214328766,1.7844185829162598
1686424992511340800,7.7883408203125,-0.6772640943527222,1.7578266859054565,2.36403751373291
1686424992521286700,7.79828662109375,-0.6726027727127075,3.2385847568511963,2.8612451553344727
1686424992531232000,7.80823193359375,-0.6254962086677551,4.179202079772949,3.082016944885254
1686424992541176800,7.8181767578125,-0.493434876203537,4.8034257888793945,3.0943806171417236
1686424992551123000,7.828123046875,-0.25773876905441284,5.327242374420166,3.007049560546875
1686424992561067800,7.83806787109375,0.010369895026087761,5.816878318786621,2.916959047317505
1686424992571012600,7.8480126953125,0.22765672206878662,6.197514057159424,2.9189035892486572
1686424992580958700,7.857958740234375,0.35667383670806885,6.351337909698486,3.0976366996765137
1686424992590903800,7.86790380859375,0.4194522798061371,6.138558387756348,3.484180450439453
1686424992600849000,7.877848876953125,0.4539141058921814,5.240637302398682,4.081806659698486
1686424992610793700,7.887793701171875,0.36288899183273315,2.8729958534240723,4.798539638519287
1686424992620739800,7.89773974609375,0.08464860171079636,1.4953036308288574,4.758158206939697
1686424992630685000,7.907684814453125,-0.23304612934589386,1.2018617391586304,3.790778636932373
1686424992640629800,7.917629638671875,-0.420190691947937,1.1894727945327759,2.244230270385742
1686424992650576000,7.927575927734375,-0.5359211564064026,0.9429349899291992,0.5651084184646606
1686424992660520200,7.937520263671875,-0.5630430579185486,0.5314034223556519,-0.8882403373718262
1686424992670465300,7.94746533203125,-0.36680224537849426,0.03519110754132271,-1.8141297101974487
1686424992680411100,7.9574111328125,-0.02814510092139244,-0.3909999132156372,-2.240719795227051
1686424992690356200,7.967356201171875,0.14553146064281464,-0.4033099114894867,-2.3364861011505127
1686424992700301000,7.977301025390625,0.23499982059001923,-0.2568152844905853,-2.3314757347106934
1686424992710247000,7.987246826171875,0.23259297013282776,0.05342964828014374,-2.2914228439331055
1686424992720192300,7.997192138671875,0.16083675622940063,0.283699631690979,-2.243778705596924
1686424992730137000,8.00713720703125,0.12826409935951233,0.28057682514190674,-2.205625534057617
1686424992740082200,8.017082275390624,0.14171092212200165,0.03193584829568863,-2.1763381958007812
1686424992750028000,8.027028076171876,0.18950621783733368,-0.3929915130138397,-2.1455512046813965
1686424992759973000,8.03697314453125,0.235207661986351,-0.9123055338859558,-2.0789740085601807
1686424992769918200,8.046918212890626,0.2875553071498871,-1.481765866279602,-1.9490736722946167
1686424992779864000,8.056864013671875,0.28481465578079224,-2.0263938903808594,-1.7270758152008057
1686424992789809200,8.06680908203125,0.19540324807167053,-2.576733350753784,-1.4024533033370972
1686424992799754200,8.076754150390625,-0.02048802375793457,-3.17299747467041,-0.9612028002738953
1686424992809700400,8.086700439453125,-0.3703748881816864,-3.893991470336914,-0.4108772277832031
1686424992819645200,8.096645263671874,-0.9214015007019043,-4.860991477966309,0.2224658578634262
1686424992829590000,8.106590087890625,-1.54378342628479,-5.990502834320068,0.8239985108375549
1686424992839536000,8.1165361328125,-1.9498341083526611,-6.749281883239746,1.2609227895736694
1686424992849481200,8.126481201171876,-1.6734163761138916,-6.88960075378418,1.4530543088912964
1686424992859426300,8.13642626953125,-0.9098156690597534,-6.421597480773926,1.467339277267456
1686424992869371100,8.14637109375,-0.2667354643344879,-5.494333267211914,1.3282214403152466
1686424992879317000,8.15631689453125,0.012741707265377045,-4.469600200653076,1.1419525146484375
1686424992889262000,8.166261962890625,0.015329713001847267,-3.45806884765625,0.9891890287399292
1686424992899207200,8.176207275390626,-0.03648528456687927,-2.3803789615631104,0.824165940284729
1686424992909153300,8.1861533203125,-0.027628224343061447,-1.2600128650665283,0.6529721021652222
1686424992919098000,8.19609814453125,0.10035477578639984,-0.23006197810173035,0.5126959681510925
1686424992929043000,8.20604296875,0.2543087899684906,0.8091757297515869,0.31754428148269653
1686424992938989000,8.215989013671875,0.34890905022621155,1.7572435140609741,0.10797080397605896
1686424992948934100,8.22593408203125,0.39215388894081116,2.546069383621216,-0.07080903649330139
1686424992958879200,8.235879150390625,0.37762129306793213,3.1546823978424072,-0.20077821612358093
1686424992968825000,8.2458251953125,0.28000539541244507,3.6187241077423096,-0.2700759768486023
1686424992978770200,8.255770263671875,0.10778197646141052,3.997175455093384,-0.25242534279823303
1686424992988715300,8.26571533203125,-0.08175617456436157,4.339896202087402,-0.19458447396755219
1686424992998660000,8.27566015625,-0.26517313718795776,4.50722599029541,-0.09843823313713074
1686424993008606200,8.285606201171875,-0.3612675964832306,4.48864221572876,0.017097489908337593
1686424993018551000,8.295551025390624,-0.37162595987319946,4.395658493041992,0.12974947690963745
1686424993028496400,8.305496337890625,-0.3168896436691284,4.306764602661133,0.23160523176193237
1686424993038442200,8.315442138671875,-0.22951534390449524,4.198444843292236,0.31101667881011963
1686424993048387000,8.325386962890626,-0.13771489262580872,4.074181079864502,0.3742845058441162
1686424993058332200,8.335332275390625,-0.04134681820869446,3.933051586151123,0.4162282347679138
1686424993068278000,8.345278076171875,0.06411377340555191,3.864006519317627,0.3914753794670105
1686424993078223000,8.35522314453125,0.1439119279384613,4.034398555755615,0.22583208978176117
1686424993088168200,8.365168212890625,0.14621613919734955,4.408127784729004,-0.07325304299592972
1686424993098113000,8.375113037109376,0.0631801038980484,4.866787910461426,-0.44469767808914185
1686424993108059100,8.38505908203125,-0.09035088866949081,5.28366231918335,-0.8075392842292786
1686424993118004000,8.39500390625,-0.2945362627506256,5.536639213562012,-1.084020972251892
1686424993127949300,8.40494921875,-0.5114350914955139,5.463279724121094,-1.1338435411453247
1686424993137895200,8.414895263671875,-0.7313514351844788,4.891180515289307,-0.8372047543525696
1686424993147840300,8.42484033203125,-0.819469153881073,4.001428127288818,-0.29604965448379517
1686424993157785000,8.43478515625,-0.7683237195014954,2.690481424331665,0.4446127116680145
1686424993167731000,8.44473095703125,-0.661472737789154,1.6259551048278809,0.7604937553405762
1686424993177676300,8.45467626953125,-0.5504498481750488,1.3309258222579956,0.3671979010105133
1686424993187621000,8.46462109375,-0.4606783390045166,1.1374965906143188,-0.17333529889583588
1686424993197567200,8.474567138671874,-0.3543553650379181,0.8000299334526062,-0.6394054889678955
1686424993207512000,8.484511962890625,-0.2332722693681717,0.39972984790802,-0.9450631141662598
1686424993217457200,8.49445703125,-0.09344220161437988,-0.006822468247264624,-1.119591236114502
1686424993227402200,8.50440234375,0.061063624918460846,-0.3907492756843567,-1.1657447814941406
1686424993237348000,8.51434814453125,0.11891946196556091,-0.8045989274978638,-1.0554667711257935
1686424993247293200,8.524293212890624,0.01567358896136284,-1.489090919494629,-0.8026440739631653
1686424993257238300,8.53423828125,-0.23492534458637238,-2.4884328842163086,-0.447445809841156
1686424993267184400,8.544184326171875,-0.5844982862472534,-3.7023391723632812,-0.09162657707929611
1686424993277129200,8.554129150390626,-0.9516088962554932,-4.909427165985107,0.2000124603509903
1686424993287074000,8.564073974609375,-1.2287675142288208,-5.764563083648682,0.3541768193244934
1686424993297020200,8.574020263671875,-1.3585054874420166,-6.033626556396484,0.2972128689289093
1686424993306965000,8.583965087890626,-1.2640694379806519,-5.6802144050598145,0.09134776890277863
1686424993316910300,8.593910400390625,-0.9301978945732117,-4.965953350067139,-0.15724793076515198
1686424993326856200,8.603856201171874,-0.5131885409355164,-4.275603294372559,-0.32933270931243896
1686424993336801000,8.613801025390625,-0.2556038498878479,-3.9250261783599854,-0.3287465274333954
1686424993346746000,8.62374609375,-0.10059306025505066,-3.69189453125,-0.23876777291297913
1686424993356691200,8.633691162109375,0.08063825964927673,-3.3857505321502686,-0.1784844547510147
1686424993366637300,8.64363720703125,0.2696978449821472,-3.043982982635498,-0.11306729912757874
1686424993376582100,8.65358203125,0.44666704535484314,-2.700343608856201,-0.016138358041644096
1686424993386527000,8.66352685546875,0.6143882274627686,-2.368666887283325,0.09504920244216919
1686424993396473000,8.67347314453125,0.738677978515625,-2.0708165168762207,0.178706556558609
1686424993406418200,8.683418212890626,0.7959365248680115,-1.8026065826416016,0.23981209099292755
1686424993416363300,8.69336328125,0.7963029742240906,-1.5626709461212158,0.2770010232925415
1686424993426309000,8.70330908203125,0.7622132301330566,-1.319426417350769,0.28350162506103516
1686424993436254200,8.713254150390625,0.6900104284286499,-1.1143913269042969,0.24149054288864136
1686424993446199300,8.72319921875,0.586698591709137,-0.9096429347991943,0.13481153547763824
1686424993456145200,8.733145263671876,0.4978843033313751,-0.6621788144111633,-0.032896243035793304
1686424993466090200,8.74309033203125,0.4254243075847626,-0.3454654812812805,-0.2482254058122635
1686424993476035000,8.75303515625,0.3359953761100769,-0.04372213035821915,-0.4639771282672882
1686424993485980200,8.762980224609375,0.21565842628479004,0.18955223262310028,-0.6182445287704468
1686424993495926000,8.772926025390625,0.056357190012931824,0.36472323536872864,-0.7011231780052185
1686424993505871000,8.78287109375,-0.10463391244411469,0.5024640560150146,-0.7411994338035583
1686424993515816200,8.792816162109375,-0.24238379299640656,0.5827735662460327,-0.7759385108947754
1686424993525762000,8.802761962890624,-0.35941654443740845,0.6049196720123291,-0.7802945375442505
1686424993535707100,8.81270703125,-0.4879465699195862,0.6459965705871582,-0.7358429431915283
1686424993545652200,8.82265234375,-0.5586271286010742,0.6622894406318665,-0.6211122274398804
1686424993555598300,8.832598388671874,-0.5958482623100281,0.6413889527320862,-0.4172743856906891
1686424993565543200,8.842543212890625,-0.5909494757652283,0.5565609335899353,-0.14512473344802856
1686424993575488000,8.852488037109374,-0.5791990756988525,0.36718857288360596,0.16691997647285461
1686424993585434000,8.86243408203125,-0.548556387424469,0.10263805091381073,0.50335294008255
1686424993595379200,8.872379150390625,-0.5008780360221863,-0.1380845457315445,0.8247138857841492
1686424993605324300,8.88232421875,-0.41761723160743713,-0.23048673570156097,1.1049116849899292
1686424993615270100,8.892270263671875,-0.28580382466316223,-0.15407079458236694,1.3086094856262207
1686424993625215000,8.902215087890625,-0.1248098686337471,0.06143992394208908,1.427854299545288
1686424993635160300,8.912160400390626,0.01828842982649803,0.38461798429489136,1.4551618099212646
1686424993645105200,8.922105224609375,0.13052137196063995,0.7840153574943542,1.4019403457641602
1686424993655051300,8.93205126953125,0.19126887619495392,1.225925087928772,1.3008677959442139
1686424993664996400,8.941996337890625,0.19036617875099182,1.6708678007125854,1.1671022176742554
1686424993674941200,8.951941162109375,0.14610789716243744,2.1082851886749268,1.0172173976898193
1686424993684887300,8.96188720703125,0.04919281601905823,2.5035247802734375,0.8955409526824951
1686424993694832400,8.971832275390625,-0.05809848755598068,2.8402199745178223,0.8665987849235535
1686424993704777200,8.981777099609374,-0.1324802041053772,3.085839033126831,1.1490319967269897
1686424993714723300,8.991723388671875,-0.151437908411026,3.2029738426208496,2.021150827407837
1686424993724668200,9.001668212890625,-0.11777274310588837,2.144028902053833,3.8245692253112793
1686424993734613200,9.01161328125,-0.26164737343788147,-0.9856449961662292,5.768700122833252
1686424993744559400,9.021559326171875,-0.352876216173172,-3.036494493484497,6.200414180755615
1686424993754504200,9.031504150390624,-0.35483017563819885,-3.01821231842041,5.44665002822876
1686424993764449300,9.04144921875,-0.18057100474834442,-0.4776787757873535,3.1394574642181396
1686424993774394400,9.051394287109375,0.16523033380508423,2.2492144107818604,0.16452819108963013
1686424993784340500,9.061340576171874,0.15355131030082703,3.031019926071167,-1.7666738033294678
1686424993794285300,9.071285400390625,-0.0787074938416481,2.9134654998779297,-2.7189671993255615
1686424993804230100,9.081230224609374,-0.23504291474819183,2.6496829986572266,-3.129243850708008
1686424993814176300,9.09117626953125,-0.36510932445526123,2.3550198078155518,-3.2940282821655273
1686424993824121300,9.101121337890625,-0.3780045807361603,1.9917446374893188,-3.31184983253479
1686424993834066400,9.11106640625,-0.2699052691459656,1.5806306600570679,-3.2610247135162354
1686424993844012300,9.12101220703125,-0.08833838254213333,1.0423965454101562,-3.1680779457092285
1686424993853957000,9.13095703125,0.12397600710391998,0.3282046318054199,-3.0478878021240234
1686424993863902200,9.140902099609375,0.2665027678012848,-0.6036815047264099,-2.8591370582580566
1686424993873848300,9.150848388671875,0.3055074214935303,-1.8262107372283936,-2.540994644165039
1686424993883793400,9.16079345703125,0.2843553423881531,-3.2450015544891357,-2.051459312438965
1686424993893738200,9.17073828125,0.23211102187633514,-4.757116794586182,-1.3936048746109009
1686424993903683000,9.18068310546875,0.1457543671131134,-6.274349689483643,-0.6450967192649841
1686424993913629200,9.190629150390626,0.03948332741856575,-7.604771137237549,0.09327559918165207
1686424993923574300,9.20057421875,-0.08762238174676895,-8.66201114654541,0.7391731142997742
1686424993933519400,9.210519287109374,-0.17330825328826904,-9.351746559143066,1.2473032474517822
1686424993943465200,9.22046533203125,-0.21694661676883698,-9.498895645141602,1.4892500638961792
1686424993953410300,9.230410400390625,-0.1761709600687027,-9.210994720458984,1.5185602903366089
1686424993963355400,9.24035546875,-0.03102804906666279,-8.378524780273438,1.3678730726242065
1686424993973301200,9.25030126953125,0.11034079641103745,-7.021602630615234,1.0091748237609863
1686424993983246300,9.260246337890624,0.2308112233877182,-5.308961868286133,0.5379810333251953
1686424993993191200,9.270191162109375,0.35221487283706665,-3.52347731590271,0.08378688991069794
1686424994003137300,9.28013720703125,0.5249336957931519,-1.906195878982544,-0.3017624020576477
1686424994013082400,9.290082275390626,0.7348378896713257,-0.5670458078384399,-0.5964939594268799
1686424994023027200,9.300027099609375,0.9033000469207764,0.5912649035453796,-0.8276196718215942
1686424994032972300,9.30997216796875,0.9857723116874695,1.5800122022628784,-1.0054234266281128
1686424994042918100,9.319918212890625,0.9613218307495117,2.386767864227295,-1.1371543407440186
1686424994052863200,9.32986328125,0.8349748253822327,2.9126105308532715,-1.1603784561157227
1686424994062808300,9.339808349609376,0.6094921231269836,3.230304718017578,-1.165540337562561
1686424994072754400,9.34975439453125,0.3262808918952942,3.344635248184204,-1.118107557296753
1686424994082699300,9.35969921875,0.05133397877216339,3.269007444381714,-1.057995080947876
1686424994092644000,9.36964404296875,-0.18125399947166443,3.0911366939544678,-0.9643563628196716
1686424994102590200,9.379590087890625,-0.35333383083343506,2.895164966583252,-0.8692955374717712
1686424994112535300,9.389535400390624,-0.4587520956993103,2.680377960205078,-0.7690773606300354
1686424994122480400,9.39948046875,-0.5229380130767822,2.475264072418213,-0.6659039855003357
1686424994132426200,9.40942626953125,-0.549411416053772,2.268585205078125,-0.5715636014938354
1686424994142371000,9.41937109375,-0.538412868976593,2.0955910682678223,-0.48961493372917175
1686424994152316400,9.42931640625,-0.47084903717041016,2.015460968017578,-0.4302075207233429
1686424994162262300,9.43926220703125,-0.332829087972641,2.0861663818359375,-0.41455399990081787
1686424994172207400,9.449207275390625,-0.12123937159776688,2.3308069705963135,-0.47257471084594727
1686424994182152200,9.459152099609375,0.1865077018737793,2.770144462585449,-0.5907328128814697
1686424994192097300,9.46909716796875,0.5018967986106873,3.3497819900512695,-0.7183405756950378
1686424994202043400,9.47904345703125,0.6905735731124878,3.9973599910736084,-0.8398540616035461
1686424994211988200,9.48898828125,0.5964239239692688,4.938013553619385,-1.0087834596633911
1686424994221933300,9.498933349609375,0.21105098724365234,6.354750156402588,-1.2794170379638672
1686424994231879200,9.508879150390625,-0.1368957906961441,7.792703151702881,-1.596993088722229
1686424994241824500,9.518824462890626,-0.2523488998413086,8.831555366516113,-1.8598148822784424
1686424994251769300,9.528769287109375,-0.13059236109256744,9.251899719238281,-2.0078649520874023
1686424994261715200,9.538715087890624,0.20700523257255554,8.836634635925293,-2.107497453689575
1686424994271660300,9.548660400390625,0.5704891681671143,6.344362258911133,-1.6435277462005615
1686424994281605000,9.558605224609375,0.7189236283302307,1.5173065662384033,-0.48904934525489807
1686424994291551200,9.56855126953125,0.6752967834472656,-1.6870654821395874,-0.18502631783485413
1686424994301496300,9.578496337890625,0.7273538708686829,-3.358426332473755,-0.002261306159198284
1686424994311441200,9.588441162109374,0.7676687836647034,-4.173351764678955,0.3302724361419678
1686424994321387300,9.59838720703125,0.6429543495178223,-4.435263156890869,0.7518265247344971
1686424994331332000,9.60833203125,0.3323648273944855,-4.598647594451904,1.0413670539855957
1686424994341277400,9.61827734375,-0.1734877973794937,-4.766542434692383,1.1296228170394897
1686424994351222300,9.62822216796875,-0.7036722898483276,-4.920576572418213,0.9751219749450684
1686424994361168400,9.63816845703125,-1.0804951190948486,-4.942319393157959,0.6346795558929443
1686424994371113200,9.64811328125,-1.3018171787261963,-4.835648059844971,0.1845933496952057
1686424994381058300,9.658058349609375,-1.3633826971054077,-4.697808265686035,-0.2344217598438263
1686424994391004400,9.66800439453125,-1.2901500463485718,-4.488056659698486,-0.5860751271247864
1686424994400949200,9.67794921875,-1.0149861574172974,-4.09050178527832,-0.8635455965995789
1686424994410894300,9.687894287109375,-0.567406177520752,-3.5461220741271973,-1.019910216331482
1686424994420840200,9.697840087890626,-0.09279792755842209,-2.953583002090454,-1.106084942817688
1686424994430785300,9.707785400390625,0.25199300050735474,-2.4582436084747314,-1.2243225574493408
1686424994440730400,9.71773046875,0.4013347327709198,-2.13775634765625,-1.3633888959884644
1686424994450676200,9.72767626953125,0.4734920263290405,-1.9756882190704346,-1.497016191482544
1686424994460621300,9.737621337890625,0.5820702314376831,-1.9088605642318726,-1.5969605445861816
1686424994470566400,9.74756640625,0.6871833205223083,-1.8455939292907715,-1.6420185565948486
1686424994480512300,9.75751220703125,0.7458021640777588,-1.710078239440918,-1.6250048875808716
1686424994490457300,9.767457275390624,0.6848692893981934,-1.5015559196472168,-1.5421720743179321
1686424994500402200,9.777402099609375,0.5182275176048279,-1.210336685180664,-1.3962458372116089
1686424994510348300,9.787348388671875,0.29403331875801086,-0.9074506163597107,-1.1902506351470947
1686424994520293000,9.797293212890626,0.0764370858669281,-0.5495865941047668,-0.9715280532836914
1686424994530238500,9.807238525390625,-0.11619361490011215,-0.007479138672351837,-0.751893162727356
1686424994540183300,9.817183349609374,-0.26697251200675964,0.5432630777359009,-0.4794122576713562
1686424994550129200,9.827129150390626,-0.41055017709732056,0.9476087093353271,-0.20283792912960052
1686424994560074200,9.83707421875,-0.506171703338623,1.2248218059539795,0.06314988434314728
1686424994570019300,9.847019287109376,-0.5252828001976013,1.3935165405273438,0.28431767225265503
1686424994579965400,9.85696533203125,-0.5089138150215149,1.471707820892334,0.46842825412750244
1686424994589910300,9.86691015625,-0.4687805473804474,1.4971389770507812,0.6157993078231812
1686424994599855000,9.876855224609375,-0.4161625802516937,1.5592660903930664,0.7710124254226685
1686424994609801200,9.88680126953125,-0.3688022494316101,1.6425596475601196,0.9186264276504517
1686424994619746300,9.896746337890624,-0.33971917629241943,1.7071861028671265,1.0313249826431274
1686424994629691400,9.90669140625,-0.3352091312408447,1.7294511795043945,1.0985333919525146
1686424994639637200,9.91663720703125,-0.3118118941783905,1.702182650566101,1.1132558584213257
1686424994649582300,9.926582275390626,-0.25651586055755615,1.6302239894866943,1.0945950746536255
1686424994659527200,9.936527099609375,-0.17418959736824036,1.5549733638763428,1.0771219730377197
1686424994669472300,9.94647216796875,-0.10395485162734985,1.505099892616272,1.0616703033447266
1686424994679418000,9.956418212890625,-0.04695943742990494,1.4788060188293457,1.0467530488967896
1686424994689363200,9.96636328125,-0.019388265907764435,1.47480046749115,1.0309960842132568
1686424994699308000,9.97630810546875,-0.025586243718862534,1.4657028913497925,1.0325716733932495
1686424994709254100,9.986254150390625,-0.03989620506763458,1.4098620414733887,1.0726842880249023
1686424994719199200,9.99619921875,-0.05408547446131706,1.3613812923431396,1.1736030578613281
1686424994729144000,10.00614404296875,-0.06553120911121368,1.45012366771698,1.3857046365737915
1686424994739090200,10.016090087890625,-0.08021117001771927,1.8136403560638428,1.8428058624267578
1686424994749035000,10.026034912109376,-0.0837039053440094,2.1891510486602783,2.510935068130493
1686424994758980000,10.03597998046875,-0.021424658596515656,2.0342700481414795,3.201016426086426
1686424994768926200,10.04592626953125,0.11692044138908386,1.3837658166885376,3.6790342330932617
1686424994778871000,10.05587109375,0.2738807499408722,0.667385458946228,4.007135391235352
1686424994788816100,10.065816162109375,0.41679903864860535,0.03048519603908062,4.287862300872803
1686424994798762000,10.075761962890626,0.505469560623169,-0.6334999799728394,4.54962682723999
1686424994808707300,10.085707275390625,0.5315061807632446,-1.3047823905944824,4.769918918609619
1686424994818652200,10.095652099609374,0.497578889131546,-1.6614060401916504,4.879384517669678
1686424994828597000,10.105596923828125,0.42277199029922485,-1.14751136302948,4.673036098480225
1686424994838543000,10.115543212890625,0.3214317858219147,0.5197595357894897,3.606072187423706
1686424994848488200,10.12548828125,0.26977553963661194,1.9891165494918823,1.5805778503417969
1686424994858433300,10.135433349609375,0.1384628713130951,2.2107510566711426,-0.20086611807346344
1686424994868379100,10.145379150390625,-0.005978196859359741,2.301119089126587,-1.4445679187774658
1686424994878324200,10.15532421875,-0.03957343101501465,2.470580577850342,-2.1450693607330322
1686424994888269300,10.165269287109375,0.020793773233890533,2.5670876502990723,-2.4755966663360596
1686424994898215200,10.175215087890624,0.053589362651109695,2.561021566390991,-2.6238186359405518
1686424994908160300,10.18516015625,0.09573762118816376,2.4615516662597656,-2.680830478668213
1686424994918105000,10.19510498046875,0.17786306142807007,2.240429639816284,-2.67478609085083
1686424994928051200,10.20505126953125,0.2803148627281189,1.8168232440948486,-2.599639415740967
1686424994937996000,10.21499609375,0.4041437804698944,1.2483512163162231,-2.4800045490264893
1686424994947941000,10.224941162109374,0.5408355593681335,0.6919368505477905,-2.336616039276123
1686424994957887200,10.23488720703125,0.6459665894508362,0.10251110792160034,-2.109286069869995
1686424994967832000,10.24483203125,0.6573875546455383,-0.737437903881073,-1.7428916692733765
1686424994977777200,10.254777099609376,0.5676674246788025,-1.936460256576538,-1.2000908851623535
1686424994987723000,10.264722900390625,0.34912601113319397,-3.60103702545166,-0.48094525933265686
1686424994997668400,10.27466845703125,0.06925734132528305,-5.607614517211914,0.2976019084453583
1686424995007613200,10.28461328125,-0.13683776557445526,-7.64682674407959,1.022803783416748
1686424995017558000,10.29455810546875,-0.3772627115249634,-9.480530738830566,1.692575454711914
1686424995027504000,10.304504150390626,-0.47680848836898804,-10.481620788574219,2.0778934955596924
1686424995037449200,10.31444921875,-0.3570595979690552,-10.636268615722656,2.1664345264434814
1686424995047394000,10.32439404296875,-0.25301626324653625,-10.080083847045898,2.0284924507141113
1686424995057340200,10.334340087890626,-0.17949871718883514,-8.732051849365234,1.5834630727767944
1686424995067285000,10.344284912109375,-0.1402418613433838,-6.623236656188965,0.8867979645729065
1686424995077230300,10.354230224609376,-0.04557011276483536,-4.304778575897217,0.16513065993785858
1686424995087176200,10.36417626953125,0.204808309674263,-2.297060966491699,-0.3960471749305725
1686424995097121300,10.374121337890625,0.5854836702346802,-0.8487457036972046,-0.7389253973960876
1686424995107066000,10.384066162109375,0.9401214122772217,0.15310139954090118,-0.9389501214027405
1686424995117012200,10.39401220703125,1.184820532798767,0.8422430753707886,-1.0324060916900635
1686424995126957000,10.40395703125,1.3022282123565674,1.480294108390808,-1.1429296731948853
1686424995136902100,10.413902099609375,1.3246746063232422,1.9651118516921997,-1.2164620161056519
1686424995146848300,10.42384814453125,1.236971139907837,2.272524118423462,-1.2431052923202515
1686424995156793000,10.43379296875,1.024629831314087,2.4544107913970947,-1.2159429788589478
1686424995166738000,10.443738037109375,0.7520472407341003,2.4548425674438477,-1.143815040588379
1686424995176684000,10.45368408203125,0.4872927665710449,2.319959878921509,-1.0343060493469238
1686424995186629000,10.463629150390625,0.22922182083129883,2.141679525375366,-0.9005654454231262
1686424995196574200,10.47357421875,0.006160438060760498,1.9966857433319092,-0.771771252155304
1686424995206519000,10.48351904296875,-0.15409155189990997,1.935930609703064,-0.6782277226448059
1686424995216465200,10.493465087890625,-0.2671279311180115,1.9198867082595825,-0.607036292552948
1686424995226410200,10.50341015625,-0.36175110936164856,1.9781173467636108,-0.5713065266609192
1686424995236355000,10.51335498046875,-0.46560195088386536,2.1124444007873535,-0.5761616230010986
1686424995246301200,10.52330126953125,-0.5792896151542664,2.3242757320404053,-0.6078452467918396
1686424995256246000,10.53324609375,-0.7187186479568481,2.5988197326660156,-0.6748916506767273
1686424995266191400,10.54319140625,-0.8299210667610168,2.9543890953063965,-0.7969871759414673
1686424995276137200,10.55313720703125,-0.8319679498672485,3.3845787048339844,-0.9503217339515686
1686424995286082300,10.563082275390625,-0.4510246515274048,3.856271982192993,-1.1938502788543701
1686424995296027100,10.573027099609375,0.029936064034700394,4.324079513549805,-1.4923583269119263
1686424995305973000,10.582972900390626,0.09908024966716766,4.961918830871582,-1.7505013942718506
1686424995315918000,10.59291796875,-0.22037123143672943,5.8443603515625,-2.0153894424438477
1686424995325863200,10.60286328125,-0.41635486483573914,6.851022720336914,-2.1384596824645996
1686424995335809300,10.612809326171876,-0.37231501936912537,8.07384204864502,-1.990743637084961
1686424995345754000,10.622754150390625,-0.15556195378303528,9.421459197998047,-1.3799787759780884
1686424995355699000,10.632698974609376,0.26293209195137024,9.734524726867676,-0.12219725549221039
1686424995365644300,10.642644287109375,0.6067653298377991,7.063771724700928,0.9103432893753052
1686424995375590100,10.652590087890625,0.5611402988433838,3.372525453567505,0.7785384058952332
1686424995385535200,10.66253515625,0.5017318725585938,0.0420299768447876,0.11190792173147202
1686424995395480000,10.67247998046875,0.5071856379508972,-2.412142515182495,-0.4043576419353485
1686424995405426200,10.68242626953125,0.4426785707473755,-3.993079900741577,-0.5487832427024841
1686424995415371300,10.692371337890625,0.2122037261724472,-5.011641979217529,-0.3695264160633087
1686424995425316000,10.702316162109375,-0.1530003398656845,-5.703033924102783,-0.16402330994606018
1686424995435262200,10.71226220703125,-0.476039320230484,-6.055382251739502,-0.04209568351507187
1686424995445207000,10.72220703125,-0.6887190937995911,-6.192683219909668,-0.11863333731889725
1686424995455152000,10.732152099609374,-0.7821910381317139,-6.193334102630615,-0.3575403392314911
1686424995465098200,10.74209814453125,-0.7532193064689636,-6.122445106506348,-0.6873658895492554
1686424995475043000,10.75204296875,-0.6290243268013,-5.957671642303467,-1.0315405130386353
1686424995484988200,10.76198828125,-0.4580502212047577,-5.679441452026367,-1.332461953163147
1686424995494934000,10.77193408203125,-0.3404448926448822,-5.174297332763672,-1.5619757175445557
1686424995504879400,10.78187939453125,-0.2845515310764313,-4.435546398162842,-1.6554542779922485
1686424995514824200,10.79182421875,-0.2935689687728882,-3.588012933731079,-1.6064479351043701
1686424995524770300,10.801770263671875,-0.31266942620277405,-2.9274675846099854,-1.5031684637069702
1686424995534715100,10.811715087890626,-0.317423015832901,-2.5630087852478027,-1.4076429605484009
1686424995544660000,10.821659912109375,-0.30060169100761414,-2.4403438568115234,-1.32514488697052
1686424995554606000,10.831606201171875,-0.26093560457229614,-2.4523961544036865,-1.224846363067627
1686424995564551200,10.84155126953125,-0.20891472697257996,-2.5088727474212646,-1.110141396522522
1686424995574496300,10.851496337890625,-0.15297454595565796,-2.585512399673462,-0.9764065742492676
1686424995584441000,10.861441162109376,-0.11324284225702286,-2.605100631713867,-0.8555006384849548
1686424995594387000,10.871386962890625,-0.11563378572463989,-2.4009430408477783,-0.7579845190048218
1686424995604332300,10.881332275390625,-0.18499502539634705,-2.0146453380584717,-0.6401811838150024
1686424995614277000,10.891277099609376,-0.2926904559135437,-1.5931651592254639,-0.49659839272499084
1686424995624223200,10.90122314453125,-0.4039685130119324,-1.197029709815979,-0.35407161712646484
1686424995634168000,10.91116796875,-0.49288660287857056,-0.8730939626693726,-0.23560063540935516
1686424995644113200,10.921113037109375,-0.5291305780410767,-0.6605417728424072,-0.1509893387556076
1686424995654059300,10.931059326171875,-0.5402311682701111,-0.48183923959732056,-0.09426337480545044
1686424995664003800,10.94100390625,-0.5620970726013184,-0.29055771231651306,-0.03669888153672218
1686424995673949000,10.950948974609375,-0.5946375131607056,-0.13162609934806824,0.031350236386060715
1686424995683894800,10.960894775390624,-0.6376688480377197,0.012130001559853554,0.11905958503484726
1686424995693840000,10.97083984375,-0.6720954775810242,0.14759273827075958,0.21930918097496033
1686424995703785000,10.980784912109375,-0.6947078108787537,0.2655705213546753,0.31342583894729614
1686424995713730800,10.990730712890626,-0.6967852711677551,0.3521796464920044,0.3598311245441437
1686424995723676000,11.000676025390625,-0.686252236366272,0.548703670501709,0.39727783203125
1686424995733621000,11.01062109375,-0.6427131295204163,0.7585365176200867,0.38460400700569153
1686424995743567000,11.020567138671876,-0.6137965321540833,0.9697600603103638,0.36321455240249634
1686424995753512000,11.030511962890625,-0.5774726271629333,1.1828657388687134,0.36378344893455505
1686424995763456800,11.040456787109376,-0.5121064186096191,1.3669607639312744,0.38131797313690186
1686424995773401900,11.05040185546875,-0.44049546122550964,1.6293960809707642,0.4462617337703705
1686424995783348000,11.060347900390624,-0.40357497334480286,2.0852177143096924,0.6371861696243286
1686424995793293000,11.07029296875,-0.39799952507019043,2.6577847003936768,0.9520509243011475
1686424995803238000,11.08023779296875,-0.32553330063819885,3.1474318504333496,1.3047930002212524
1686424995813183700,11.090183837890624,-0.16397064924240112,3.451054573059082,1.5746872425079346
1686424995823128800,11.10012890625,0.06758294999599457,3.546935558319092,1.7607059478759766
1686424995833074000,11.110073974609374,0.2905498445034027,3.5810630321502686,1.8965998888015747
1686424995843020000,11.12002001953125,0.46157777309417725,3.690505027770996,2.0257198810577393
1686424995852964900,11.12996484375,0.6099053621292114,3.813554525375366,2.216280698776245
1686424995862909700,11.13990966796875,0.7078896760940552,3.872626781463623,2.5929064750671387
1686424995872855800,11.149855712890625,0.8036830425262451,3.6816742420196533,3.179915428161621
1686424995882801000,11.15980078125,0.8746781349182129,3.0458834171295166,3.913557291030884
1686424995892746000,11.16974609375,0.8972296714782715,1.7685219049453735,4.6014909744262695
1686424995902691800,11.17969189453125,0.8482546210289001,0.032416753470897675,5.14838171005249
1686424995912637000,11.189636962890624,0.7793680429458618,-1.6971184015274048,5.417308330535889
1686424995922582000,11.19958203125,0.7575432062149048,-2.999647378921509,5.310832977294922
1686424995932528000,11.209528076171875,0.6924286484718323,-3.501194953918457,4.781928062438965
1686424995942473000,11.219472900390626,0.586431622505188,-0.7630636096000671,3.024247884750366
1686424995952417800,11.229417724609375,0.5127975344657898,2.3638131618499756,0.656206488609314
1686424995962364000,11.239364013671874,0.32864660024642944,3.0165021419525146,-0.7997785210609436
1686424995972309000,11.24930908203125,0.13557182252407074,3.201089859008789,-1.645922064781189
1686424995982253800,11.25925390625,0.09703189134597778,3.153730630874634,-2.1183974742889404
1686424995992199000,11.269198974609376,0.14268897473812103,2.9979307651519775,-2.3538081645965576
1686424996002144800,11.279144775390625,0.17917828261852264,2.7242348194122314,-2.4154164791107178
1686424996012089900,11.28908984375,0.21607685089111328,2.319345474243164,-2.379430055618286
1686424996022035000,11.299034912109375,0.2821708917617798,1.778435468673706,-2.296630382537842
1686424996031981000,11.30898095703125,0.3448422849178314,1.178788423538208,-2.191450834274292
1686424996041926000,11.31892578125,0.40956881642341614,0.6752097606658936,-2.0603716373443604
1686424996051870700,11.32887060546875,0.4514961838722229,0.24174825847148895,-1.8888019323349
1686424996061816800,11.33881689453125,0.43425992131233215,-0.2628858685493469,-1.6561262607574463
1686424996071762000,11.348761962890626,0.41438212990760803,-0.7999294996261597,-1.386397361755371
1686424996081707000,11.35870703125,0.32131344079971313,-1.526957392692566,-1.0453071594238281
1686424996091652900,11.36865283203125,0.1755509078502655,-2.655508518218994,-0.6096170544624329
1686424996101597700,11.37859765625,0.0020230570808053017,-4.301543235778809,-0.07808975875377655
1686424996111543000,11.38854296875,-0.20346710085868835,-6.091865062713623,0.4986017048358917
1686424996121489000,11.398489013671876,-0.3987977206707001,-7.775777339935303,1.0536370277404785
1686424996131434000,11.40843408203125,-0.5454840064048767,-8.895183563232422,1.5174893140792847
1686424996141378800,11.41837890625,-0.5463679432868958,-9.264636039733887,1.7441123723983765
1686424996151325000,11.428324951171875,-0.39508408308029175,-9.057616233825684,1.7618814706802368
1686424996161270000,11.43827001953125,-0.281980961561203,-8.200980186462402,1.5170788764953613
1686424996171214800,11.44821484375,-0.21148581802845,-6.710936069488525,1.0366699695587158
1686424996181161000,11.458160888671875,-0.14118608832359314,-4.790708541870117,0.4418758451938629
1686424996191105800,11.468105712890624,-0.004438773728907108,-2.713681936264038,-0.13893793523311615
1686424996201051000,11.47805078125,0.26213884353637695,-0.8882762789726257,-0.5801888704299927
1686424996210996000,11.487995849609375,0.5628939270973206,0.4736503064632416,-0.8470434546470642
1686424996220942000,11.497942138671876,0.7669498324394226,1.4814088344573975,-1.0223345756530762
1686424996230887000,11.507886962890625,0.8531819581985474,2.1413607597351074,-1.1349966526031494
1686424996240831700,11.517831787109374,0.7883976697921753,2.5426535606384277,-1.1830501556396484
1686424996250777900,11.52777783203125,0.6412397623062134,2.749730110168457,-1.2043273448944092
1686424996260723000,11.537722900390625,0.4518134295940399,2.8328983783721924,-1.1831324100494385
1686424996270667800,11.547667724609376,0.24975959956645966,2.7958691120147705,-1.1376848220825195
1686424996280614000,11.55761376953125,0.06563184410333633,2.6566109657287598,-1.0722891092300415
1686424996290558700,11.567558837890624,-0.08010967820882797,2.5147366523742676,-1.0073623657226562
1686424996300504000,11.577504150390626,-0.19456727802753448,2.335026979446411,-0.9472764134407043
1686424996310450000,11.587449951171875,-0.30460065603256226,2.117492198944092,-0.8781410455703735
1686424996320395000,11.59739501953125,-0.4201829135417938,1.9190471172332764,-0.8025701642036438
1686424996330339800,11.60733984375,-0.5294119119644165,1.7959691286087036,-0.7265850901603699
1686424996340286000,11.617285888671875,-0.6168078184127808,1.7571756839752197,-0.657086193561554
1686424996350231000,11.62723095703125,-0.6407313942909241,1.811949372291565,-0.624522864818573
1686424996360175900,11.63717578125,-0.5149769186973572,2.0233256816864014,-0.6709327101707458
1686424996370122000,11.6471220703125,-0.11065533757209778,2.4700727462768555,-0.8519233465194702
1686424996380066800,11.65706689453125,0.4741703271865845,3.195939064025879,-1.1570310592651367
1686424996390012000,11.667011962890625,0.9223104119300842,4.100752353668213,-1.517278790473938
1686424996399958000,11.6769580078125,0.8726426959037781,5.228775501251221,-1.8938252925872803
1686424996409902800,11.68690283203125,0.2733944058418274,6.657341003417969,-2.0048770904541016
1686424996419848000,11.696847900390624,-0.4446074068546295,8.16800308227539,-1.810581088066101
1686424996429793800,11.706793701171875,-0.8056942224502563,9.528094291687012,-1.3600361347198486
1686424996439739000,11.71673876953125,-0.6743894815444946,10.220331192016602,-0.9375081062316895
1686424996449684000,11.72668408203125,-0.13095085322856903,9.656940460205078,-0.4663480818271637
1686424996459628800,11.73662890625,0.5334692001342773,6.294027805328369,0.28995823860168457
1686424996469575000,11.746574951171874,0.7674468755722046,1.6741816997528076,0.14650772511959076
1686424996479519700,11.756519775390625,0.6483417749404907,-1.6489017009735107,-0.4034914970397949
1686424996489465000,11.766465087890625,0.5162169337272644,-3.449988842010498,-0.7577155828475952
1686424996499411000,11.776410888671874,0.3527739644050598,-4.302512168884277,-0.68825763463974
1686424996509355800,11.786355712890625,0.11207742989063263,-4.694543361663818,-0.37200820446014404
1686424996519300900,11.79630078125,-0.1691473126411438,-4.703024864196777,0.010437427088618279
1686424996529246700,11.806246826171876,-0.49402737617492676,-4.5301432609558105,0.2737344205379486
1686424996539192000,11.816192138671875,-0.7521460056304932,-4.288427829742432,0.3633061349391937
1686424996549137000,11.826136962890626,-0.9551648497581482,-3.9695019721984863,0.1842014491558075
1686424996559083000,11.8360830078125,-1.0028787851333618,-3.583122491836548,-0.10395684838294983
1686424996569027800,11.84602783203125,-0.9092722535133362,-3.3430423736572266,-0.3343750834465027
1686424996578973000,11.855972900390626,-0.7077654600143433,-3.2810447216033936,-0.5055944919586182
1686424996588919000,11.8659189453125,-0.4730682969093323,-3.1728851795196533,-0.6443423628807068
1686424996598864000,11.87586376953125,-0.27132609486579895,-2.978541374206543,-0.7259528040885925
1686424996608809000,11.88580908203125,-0.15582388639450073,-2.7499141693115234,-0.7889640927314758
1686424996618754800,11.8957548828125,-0.12200334668159485,-2.552027702331543,-0.8469390273094177
1686424996628700000,11.905699951171876,-0.1036064550280571,-2.423597812652588,-0.895557165145874
1686424996638645000,11.91564501953125,-0.03964638337492943,-2.39265513420105,-0.9326512217521667
1686424996648590800,11.9255908203125,0.06269293278455734,-2.436889410018921,-0.9781302809715271
1686424996658536000,11.935535888671875,0.17574651539325714,-2.485450506210327,-1.0044726133346558
1686424996668481000,11.94548095703125,0.24322539567947388,-2.5491278171539307,-0.9991483092308044
1686424996678426000,11.955426025390626,0.22763392329216003,-2.559525728225708,-0.9860854744911194
1686424996688372200,11.965372314453125,0.1043434664607048,-2.5085837841033936,-0.964320719242096
1686424996698317000,11.975317138671874,-0.058485135436058044,-2.4470691680908203,-0.8125562071800232
1686424996708262000,11.985261962890625,-0.19618956744670868,-2.3579204082489014,-0.6126331686973572
1686424996718208000,11.9952080078125,-0.3618491291999817,-2.0202417373657227,-0.47025632858276367
1686424996728153000,12.005153076171876,-0.5033392310142517,-1.4745947122573853,-0.33952730894088745
1686424996738098200,12.01509814453125,-0.5882434844970703,-0.9750618934631348,-0.1724078208208084
1686424996748044000,12.0250439453125,-0.6292921900749207,-0.5814715027809143,0.0019629786256700754
1686424996757989000,12.034989013671876,-0.6146940588951111,-0.26750448346138,0.1527748554944992
1686424996767934200,12.044934326171875,-0.6007865071296692,-0.031404945999383926,0.27153247594833374
1686424996777880000,12.054880126953124,-0.5835998058319092,0.15748348832130432,0.3813258111476898
1686424996787825200,12.0648251953125,-0.5658388137817383,0.33900386095046997,0.4890170097351074
1686424996797770000,12.07477001953125,-0.543895959854126,0.5267921090126038,0.5741563439369202
1686424996807716000,12.084716064453126,-0.5526632070541382,0.7973152995109558,0.642633318901062
1686424996817661000,12.094660888671875,-0.5772687196731567,1.0381958484649658,0.6808502078056335
1686424996827606000,12.10460595703125,-0.5860675573348999,1.2787387371063232,0.7073913216590881
1686424996837552000,12.11455224609375,-0.5536909699440002,1.4774595499038696,0.7442460060119629
1686424996847497000,12.1244970703125,-0.5212000608444214,1.6663813591003418,0.7985928654670715
1686424996857442000,12.134442138671876,-0.4828369915485382,1.8439114093780518,0.8595443964004517
1686424996867388000,12.144387939453125,-0.4147140681743622,2.01682186126709,0.935434877872467
1686424996877333200,12.154333251953124,-0.30486613512039185,2.2264063358306885,1.0341612100601196
1686424996887278000,12.164278076171875,-0.18214426934719086,2.450209856033325,1.1464711427688599
1686424996897224200,12.17422412109375,-0.07151389122009277,2.660217046737671,1.28223717212677
1686424996907169000,12.1841689453125,0.05238119512796402,2.878174066543579,1.4336414337158203
1686424996917114000,12.194114013671875,0.20667409896850586,3.146514892578125,1.6172128915786743
1686424996927060200,12.204060302734375,0.3884085416793823,3.455141305923462,1.8084582090377808
1686424996937005000,12.214005126953126,0.553707480430603,3.7374205589294434,2.027127742767334
1686424996946950000,12.223949951171875,0.7026075720787048,3.929821014404297,2.308311700820923
1686424996956896000,12.23389599609375,0.847319483757019,3.8924973011016846,2.658320665359497
1686424996966841000,12.243841064453125,0.9639768004417419,3.6153507232666016,3.1098949909210205
1686424996976786200,12.2537861328125,1.0502755641937256,3.0591914653778076,3.698409080505371
1686424996986731000,12.26373095703125,1.0158742666244507,1.791016936302185,4.401785850524902
1686424996996677000,12.273677001953125,0.9020944237709045,-0.15131749212741852,4.910393238067627
1686424997006622000,12.2836220703125,0.8252549171447754,-1.8677438497543335,4.956942081451416
1686424997016567000,12.293567138671875,0.8228210806846619,-2.7749197483062744,4.5787506103515625
1686424997026513200,12.30351318359375,0.73674076795578,-2.418303966522217,3.7058045864105225
1686424997036458000,12.3134580078125,0.6822511553764343,0.21372900903224945,1.9098442792892456
1686424997046403000,12.323403076171875,0.6518768668174744,2.471297025680542,-0.08393768221139908
1686424997056349000,12.333348876953124,0.4289308190345764,3.0012567043304443,-1.3356088399887085
1686424997066294000,12.3432939453125,0.27957770228385925,3.056851387023926,-1.9801658391952515
1686424997076239000,12.353239013671875,0.23002825677394867,2.930100202560425,-2.285867691040039
1686424997086185000,12.36318505859375,0.22429029643535614,2.67521071434021,-2.377743721008301
1686424997096130000,12.373130126953125,0.2514912784099579,2.3196635246276855,-2.3349859714508057
1686424997106075100,12.3830751953125,0.3305039405822754,1.7700309753417969,-2.2288026809692383
1686424997116021200,12.393021240234376,0.42933595180511475,1.1008219718933105,-2.111558198928833
1686424997125966000,12.402966064453125,0.4483135938644409,0.4733169674873352,-1.9819183349609375
1686424997135911000,12.412910888671876,0.4041338860988617,-0.13939382135868073,-1.8121954202651978
1686424997145857000,12.42285693359375,0.3369620442390442,-0.8761463165283203,-1.5647625923156738
1686424997155802000,12.432802001953124,0.18997794389724731,-1.8699815273284912,-1.2207425832748413
1686424997165747200,12.442747314453126,-0.04155678302049637,-3.260237693786621,-0.7353686094284058
1686424997175693000,12.452693115234375,-0.2490186244249344,-4.928506851196289,-0.17555402219295502
1686424997185638000,12.462637939453124,-0.5498096942901611,-6.6779303550720215,0.49249741435050964
1686424997195583200,12.472583251953125,-0.7940772175788879,-7.965400218963623,0.9623876810073853
1686424997205529000,12.482529052734375,-0.8527947664260864,-8.604351997375488,1.2199318408966064
1686424997215474200,12.49247412109375,-0.791182279586792,-8.74729061126709,1.3038841485977173
1686424997225419000,12.5024189453125,-0.6536245942115784,-8.267332077026367,1.206959843635559
1686424997235363800,12.51236376953125,-0.504155695438385,-6.943431854248047,0.8675926327705383
1686424997245310000,12.52231005859375,-0.3403739333152771,-4.906599998474121,0.3431668281555176
1686424997255255000,12.532255126953125,-0.05783063918352127,-2.7318809032440186,-0.18832583725452423
1686424997265200000,12.5422001953125,0.36074450612068176,-0.947127640247345,-0.5635426044464111
1686424997275146000,12.55214599609375,0.7356640696525574,0.32689398527145386,-0.8115638494491577
