time,seconds_elapsed,z,y,x
1686424984826237200,0.1032373046875,-97.25239562988281,-95.777099609375,72.67039489746094
1686424984836312300,0.113312255859375,-97.4434814453125,-96.03520202636719,73.24992370605469
1686424984846386200,0.12338623046875,-97.37432861328125,-95.61105346679688,73.90786743164062
1686424984856459300,0.133459228515625,-97.94671630859375,-96.10163879394531,74.48286437988281
1686424984866532000,0.143531982421875,-98.04496765136719,-95.87065124511719,75.06082153320312
1686424984876606200,0.153606201171875,-98.5262451171875,-95.91078186035156,75.51712036132812
1686424984886681000,0.16368115234375,-98.66920471191406,-95.735107421875,75.955810546875
1686424984896755200,0.173755126953125,-99.50473022460938,-95.78205871582031,76.62882995605469
1686424984906828300,0.183828369140625,-99.86814880371094,-95.40020751953125,77.17976379394531
1686424984916903200,0.193903076171875,-99.90142822265625,-95.72064208984375,78.23526000976562
1686424984926977300,0.203977294921875,-100.14971923828125,-95.44816589355469,79.12969970703125
1686424984937050000,0.214050048828125,-100.78634643554688,-94.76029968261719,79.84446716308594
1686424984947122200,0.2241220703125,-101.67599487304688,-94.59565734863281,81.12661743164062
1686424984957198000,0.234197998046875,-102.07919311523438,-94.76936340332031,82.05282592773438
1686424984967271200,0.244271240234375,-102.92074584960938,-94.60275268554688,83.33444213867188
1686424984977346300,0.25434619140625,-102.71418762207031,-94.48637390136719,84.75871276855469
1686424984987419100,0.264419189453125,-102.5728759765625,-94.46969604492188,85.72319030761719
1686424984997493200,0.2744931640625,-102.32418823242188,-94.22357177734375,87.46943664550781
1686424985007567000,0.284567138671875,-101.91084289550781,-94.64666748046875,88.86572265625
1686424985017640200,0.29464013671875,-101.11100769042969,-94.839599609375,89.92013549804688
1686424985027713300,0.30471337890625,-101.13162231445312,-94.92918395996094,91.80787658691406
1686424985037787100,0.314787109375,-100.61054992675781,-94.76544189453125,93.10072326660156
1686424985047860200,0.324860107421875,-99.478271484375,-94.88323974609375,94.26463317871094
1686424985057934300,0.334934326171875,-99.11674499511719,-95.19404602050781,95.5556640625
1686424985068009200,0.34500927734375,-98.38664245605469,-95.17973327636719,96.86172485351562
1686424985078084400,0.35508447265625,-97.54335021972656,-95.54391479492188,97.68534851074219
1686424985088158200,0.365158203125,-95.67845153808594,-95.53401184082031,98.89755249023438
1686424985098231000,0.37523095703125,-94.26150512695312,-95.88558959960938,99.75262451171875
1686424985108303400,0.385303466796875,-93.07917785644531,-96.10427856445312,101.029296875
1686424985118377200,0.395377197265625,-91.81187438964844,-95.73866271972656,102.25053405761719
1686424985128451000,0.405451171875,-90.42619323730469,-96.19183349609375,103.29794311523438
1686424985138524400,0.4155244140625,-89.24153137207031,-96.32752990722656,104.32048034667969
1686424985148597200,0.42559716796875,-87.57135009765625,-96.26066589355469,105.08387756347656
1686424985158671000,0.435671142578125,-85.77577209472656,-96.6075439453125,106.10844421386719
1686424985168744200,0.445744140625,-84.02317810058594,-96.45799255371094,106.82386779785156
1686424985178818300,0.455818359375,-82.69793701171875,-95.9139404296875,107.74609375
1686424985188891100,0.46589111328125,-80.24250793457031,-95.81167602539062,108.94136047363281
1686424985198965200,0.47596533203125,-78.32769775390625,-95.39962768554688,109.81315612792969
1686424985209040100,0.4860400390625,-77.2274169921875,-94.92672729492188,111.22061157226562
1686424985219115300,0.496115234375,-73.91046142578125,-93.96018981933594,112.60040283203125
1686424985229189000,0.506189208984375,-71.21124267578125,-93.26953125,113.55052185058594
1686424985239263200,0.51626318359375,-69.06228637695312,-92.12884521484375,114.74578857421875
1686424985249336300,0.52633642578125,-66.22898864746094,-90.39208984375,115.31596374511719
1686424985259410200,0.53641015625,-63.22627258300781,-88.788818359375,116.668701171875
1686424985269485300,0.5464853515625,-60.05963134765625,-86.17955017089844,117.78826904296875
1686424985279558100,0.55655810546875,-57.453369140625,-83.85139465332031,118.80690002441406
1686424985289633300,0.56663330078125,-54.64764404296875,-80.85189819335938,119.67491149902344
1686424985299707100,0.57670703125,-51.98524475097656,-77.89555358886719,120.23431396484375
1686424985309780200,0.5867802734375,-49.33326721191406,-74.51708984375,120.62770080566406
1686424985319855000,0.596855224609375,-47.18949890136719,-71.46220397949219,120.99342346191406
1686424985329930200,0.60693017578125,-46.5498046875,-67.86984252929688,121.83302307128906
1686424985340005000,0.617005126953125,-45.55030822753906,-64.724853515625,122.20870971679688
1686424985350080300,0.627080322265625,-46.516693115234375,-61.729736328125,122.62077331542969
1686424985360154000,0.637154052734375,-46.60130310058594,-59.37042236328125,123.32887268066406
1686424985370229200,0.647229248046875,-47.54954528808594,-57.17878723144531,124.41801452636719
1686424985380303000,0.65730322265625,-47.66587829589844,-55.23933410644531,124.61614990234375
1686424985390377200,0.667377197265625,-48.32868957519531,-53.60823059082031,124.87191772460938
1686424985400453000,0.677453125,-48.92185974121094,-53.02690124511719,125.40814208984375
1686424985410528300,0.6875283203125,-49.140350341796875,-52.20158386230469,125.12043762207031
1686424985420602000,0.69760205078125,-49.466796875,-52.188201904296875,125.41023254394531
1686424985430676200,0.70767626953125,-49.7303466796875,-52.26206970214844,125.19108581542969
1686424985440749000,0.7177490234375,-49.81431579589844,-53.237884521484375,125.29708862304688
1686424985450822100,0.727822265625,-50.73651123046875,-53.66249084472656,126.09333801269531
1686424985460895200,0.737895263671875,-51.03302001953125,-54.02418518066406,126.1209716796875
1686424985470968300,0.74796826171875,-51.843048095703125,-54.277099609375,126.87588500976562
1686424985481042200,0.758042236328125,-52.40095520019531,-53.87809753417969,127.124267578125
1686424985491114200,0.7681142578125,-52.23779296875,-54.20445251464844,126.79583740234375
1686424985501187000,0.77818701171875,-52.39253234863281,-54.34864807128906,127.05796813964844
1686424985511260200,0.78826025390625,-51.934356689453125,-53.90476989746094,126.92784118652344
1686424985521333200,0.798333251953125,-51.779632568359375,-53.89891052246094,126.81744384765625
1686424985531407000,0.808406982421875,-52.12532043457031,-53.2022705078125,126.71263122558594
1686424985541482200,0.818482177734375,-52.46061706542969,-53.43373107910156,126.74700927734375
1686424985551557400,0.828557373046875,-52.24261474609375,-53.12413024902344,126.88945007324219
1686424985561630200,0.838630126953125,-51.90290832519531,-52.952972412109375,126.821533203125
1686424985571705000,0.848705078125,-51.66828918457031,-52.93516540527344,126.92060852050781
1686424985581777200,0.858777099609375,-51.61012268066406,-52.86842346191406,126.41658020019531
1686424985591851300,0.868851318359375,-51.57203674316406,-52.50514221191406,126.19851684570312
1686424985601924000,0.878924072265625,-51.36238098144531,-52.0013427734375,126.31809997558594
1686424985611998200,0.888998291015625,-50.76231384277344,-52.103363037109375,125.75918579101562
1686424985622072300,0.899072265625,-50.36558532714844,-51.823150634765625,126.31015014648438
1686424985632146200,0.909146240234375,-50.2886962890625,-51.22431945800781,125.86720275878906
1686424985642218200,0.91921826171875,-51.90568542480469,-51.0081787109375,125.92031860351562
1686424985652293000,0.929293212890625,-51.59483337402344,-50.92938232421875,125.90194702148438
1686424985662367200,0.9393671875,-51.73497009277344,-50.64353942871094,126.25837707519531
1686424985672442000,0.949442138671875,-52.18695068359375,-50.53227233886719,126.3380126953125
1686424985682517000,0.95951708984375,-51.72222900390625,-50.48004150390625,126.08808898925781
1686424985692591000,0.969591064453125,-51.77516174316406,-50.127227783203125,126.24372863769531
1686424985702664200,0.979664306640625,-52.06538391113281,-50.41670227050781,126.47000122070312
1686424985712738000,0.989738037109375,-52.298492431640625,-50.301788330078125,126.66160583496094
1686424985722813200,0.999813232421875,-52.87995910644531,-50.41236877441406,126.41145324707031
1686424985732885200,1.00988525390625,-52.49330139160156,-50.393768310546875,126.78746032714844
1686424985742958000,1.0199580078125,-53.11857604980469,-50.289520263671875,127.210205078125
1686424985753032200,1.0300322265625,-52.73808288574219,-50.13322448730469,127.30570983886719
1686424985763107000,1.040107177734375,-53.47874450683594,-50.09843444824219,127.11076354980469
1686424985773182200,1.05018212890625,-53.315155029296875,-49.98429870605469,127.51992797851562
1686424985783256000,1.060256103515625,-53.931060791015625,-50.417266845703125,127.42446899414062
1686424985793329200,1.0703291015625,-54.228240966796875,-50.33544921875,127.81269836425781
1686424985803402200,1.08040234375,-54.621337890625,-51.08256530761719,128.25189208984375
1686424985813476000,1.09047607421875,-55.11997985839844,-51.81689453125,128.09841918945312
1686424985823550200,1.10055029296875,-54.853668212890625,-52.23551940917969,128.57351684570312
1686424985833623300,1.110623291015625,-54.98455810546875,-52.84574890136719,128.7139129638672
1686424985843696000,1.120696044921875,-55.72706604003906,-53.191741943359375,128.9520721435547
1686424985853768200,1.130768310546875,-56.038726806640625,-53.39830017089844,129.21231079101562
1686424985863842300,1.14084228515625,-56.84529113769531,-53.82456970214844,128.5113067626953
1686424985873917200,1.150917236328125,-56.578094482421875,-54.11054992675781,129.1127471923828
1686424985883991300,1.1609912109375,-57.39976501464844,-54.17097473144531,129.27633666992188
1686424985894066200,1.171066162109375,-57.35575866699219,-54.24659729003906,129.13735961914062
1686424985904140300,1.181140380859375,-58.20634460449219,-54.29618835449219,129.4241485595703
1686424985914215200,1.191215087890625,-58.106842041015625,-54.20994567871094,129.26287841796875
1686424985924288000,1.2012880859375,-58.096710205078125,-53.82579040527344,129.49510192871094
1686424985934363100,1.211363037109375,-58.01409912109375,-53.66644287109375,129.39138793945312
1686424985944438300,1.221438232421875,-57.703369140625,-53.2772216796875,129.22215270996094
1686424985954512100,1.23151220703125,-57.70365905761719,-51.97377014160156,129.64035034179688
1686424985964586200,1.241586181640625,-57.42189025878906,-51.45213317871094,129.15805053710938
1686424985974659300,1.251659423828125,-56.73333740234375,-50.237030029296875,128.82952880859375
1686424985984731100,1.261731201171875,-56.87127685546875,-48.70391845703125,128.625732421875
1686424985994805000,1.271804931640625,-56.034759521484375,-47.65887451171875,127.90455627441406
1686424986004880100,1.281880126953125,-55.026580810546875,-46.28228759765625,127.68235778808594
1686424986014953200,1.291953125,-54.408905029296875,-44.41058349609375,126.81190490722656
1686424986025024300,1.302024169921875,-54.18296813964844,-43.40252685546875,126.3668212890625
1686424986035096000,1.312095947265625,-53.914459228515625,-41.14862060546875,125.48605346679688
1686424986045170200,1.322170166015625,-53.61659240722656,-39.51969909667969,124.75384521484375
1686424986055244300,1.332244384765625,-53.00831604003906,-37.031341552734375,123.56077575683594
1686424986065316000,1.342316162109375,-53.02626037597656,-34.421112060546875,122.12576293945312
1686424986075391000,1.352390869140625,-53.08198547363281,-31.97686767578125,120.28964233398438
1686424986085465000,1.362465087890625,-52.83781433105469,-29.692962646484375,119.06393432617188
1686424986095539200,1.372539306640625,-53.339752197265625,-27.002029418945312,117.08226013183594
1686424986105611000,1.382611083984375,-53.54255676269531,-24.648712158203125,114.4288330078125
1686424986115684400,1.392684326171875,-53.620635986328125,-22.524383544921875,112.91307067871094
1686424986125757200,1.402757080078125,-54.408721923828125,-20.30242919921875,110.47305297851562
1686424986135830300,1.412830322265625,-53.82115173339844,-18.740264892578125,108.42245483398438
1686424986145903000,1.422903076171875,-53.737335205078125,-17.494384765625,105.87942504882812
1686424986155976000,1.432975830078125,-53.469268798828125,-16.639007568359375,103.93766784667969
1686424986166050300,1.44305029296875,-53.091094970703125,-16.082916259765625,102.63716125488281
1686424986176123100,1.453123046875,-52.86015319824219,-15.687789916992188,101.41470336914062
1686424986186195200,1.4631953125,-53.56944274902344,-15.35137939453125,100.76177978515625
1686424986196267000,1.47326708984375,-53.16801452636719,-14.77313232421875,100.92921447753906
1686424986206340000,1.483340087890625,-53.74681091308594,-14.447418212890625,100.54129028320312
1686424986216413200,1.4934130859375,-54.28477478027344,-14.431381225585938,100.4837646484375
1686424986226486300,1.503486328125,-54.758514404296875,-13.933670043945312,100.03132629394531
1686424986236560100,1.51356005859375,-55.08296203613281,-13.948532104492188,100.310546875
1686424986246634200,1.52363427734375,-55.483123779296875,-13.594436645507812,99.93984985351562
1686424986256709000,1.533709228515625,-55.33477783203125,-13.32391357421875,99.58695983886719
1686424986266782000,1.543781982421875,-54.94422912597656,-13.436065673828125,99.35696411132812
1686424986276853000,1.55385302734375,-55.38337707519531,-13.464447021484375,98.75434875488281
1686424986286927000,1.563927001953125,-55.231842041015625,-13.185195922851562,98.36772155761719
1686424986297001200,1.574001220703125,-54.58345031738281,-13.3011474609375,97.89944458007812
1686424986307075300,1.584075439453125,-54.33155822753906,-13.188644409179688,97.17396545410156
1686424986317148200,1.594148193359375,-53.90478515625,-13.292892456054688,96.51431274414062
1686424986327220200,1.60422021484375,-53.67765808105469,-13.448028564453125,95.85028076171875
1686424986337293000,1.61429296875,-53.01530456542969,-13.33306884765625,95.72732543945312
1686424986347368200,1.6243681640625,-52.42950439453125,-13.425003051757812,94.78599548339844
1686424986357442000,1.634442138671875,-52.0821533203125,-13.2459716796875,94.26353454589844
1686424986367517200,1.64451708984375,-51.66874694824219,-13.802947998046875,93.64303588867188
1686424986377592000,1.654592041015625,-51.00262451171875,-14.020126342773438,93.26301574707031
1686424986387666200,1.664666259765625,-50.91094970703125,-13.837921142578125,92.51937866210938
1686424986397741000,1.674740966796875,-50.38653564453125,-14.393875122070312,91.78883361816406
1686424986407816200,1.684816162109375,-49.94169616699219,-14.1552734375,91.53135681152344
1686424986417891300,1.694891357421875,-49.52848815917969,-13.8963623046875,91.14834594726562
1686424986427965200,1.704965087890625,-49.9752197265625,-13.978759765625,91.11444091796875
1686424986438039000,1.7150390625,-50.55120849609375,-14.015411376953125,91.16230773925781
1686424986448113200,1.725113037109375,-50.531494140625,-13.478515625,91.18597412109375
1686424986458184200,1.73518408203125,-50.91865539550781,-13.613174438476562,91.07954406738281
1686424986468254200,1.745254150390625,-51.303558349609375,-13.595535278320312,91.00662231445312
1686424986478328300,1.755328369140625,-50.815521240234375,-13.775787353515625,90.72584533691406
1686424986488402200,1.765402099609375,-50.1590576171875,-14.048919677734375,91.01339721679688
1686424986498475000,1.77547509765625,-49.87031555175781,-14.419342041015625,90.66664123535156
1686424986508548400,1.78554833984375,-49.039794921875,-14.4893798828125,90.40129089355469
1686424986518622200,1.795622314453125,-48.33006286621094,-14.6126708984375,89.75942993164062
1686424986528695000,1.805695068359375,-47.70057678222656,-14.896209716796875,90.09259033203125
1686424986538769200,1.81576904296875,-47.94715881347656,-15.264678955078125,89.59245300292969
1686424986548842200,1.82584228515625,-47.3992919921875,-15.509933471679688,89.51165771484375
1686424986558916000,1.835916015625,-47.901947021484375,-15.582260131835938,89.50129699707031
1686424986568989000,1.845989013671875,-46.59474182128906,-16.1959228515625,89.70954895019531
1686424986579064000,1.85606396484375,-46.30668640136719,-16.055496215820312,90.11785888671875
1686424986589139200,1.86613916015625,-46.26560974121094,-16.214584350585938,90.53692626953125
1686424986599213000,1.876213134765625,-46.593536376953125,-16.073684692382812,90.95149230957031
1686424986609286100,1.8862861328125,-46.53230285644531,-16.182861328125,92.13288879394531
1686424986619361300,1.896361328125,-46.81431579589844,-15.908035278320312,92.66368103027344
1686424986629436200,1.906436279296875,-47.218109130859375,-15.8133544921875,92.4539794921875
1686424986639508200,1.91650830078125,-47.82743835449219,-15.715118408203125,93.114013671875
1686424986649583400,1.926583251953125,-47.9881591796875,-15.599365234375,93.40385437011719
1686424986659657500,1.936657470703125,-48.40838623046875,-15.623199462890625,93.44041442871094
1686424986669732400,1.946732421875,-48.42424011230469,-15.506088256835938,93.52842712402344
1686424986679805400,1.956805419921875,-48.40496826171875,-15.632369995117188,93.67976379394531
1686424986689879300,1.96687939453125,-47.88270568847656,-15.837982177734375,94.10458374023438
1686424986699952400,1.976952392578125,-48.094329833984375,-15.857620239257812,94.70680236816406
1686424986710027500,1.987027587890625,-47.806732177734375,-16.181167602539062,95.10470581054688
1686424986720101400,1.997101318359375,-47.90010070800781,-16.379150390625,95.59831237792969
1686424986730177300,2.00717724609375,-47.70562744140625,-16.578521728515625,96.38360595703125
1686424986740252400,2.01725244140625,-47.90049743652344,-16.675155639648438,96.40774536132812
1686424986750327300,2.027327392578125,-47.68721008300781,-16.9755859375,97.11863708496094
1686424986760403500,2.037403564453125,-47.66033935546875,-16.94140625,97.92433166503906
1686424986770479400,2.047479248046875,-48.013092041015625,-16.95074462890625,98.37429809570312
1686424986780555500,2.057555419921875,-48.49882507324219,-17.061019897460938,99.0821533203125
1686424986790630400,2.06763037109375,-49.32078552246094,-16.915451049804688,99.18544006347656
1686424986800706300,2.077706298828125,-49.0086669921875,-17.310150146484375,99.6416015625
1686424986810781400,2.087781494140625,-49.81690979003906,-17.013092041015625,100.61924743652344
1686424986820856300,2.097856201171875,-50.122222900390625,-16.842025756835938,100.93170166015625
1686424986830932500,2.107932373046875,-50.37049865722656,-16.555557250976562,101.6781005859375
1686424986841004300,2.11800439453125,-50.80113220214844,-16.593154907226562,101.49409484863281
1686424986851078400,2.128078369140625,-51.32536315917969,-16.351699829101562,101.960693359375
1686424986861152500,2.138152587890625,-51.64599609375,-16.057266235351562,101.83331298828125
1686424986871227400,2.148227294921875,-51.65199279785156,-15.882064819335938,101.57719421386719
1686424986881302300,2.15830224609375,-51.82380676269531,-15.816116333007812,101.57322692871094
1686424986891377400,2.16837744140625,-52.140655517578125,-15.516616821289062,101.54414367675781
1686424986901452300,2.178452392578125,-51.89898681640625,-15.553955078125,101.02674865722656
1686424986911528400,2.188528564453125,-51.41374206542969,-15.762481689453125,100.91569519042969
1686424986921603300,2.198603271484375,-52.00128173828125,-15.481170654296875,100.41795349121094
1686424986931677400,2.208677490234375,-51.951507568359375,-15.045333862304688,99.70089721679688
1686424986941749200,2.218749267578125,-51.83216857910156,-15.25286865234375,99.37515258789062
1686424986951822600,2.228822509765625,-51.86878967285156,-15.032394409179688,98.88850402832031
1686424986961897500,2.2388974609375,-51.7579345703125,-15.002944946289062,98.79429626464844
1686424986971972400,2.248972412109375,-51.12156677246094,-14.718948364257812,98.66688537597656
1686424986982045400,2.25904541015625,-51.817230224609375,-14.48431396484375,98.44833374023438
1686424986992120600,2.26912060546875,-51.773895263671875,-14.458831787109375,98.37806701660156
1686424987002194400,2.2791943359375,-52.010009765625,-14.193878173828125,97.92955017089844
1686424987012270300,2.289270263671875,-51.99510192871094,-14.133087158203125,97.80772399902344
1686424987022346500,2.299346435546875,-52.70933532714844,-13.76580810546875,97.55612182617188
1686424987032422400,2.30942236328125,-53.2613525390625,-13.35614013671875,97.65321350097656
1686424987042497300,2.319497314453125,-53.55220031738281,-13.039031982421875,97.2955322265625
1686424987052572400,2.329572509765625,-54.427276611328125,-12.781600952148438,97.20257568359375
1686424987062647300,2.339647216796875,-55.28263854980469,-12.45172119140625,96.85723876953125
1686424987072722400,2.349722412109375,-56.54670715332031,-11.575103759765625,96.79159545898438
1686424987082797300,2.35979736328125,-57.17694091796875,-11.178985595703125,96.6776123046875
1686424987092871400,2.369871337890625,-58.85693359375,-11.095535278320312,96.73649597167969
1686424987102946600,2.379946533203125,-60.60838317871094,-10.052780151367188,96.96733093261719
1686424987113021400,2.390021484375,-62.24232482910156,-9.7371826171875,97.2132568359375
1686424987123094300,2.40009423828125,-63.91737365722656,-9.598861694335938,97.28385925292969
1686424987133170400,2.41017041015625,-65.5955810546875,-9.103469848632812,97.64143371582031
1686424987143245600,2.42024560546875,-67.74717712402344,-9.07098388671875,97.71414184570312
1686424987153320200,2.4303203125,-68.69866943359375,-8.818740844726562,97.67439270019531
1686424987163396400,2.440396240234375,-68.525390625,-8.708740234375,97.45387268066406
1686424987173472500,2.450472412109375,-68.53993225097656,-8.698760986328125,97.42546081542969
1686424987183545300,2.46054541015625,-68.088623046875,-8.628982543945312,97.19737243652344
1686424987193619500,2.470619384765625,-67.12922668457031,-8.865585327148438,97.74116516113281
1686424987203693300,2.480693359375,-66.22389221191406,-9.168853759765625,97.41558837890625
1686424987213767200,2.49076708984375,-64.85317993164062,-9.339950561523438,96.82843017578125
1686424987223842300,2.50084228515625,-63.509918212890625,-9.424880981445312,96.7552490234375
1686424987233916400,2.51091650390625,-62.3077392578125,-9.762680053710938,96.62071228027344
1686424987243990500,2.520990478515625,-61.23417663574219,-10.28497314453125,96.75045776367188
1686424987254063400,2.5310634765625,-59.85270690917969,-10.1864013671875,96.83802795410156
1686424987264136200,2.54113623046875,-59.176849365234375,-10.89398193359375,97.29219055175781
1686424987274211300,2.55121142578125,-58.19566345214844,-10.865432739257812,97.30345153808594
1686424987284287500,2.56128759765625,-58.000732421875,-11.235824584960938,98.00286865234375
1686424987294361300,2.571361328125,-58.36421203613281,-11.362701416015625,98.50469970703125
1686424987304434200,2.58143408203125,-58.806182861328125,-11.767044067382812,99.1927490234375
1686424987314507500,2.591507568359375,-59.72578430175781,-11.502456665039062,100.23843383789062
1686424987324581400,2.601581298828125,-61.52418518066406,-11.568572998046875,101.29136657714844
1686424987334655200,2.6116552734375,-63.33979797363281,-11.633682250976562,102.38067626953125
1686424987344728600,2.621728515625,-65.07879638671875,-11.621337890625,102.90524291992188
1686424987354801400,2.631801513671875,-66.89848327636719,-11.754714965820312,103.40202331542969
1686424987364875300,2.641875244140625,-68.51325988769531,-11.869308471679688,104.73614501953125
1686424987374949400,2.651949462890625,-69.30036926269531,-11.844802856445312,105.14360046386719
1686424987385024300,2.662024169921875,-70.0775146484375,-11.871139526367188,105.23252868652344
1686424987395097600,2.67209765625,-70.07014465332031,-11.948196411132812,105.52268981933594
1686424987405170400,2.68217041015625,-69.67811584472656,-11.98956298828125,106.21333312988281
1686424987415242500,2.692242431640625,-69.46580505371094,-12.345458984375,106.11872863769531
1686424987425314300,2.702314208984375,-68.54150390625,-12.37396240234375,106.43328857421875
1686424987435387400,2.712387451171875,-68.03271484375,-12.679306030273438,106.6265869140625
1686424987445458400,2.72245849609375,-67.39500427246094,-12.930618286132812,106.54904174804688
1686424987455530500,2.732530517578125,-66.07907104492188,-13.082382202148438,106.17550659179688
1686424987465603300,2.742603271484375,-64.97378540039062,-13.116531372070312,106.21357727050781
1686424987475674400,2.75267431640625,-64.40394592285156,-12.91033935546875,105.68501281738281
1686424987485747500,2.76274755859375,-63.604461669921875,-13.070480346679688,105.34805297851562
1686424987495820300,2.7728203125,-62.50885009765625,-13.145782470703125,105.3902587890625
1686424987505893400,2.782893310546875,-62.098663330078125,-13.503372192382812,104.55422973632812
1686424987515967500,2.792967529296875,-60.95314025878906,-13.1387939453125,104.22706604003906
1686424987526040300,2.803040283203125,-60.745758056640625,-13.183074951171875,103.7611083984375
1686424987536113400,2.813113525390625,-60.14195251464844,-13.16741943359375,103.54132080078125
1686424987546186500,2.8231865234375,-60.55101013183594,-13.407241821289062,103.44918823242188
1686424987556259300,2.83325927734375,-59.92481994628906,-12.742935180664062,103.51889038085938
1686424987566331400,2.843331298828125,-59.96099853515625,-13.146011352539062,103.00071716308594
1686424987576406500,2.853406494140625,-59.38038635253906,-13.310012817382812,103.18008422851562
1686424987586480400,2.86348046875,-59.076171875,-13.46063232421875,103.09951782226562
1686424987596555500,2.873555419921875,-58.7083740234375,-13.2677001953125,102.68630981445312
1686424987606630400,2.88363037109375,-57.426025390625,-13.501953125,101.97544860839844
1686424987616703500,2.893703369140625,-56.49371337890625,-13.656326293945312,101.54800415039062
1686424987626778400,2.9037783203125,-55.14691162109375,-14.0185546875,100.28663635253906
1686424987636850400,2.913850341796875,-53.55389404296875,-13.932723999023438,98.92033386230469
1686424987646924500,2.923924560546875,-52.0609130859375,-14.16448974609375,97.45205688476562
1686424987656998700,2.93399853515625,-50.119232177734375,-14.832473754882812,95.52752685546875
1686424987667072500,2.944072509765625,-48.765167236328125,-15.217453002929688,92.98321533203125
1686424987677145600,2.9541455078125,-46.75425720214844,-16.088668823242188,90.95025634765625
1686424987687218700,2.96421875,-45.35685729980469,-16.720901489257812,89.42510986328125
1686424987697291500,2.97429150390625,-44.683990478515625,-17.549285888671875,88.85554504394531
1686424987707366400,2.984366455078125,-44.4244384765625,-17.872695922851562,89.51922607421875
1686424987717441500,2.994441650390625,-44.4388427734375,-17.545181274414062,90.35025024414062
1686424987727516700,3.0045166015625,-45.22767639160156,-17.495193481445312,91.250244140625
1686424987737591600,3.014591552734375,-45.43440246582031,-17.402069091796875,91.55108642578125
1686424987747665700,3.024665771484375,-45.792999267578125,-16.992172241210938,92.16519165039062
1686424987757736700,3.03473681640625,-46.82133483886719,-16.73382568359375,92.60667419433594
1686424987767811600,3.0448115234375,-47.48789978027344,-16.37567138671875,92.91502380371094
1686424987777886700,3.05488671875,-48.29692077636719,-15.905120849609375,93.67636108398438
1686424987787961600,3.064961669921875,-49.27032470703125,-15.596267700195312,94.430419921875
1686424987798037500,3.07503759765625,-50.170928955078125,-15.134307861328125,95.25810241699219
1686424987808111600,3.085111572265625,-51.02632141113281,-15.0233154296875,95.88796997070312
1686424987818186500,3.0951865234375,-51.47998046875,-14.9368896484375,97.62236022949219
1686424987828261600,3.10526171875,-51.96138000488281,-15.04254150390625,98.4259033203125
1686424987838334500,3.11533447265625,-52.93754577636719,-14.663742065429688,99.33444213867188
1686424987848408600,3.12540869140625,-53.950103759765625,-14.672607421875,100.61505126953125
1686424987858482700,3.135482666015625,-55.1783447265625,-14.658966064453125,101.57618713378906
1686424987868557600,3.1455576171875,-56.34974670410156,-14.48876953125,101.95429992675781
1686424987878632400,3.155632568359375,-56.93218994140625,-14.530029296875,102.88174438476562
1686424987888706600,3.16570654296875,-57.661651611328125,-14.746627807617188,103.30793762207031
1686424987898781400,3.175781494140625,-58.18548583984375,-14.5482177734375,104.42266845703125
1686424987908853500,3.185853515625,-58.80036926269531,-14.842041015625,104.80458068847656
1686424987918928600,3.1959287109375,-59.080902099609375,-14.795059204101562,105.33119201660156
1686424987929003500,3.20600341796875,-59.55049133300781,-14.749908447265625,105.55265808105469
1686424987939076600,3.21607666015625,-60.23295593261719,-14.876449584960938,105.77128601074219
1686424987949151500,3.2261513671875,-60.05183410644531,-14.6844482421875,106.00480651855469
1686424987959225600,3.2362255859375,-59.87445068359375,-14.990036010742188,105.78262329101562
1686424987969300500,3.246300537109375,-59.246246337890625,-14.809860229492188,105.81640625
1686424987979374600,3.25637451171875,-59.471771240234375,-14.94854736328125,105.603271484375
1686424987989449500,3.266449462890625,-58.836212158203125,-14.79638671875,105.79676818847656
1686424987999523600,3.276523681640625,-58.57600402832031,-15.301177978515625,105.39242553710938
1686424988009597400,3.286597412109375,-58.03672790527344,-15.270645141601562,105.13623046875
1686424988019671600,3.296671630859375,-57.739166259765625,-15.357269287109375,105.15007019042969
1686424988029745700,3.30674560546875,-57.68128967285156,-15.146591186523438,105.02024841308594
1686424988039820500,3.316820556640625,-57.030181884765625,-15.237960815429688,104.59440612792969
1686424988049896400,3.326896484375,-56.923309326171875,-15.299545288085938,104.8240966796875
1686424988059969500,3.336969482421875,-57.00335693359375,-15.229873657226562,104.57630920410156
1686424988070044400,3.34704443359375,-56.96916198730469,-15.209793090820312,104.29603576660156
1686424988080118800,3.357118896484375,-57.75749206542969,-14.971145629882812,104.43821716308594
1686424988090190600,3.367190673828125,-58.03269958496094,-14.705154418945312,104.27879333496094
1686424988100264400,3.377264404296875,-57.58160400390625,-14.408462524414062,104.16667175292969
1686424988110339600,3.387339599609375,-58.54396057128906,-14.34405517578125,103.82846069335938
1686424988120413400,3.397413330078125,-59.36146545410156,-14.095077514648438,103.76325988769531
1686424988130486500,3.407486572265625,-59.72178649902344,-14.1505126953125,103.70059204101562
1686424988140558600,3.41755859375,-60.139190673828125,-13.722610473632812,103.42463684082031
1686424988150630400,3.42763037109375,-59.973541259765625,-13.50567626953125,103.25495910644531
1686424988160703700,3.437703857421875,-60.08296203613281,-13.218399047851562,102.8629150390625
1686424988170777600,3.447777587890625,-60.29692077636719,-12.970428466796875,102.49276733398438
1686424988180850400,3.457850341796875,-59.418304443359375,-13.023101806640625,102.40983581542969
1686424988190922500,3.467922607421875,-59.867706298828125,-12.73089599609375,101.5029296875
1686424988200996600,3.47799658203125,-59.65576171875,-12.342819213867188,100.80287170410156
1686424988211069700,3.488069580078125,-58.92283630371094,-12.303436279296875,99.85263061523438
1686424988221144600,3.49814453125,-58.666748046875,-12.18853759765625,98.9227294921875
1686424988231216600,3.508216552734375,-58.53312683105469,-12.131851196289062,98.21913146972656
1686424988241288700,3.518288818359375,-58.01802062988281,-12.068191528320312,97.51002502441406
1686424988251360800,3.52836083984375,-58.38323974609375,-11.7772216796875,96.99330139160156
1686424988261434600,3.5384345703125,-58.9833984375,-11.87152099609375,96.25440979003906
1686424988271507500,3.548507568359375,-60.58058166503906,-10.911941528320312,96.01445007324219
1686424988281577500,3.558577392578125,-62.41865539550781,-10.223541259765625,95.83840942382812
1686424988291650600,3.568650634765625,-65.095703125,-9.509170532226562,96.35791015625
1686424988301724700,3.578724609375,-67.12014770507812,-9.253326416015625,96.57063293457031
1686424988311796700,3.588796630859375,-68.62797546386719,-9.178268432617188,96.47235107421875
1686424988321870600,3.59887060546875,-68.52360534667969,-9.102645874023438,96.89239501953125
1686424988331943400,3.608943359375,-67.06465148925781,-9.268157958984375,96.48051452636719
1686424988342016500,3.6190166015625,-65.83847045898438,-9.738571166992188,96.8154296875
1686424988352089600,3.629089599609375,-64.93698120117188,-9.772186279296875,96.48329162597656
1686424988362163500,3.63916357421875,-63.16258239746094,-10.327255249023438,96.67666625976562
1686424988372236500,3.649236572265625,-62.07475280761719,-10.203598022460938,96.25370788574219
1686424988382308600,3.65930859375,-60.8367919921875,-10.492965698242188,96.62042236328125
1686424988392382700,3.6693828125,-59.48576354980469,-10.888671875,96.63075256347656
1686424988402456600,3.67945654296875,-58.77030944824219,-11.476272583007812,97.15634155273438
1686424988412529400,3.689529296875,-57.93345642089844,-12.276947021484375,97.63887023925781
1686424988422601500,3.6996015625,-58.07029724121094,-12.656784057617188,98.4215087890625
1686424988432675600,3.709675537109375,-57.0595703125,-13.383453369140625,99.31263732910156
1686424988442748700,3.719748779296875,-56.18696594238281,-14.225326538085938,99.84410095214844
1686424988452821500,3.729821533203125,-55.48164367675781,-14.290756225585938,100.3992919921875
1686424988462896600,3.739896728515625,-55.960693359375,-14.485809326171875,101.47996520996094
1686424988472969500,3.749969482421875,-56.707061767578125,-14.481781005859375,102.1998291015625
1686424988483043600,3.760043701171875,-58.67149353027344,-14.385711669921875,103.28277587890625
1686424988493117700,3.77011767578125,-60.48539733886719,-14.3289794921875,104.13885498046875
1686424988503192600,3.780192626953125,-63.041168212890625,-13.985336303710938,105.31639099121094
1686424988513265700,3.790265625,-65.87960815429688,-13.85052490234375,105.99014282226562
1686424988523339500,3.800339599609375,-68.83645629882812,-13.544357299804688,106.15980529785156
1686424988533413600,3.81041357421875,-71.24314880371094,-13.564422607421875,106.94953918457031
1686424988543488500,3.820488525390625,-72.97840881347656,-13.567794799804688,107.16542053222656
1686424988553562600,3.830562744140625,-73.80874633789062,-13.086074829101562,107.19691467285156
1686424988563636500,3.840636474609375,-73.85780334472656,-13.49298095703125,107.45611572265625
1686424988573711600,3.850711669921875,-73.86262512207031,-13.450668334960938,107.05230712890625
1686424988583785500,3.860785400390625,-73.55863952636719,-13.858322143554688,107.423583984375
1686424988593858600,3.870858642578125,-72.91374206542969,-13.700439453125,107.50569152832031
1686424988603931600,3.880931640625,-71.65129089355469,-14.028762817382812,107.7984619140625
1686424988614005500,3.891005615234375,-70.579833984375,-14.270278930664062,107.87677001953125
1686424988624078600,3.90107861328125,-69.31181335449219,-14.430496215820312,107.9197998046875
1686424988634152700,3.911152587890625,-67.50758361816406,-14.135772705078125,107.21908569335938
1686424988644226600,3.9212265625,-66.30653381347656,-14.349685668945312,106.97746276855469
1686424988654299600,3.931299560546875,-65.35943603515625,-13.995437622070312,106.69107055664062
1686424988664373800,3.941373779296875,-64.11285400390625,-14.1922607421875,106.56770324707031
1686424988674448000,3.95144775390625,-63.962921142578125,-13.902786254882812,105.920654296875
1686424988684520700,3.961520751953125,-63.48564147949219,-14.130645751953125,105.68351745605469
1686424988694594600,3.971594482421875,-63.014312744140625,-14.3515625,105.55841064453125
1686424988704668700,3.981668701171875,-62.228546142578125,-14.3828125,105.10630798339844
1686424988714738700,3.99173876953125,-62.19245910644531,-14.113723754882812,104.7467041015625
1686424988724812800,4.001812744140625,-61.7264404296875,-14.062347412109375,104.34919738769531
1686424988734886700,4.01188671875,-61.58711242675781,-14.0635986328125,104.25140380859375
1686424988744960800,4.021960693359375,-61.19578552246094,-14.003509521484375,104.4114990234375
1686424988755033900,4.032033935546875,-60.82957458496094,-13.967864990234375,103.49247741699219
1686424988765106700,4.042106689453125,-59.18058776855469,-14.341812133789062,102.44258117675781
1686424988775180500,4.0521806640625,-56.55621337890625,-14.455963134765625,101.34339904785156
1686424988785254000,4.06225390625,-54.239349365234375,-14.926071166992188,99.31181335449219
1686424988795327700,4.07232763671875,-51.41741943359375,-15.39239501953125,97.41812133789062
1686424988805401900,4.08240185546875,-48.78556823730469,-16.5340576171875,94.41854858398438
1686424988815475700,4.092475830078125,-45.88240051269531,-17.531387329101562,91.80181884765625
1686424988825548500,4.102548583984375,-43.87042236328125,-18.846893310546875,89.01548767089844
1686424988835623000,4.112622802734375,-43.09428405761719,-19.397796630859375,87.33148193359375
1686424988845696800,4.12269677734375,-42.985107421875,-19.267547607421875,87.99270629882812
1686424988855772000,4.13277197265625,-43.5924072265625,-18.938980102539062,89.27850341796875
1686424988865845800,4.142845703125,-44.263092041015625,-18.879180908203125,90.45054626464844
1686424988875919600,4.152919677734375,-45.9979248046875,-18.182296752929688,92.09884643554688
1686424988885992000,4.162991943359375,-46.552734375,-17.59161376953125,93.17353820800781
1686424988896063700,4.173063720703125,-48.336090087890625,-17.035751342773438,94.9222412109375
1686424988906138600,4.183138671875,-49.62799072265625,-16.392929077148438,95.43986511230469
1686424988916211700,4.193211669921875,-49.943328857421875,-15.854171752929688,96.08451843261719
1686424988926286600,4.20328662109375,-51.06422424316406,-15.504684448242188,96.60023498535156
1686424988936359700,4.213359619140625,-51.91899108886719,-15.3402099609375,97.25164794921875
1686424988946433800,4.223433837890625,-52.70503234863281,-14.51739501953125,97.92451477050781
1686424988956506600,4.233506591796875,-54.15251159667969,-14.583999633789062,98.72369384765625
1686424988966580700,4.243580810546875,-54.96797180175781,-14.553268432617188,99.74826049804688
1686424988976654800,4.25365478515625,-56.06353759765625,-14.518875122070312,100.95452880859375
1686424988986728700,4.263728759765625,-57.30693054199219,-14.540130615234375,102.20626831054688
1686424988996802800,4.273802734375,-58.72261047363281,-14.58660888671875,102.87199401855469
1686424989006875600,4.283875732421875,-59.730072021484375,-14.846923828125,104.10006713867188
1686424989016949800,4.29394970703125,-59.83091735839844,-15.3037109375,104.6324462890625
1686424989027022600,4.304022705078125,-60.4129638671875,-15.730331420898438,105.64085388183594
1686424989037097700,4.31409765625,-60.73262023925781,-15.368789672851562,106.15748596191406
1686424989047171600,4.324171630859375,-60.943023681640625,-15.894317626953125,106.44732666015625
1686424989057246700,4.334246826171875,-61.33110046386719,-16.245941162109375,106.98341369628906
1686424989067319600,4.344319580078125,-61.57545471191406,-15.913436889648438,107.83845520019531
1686424989077391600,4.3543916015625,-61.994293212890625,-16.311325073242188,108.10984802246094
1686424989087465700,4.3644658203125,-61.19073486328125,-16.265945434570312,108.02352905273438
1686424989097539600,4.37453955078125,-61.31257629394531,-16.36102294921875,108.19789123535156
1686424989107613700,4.38461376953125,-61.39830017089844,-16.134902954101562,108.093505859375
1686424989117688600,4.3946884765625,-61.072509765625,-16.296890258789062,108.12344360351562
1686424989127763700,4.404763671875,-60.31536865234375,-16.606369018554688,107.81684875488281
1686424989137837600,4.414837646484375,-60.49493408203125,-16.3494873046875,107.5328369140625
1686424989147909600,4.42490966796875,-60.28584289550781,-16.549087524414062,107.79743957519531
1686424989157982500,4.434982421875,-60.005035400390625,-16.000106811523438,107.75630187988281
1686424989168054500,4.445054443359375,-60.29795837402344,-16.089141845703125,107.3563232421875
1686424989178126800,4.455126953125,-59.920013427734375,-16.037185668945312,107.26791381835938
1686424989188200700,4.46520068359375,-60.349700927734375,-15.76678466796875,107.45686340332031
1686424989198274600,4.475274658203125,-59.66993713378906,-15.937469482421875,107.22698974609375
1686424989208348700,4.4853486328125,-59.990966796875,-15.990966796875,106.80564880371094
1686424989218421800,4.495421875,-60.189300537109375,-15.968292236328125,106.50831604003906
1686424989228497000,4.505496826171875,-60.022918701171875,-15.670364379882812,106.75637817382812
1686424989238568700,4.515568603515625,-59.97723388671875,-15.50445556640625,106.48973083496094
1686424989248641800,4.525641845703125,-59.87078857421875,-15.337295532226562,105.98182678222656
1686424989258715600,4.535715576171875,-60.18846130371094,-15.291976928710938,105.89488220214844
1686424989268790800,4.545790771484375,-60.15101623535156,-15.412460327148438,105.54632568359375
1686424989278864600,4.55586474609375,-59.79588317871094,-15.24835205078125,105.5267333984375
1686424989288937700,4.565937744140625,-59.18104553222656,-15.153549194335938,104.77214050292969
1686424989299011600,4.576011474609375,-59.02423095703125,-14.702560424804688,104.15850830078125
1686424989309085700,4.586085693359375,-58.2314453125,-14.777877807617188,103.65869140625
1686424989319158800,4.59615869140625,-57.54844665527344,-14.68072509765625,102.84703063964844
1686424989329232600,4.606232666015625,-57.537322998046875,-14.215316772460938,102.00102233886719
1686424989339306500,4.616306396484375,-57.610931396484375,-14.072219848632812,101.1873779296875
1686424989349380600,4.626380615234375,-56.55523681640625,-13.589370727539062,100.21014404296875
1686424989359455500,4.63645556640625,-55.98640441894531,-13.700271606445312,99.49397277832031
1686424989369527600,4.646527587890625,-56.40638732910156,-13.399612426757812,98.53324890136719
1686424989379600600,4.6566005859375,-56.47804260253906,-12.854522705078125,97.45770263671875
1686424989389672700,4.666672607421875,-57.494110107421875,-12.280914306640625,96.76567077636719
1686424989399744800,4.676744873046875,-58.66508483886719,-12.057418823242188,96.33207702636719
1686424989409818600,4.686818603515625,-60.66603088378906,-10.921768188476562,96.47520446777344
1686424989419892700,4.696892822265625,-62.552520751953125,-10.7320556640625,96.36595153808594
1686424989429966600,4.706966552734375,-64.73884582519531,-10.182891845703125,96.62501525878906
1686424989440040700,4.717040771484375,-65.81149291992188,-9.916641235351562,97.19064331054688
1686424989450113800,4.72711376953125,-65.91288757324219,-10.29559326171875,97.53492736816406
1686424989460187600,4.737187744140625,-65.32106018066406,-10.828109741210938,97.86781311035156
1686424989470261800,4.74726171875,-63.85795593261719,-10.575653076171875,98.03779602050781
1686424989480335600,4.757335693359375,-62.65879821777344,-11.469711303710938,98.54254150390625
1686424989490410800,4.76741064453125,-61.30897521972656,-11.515396118164062,98.76528930664062
1686424989500485600,4.777485595703125,-59.859588623046875,-11.98089599609375,99.04849243164062
1686424989510560800,4.787560791015625,-59.02354431152344,-12.456329345703125,99.25004577636719
1686424989520635600,4.7976357421875,-58.00563049316406,-12.864898681640625,99.642578125
1686424989530709800,4.807709716796875,-57.47998046875,-13.403411865234375,100.16230773925781
1686424989540784600,4.81778466796875,-56.97917175292969,-13.92254638671875,100.54428100585938
1686424989550858800,4.827858642578125,-56.436553955078125,-14.480117797851562,100.93992614746094
1686424989560933600,4.83793359375,-56.00462341308594,-14.92877197265625,101.42611694335938
1686424989571007700,4.8480078125,-55.784637451171875,-14.888946533203125,102.50154113769531
1686424989581081600,4.85808154296875,-55.48103332519531,-15.333053588867188,103.09001159667969
1686424989591154700,4.86815478515625,-56.22991943359375,-15.579910278320312,103.886962890625
1686424989601225700,4.878225830078125,-56.582763671875,-15.791397094726562,104.63258361816406
1686424989611299800,4.8882998046875,-57.484832763671875,-16.09295654296875,105.43528747558594
1686424989621374700,4.898374755859375,-58.32670593261719,-15.908645629882812,106.256103515625
1686424989631447800,4.90844775390625,-59.43922424316406,-16.256561279296875,106.99554443359375
1686424989641519900,4.918519775390625,-60.41481018066406,-16.159439086914062,107.72966003417969
1686424989651593700,4.92859375,-61.680419921875,-16.007003784179688,108.35311889648438
1686424989661667600,4.93866748046875,-63.19972229003906,-15.840499877929688,108.17417907714844
1686424989671742500,4.948742431640625,-64.743896484375,-15.669540405273438,108.77386474609375
1686424989681815600,4.958815673828125,-65.10295104980469,-15.227798461914062,108.48883056640625
1686424989691888600,4.968888671875,-65.73558044433594,-15.44000244140625,108.10598754882812
1686424989701962500,4.97896240234375,-65.58421325683594,-14.766586303710938,108.1290283203125
1686424989712035300,4.989035400390625,-65.19601440429688,-14.880508422851562,107.78178405761719
1686424989722109400,4.999109375,-64.787109375,-14.799484252929688,107.35806274414062
1686424989732183600,5.00918359375,-64.24845886230469,-15.222213745117188,107.12712097167969
1686424989742256600,5.019256591796875,-63.290435791015625,-14.980850219726562,106.87969970703125
1686424989752329500,5.02932958984375,-62.91725158691406,-14.870498657226562,106.5535888671875
1686424989762402600,5.039402587890625,-61.98321533203125,-14.875839233398438,106.30841064453125
1686424989772477700,5.049477783203125,-61.63435363769531,-14.891220092773438,106.02836608886719
1686424989782550500,5.059550537109375,-61.083251953125,-15.30401611328125,105.55996704101562
1686424989792624400,5.069624267578125,-60.7998046875,-15.186843872070312,105.42222595214844
1686424989802696400,5.079696533203125,-59.85383605957031,-15.127120971679688,105.19287109375
1686424989812770600,5.0897705078125,-60.212371826171875,-15.137161254882812,105.22572326660156
1686424989822844400,5.099844482421875,-59.88368225097656,-15.045318603515625,105.11431884765625
1686424989832918500,5.10991845703125,-60.52870178222656,-15.145187377929688,104.83500671386719
1686424989842991600,5.11999169921875,-59.68658447265625,-15.04473876953125,104.48715209960938
1686424989853064400,5.130064453125,-59.542449951171875,-14.83270263671875,104.59475708007812
1686424989863137500,5.140137451171875,-59.00486755371094,-14.85052490234375,103.97053527832031
1686424989873210400,5.15021044921875,-57.862518310546875,-15.176971435546875,103.18716430664062
1686424989883282400,5.160282470703125,-55.42755126953125,-15.56793212890625,102.04893493652344
1686424989893356500,5.1703564453125,-53.64793395996094,-15.55889892578125,100.27845764160156
1686424989903429600,5.1804296875,-51.25523376464844,-16.151962280273438,98.12075805664062
1686424989913504500,5.19050439453125,-48.75096130371094,-16.85302734375,95.96534729003906
1686424989923579400,5.200579345703125,-46.904510498046875,-17.8411865234375,93.54045104980469
1686424989933653500,5.210653564453125,-44.944854736328125,-18.597427368164062,91.54722595214844
1686424989943728400,5.220728271484375,-43.80693054199219,-19.461563110351562,91.02745056152344
1686424989953800400,5.230800537109375,-43.70799255371094,-19.909744262695312,91.52000427246094
1686424989963875600,5.24087548828125,-43.70770263671875,-19.650146484375,92.25314331054688
1686424989973949400,5.250949462890625,-44.75852966308594,-19.5665283203125,93.61578369140625
1686424989984024600,5.261024658203125,-45.07586669921875,-19.290451049804688,94.32554626464844
1686424989994098400,5.271098388671875,-46.11651611328125,-18.982681274414062,95.65174865722656
1686424990004172500,5.281172607421875,-46.90313720703125,-18.544036865234375,96.59306335449219
1686424990014246400,5.291246337890625,-48.170562744140625,-18.029388427734375,97.70124816894531
1686424990024319500,5.301319580078125,-49.06732177734375,-17.855636596679688,98.29940795898438
1686424990034394600,5.31139453125,-50.331817626953125,-17.19171142578125,99.06527709960938
1686424990044468700,5.32146875,-51.14952087402344,-17.096588134765625,100.12864685058594
1686424990054544400,5.33154443359375,-52.360321044921875,-17.172500610351562,101.24864196777344
1686424990064618500,5.341618408203125,-53.17573547363281,-16.962493896484375,102.42889404296875
1686424990074690600,5.351690673828125,-54.36866760253906,-16.954879760742188,103.43820190429688
1686424990084764400,5.361764404296875,-55.151397705078125,-16.936203002929688,104.893310546875
1686424990094837500,5.37183740234375,-56.29472351074219,-16.938217163085938,105.81224060058594
1686424990104911600,5.38191162109375,-57.13481140136719,-17.229049682617188,106.57012939453125
1686424990114985500,5.3919853515625,-57.45503234863281,-17.65521240234375,107.19288635253906
1686424990125059600,5.4020595703125,-57.70233154296875,-17.8099365234375,108.11077880859375
1686424990135133400,5.412133544921875,-58.12977600097656,-18.334487915039062,108.75694274902344
1686424990145206500,5.42220654296875,-58.49577331542969,-18.525146484375,109.39369201660156
1686424990155280600,5.43228076171875,-58.51408386230469,-18.94879150390625,109.92861938476562
1686424990165352700,5.442352783203125,-58.64778137207031,-19.24755859375,110.16096496582031
1686424990175424500,5.452424560546875,-58.76570129394531,-19.19537353515625,110.43983459472656
1686424990185496600,5.46249658203125,-58.50421142578125,-19.528106689453125,111.05146789550781
1686424990195569400,5.4725693359375,-58.89930725097656,-19.292388916015625,111.28211975097656
1686424990205642500,5.482642578125,-58.85699462890625,-19.39764404296875,110.97074890136719
1686424990215715300,5.49271533203125,-59.3038330078125,-19.302810668945312,111.07000732421875
1686424990225788700,5.50278857421875,-59.03138732910156,-19.293212890625,110.93119812011719
1686424990235861500,5.512861572265625,-59.11235046386719,-18.715438842773438,110.63288879394531
1686424990245935400,5.522935302734375,-58.94938659667969,-18.984893798828125,110.31085205078125
1686424990256007400,5.53300732421875,-58.691070556640625,-18.709976196289062,110.32650756835938
1686424990266080500,5.54308056640625,-58.581024169921875,-18.72076416015625,109.71728515625
1686424990276153600,5.553153564453125,-58.979766845703125,-18.416122436523438,109.77976989746094
1686424990286226400,5.563226318359375,-58.692474365234375,-18.333633422851562,109.03392028808594
1686424990296300300,5.57330029296875,-59.00163269042969,-18.04632568359375,108.66055297851562
1686424990306371300,5.583371337890625,-59.60552978515625,-17.635971069335938,108.91635131835938
1686424990316443400,5.593443359375,-59.178680419921875,-17.490829467773438,108.9932861328125
1686424990326515500,5.603515380859375,-59.53730773925781,-17.290512084960938,108.53282165527344
1686424990336586500,5.61358642578125,-59.58171081542969,-17.136032104492188,108.07806396484375
1686424990346660600,5.62366064453125,-59.073211669921875,-16.856765747070312,107.63578796386719
1686424990356733400,5.6337333984375,-59.1282958984375,-17.140426635742188,107.27557373046875
1686424990366807600,5.6438076171875,-58.831512451171875,-16.433303833007812,107.17781066894531
1686424990376882400,5.65388232421875,-58.741241455078125,-16.875564575195312,106.339111328125
1686424990386957600,5.66395751953125,-58.37042236328125,-16.634674072265625,106.18629455566406
1686424990397032400,5.674032470703125,-58.02119445800781,-16.55035400390625,105.61103820800781
1686424990407106600,5.6841064453125,-57.05345153808594,-16.495864868164062,105.13018798828125
1686424990417180400,5.694180419921875,-56.64898681640625,-16.368331909179688,105.09793090820312
1686424990427253500,5.70425341796875,-56.10820007324219,-16.454086303710938,104.19265747070312
1686424990437327600,5.71432763671875,-55.860321044921875,-16.14227294921875,103.24266052246094
1686424990447399700,5.724399658203125,-55.04566955566406,-16.026397705078125,103.12062072753906
1686424990457472500,5.734472412109375,-54.8829345703125,-15.7166748046875,101.96202087402344
1686424990467546400,5.74454638671875,-54.81793212890625,-15.184890747070312,100.91679382324219
1686424990477620500,5.754620361328125,-54.95603942871094,-14.879531860351562,100.01296997070312
1686424990487692500,5.764692626953125,-54.67979431152344,-14.671066284179688,98.75137329101562
1686424990497765600,5.774765625,-54.858612060546875,-14.170211791992188,97.78895568847656
1686424990507838500,5.78483837890625,-55.58552551269531,-13.321197509765625,97.00694274902344
1686424990517911600,5.79491162109375,-56.8370361328125,-12.855697631835938,96.44181823730469
1686424990527986400,5.804986328125,-57.90626525878906,-12.19140625,96.20054626464844
1686424990538060500,5.815060546875,-59.14985656738281,-12.1307373046875,96.33779907226562
1686424990548132400,5.82513232421875,-60.21281433105469,-11.312606811523438,96.22724914550781
1686424990558205700,5.835205810546875,-62.25437927246094,-11.107147216796875,96.25770568847656
1686424990568280600,5.845280517578125,-63.063262939453125,-11.073013305664062,96.59127807617188
1686424990578354700,5.855354736328125,-63.891265869140625,-10.866287231445312,96.9102783203125
1686424990588428500,5.865428466796875,-65.29490661621094,-11.12353515625,97.27325439453125
1686424990598501400,5.87550146484375,-65.32174682617188,-11.094039916992188,97.30050659179688
1686424990608575500,5.885575439453125,-65.13194274902344,-11.301620483398438,97.88423156738281
1686424990618647600,5.8956474609375,-64.21495056152344,-11.660568237304688,98.22700500488281
1686424990628720600,5.905720703125,-63.99224853515625,-11.727447509765625,98.63853454589844
1686424990638793500,5.91579345703125,-63.4444580078125,-12.041549682617188,99.37654113769531
1686424990648865500,5.925865478515625,-62.9827880859375,-12.249191284179688,100.23008728027344
1686424990658939000,5.93593896484375,-62.36639404296875,-12.917495727539062,100.75250244140625
1686424990669011700,5.94601171875,-62.18711853027344,-13.058441162109375,101.6051025390625
1686424990679085000,5.9560849609375,-62.48258972167969,-13.346527099609375,102.07768249511719
1686424990689158000,5.966157958984375,-62.501739501953125,-13.498397827148438,102.4591064453125
1686424990699231700,5.976231689453125,-62.38153076171875,-13.681503295898438,102.82122802734375
1686424990709306000,5.98630615234375,-61.218231201171875,-13.652481079101562,103.1314697265625
1686424990719377200,5.996377197265625,-61.64930725097656,-14.034759521484375,103.0137939453125
1686424990729448000,6.006447998046875,-60.89613342285156,-14.134841918945312,103.37586975097656
1686424990739522000,6.01652197265625,-60.51301574707031,-14.34759521484375,103.36006164550781
1686424990749595000,6.026594970703125,-59.77522277832031,-14.515167236328125,103.21795654296875
1686424990759668000,6.03666796875,-59.58970642089844,-14.48443603515625,103.34120178222656
1686424990769742000,6.0467421875,-58.7464599609375,-14.692886352539062,103.26498413085938
1686424990779816000,6.05681591796875,-58.55604553222656,-14.970077514648438,102.92951965332031
1686424990789888800,6.066888671875,-58.20904541015625,-14.80413818359375,102.45901489257812
1686424990799962000,6.076962158203125,-58.071807861328125,-14.966140747070312,102.38397216796875
1686424990810035000,6.087034912109375,-57.606842041015625,-14.87890625,102.19564819335938
1686424990820108800,6.09710888671875,-57.1634521484375,-14.93609619140625,101.92520141601562
1686424990830183000,6.107182861328125,-56.51325988769531,-15.005767822265625,101.30877685546875
1686424990840257000,6.117257080078125,-56.35462951660156,-14.95013427734375,100.79109191894531
1686424990850329900,6.127329833984375,-56.266143798828125,-14.923492431640625,100.55220031738281
1686424990860402000,6.13740185546875,-56.32862854003906,-14.657485961914062,100.94711303710938
1686424990870477000,6.14747705078125,-56.4185791015625,-14.5921630859375,100.32991027832031
1686424990880550000,6.1575498046875,-56.61787414550781,-14.641250610351562,100.56344604492188
1686424990890624000,6.1676240234375,-56.84344482421875,-14.428695678710938,100.81227111816406
1686424990900699000,6.177698974609375,-56.89314270019531,-14.68280029296875,100.642578125
1686424990910774000,6.18777392578125,-56.92015075683594,-14.656707763671875,101.28646850585938
1686424990920849000,6.197848876953125,-56.23956298828125,-15.068252563476562,101.39494323730469
1686424990930924000,6.207924072265625,-56.39009094238281,-15.16607666015625,101.83544921875
1686424990940996900,6.217996826171875,-56.305755615234375,-15.440216064453125,102.07624816894531
1686424990951072000,6.228072021484375,-56.02479553222656,-15.380340576171875,102.13774108886719
1686424990961147000,6.23814697265625,-55.134490966796875,-16.118560791015625,101.854248046875
1686424990971219000,6.248218994140625,-54.58036804199219,-16.023910522460938,101.33407592773438
1686424990981293000,6.25829296875,-52.970062255859375,-16.341156005859375,100.4534912109375
1686424990991366000,6.268365966796875,-51.33232116699219,-16.869216918945312,99.57316589355469
1686424991001439000,6.27843896484375,-50.40423583984375,-17.210159301757812,98.84938049316406
1686424991011513900,6.288513916015625,-49.8128662109375,-17.493484497070312,97.98126220703125
1686424991021589000,6.298589111328125,-48.40541076660156,-18.494277954101562,97.74185180664062
1686424991031663900,6.308663818359375,-47.33976745605469,-18.454116821289062,98.13998413085938
1686424991041736000,6.31873583984375,-47.353607177734375,-19.045654296875,98.9835205078125
1686424991051810000,6.32881005859375,-47.726806640625,-18.879898071289062,100.01260375976562
1686424991061884000,6.3388837890625,-49.23828125,-19.015594482421875,100.36300659179688
1686424991071957000,6.34895703125,-48.85359191894531,-18.67156982421875,100.76669311523438
1686424991082031000,6.359031005859375,-50.362030029296875,-18.368637084960938,100.69956970214844
1686424991092105000,6.36910498046875,-50.6702880859375,-18.132568359375,100.8975830078125
1686424991102179000,6.379178955078125,-52.15789794921875,-17.43096923828125,100.97041320800781
1686424991112253000,6.3892529296875,-52.397430419921875,-16.696319580078125,101.03683471679688
1686424991122326800,6.399326904296875,-53.185211181640625,-16.444992065429688,101.22496032714844
1686424991132401000,6.40940087890625,-53.759307861328125,-16.1622314453125,101.45663452148438
1686424991142475000,6.41947509765625,-55.1531982421875,-16.146865844726562,102.62210083007812
1686424991152551000,6.429551025390625,-55.42808532714844,-16.033218383789062,102.65524291992188
1686424991162624800,6.439624755859375,-57.087371826171875,-16.027328491210938,103.24874877929688
1686424991172699000,6.449698974609375,-57.490203857421875,-15.485488891601562,103.7283935546875
1686424991182773000,6.45977294921875,-57.10853576660156,-15.636550903320312,104.54815673828125
1686424991192847000,6.46984716796875,-58.20428466796875,-15.7576904296875,104.64945983886719
1686424991202922000,6.479921875,-57.81742858886719,-15.991943359375,105.28489685058594
1686424991212996000,6.48999609375,-57.6942138671875,-16.210006713867188,105.40866088867188
1686424991223071000,6.500071044921875,-58.308746337890625,-16.488052368164062,105.65809631347656
1686424991233144000,6.51014404296875,-57.397918701171875,-16.546798706054688,105.46450805664062
1686424991243219000,6.520218994140625,-57.24607849121094,-17.17333984375,105.58271789550781
1686424991253294800,6.530294921875,-56.65130615234375,-17.34912109375,106.06280517578125
1686424991263365000,6.540365234375,-55.743011474609375,-17.5989990234375,106.39802551269531
1686424991273440000,6.55043994140625,-55.286102294921875,-18.10400390625,106.2794189453125
1686424991283514000,6.56051416015625,-54.50819396972656,-18.26806640625,105.90267944335938
1686424991293588000,6.570587890625,-53.7781982421875,-18.426849365234375,105.69474792480469
1686424991303663000,6.5806630859375,-53.753753662109375,-18.65472412109375,105.60086059570312
1686424991313736000,6.59073583984375,-53.68605041503906,-18.840621948242188,105.24508666992188
1686424991323809000,6.60080908203125,-52.86503601074219,-18.47796630859375,105.31752014160156
1686424991333883100,6.610883056640625,-52.51487731933594,-18.59100341796875,105.02528381347656
1686424991343958000,6.6209580078125,-52.44194030761719,-18.712814331054688,104.48240661621094
1686424991354032000,6.6310322265625,-52.86042785644531,-18.2274169921875,104.59678649902344
1686424991364106000,6.64110595703125,-53.0400390625,-18.3118896484375,104.23307800292969
1686424991374178800,6.6511787109375,-52.7530517578125,-17.9884033203125,104.10597229003906
1686424991384251000,6.6612509765625,-52.84523010253906,-17.794540405273438,104.02803039550781
1686424991394323700,6.67132373046875,-53.16595458984375,-17.383209228515625,103.27629089355469
1686424991404398000,6.681398193359375,-53.47821044921875,-17.238693237304688,102.77827453613281
1686424991414473000,6.691472900390625,-53.48365783691406,-16.797897338867188,102.45297241210938
1686424991424547800,6.7015478515625,-54.82167053222656,-16.599258422851562,102.07441711425781
1686424991434621000,6.711620849609375,-55.05393981933594,-15.676101684570312,101.49430847167969
1686424991444694000,6.721694091796875,-55.65888977050781,-15.779983520507812,101.08766174316406
1686424991454767900,6.731767822265625,-55.67539978027344,-15.184951782226562,100.96397399902344
1686424991464841700,6.741841796875,-56.35450744628906,-15.16790771484375,100.971435546875
1686424991474916000,6.751916015625,-56.44189453125,-14.605072021484375,100.61907958984375
1686424991484989000,6.761989013671875,-56.285675048828125,-14.546249389648438,100.7486572265625
1686424991495062800,6.772062744140625,-55.85249328613281,-14.427261352539062,100.16754150390625
1686424991505137000,6.782136962890625,-55.95991516113281,-14.366592407226562,100.11846923828125
1686424991515209000,6.792208984375,-56.170166015625,-14.5498046875,99.59814453125
1686424991525282800,6.80228271484375,-56.11747741699219,-14.266983032226562,99.22447204589844
1686424991535356200,6.812356201171875,-56.79376220703125,-13.73004150390625,98.76608276367188
1686424991545429000,6.822428955078125,-56.5899658203125,-13.4991455078125,98.40213012695312
1686424991555501000,6.8325009765625,-58.77445983886719,-12.820449829101562,98.00042724609375
1686424991565572900,6.84257275390625,-59.37495422363281,-12.217437744140625,97.76310729980469
1686424991575644000,6.852643798828125,-61.19926452636719,-11.981002807617188,97.52432250976562
1686424991585718000,6.862718017578125,-62.84822082519531,-11.238784790039062,97.53907775878906
1686424991595789000,6.8727890625,-64.04144287109375,-10.90179443359375,97.43684387207031
1686424991605860900,6.88286083984375,-65.31806945800781,-10.426803588867188,98.03071594238281
1686424991615935000,6.89293505859375,-66.04696655273438,-10.631561279296875,98.55096435546875
1686424991626008000,6.903008056640625,-66.05366516113281,-10.828277587890625,98.85499572753906
1686424991636081000,6.913080810546875,-65.40338134765625,-10.700912475585938,99.24702453613281
1686424991646154000,6.923154052734375,-64.70979309082031,-11.324417114257812,99.29747009277344
1686424991656227800,6.933227783203125,-63.837982177734375,-11.28070068359375,98.91299438476562
1686424991666300700,6.94330078125,-62.80146789550781,-11.637130737304688,99.34954833984375
1686424991676372700,6.953372802734375,-61.942474365234375,-11.881423950195312,99.23208618164062
1686424991686446800,6.96344677734375,-60.802093505859375,-12.078231811523438,99.64620971679688
1686424991696520000,6.97352001953125,-60.62626647949219,-12.836441040039062,99.80659484863281
1686424991706592800,6.9835927734375,-60.0711669921875,-12.856765747070312,100.32626342773438
1686424991716667000,6.9936669921875,-59.1900634765625,-13.13641357421875,100.79383850097656
1686424991726740700,7.00374072265625,-59.639068603515625,-14.005401611328125,101.14866638183594
1686424991736814800,7.01381494140625,-59.5108642578125,-14.2010498046875,102.22306823730469
1686424991746889000,7.023888916015625,-59.893310546875,-14.433120727539062,102.96839904785156
1686424991756961800,7.0339619140625,-59.8980712890625,-14.704879760742188,103.81094360351562
1686424991767035000,7.044034912109375,-60.395355224609375,-14.775192260742188,103.94894409179688
1686424991777107700,7.054107666015625,-61.3966064453125,-15.213516235351562,104.82012939453125
1686424991787182800,7.064182861328125,-61.883758544921875,-15.1114501953125,105.51885986328125
1686424991797256700,7.074256591796875,-63.00459289550781,-14.7977294921875,106.03981018066406
1686424991807330800,7.084330810546875,-64.05856323242188,-14.9454345703125,106.59297180175781
1686424991817405700,7.09440576171875,-64.74635314941406,-14.764022827148438,106.69218444824219
1686424991827479800,7.104479736328125,-66.02323913574219,-14.189865112304688,106.9998779296875
1686424991837555000,7.114554931640625,-66.79188537597656,-14.421493530273438,106.40679931640625
1686424991847628800,7.12462890625,-67.52906799316406,-14.347625732421875,106.83268737792969
1686424991857702700,7.13470263671875,-68.54360961914062,-14.043991088867188,106.58358764648438
1686424991867776800,7.14477685546875,-67.71028137207031,-13.841766357421875,106.8836669921875
1686424991877853000,7.15485302734375,-67.4093017578125,-14.116806030273438,106.89045715332031
1686424991887926800,7.1649267578125,-66.63401794433594,-14.182846069335938,106.40211486816406
1686424991898003000,7.1750029296875,-65.84529113769531,-14.545089721679688,106.49934387207031
1686424991908076800,7.185076904296875,-64.45103454589844,-14.69122314453125,106.69844055175781
1686424991918151000,7.19515087890625,-63.44636535644531,-15.005462646484375,106.17562866210938
1686424991928223700,7.2052236328125,-62.25004577636719,-15.303253173828125,106.03262329101562
1686424991938295800,7.2152958984375,-62.001678466796875,-15.238662719726562,105.53494262695312
1686424991948369000,7.225368896484375,-60.88801574707031,-15.207260131835938,105.423583984375
1686424991958441700,7.235441650390625,-60.52616882324219,-15.36614990234375,104.78004455566406
1686424991968515800,7.245515869140625,-59.50776672363281,-15.109039306640625,104.81768798828125
1686424991978588000,7.255587890625,-59.471832275390625,-15.29827880859375,104.29539489746094
1686424991988660700,7.26566064453125,-59.33526611328125,-15.214248657226562,103.84025573730469
1686424991998734600,7.275734619140625,-58.83929443359375,-15.524871826171875,103.7200927734375
1686424992008809000,7.28580908203125,-58.784942626953125,-15.313796997070312,103.19041442871094
1686424992018881800,7.2958818359375,-58.80230712890625,-15.305450439453125,103.13633728027344
1686424992028956000,7.305955810546875,-58.3642578125,-14.8778076171875,103.00845336914062
1686424992039030800,7.31603076171875,-57.9300537109375,-15.127960205078125,102.33016967773438
1686424992049105000,7.32610498046875,-57.05461120605469,-14.880950927734375,102.06292724609375
1686424992059178000,7.336177978515625,-55.50201416015625,-15.444183349609375,101.51719665527344
1686424992069249800,7.346249755859375,-54.14543151855469,-15.836257934570312,100.43586730957031
1686424992079323600,7.35632373046875,-51.89544677734375,-16.225830078125,99.06578063964844
1686424992089398000,7.36639794921875,-50.05279541015625,-17.118301391601562,97.07281494140625
1686424992099470800,7.376470947265625,-48.60151672363281,-17.9908447265625,95.74134826660156
1686424992109544700,7.386544677734375,-46.46759033203125,-18.799407958984375,94.57698059082031
1686424992119617800,7.39661767578125,-45.31520080566406,-19.251190185546875,93.8228759765625
1686424992129687800,7.406687744140625,-45.39306640625,-19.838058471679688,94.5289306640625
1686424992139759900,7.416759765625,-45.77728271484375,-20.075897216796875,95.92213439941406
1686424992149832700,7.426832763671875,-46.075469970703125,-19.794113159179688,96.80526733398438
1686424992159905800,7.43690576171875,-46.87553405761719,-19.935455322265625,98.22865295410156
1686424992169979000,7.446978759765625,-48.059417724609375,-19.053939819335938,99.01690673828125
1686424992180051700,7.4570517578125,-48.34236145019531,-18.426528930664062,99.33039855957031
1686424992190124800,7.467124755859375,-50.0325927734375,-18.148452758789062,99.55023193359375
1686424992200199000,7.477198974609375,-51.25263977050781,-17.513412475585938,100.38749694824219
1686424992210271000,7.48727099609375,-51.90074157714844,-17.485549926757812,100.1920166015625
1686424992220344800,7.4973447265625,-53.144439697265625,-16.66094970703125,100.44413757324219
1686424992230420000,7.507419921875,-53.992095947265625,-16.277679443359375,100.96621704101562
1686424992240493800,7.517493896484375,-55.02687072753906,-16.390426635742188,101.33322143554688
1686424992250568000,7.52756787109375,-54.87205505371094,-16.346267700195312,101.78346252441406
1686424992260640000,7.537639892578125,-55.78327941894531,-16.072845458984375,102.26628112792969
1686424992270715000,7.54771484375,-56.53125,-16.443328857421875,102.775634765625
1686424992280789000,7.5577890625,-57.163726806640625,-16.701263427734375,103.50172424316406
1686424992290860000,7.567860107421875,-57.20111083984375,-16.651214599609375,104.17451477050781
1686424992300935700,7.577935791015625,-57.06309509277344,-16.856460571289062,105.26203918457031
1686424992311009800,7.588009765625,-56.975372314453125,-16.90478515625,105.60664367675781
1686424992321084700,7.598084716796875,-56.43376159667969,-17.474090576171875,105.90736389160156
1686424992331159800,7.608159912109375,-55.51371765136719,-17.997268676757812,106.20841979980469
1686424992341233700,7.618233642578125,-55.49046325683594,-18.46209716796875,106.23541259765625
1686424992351307800,7.628307861328125,-54.469024658203125,-18.856475830078125,106.36766052246094
1686424992361380900,7.638380859375,-53.522064208984375,-19.122344970703125,106.15510559082031
1686424992371456000,7.6484560546875,-53.36152648925781,-19.288848876953125,106.35298156738281
1686424992381529900,7.65852978515625,-53.03721618652344,-19.456451416015625,106.36947631835938
1686424992391603700,7.668603759765625,-51.85374450683594,-20.236297607421875,106.21058654785156
1686424992401677800,7.678677734375,-51.47021484375,-20.340744018554688,105.88583374023438
1686424992411750000,7.68875,-50.97242736816406,-20.383316040039062,105.367919921875
1686424992421823700,7.69882373046875,-51.54508972167969,-20.402450561523438,105.231689453125
1686424992431897900,7.70889794921875,-50.98777770996094,-20.379226684570312,105.26185607910156
1686424992441972700,7.71897265625,-51.505950927734375,-20.418716430664062,104.8621826171875
1686424992452046800,7.729046875,-51.46315002441406,-20.400924682617188,105.20346069335938
1686424992462120000,7.739119873046875,-51.76702880859375,-20.000534057617188,105.29643249511719
1686424992472192800,7.74919287109375,-52.44966125488281,-19.738449096679688,105.08659362792969
1686424992482267000,7.759266845703125,-52.68183898925781,-19.178863525390625,105.08518981933594
1686424992492340700,7.7693408203125,-53.27276611328125,-18.725433349609375,105.19633483886719
1686424992502414600,7.77941455078125,-54.39324951171875,-18.14276123046875,104.69583129882812
1686424992512489000,7.789489013671875,-54.62532043457031,-17.73828125,104.51295471191406
1686424992522561800,7.799561767578125,-55.267333984375,-17.360275268554688,103.26531982421875
1686424992532633900,7.8096337890625,-55.64341735839844,-16.4539794921875,102.40010070800781
1686424992542706700,7.819706787109375,-56.4454345703125,-15.753189086914062,100.83364868164062
1686424992552780800,7.82978076171875,-56.25550842285156,-15.11669921875,99.92587280273438
1686424992562854700,7.839854736328125,-56.51176452636719,-14.26678466796875,98.9818115234375
1686424992572929000,7.849928955078125,-56.57926940917969,-13.83062744140625,97.82542419433594
1686424992583003000,7.8600029296875,-56.890777587890625,-13.404510498046875,97.12811279296875
1686424992593076700,7.87007666015625,-57.60826110839844,-12.613784790039062,96.07197570800781
1686424992603150800,7.88015087890625,-58.75685119628906,-12.408294677734375,95.00619506835938
1686424992613223700,7.8902236328125,-60.38841247558594,-11.675140380859375,94.89952087402344
1686424992623295700,7.900295654296875,-62.98631286621094,-11.028366088867188,94.76820373535156
1686424992633368800,7.910368896484375,-64.35832214355469,-10.608627319335938,94.63499450683594
1686424992643442000,7.92044189453125,-65.11732482910156,-10.465164184570312,93.988525390625
1686424992653516800,7.930516845703125,-65.48545837402344,-10.265472412109375,93.82106018066406
1686424992663589000,7.940589111328125,-65.0172119140625,-10.622817993164062,93.49400329589844
1686424992673661200,7.9506611328125,-63.67694091796875,-10.10662841796875,93.61282348632812
1686424992683733200,7.960733154296875,-63.48548889160156,-11.072067260742188,93.19963073730469
1686424992693806000,7.97080615234375,-61.86151123046875,-11.016754150390625,93.66986083984375
1686424992703875000,7.980875,-60.59236145019531,-11.7923583984375,93.74777221679688
1686424992713947100,7.990947021484375,-60.20159912109375,-11.518890380859375,93.65229797363281
1686424992724019000,8.00101904296875,-58.97105407714844,-12.256637573242188,93.79515075683594
1686424992734092300,8.01109228515625,-58.08106994628906,-12.343399047851562,93.76651000976562
1686424992744165000,8.0211650390625,-56.82313537597656,-12.920639038085938,93.86068725585938
1686424992754237200,8.0312373046875,-55.872344970703125,-12.985092163085938,94.132568359375
1686424992764308200,8.04130810546875,-55.04869079589844,-13.904159545898438,94.23876953125
1686424992774379300,8.051379150390625,-54.910736083984375,-14.310775756835938,94.81765747070312
1686424992784451300,8.061451416015625,-54.35313415527344,-14.84228515625,95.39338684082031
1686424992794524200,8.071524169921876,-54.35002136230469,-14.860916137695312,96.11784362792969
1686424992804596200,8.08159619140625,-54.5111083984375,-15.132888793945312,96.10432434082031
1686424992814670000,8.091670166015625,-54.60748291015625,-15.366851806640625,97.16757202148438
1686424992824742100,8.1017421875,-55.199127197265625,-14.717941284179688,97.98971557617188
1686424992834816300,8.111816162109376,-57.010009765625,-14.13128662109375,98.54408264160156
1686424992844891100,8.12189111328125,-58.13099670410156,-13.676834106445312,98.75733947753906
1686424992854965200,8.13196533203125,-59.35911560058594,-13.224197387695312,99.12806701660156
1686424992865039000,8.1420390625,-61.095947265625,-13.216949462890625,99.94563293457031
1686424992875115300,8.152115234375,-63.21266174316406,-12.727081298828125,100.57893371582031
1686424992885189000,8.162189208984374,-63.77838134765625,-12.880661010742188,100.24014282226562
1686424992895263200,8.17226318359375,-64.86711120605469,-12.626174926757812,101.06153869628906
1686424992905337000,8.182337158203126,-65.55751037597656,-12.781402587890625,101.26205444335938
1686424992915411200,8.1924111328125,-66.34170532226562,-12.56585693359375,101.13890075683594
1686424992925484300,8.202484375,-66.13887023925781,-12.43365478515625,101.57789611816406
1686424992935558100,8.21255810546875,-65.96246337890625,-12.388107299804688,101.53758239746094
1686424992945630000,8.2226298828125,-65.513916015625,-12.92510986328125,101.58824157714844
1686424992955701000,8.232700927734374,-64.79928588867188,-12.586654663085938,101.41780090332031
1686424992965772000,8.24277197265625,-64.83267211914062,-12.414474487304688,101.29568481445312
1686424992975842300,8.25284228515625,-64.1324462890625,-12.932723999023438,100.93255615234375
1686424992985916200,8.262916259765625,-62.725067138671875,-12.923202514648438,100.25540161132812
1686424992995990000,8.272989990234375,-61.98820495605469,-13.019256591796875,99.98966979980469
1686424993006062300,8.283062255859376,-61.445556640625,-12.795440673828125,99.15447998046875
1686424993016136200,8.29313623046875,-60.632568359375,-12.865631103515625,98.43446350097656
1686424993026208300,8.303208251953125,-60.09495544433594,-12.770797729492188,97.52406311035156
1686424993036281000,8.313281005859375,-59.24702453613281,-12.990554809570312,96.88801574707031
1686424993046353200,8.323353271484375,-59.16795349121094,-12.613662719726562,96.26487731933594
1686424993056427300,8.33342724609375,-58.77336120605469,-12.854141235351562,95.56166076660156
1686424993066502100,8.343502197265625,-58.45585632324219,-12.642288208007812,94.89425659179688
1686424993076576300,8.353576171875,-58.178985595703125,-12.628982543945312,94.12223815917969
1686424993086649000,8.363649169921874,-58.51123046875,-12.264007568359375,93.63435363769531
1686424993096721200,8.37372119140625,-57.854949951171875,-12.846206665039062,92.82884216308594
1686424993106795000,8.383794921875,-56.438262939453125,-12.715225219726562,91.95742797851562
1686424993116868400,8.393868408203126,-56.048370361328125,-13.226455688476562,90.54933166503906
1686424993126941200,8.403941162109374,-55.17138671875,-13.221343994140625,89.69502258300781
1686424993137014300,8.41401416015625,-54.8775634765625,-13.388916015625,88.40139770507812
1686424993147089200,8.424089111328126,-54.046966552734375,-13.312454223632812,87.21847534179688
1686424993157161200,8.4341611328125,-53.89567565917969,-13.493850708007812,86.07452392578125
1686424993167234300,8.444234375,-54.77781677246094,-13.263015747070312,85.45356750488281
1686424993177306000,8.45430615234375,-55.06590270996094,-13.138076782226562,84.99388122558594
1686424993187379200,8.464379150390625,-54.92942810058594,-12.892471313476562,84.36386108398438
1686424993197451000,8.474450927734376,-54.250091552734375,-13.18804931640625,83.91120910644531
1686424993207524000,8.484524169921874,-54.365814208984375,-13.16827392578125,83.87031555175781
1686424993217597200,8.49459716796875,-53.99726867675781,-13.395095825195312,84.06611633300781
1686424993227670300,8.504670166015625,-53.432220458984375,-13.70819091796875,84.24259948730469
1686424993237742000,8.5147421875,-52.86329650878906,-14.098663330078125,84.37422180175781
1686424993247815200,8.524815185546874,-52.42491149902344,-14.31207275390625,84.51020812988281
1686424993257888000,8.534887939453125,-52.30126953125,-14.211502075195312,84.99751281738281
1686424993267961300,8.54496142578125,-52.15069580078125,-14.692337036132812,85.17449951171875
1686424993278035200,8.55503515625,-52.711761474609375,-14.834548950195312,86.17991638183594
1686424993288109000,8.565109130859375,-52.85026550292969,-14.600662231445312,86.97441101074219
1686424993298182100,8.57518212890625,-52.778778076171875,-14.435791015625,87.93898010253906
1686424993308256300,8.58525634765625,-53.26416015625,-14.094650268554688,88.09571838378906
1686424993318330000,8.595330078125,-53.41111755371094,-14.469436645507812,88.97154235839844
1686424993328404200,8.605404296875,-53.8931884765625,-14.224838256835938,89.54640197753906
1686424993338478000,8.61547802734375,-54.469207763671875,-14.073944091796875,90.1448974609375
1686424993348551000,8.625551025390624,-54.34101867675781,-14.205001831054688,91.05572509765625
1686424993358624300,8.635624267578125,-54.187255859375,-14.558761596679688,92.01449584960938
1686424993368696300,8.6456962890625,-54.72523498535156,-13.997543334960938,92.72930908203125
1686424993378769200,8.65576904296875,-54.531097412109375,-14.271331787109375,93.35763549804688
1686424993388841200,8.66584130859375,-55.349761962890625,-14.399673461914062,94.24464416503906
1686424993398913000,8.6759130859375,-55.14532470703125,-14.090560913085938,94.87130737304688
1686424993408985000,8.685985107421875,-55.768890380859375,-14.390380859375,95.55838012695312
1686424993419058200,8.69605810546875,-55.754638671875,-14.629547119140625,96.17579650878906
1686424993429131300,8.70613134765625,-56.000335693359375,-14.37677001953125,96.97775268554688
1686424993439203300,8.716203369140626,-56.62391662597656,-14.384231567382812,97.40919494628906
1686424993449275100,8.726275146484374,-56.116455078125,-14.3187255859375,97.75473022460938
1686424993459349200,8.736349365234375,-56.34942626953125,-14.580535888671875,97.68392944335938
1686424993469422000,8.746422119140625,-56.82637023925781,-14.746841430664062,98.24946594238281
1686424993479495200,8.7564951171875,-56.370697021484375,-14.5535888671875,98.31698608398438
1686424993489569300,8.7665693359375,-56.012481689453125,-15.13134765625,98.26512145996094
1686424993499642000,8.77664208984375,-56.3546142578125,-15.180648803710938,98.37200927734375
1686424993509714200,8.786714111328125,-55.863128662109375,-15.231002807617188,98.09735107421875
1686424993519786200,8.7967861328125,-55.439697265625,-15.434829711914062,97.87895202636719
1686424993529859000,8.806859130859374,-54.7735595703125,-15.565322875976562,97.5615234375
1686424993539932200,8.81693212890625,-54.54835510253906,-16.046524047851562,97.27105712890625
1686424993550005200,8.827005126953125,-53.744781494140625,-16.014877319335938,97.03929138183594
1686424993560078000,8.837078125,-54.001556396484375,-16.349334716796875,96.66468811035156
1686424993570150100,8.847150146484376,-53.811492919921875,-15.872238159179688,96.31779479980469
1686424993580223000,8.857222900390624,-53.38392639160156,-16.04498291015625,95.65921020507812
1686424993590294000,8.8672939453125,-53.7830810546875,-15.84222412109375,95.724853515625
1686424993600367000,8.8773671875,-54.21177673339844,-15.651840209960938,95.40992736816406
1686424993610440200,8.887440185546875,-54.41802978515625,-15.178939819335938,95.39573669433594
1686424993620510200,8.89751025390625,-54.865997314453125,-14.822662353515625,95.25715637207031
1686424993630583000,8.9075830078125,-55.65242004394531,-14.719650268554688,95.05799865722656
1686424993640656100,8.91765625,-56.24992370605469,-14.279586791992188,95.06985473632812
1686424993650727000,8.927726806640624,-56.68516540527344,-13.985824584960938,95.16207885742188
1686424993660797400,8.93779736328125,-57.042205810546875,-13.61456298828125,94.97183227539062
1686424993670870300,8.947870361328125,-57.091094970703125,-13.3719482421875,94.55992126464844
1686424993680943400,8.957943359375,-57.512115478515625,-13.57666015625,94.63273620605469
1686424993691017500,8.968017578125,-57.75959777832031,-13.098541259765625,94.07899475097656
1686424993701090300,8.97809033203125,-58.252044677734375,-12.69915771484375,93.53617858886719
1686424993711163400,8.988163330078125,-57.52680969238281,-12.824569702148438,92.75970458984375
1686424993721237200,8.9982373046875,-58.74220275878906,-12.398605346679688,91.93977355957031
1686424993731311400,9.008311279296874,-61.50624084472656,-11.845748901367188,91.93083190917969
1686424993741383400,9.018383544921875,-63.389495849609375,-11.370147705078125,91.66061401367188
1686424993751456300,9.028456298828125,-66.41529846191406,-10.473709106445312,91.91163635253906
1686424993761530000,9.038530029296876,-69.075439453125,-10.749755859375,92.04826354980469
1686424993771604200,9.048604248046875,-69.49678039550781,-9.766326904296875,92.12025451660156
1686424993781678000,9.058677978515625,-69.01243591308594,-9.934783935546875,91.7818603515625
1686424993791752400,9.06875244140625,-68.14126586914062,-10.237625122070312,91.65292358398438
1686424993801825300,9.0788251953125,-66.27424621582031,-10.527374267578125,91.72825622558594
1686424993811896300,9.088896240234375,-64.71136474609375,-10.572967529296875,91.1756591796875
1686424993821968400,9.098968505859375,-63.02789306640625,-10.970535278320312,90.81414794921875
1686424993832037000,9.109037109375,-61.82206726074219,-11.144699096679688,90.60275268554688
1686424993842110500,9.1191103515625,-59.898284912109375,-11.879135131835938,90.49069213867188
1686424993852183300,9.129183349609375,-58.487060546875,-12.323562622070312,90.04566955566406
1686424993862255400,9.13925537109375,-56.893585205078125,-12.95330810546875,90.03988647460938
1686424993872327400,9.149327392578124,-56.49591064453125,-13.02471923828125,90.70272827148438
1686424993882399200,9.159399169921874,-55.58747863769531,-13.443817138671875,91.06208801269531
1686424993892473300,9.169473388671875,-55.02131652832031,-14.236190795898438,91.98292541503906
1686424993902547500,9.17954736328125,-54.94520568847656,-14.33697509765625,93.31533813476562
1686424993912621300,9.189621337890625,-55.921844482421875,-14.450103759765625,94.74484252929688
1686424993922694100,9.199694091796875,-56.68492126464844,-14.369277954101562,95.97175598144531
1686424993932766200,9.20976611328125,-58.48139953613281,-14.295745849609375,97.32514953613281
1686424993942839300,9.21983935546875,-60.8612060546875,-14.160797119140625,98.65696716308594
1686424993952912400,9.229912353515624,-62.86137390136719,-13.447280883789062,100.00544738769531
1686424993962984400,9.239984375,-65.44233703613281,-13.542587280273438,100.92799377441406
1686424993973055500,9.250055419921875,-66.82943725585938,-13.533447265625,101.79275512695312
1686424993983125200,9.260125244140625,-68.29200744628906,-13.238739013671875,102.08621215820312
1686424993993198300,9.2701982421875,-68.94467163085938,-13.40478515625,102.54185485839844
1686424994003270400,9.2802705078125,-69.51573181152344,-13.721099853515625,102.72598266601562
1686424994013342500,9.290342529296876,-69.34898376464844,-13.817062377929688,103.37379455566406
1686424994023415300,9.300415283203124,-68.91484069824219,-13.992523193359375,103.61177062988281
1686424994033486300,9.310486328125,-68.67098999023438,-14.136886596679688,104.05586242675781
1686424994043558400,9.320558349609374,-67.75242614746094,-14.449600219726562,104.52107238769531
1686424994053630500,9.33063037109375,-66.94041442871094,-14.493896484375,104.61503601074219
1686424994063699200,9.34069921875,-65.87776184082031,-14.81817626953125,104.69114685058594
1686424994073772300,9.350772216796875,-64.36650085449219,-14.910781860351562,104.18582153320312
1686424994083845400,9.360845458984375,-62.74629211425781,-14.966949462890625,104.20162963867188
1686424994093918200,9.370918212890626,-61.952728271484375,-15.231002807617188,103.92059326171875
1686424994103990300,9.380990234375,-61.1260986328125,-15.435638427734375,102.56715393066406
1686424994114061300,9.391061279296874,-60.76948547363281,-15.237014770507812,102.09681701660156
1686424994124134400,9.401134521484375,-59.616363525390625,-15.213775634765625,101.91458129882812
1686424994134207200,9.411207275390625,-58.55682373046875,-15.5482177734375,101.26191711425781
1686424994144280300,9.4212802734375,-58.07319641113281,-15.3084716796875,100.55833435058594
1686424994154354400,9.4313544921875,-57.70219421386719,-15.681854248046875,100.21173095703125
1686424994164428300,9.44142822265625,-57.33952331542969,-15.398284912109375,99.62286376953125
1686424994174501000,9.451501220703125,-56.54115295410156,-15.582504272460938,99.430419921875
1686424994184573200,9.4615732421875,-55.70501708984375,-15.4844970703125,98.57933044433594
1686424994194647300,9.471647216796875,-54.7872314453125,-15.781829833984375,98.43930053710938
1686424994204719400,9.48171923828125,-54.47413635253906,-16.252685546875,98.02436828613281
1686424994214787300,9.491787353515624,-53.403350830078125,-16.464279174804688,97.20027160644531
1686424994224860200,9.501860107421875,-52.1295166015625,-17.00177001953125,95.66802978515625
1686424994234932200,9.51193212890625,-50.91456604003906,-17.5159912109375,94.0799560546875
1686424994245004300,9.52200439453125,-49.03233337402344,-17.936019897460938,91.62327575683594
1686424994255076000,9.532076171875,-48.017791748046875,-18.6248779296875,89.48048400878906
1686424994265149400,9.5421494140625,-46.21551513671875,-19.411773681640625,86.84426879882812
1686424994275221200,9.55222119140625,-45.7335205078125,-19.44854736328125,85.00894165039062
1686424994285294300,9.56229443359375,-45.23687744140625,-19.941741943359375,84.90576171875
1686424994295368200,9.5723681640625,-45.60072326660156,-19.689529418945312,85.54542541503906
1686424994305441300,9.582441162109374,-45.813934326171875,-19.816864013671875,87.11224365234375
1686424994315513300,9.592513427734374,-46.320404052734375,-19.279525756835938,88.63621520996094
1686424994325586400,9.60258642578125,-46.77668762207031,-19.332015991210938,90.05105590820312
1686424994335659300,9.6126591796875,-47.93157958984375,-18.841751098632812,91.21266174316406
1686424994345730300,9.622730224609375,-47.927886962890625,-18.758544921875,92.76976013183594
1686424994355804200,9.63280419921875,-48.8192138671875,-18.505706787109375,93.3958740234375
1686424994365877500,9.64287744140625,-50.0216064453125,-18.11273193359375,94.35588073730469
1686424994375952100,9.6529521484375,-50.20709228515625,-18.080490112304688,95.15272521972656
1686424994386027300,9.66302734375,-50.09880065917969,-17.559463500976562,95.40144348144531
1686424994396100400,9.673100341796875,-50.57073974609375,-17.722610473632812,96.28471374511719
1686424994406174200,9.68317431640625,-50.88670349121094,-18.122222900390625,96.63983154296875
1686424994416247300,9.693247314453124,-51.11952209472656,-18.110610961914062,97.46919250488281
1686424994426322200,9.703322265625,-51.17897033691406,-18.386093139648438,98.22535705566406
1686424994436395300,9.713395263671876,-50.948638916015625,-18.905258178710938,98.67965698242188
1686424994446469400,9.723469482421875,-50.55134582519531,-19.372756958007812,99.54460144042969
1686424994456543200,9.733543212890625,-50.72998046875,-19.790878295898438,100.46809387207031
1686424994466616300,9.7436162109375,-49.814697265625,-20.724655151367188,100.665771484375
1686424994476690200,9.753690185546875,-49.1287841796875,-20.822616577148438,101.375
1686424994486764300,9.763764404296875,-49.23106384277344,-21.010910034179688,102.01129150390625
1686424994496838400,9.77383837890625,-49.20014953613281,-21.29364013671875,102.81253051757812
1686424994506913300,9.783913330078125,-49.15863037109375,-22.0374755859375,103.16653442382812
1686424994516986400,9.793986328125,-48.780548095703125,-22.880752563476562,103.69033813476562
1686424994527059200,9.80405908203125,-49.44013977050781,-22.763946533203125,103.6571044921875
1686424994537132300,9.81413232421875,-48.808380126953125,-23.067657470703125,103.29890441894531
1686424994547206100,9.8242060546875,-48.33229064941406,-22.804336547851562,102.88217163085938
1686424994557281300,9.83428125,-48.23963928222656,-22.753509521484375,102.53436279296875
1686424994567355400,9.84435546875,-47.87922668457031,-22.3834228515625,102.11589050292969
1686424994577430300,9.85443017578125,-48.1148681640625,-22.430557250976562,101.87100219726562
1686424994587505400,9.86450537109375,-47.86842346191406,-22.077957153320312,101.08474731445312
1686424994597579300,9.874579345703125,-47.47911071777344,-22.154083251953125,100.46002197265625
1686424994607653400,9.8846533203125,-48.39027404785156,-21.77398681640625,99.623779296875
1686424994617727200,9.894727294921875,-48.14314270019531,-21.469711303710938,99.11408996582031
1686424994627800300,9.90480029296875,-48.21113586425781,-20.887619018554688,98.60270690917969
1686424994637874400,9.91487451171875,-48.38081359863281,-20.592178344726562,98.07102966308594
1686424994647949300,9.92494921875,-48.53285217285156,-20.462326049804688,97.23338317871094
1686424994658023200,9.935023193359376,-48.6463623046875,-20.207717895507812,96.79290771484375
1686424994668097300,9.94509716796875,-48.963775634765625,-19.535049438476562,96.66810607910156
1686424994678171100,9.955171142578125,-49.37477111816406,-19.432464599609375,96.25334167480469
1686424994688245000,9.965244873046874,-49.300048828125,-19.116226196289062,95.91725158691406
1686424994698319000,9.975319091796875,-49.63055419921875,-19.1793212890625,95.16868591308594
1686424994708393200,9.985393310546876,-49.77415466308594,-18.42901611328125,94.77711486816406
1686424994718467300,9.99546728515625,-49.73866271972656,-18.463424682617188,94.44680786132812
1686424994728540200,10.0055400390625,-50.03456115722656,-18.254608154296875,94.30610656738281
1686424994738615000,10.015614990234376,-50.49363708496094,-17.223907470703125,93.89157104492188
1686424994748689200,10.025689208984375,-50.96507263183594,-16.586639404296875,93.15283203125
1686424994758763000,10.035762939453125,-51.65061950683594,-16.410842895507812,92.46363830566406
1686424994768837000,10.045837158203126,-53.28910827636719,-15.64111328125,92.28286743164062
1686424994778911200,10.0559111328125,-54.87925720214844,-14.85821533203125,92.0948486328125
1686424994788984000,10.065984130859375,-56.7041015625,-13.773635864257812,92.12139892578125
1686424994799058200,10.07605810546875,-58.524566650390625,-13.416397094726562,92.55793762207031
1686424994809131300,10.08613134765625,-60.55351257324219,-12.382553100585938,92.92584228515625
1686424994819203000,10.096203125,-62.889617919921875,-11.868194580078125,93.03076171875
1686424994829276200,10.106276123046875,-65.07376098632812,-11.314956665039062,93.34735107421875
1686424994839350300,10.116350341796876,-67.05735778808594,-11.1016845703125,93.77276611328125
1686424994849423000,10.126423095703124,-67.44418334960938,-10.765228271484375,93.6092529296875
1686424994859496200,10.13649609375,-67.744873046875,-10.852386474609375,93.531982421875
1686424994869569000,10.146569091796875,-66.64764404296875,-11.310821533203125,93.71060180664062
1686424994879642400,10.156642333984376,-65.53964233398438,-11.652435302734375,93.39118957519531
1686424994889713200,10.166713134765626,-64.62312316894531,-11.37518310546875,93.19441223144531
1686424994899788000,10.1767880859375,-63.44978332519531,-12.098770141601562,93.02162170410156
1686424994909860000,10.186860107421875,-61.9254150390625,-12.165023803710938,92.84182739257812
1686424994919932200,10.19693212890625,-60.318817138671875,-12.704620361328125,92.38243103027344
1686424994930006300,10.20700634765625,-59.11112976074219,-12.75244140625,92.45323181152344
1686424994940079000,10.2170791015625,-58.12919616699219,-13.410751342773438,92.30636596679688
1686424994950154000,10.227154052734376,-57.33091735839844,-13.60968017578125,92.25053405761719
1686424994960228000,10.23722802734375,-55.95549011230469,-13.97930908203125,92.46115112304688
1686424994970302200,10.24730224609375,-55.44148254394531,-14.701553344726562,92.69837951660156
1686424994980376300,10.257376220703126,-55.48603820800781,-15.175384521484375,93.23622131347656
1686424994990449200,10.26744921875,-55.66413879394531,-15.151229858398438,93.98127746582031
1686424995000524000,10.27752392578125,-55.683837890625,-15.294158935546875,95.49029541015625
1686424995010599200,10.28759912109375,-56.95179748535156,-14.705413818359375,96.62901306152344
1686424995020673000,10.297673095703125,-59.402008056640625,-14.447021484375,98.19694519042969
1686424995030747100,10.3077470703125,-61.469818115234375,-14.089279174804688,99.30392456054688
1686424995040818200,10.317818115234376,-64.30479431152344,-13.582839965820312,100.2320556640625
1686424995050890200,10.32789013671875,-66.55366516113281,-13.482452392578125,100.98527526855469
1686424995060964000,10.337964111328125,-69.02377319335938,-13.494186401367188,101.69236755371094
1686424995071037000,10.348036865234375,-70.85417175292969,-13.35626220703125,102.18611145019531
1686424995081111300,10.358111328125,-71.82879638671875,-13.110321044921875,102.187255859375
1686424995091185200,10.36818505859375,-71.58682250976562,-13.14306640625,102.39015197753906
1686424995101258000,10.378258056640625,-71.51213073730469,-13.476547241210938,102.70484924316406
1686424995111332000,10.38833203125,-71.0648193359375,-13.533111572265625,102.64387512207031
1686424995121405200,10.3984052734375,-70.50086975097656,-13.973617553710938,103.59474182128906
1686424995131479300,10.408479248046875,-69.55241394042969,-14.202224731445312,104.24845886230469
1686424995141552000,10.41855224609375,-68.54588317871094,-14.54083251953125,104.18817138671875
1686424995151627000,10.428626953125,-67.98246765136719,-14.813796997070312,104.43095397949219
1686424995161701000,10.438701171875,-66.60385131835938,-15.291610717773438,104.86360168457031
1686424995171776000,10.44877587890625,-65.94308471679688,-15.19677734375,104.994384765625
1686424995181850000,10.45885009765625,-64.78012084960938,-15.3895263671875,104.63766479492188
1686424995191924000,10.468924072265626,-64.19119262695312,-15.459747314453125,104.65834045410156
1686424995201996000,10.47899609375,-63.53509521484375,-15.954757690429688,104.49819946289062
1686424995212070100,10.489070068359375,-62.1593017578125,-15.752593994140625,104.14303588867188
1686424995222143200,10.499143310546875,-62.25921630859375,-15.987838745117188,103.71084594726562
1686424995232215000,10.509215087890626,-61.505462646484375,-15.81243896484375,103.6878662109375
1686424995242288000,10.5192880859375,-60.98185729980469,-15.750579833984375,102.80783081054688
1686424995252361000,10.52936083984375,-59.81605529785156,-15.814529418945312,102.44148254394531
1686424995262434300,10.539434326171875,-59.32987976074219,-15.386917114257812,101.41238403320312
1686424995272508200,10.549508056640626,-58.57756042480469,-15.484909057617188,101.06277465820312
1686424995282583300,10.559583251953125,-57.803192138671875,-15.831512451171875,99.85346984863281
1686424995292655000,10.569655029296875,-56.693634033203125,-15.906631469726562,99.02268981933594
1686424995302728200,10.579728271484376,-54.790618896484375,-16.234283447265625,98.04042053222656
1686424995312800300,10.58980029296875,-53.32569885253906,-16.359939575195312,97.29867553710938
1686424995322874000,10.5998740234375,-52.24269104003906,-16.915435791015625,95.66062927246094
1686424995332948200,10.6099482421875,-50.68443298339844,-17.421707153320312,93.77630615234375
1686424995343021000,10.62002099609375,-49.36248779296875,-18.084579467773438,91.82347106933594
1686424995353093000,10.630093017578124,-48.29408264160156,-18.227874755859375,89.38981628417969
1686424995363165200,10.640165283203125,-48.04655456542969,-18.308944702148438,86.9825439453125
1686424995373239000,10.650239013671875,-48.11976623535156,-17.655624389648438,85.70628356933594
1686424995383311000,10.66031103515625,-48.31318664550781,-18.077041625976562,85.3538818359375
1686424995393383200,10.670383056640626,-48.612701416015625,-18.004104614257812,85.93809509277344
1686424995403456300,10.680456298828124,-48.223785400390625,-17.866348266601562,87.00238037109375
1686424995413530000,10.690530029296875,-48.4349365234375,-17.983749389648438,88.5496826171875
1686424995423603000,10.70060302734375,-48.71551513671875,-18.2606201171875,89.93450927734375
1686424995433676300,10.71067626953125,-49.31428527832031,-18.122940063476562,91.51170349121094
1686424995443747000,10.7207470703125,-49.976776123046875,-18.179275512695312,92.77444458007812
1686424995453821200,10.7308212890625,-49.724517822265625,-17.988540649414062,93.94842529296875
1686424995463892200,10.740892333984375,-50.14567565917969,-17.825424194335938,94.85552978515625
1686424995473965000,10.750965087890625,-50.81996154785156,-18.076065063476562,96.13031005859375
1686424995484039200,10.7610390625,-50.60121154785156,-18.330337524414062,97.35725402832031
1686424995494113300,10.77111328125,-51.33155822753906,-18.95501708984375,98.7467041015625
1686424995504184300,10.781184326171875,-51.25489807128906,-19.122268676757812,99.77951049804688
1686424995514257200,10.791257080078125,-51.04121398925781,-19.510955810546875,100.40621948242188
1686424995524330200,10.801330322265626,-51.156402587890625,-19.610565185546875,100.97821044921875
1686424995534404000,10.811404052734375,-51.592193603515625,-19.84765625,101.68946838378906
1686424995544477200,10.821477294921875,-51.529541015625,-20.607620239257812,101.65330505371094
1686424995554550300,10.83155029296875,-51.34503173828125,-20.591079711914062,102.70832824707031
1686424995564624100,10.8416240234375,-51.08607482910156,-20.47296142578125,102.92578125
1686424995574699300,10.85169921875,-51.403167724609375,-20.921356201171875,103.58834838867188
1686424995584773000,10.861773193359374,-51.8837890625,-21.242584228515625,104.04473876953125
1686424995594848300,10.87184814453125,-52.011474609375,-20.925323486328125,104.83848571777344
1686424995604923100,10.881923095703126,-52.323394775390625,-21.45721435546875,104.84234619140625
1686424995614996200,10.891996337890625,-52.40940856933594,-21.66534423828125,105.46034240722656
1686424995625070000,10.902070068359375,-52.17774963378906,-21.46856689453125,105.70309448242188
1686424995635143200,10.91214306640625,-52.15057373046875,-21.478469848632812,105.75489807128906
1686424995645215000,10.922215087890624,-52.59657287597656,-21.450576782226562,105.4072265625
1686424995655289000,10.9322890625,-52.77360534667969,-21.445205688476562,105.42327880859375
1686424995665362000,10.94236181640625,-52.62382507324219,-21.281661987304688,105.36636352539062
1686424995675436000,10.95243603515625,-52.830474853515625,-20.695510864257812,105.0611572265625
1686424995685508000,10.962508056640624,-52.377532958984375,-20.832275390625,104.95930480957031
1686424995695581000,10.972580810546875,-52.99098205566406,-20.602386474609375,105.01376342773438
1686424995705653000,10.982653076171875,-53.25408935546875,-20.304214477539062,104.40029907226562
1686424995715725000,10.99272509765625,-53.2310791015625,-20.471603393554688,104.09645080566406
1686424995725796900,11.002796875,-52.72496032714844,-19.934249877929688,103.763916015625
1686424995735870000,11.012869873046874,-53.07212829589844,-19.66925048828125,103.64974975585938
1686424995745942800,11.02294287109375,-53.65180969238281,-19.4407958984375,102.92947387695312
1686424995756016000,11.03301611328125,-52.96788024902344,-19.69085693359375,102.68412780761719
1686424995766090000,11.043090087890626,-52.40802001953125,-18.7403564453125,102.30410766601562
1686424995776161800,11.053161865234374,-51.98170471191406,-18.758468627929688,101.80426025390625
1686424995786235000,11.06323486328125,-51.98603820800781,-18.47052001953125,100.96388244628906
1686424995796309000,11.07330908203125,-51.97261047363281,-18.490768432617188,100.17349243164062
1686424995806382800,11.0833828125,-52.47514343261719,-17.991195678710938,99.38487243652344
1686424995816456000,11.0934560546875,-52.26301574707031,-17.487091064453125,98.58663940429688
1686424995826527700,11.10352783203125,-52.48326110839844,-17.556961059570312,98.14973449707031
1686424995836599800,11.113599853515625,-52.53254699707031,-17.165237426757812,97.09193420410156
1686424995846673000,11.1236728515625,-52.96553039550781,-16.3173828125,96.3658447265625
1686424995856746000,11.13374609375,-53.563934326171875,-16.817962646484375,96.17146301269531
1686424995866818800,11.14381884765625,-54.38018798828125,-15.665512084960938,95.40988159179688
1686424995876892000,11.153891845703125,-55.24967956542969,-15.292449951171875,94.99378967285156
1686424995886963000,11.163962890625,-56.69219970703125,-14.533737182617188,94.68605041503906
1686424995897035800,11.174035888671876,-58.22802734375,-13.898025512695312,94.496337890625
1686424995907106800,11.18410693359375,-60.554351806640625,-13.00677490234375,94.72964477539062
1686424995917180000,11.194179931640624,-63.267669677734375,-12.493545532226562,95.703125
1686424995927251700,11.204251708984375,-65.76963806152344,-11.895721435546875,96.31072998046875
1686424995937325000,11.214324951171875,-67.79948425292969,-11.6209716796875,96.86155700683594
1686424995947398000,11.22439794921875,-69.38078308105469,-11.45367431640625,96.77838134765625
1686424995957469000,11.234468994140625,-68.86544799804688,-11.56561279296875,97.04649353027344
1686424995967541000,11.244541015625,-68.30975341796875,-11.58074951171875,97.27806091308594
1686424995977613800,11.25461376953125,-66.97825622558594,-11.459579467773438,96.9383544921875
1686424995987687000,11.26468701171875,-65.73794555664062,-11.742996215820312,96.7789306640625
1686424995997759000,11.274759033203125,-64.10171508789062,-12.25189208984375,96.52511596679688
1686424996007831800,11.284831787109376,-62.192596435546875,-12.125808715820312,96.1798095703125
1686424996017905000,11.29490478515625,-61.332855224609375,-12.61541748046875,96.05947875976562
1686424996027978000,11.30497802734375,-59.61328125,-12.821563720703125,95.8892822265625
1686424996038050800,11.31505078125,-58.848907470703125,-13.498260498046875,95.75408935546875
1686424996048121000,11.32512109375,-57.93528747558594,-13.989486694335938,95.95594787597656
1686424996058195000,11.33519482421875,-57.25685119628906,-14.366043090820312,96.25608825683594
1686424996068266800,11.345266845703126,-56.79496765136719,-14.66790771484375,96.29826354980469
1686424996078337800,11.355337890625,-56.350372314453125,-15.066864013671875,96.83277893066406
1686424996088408000,11.365407958984376,-56.46337890625,-15.098678588867188,97.38853454589844
1686424996098478800,11.375478759765626,-56.167236328125,-14.875823974609375,98.04869079589844
1686424996108552000,11.385552001953124,-57.45890808105469,-14.956771850585938,98.68550109863281
1686424996118625800,11.395625732421875,-58.57020568847656,-14.880081176757812,99.582275390625
1686424996128699000,11.405698974609376,-60.869537353515625,-14.399093627929688,101.07571411132812
1686424996138773000,11.41577294921875,-62.80995178222656,-14.265533447265625,101.64776611328125
1686424996148846800,11.425846923828125,-64.84808349609375,-13.968658447265625,102.57192993164062
1686424996158919000,11.4359189453125,-67.29603576660156,-13.7021484375,103.33941650390625
1686424996168991000,11.445990966796876,-69.67619323730469,-13.67974853515625,103.62174987792969
1686424996179063800,11.456063720703124,-70.86604309082031,-13.537261962890625,103.42146301269531
1686424996189137000,11.466136962890625,-71.91934204101562,-13.278366088867188,103.69146728515625
1686424996199210000,11.4762099609375,-71.8662109375,-13.33721923828125,103.77357482910156
1686424996209282800,11.48628271484375,-71.90095520019531,-13.672317504882812,104.12220764160156
1686424996219355000,11.49635498046875,-71.13893127441406,-13.608993530273438,104.41429138183594
1686424996229427700,11.506427734375,-70.57310485839844,-13.920639038085938,104.68467712402344
1686424996239501000,11.5165009765625,-70.01565551757812,-14.319091796875,104.46273803710938
1686424996249574000,11.526573974609375,-67.892333984375,-14.529541015625,105.16477966308594
1686424996259647700,11.536647705078124,-67.25733947753906,-14.881683349609375,104.87947082519531
1686424996269720800,11.546720947265625,-65.87348937988281,-14.588363647460938,104.65931701660156
1686424996279794000,11.5567939453125,-64.79954528808594,-14.509796142578125,104.84275817871094
1686424996289867000,11.566866943359376,-63.73583984375,-14.7904052734375,104.19075012207031
1686424996299938000,11.57693798828125,-63.2586669921875,-14.973281860351562,104.15541076660156
1686424996310009900,11.587009765625,-62.45527648925781,-15.203598022460938,103.42210388183594
1686424996320083000,11.5970830078125,-61.79383850097656,-15.366851806640625,103.05859375
1686424996330155000,11.607155029296875,-61.32337951660156,-15.3310546875,102.69363403320312
1686424996340227800,11.617227783203125,-60.306884765625,-15.398605346679688,102.08888244628906
1686424996350300000,11.6272998046875,-59.60760498046875,-15.269317626953125,102.09849548339844
1686424996360373000,11.637373046875,-58.28477478027344,-15.510498046875,101.51626586914062
1686424996370445000,11.647445068359374,-58.552490234375,-15.292587280273438,100.90103149414062
1686424996380518000,11.657517822265625,-57.26548767089844,-15.829437255859375,100.54469299316406
1686424996390591700,11.667591796875,-56.18846130371094,-16.174118041992188,99.609130859375
1686424996400664800,11.677664794921874,-54.07994079589844,-16.842910766601562,99.43598937988281
1686424996410738000,11.687738037109375,-52.24967956542969,-17.252517700195312,98.05302429199219
1686424996420810000,11.69781005859375,-51.08750915527344,-17.598541259765625,96.21841430664062
1686424996430883800,11.7078837890625,-49.33561706542969,-17.773834228515625,93.95086669921875
1686424996440957000,11.71795703125,-48.013427734375,-18.173095703125,91.40927124023438
1686424996451028700,11.72802880859375,-47.32072448730469,-18.273757934570312,88.12326049804688
1686424996461102000,11.73810205078125,-47.61137390136719,-18.126678466796875,86.35954284667969
1686424996471175000,11.7481748046875,-47.573577880859375,-18.044357299804688,86.37759399414062
1686424996481246000,11.758245849609375,-46.932830810546875,-18.030471801757812,86.89164733886719
1686424996491319000,11.768319091796876,-46.68280029296875,-18.17816162109375,87.93644714355469
1686424996501393000,11.778392822265625,-46.81327819824219,-18.38580322265625,89.10641479492188
1686424996511465000,11.78846484375,-46.671142578125,-18.86029052734375,90.3580322265625
1686424996521539000,11.7985390625,-47.219085693359375,-18.754714965820312,91.68965148925781
1686424996531612000,11.80861181640625,-47.96818542480469,-18.616729736328125,92.75328063964844
1686424996541684000,11.81868408203125,-47.865386962890625,-18.192550659179688,93.9234619140625
1686424996551756800,11.8287568359375,-48.61360168457031,-18.105682373046875,94.27586364746094
1686424996561831000,11.838830810546876,-48.69084167480469,-17.891845703125,94.85581970214844
1686424996571905000,11.848905029296875,-48.72053527832031,-18.205490112304688,95.3955078125
1686424996581976800,11.858976806640625,-49.31745910644531,-17.688583374023438,96.01020812988281
1686424996592050000,11.8690498046875,-49.80830383300781,-18.128738403320312,96.57905578613281
1686424996602122800,11.879122802734376,-50.1009521484375,-18.36126708984375,97.65948486328125
1686424996612198000,11.889197998046875,-49.93107604980469,-18.413101196289062,97.98255920410156
1686424996622273000,11.89927294921875,-50.02452087402344,-18.592803955078125,98.2435302734375
1686424996632345900,11.909345947265624,-49.76649475097656,-18.905487060546875,99.01689147949219
1686424996642419000,11.9194189453125,-49.67951965332031,-19.15924072265625,99.65496826171875
1686424996652493000,11.9294931640625,-49.93605041503906,-19.736068725585938,100.37222290039062
1686424996662566100,11.939566162109376,-49.637237548828125,-19.7362060546875,101.37333679199219
1686424996672639200,11.94963916015625,-49.79315185546875,-19.917877197265625,101.6055908203125
1686424996682712000,11.959712158203125,-50.0621337890625,-20.02362060546875,102.61036682128906
1686424996692783000,11.969783203125,-50.49591064453125,-20.319931030273438,103.26535034179688
1686424996702854100,11.979854248046875,-50.09623718261719,-20.788803100585938,103.71792602539062
1686424996712927000,11.989927001953125,-50.94340515136719,-20.495452880859375,104.06205749511719
1686424996723000000,12,-51.2198486328125,-20.842376708984375,104.59779357910156
1686424996733074000,12.010073974609375,-51.07440185546875,-20.72528076171875,104.86912536621094
1686424996743146200,12.020146240234375,-51.3544921875,-20.785369873046875,104.74417114257812
1686424996753219000,12.030218994140625,-51.22979736328125,-20.558258056640625,104.54316711425781
1686424996763292200,12.040292236328124,-51.57777404785156,-20.284347534179688,104.42864990234375
1686424996773362200,12.050362060546876,-51.427490234375,-19.9581298828125,103.77206420898438
1686424996783433000,12.060432861328126,-51.1038818359375,-19.988082885742188,104.02432250976562
1686424996793506000,12.070506103515624,-51.53254699707031,-19.870132446289062,103.48143005371094
1686424996803579100,12.0805791015625,-51.62934875488281,-19.563125610351562,103.32756042480469
1686424996813653000,12.090653076171876,-52.108856201171875,-18.981475830078125,102.75233459472656
1686424996823725000,12.10072509765625,-51.77824401855469,-19.074783325195312,102.30929565429688
1686424996833799200,12.110799072265625,-51.846832275390625,-18.632858276367188,101.90359497070312
1686424996843872000,12.1208720703125,-51.7642822265625,-18.514419555664062,101.310791015625
1686424996853945900,12.13094580078125,-51.785247802734375,-18.271499633789062,100.93635559082031
1686424996864019200,12.141019287109375,-51.671630859375,-17.850189208984375,100.2386474609375
1686424996874091300,12.15109130859375,-52.2396240234375,-17.603652954101562,99.44895935058594
1686424996884164000,12.1611640625,-51.82115173339844,-17.297439575195312,98.5711669921875
1686424996894236200,12.171236083984375,-52.0887451171875,-17.158035278320312,98.27088928222656
1686424996904308000,12.181307861328126,-51.83088684082031,-16.623397827148438,97.52871704101562
1686424996914380000,12.191380126953124,-52.36289978027344,-16.451919555664062,97.0343017578125
1686424996924451000,12.201451171875,-52.1414794921875,-16.006240844726562,96.82310485839844
1686424996934525000,12.21152490234375,-52.601593017578125,-15.6732177734375,96.06927490234375
1686424996944598000,12.221597900390625,-53.40257263183594,-15.072433471679688,95.26927185058594
1686424996954672000,12.231672119140624,-54.00018310546875,-14.66741943359375,94.61683654785156
1686424996964745000,12.241744873046875,-54.81730651855469,-13.966522216796875,94.220703125
1686424996974817000,12.251817138671875,-55.2254638671875,-13.68121337890625,94.03973388671875
1686424996984891100,12.26189111328125,-56.9190673828125,-12.70166015625,94.04745483398438
1686424996994965000,12.271965087890624,-59.03802490234375,-12.131912231445312,94.59768676757812
1686424997005037000,12.282037109375,-60.929840087890625,-11.510391235351562,94.91569519042969
1686424997015110000,12.29210986328125,-64.00624084472656,-11.104827880859375,95.43721008300781
1686424997025183000,12.302182861328125,-66.18374633789062,-10.546157836914062,96.17155456542969
1686424997035257000,12.312257080078124,-67.21507263183594,-10.573455810546875,96.21157836914062
1686424997045330000,12.322329833984375,-67.12765502929688,-10.425506591796875,96.34346008300781
1686424997055403000,12.332403076171875,-66.28785705566406,-10.829879760742188,96.23942565917969
1686424997065478100,12.34247802734375,-64.92405700683594,-11.248870849609375,96.28973388671875
1686424997075551000,12.352551025390625,-63.83473205566406,-11.4248046875,96.01750183105469
1686424997085623000,12.362623046875,-62.152099609375,-11.666168212890625,95.82234191894531
1686424997095697200,12.372697265625,-61.037353515625,-12.285980224609375,95.92391967773438
1686424997105770000,12.38277001953125,-59.38685607910156,-12.655487060546875,95.70700073242188
1686424997115843000,12.392843017578125,-59.0487060546875,-13.113021850585938,95.89213562011719
1686424997125916000,12.402916015625,-57.827056884765625,-13.160140991210938,95.94854736328125
1686424997135988000,12.412988037109375,-56.92668151855469,-13.556915283203125,95.84503173828125
1686424997146060000,12.42306005859375,-56.19950866699219,-13.797103881835938,96.18350219726562
1686424997156132000,12.433132080078124,-56.392181396484375,-13.999908447265625,96.96055603027344
1686424997166205200,12.443205078125,-56.44261169433594,-14.344161987304688,97.41755676269531
1686424997176276000,12.45327587890625,-57.01789855957031,-14.432052612304688,97.73838806152344
1686424997186348000,12.46334814453125,-57.937744140625,-14.426437377929688,98.84947204589844
1686424997196419800,12.473419921875,-59.27571105957031,-14.260955810546875,99.7137451171875
1686424997206489000,12.483489013671875,-61.69221496582031,-13.964553833007812,100.70123291015625
1686424997216563000,12.49356298828125,-63.29792785644531,-13.580490112304688,101.30220031738281
1686424997226636300,12.50363623046875,-65.11143493652344,-13.39013671875,101.89668273925781
1686424997236708000,12.5137080078125,-66.87393188476562,-13.17572021484375,102.27943420410156
1686424997246780200,12.5237802734375,-68.12794494628906,-13.131698608398438,102.47296142578125
1686424997256853000,12.53385302734375,-69.08477783203125,-13.253463745117188,102.65232849121094
1686424997266925000,12.543925048828125,-68.809814453125,-13.274795532226562,103.15034484863281
1686424997276996000,12.55399609375,-68.51028442382812,-13.608840942382812,103.4561767578125
1686424997287068200,12.564068115234376,-68.17430114746094,-13.479782104492188,103.83412170410156
1686424997297142000,12.57414208984375,-67.29609680175781,-14.069931030273438,103.78495788574219
1686424997307216100,12.584216064453125,-65.9932861328125,-14.700775146484375,104.01179504394531
1686424997317288200,12.5942880859375,-64.88302612304688,-14.690414428710938,104.55940246582031
1686424997327361000,12.604361083984376,-63.55474853515625,-14.7318115234375,104.05628967285156
1686424997337434000,12.61443408203125,-62.72364807128906,-15.169082641601562,104.04409790039062
1686424997347506000,12.624505859375,-61.8052978515625,-15.398513793945312,104.09251403808594
1686424997357579000,12.6345791015625,-61.06282043457031,-15.553451538085938,103.00679016113281
1686424997367652000,12.644652099609376,-60.25694274902344,-15.391937255859375,102.97726440429688
1686424997377725200,12.65472509765625,-59.406707763671875,-15.878448486328125,102.37608337402344
1686424997387797000,12.664796875,-58.957000732421875,-15.492095947265625,101.92048645019531
1686424997397869000,12.674869140625,-58.381378173828125,-15.8385009765625,101.55853271484375
1686424997407943000,12.68494287109375,-57.726318359375,-15.765411376953125,101.21139526367188
1686424997418016000,12.69501611328125,-57.11744689941406,-15.576416015625,100.60586547851562
1686424997428089000,12.705089111328125,-56.65583801269531,-16.038787841796875,100.60939025878906
1686424997438162200,12.715162109375,-55.91941833496094,-16.145462036132812,100.73988342285156
1686424997448235000,12.725235107421875,-55.90892028808594,-16.167495727539062,100.52987670898438
1686424997458309000,12.73530908203125,-54.75146484375,-16.627243041992188,99.67198181152344
1686424997468382200,12.74538232421875,-53.179901123046875,-16.830612182617188,99.11259460449219
1686424997478456000,12.7554560546875,-51.32969665527344,-17.377532958984375,97.80648803710938
1686424997488529000,12.76552880859375,-49.704132080078125,-18.130889892578125,95.60794067382812
1686424997498601000,12.77560107421875,-48.36979675292969,-18.533767700195312,93.74604797363281
1686424997508676000,12.785676025390625,-46.872406005859375,-18.716537475585938,90.81573486328125
1686424997518749000,12.7957490234375,-46.907562255859375,-18.92852783203125,88.72953796386719
1686424997528822300,12.805822265625,-45.89849853515625,-18.98809814453125,87.78854370117188
1686424997538893000,12.81589306640625,-45.78385925292969,-19.14385986328125,88.64682006835938
1686424997548966100,12.825966064453125,-46.02032470703125,-19.201095581054688,89.958251953125
1686424997559039200,12.836039306640625,-46.85212707519531,-19.412567138671875,91.07957458496094
1686424997569111000,12.846111083984376,-46.844818115234375,-18.937393188476562,92.16567993164062
1686424997579184000,12.85618408203125,-48.07078552246094,-19.049209594726562,93.82632446289062
1686424997589257000,12.866257080078125,-48.29473876953125,-18.680999755859375,94.72161865234375
1686424997599330300,12.876330322265625,-48.67521667480469,-18.543060302734375,95.49761962890625
1686424997609402000,12.886402099609375,-49.633636474609375,-18.932937622070312,96.31182861328125
1686424997619474200,12.89647412109375,-49.8436279296875,-18.926361083984375,97.30908203125
1686424997629544000,12.9065439453125,-49.70063781738281,-18.860763549804688,97.65888977050781
1686424997639616000,12.916615966796876,-50.30488586425781,-19.149200439453125,98.23828125
1686424997649688800,12.926688720703124,-50.79933166503906,-18.893936157226562,98.97418212890625
1686424997659762200,12.93676220703125,-50.32084655761719,-19.299758911132812,99.53761291503906
1686424997669835000,12.9468349609375,-50.573822021484375,-19.503555297851562,100.18711853027344
1686424997679907000,12.956906982421875,-50.55198669433594,-19.952117919921875,100.83796691894531
1686424997689979100,12.966979248046876,-50.07002258300781,-20.198379516601562,101.19395446777344
