time,seconds_elapsed,z,y,x
1686445601753488400,0.13648828125,-0.577789306640625,0.01470947265625,0.8098602294921875
1686445601763505200,0.146505126953125,-0.5745086669921875,0.0131683349609375,0.8125762939453125
1686445601773521200,0.156521240234375,-0.5749969482421875,0.0108489990234375,0.817108154296875
1686445601783538200,0.1665380859375,-0.58001708984375,0.0118408203125,0.8234405517578125
1686445601793555700,0.1765556640625,-0.58563232421875,0.01458740234375,0.827545166015625
1686445601803573000,0.186572998046875,-0.585174560546875,0.0168304443359375,0.828765869140625
1686445601813589800,0.19658984375,-0.5802459716796875,0.017120361328125,0.8288421630859375
1686445601823606800,0.206606689453125,-0.57855224609375,0.013214111328125,0.8320770263671875
1686445601833623800,0.216623779296875,-0.579071044921875,0.0070037841796875,0.833343505859375
1686445601843640800,0.226640869140625,-0.5785675048828125,0.0032806396484375,0.832855224609375
1686445601853657600,0.23665771484375,-0.578521728515625,0.0024566650390625,0.83160400390625
1686445601863675000,0.2466748046875,-0.5760498046875,0.005401611328125,0.8296661376953125
1686445601873691000,0.25669091796875,-0.5705718994140625,0.0095367431640625,0.8287811279296875
1686445601883707600,0.266707763671875,-0.56048583984375,0.0135345458984375,0.8277587890625
1686445601893725000,0.276724853515625,-0.5506591796875,0.0175323486328125,0.8289794921875
1686445601903742000,0.286741943359375,-0.5464935302734375,0.0180816650390625,0.8315887451171875
1686445601913758700,0.2967587890625,-0.5408477783203125,0.017913818359375,0.8377532958984375
1686445601923776000,0.30677587890625,-0.5312652587890625,0.019256591796875,0.8425750732421875
1686445601933792800,0.316792724609375,-0.518829345703125,0.0202178955078125,0.8455810546875
1686445601943809800,0.326809814453125,-0.506195068359375,0.0207977294921875,0.8463592529296875
1686445601953826800,0.336826904296875,-0.5004119873046875,0.019256591796875,0.8447723388671875
1686445601963843800,0.34684375,-0.506591796875,0.015625,0.8348846435546875
1686445601973859800,0.35685986328125,-0.51702880859375,0.0136260986328125,0.8235015869140625
1686445601983876600,0.366876708984375,-0.5261077880859375,0.013427734375,0.818328857421875
1686445601993894000,0.376893798828125,-0.5352935791015625,0.018524169921875,0.8181915283203125
1686445602003910700,0.38691064453125,-0.5425262451171875,0.025543212890625,0.8234710693359375
1686445602013928000,0.396927978515625,-0.5436859130859375,0.026763916015625,0.83184814453125
1686445602023945000,0.406945068359375,-0.5384674072265625,0.0235595703125,0.8370819091796875
1686445602033961700,0.416961669921875,-0.5328369140625,0.021331787109375,0.8332977294921875
1686445602043979000,0.42697900390625,-0.5279388427734375,0.0196533203125,0.8321990966796875
1686445602053995800,0.436995849609375,-0.53070068359375,0.0224151611328125,0.833343505859375
1686445602064012800,0.4470126953125,-0.5345306396484375,0.024993896484375,0.833221435546875
1686445602074028800,0.45702880859375,-0.5380096435546875,0.0249481201171875,0.832489013671875
1686445602084045800,0.4670458984375,-0.541656494140625,0.025390625,0.833160400390625
1686445602094062800,0.477062744140625,-0.543487548828125,0.0254364013671875,0.83514404296875
1686445602104079600,0.48707958984375,-0.5457000732421875,0.0240936279296875,0.8366241455078125
1686445602114097000,0.497096923828125,-0.548431396484375,0.02166748046875,0.8391876220703125
1686445602124114000,0.507114013671875,-0.5504913330078125,0.0187225341796875,0.8418121337890625
1686445602134130700,0.517130615234375,-0.5537872314453125,0.01611328125,0.843353271484375
1686445602144148000,0.52714794921875,-0.5551910400390625,0.014923095703125,0.8443756103515625
1686445602154164700,0.537164794921875,-0.55645751953125,0.0130615234375,0.8448944091796875
1686445602164181800,0.547181640625,-0.557952880859375,0.012298583984375,0.8429718017578125
1686445602174198000,0.557197998046875,-0.55810546875,0.0115966796875,0.842559814453125
1686445602184214800,0.56721484375,-0.5581817626953125,0.01275634765625,0.8423614501953125
1686445602194231800,0.577231689453125,-0.5587158203125,0.0149993896484375,0.8413238525390625
1686445602204248800,0.587248779296875,-0.556396484375,0.019134521484375,0.83984375
1686445602214265900,0.597265869140625,-0.5518646240234375,0.023651123046875,0.8389434814453125
1686445602224282600,0.60728271484375,-0.54736328125,0.0239410400390625,0.839508056640625
1686445602234300000,0.6172998046875,-0.543853759765625,0.0243072509765625,0.8397064208984375
1686445602244317000,0.62731689453125,-0.541534423828125,0.02545166015625,0.8395233154296875
1686445602254333700,0.637333740234375,-0.541748046875,0.0246734619140625,0.838653564453125
1686445602264351000,0.64735107421875,-0.5417327880859375,0.0224151611328125,0.8381195068359375
1686445602274367000,0.657366943359375,-0.543212890625,0.0190277099609375,0.832000732421875
1686445602284383700,0.6673837890625,-0.54315185546875,0.0194091796875,0.827301025390625
1686445602294401000,0.677401123046875,-0.5429840087890625,0.020172119140625,0.8248291015625
1686445602304417800,0.687417724609375,-0.544586181640625,0.01959228515625,0.8210296630859375
1686445602314434800,0.697434814453125,-0.5459442138671875,0.01837158203125,0.8194732666015625
1686445602324451800,0.707451904296875,-0.54498291015625,0.01666259765625,0.8204345703125
1686445602334468900,0.71746875,-0.545928955078125,0.0166168212890625,0.8218231201171875
1686445602344485600,0.727485595703125,-0.54754638671875,0.0181121826171875,0.824859619140625
1686445602354503000,0.7375029296875,-0.547943115234375,0.02008056640625,0.8271942138671875
1686445602364520000,0.74752001953125,-0.5478668212890625,0.0203399658203125,0.83074951171875
1686445602374535700,0.75753564453125,-0.54840087890625,0.018341064453125,0.8305816650390625
1686445602384552700,0.767552734375,-0.5486602783203125,0.015716552734375,0.830535888671875
1686445602394570000,0.777570068359375,-0.5482330322265625,0.014862060546875,0.831817626953125
1686445602404586800,0.787586669921875,-0.5481719970703125,0.01458740234375,0.8304595947265625
1686445602414603800,0.797603759765625,-0.5493316650390625,0.0164642333984375,0.8307647705078125
1686445602424620800,0.807620849609375,-0.553253173828125,0.018280029296875,0.8321075439453125
1686445602434637800,0.817637939453125,-0.5537567138671875,0.021942138671875,0.83477783203125
1686445602444654800,0.82765478515625,-0.556671142578125,0.0258941650390625,0.83929443359375
1686445602454672000,0.837671875,-0.557098388671875,0.02886962890625,0.841796875
1686445602464689000,0.84768896484375,-0.5565338134765625,0.0297393798828125,0.845001220703125
1686445602474706000,0.857705810546875,-0.55499267578125,0.0281982421875,0.8472137451171875
1686445602484722000,0.867721923828125,-0.553741455078125,0.0270843505859375,0.846588134765625
1686445602494739000,0.877739013671875,-0.5520782470703125,0.0273284912109375,0.8441925048828125
1686445602504755700,0.887755615234375,-0.548858642578125,0.0273895263671875,0.8423309326171875
1686445602514773000,0.89777294921875,-0.549072265625,0.027008056640625,0.8391265869140625
1686445602524789800,0.907789794921875,-0.549530029296875,0.029693603515625,0.8348846435546875
1686445602534806800,0.917806884765625,-0.548614501953125,0.03155517578125,0.834014892578125
1686445602544823800,0.92782373046875,-0.5505523681640625,0.0347442626953125,0.8341064453125
1686445602554840800,0.9378408203125,-0.5512847900390625,0.0332489013671875,0.8358001708984375
1686445602564857600,0.947857666015625,-0.552520751953125,0.024078369140625,0.836151123046875
1686445602574875000,0.957875,-0.5534210205078125,0.0157012939453125,0.829315185546875
1686445602584891000,0.967890869140625,-0.5543975830078125,0.012359619140625,0.8247222900390625
1686445602594907600,0.97790771484375,-0.55291748046875,0.013275146484375,0.823486328125
1686445602604925000,0.987925048828125,-0.551910400390625,0.0118255615234375,0.824066162109375
1686445602614942000,0.99794189453125,-0.549407958984375,0.0078582763671875,0.8242034912109375
1686445602624958700,1.007958740234375,-0.5507965087890625,0.00775146484375,0.8264007568359375
1686445602634976000,1.01797607421875,-0.555328369140625,0.010284423828125,0.83087158203125
1686445602644992800,1.02799267578125,-0.5592498779296875,0.01617431640625,0.83441162109375
1686445602655009800,1.038009765625,-0.5592498779296875,0.0229034423828125,0.8370819091796875
1686445602665026800,1.04802685546875,-0.5559234619140625,0.028411865234375,0.836761474609375
1686445602675043800,1.0580439453125,-0.55389404296875,0.0313262939453125,0.8316650390625
1686445602685059800,1.068059814453125,-0.549774169921875,0.032989501953125,0.828582763671875
1686445602695076600,1.07807666015625,-0.5482177734375,0.03228759765625,0.828277587890625
1686445602705094000,1.088093994140625,-0.5475921630859375,0.0295257568359375,0.828521728515625
1686445602715110700,1.098110595703125,-0.547637939453125,0.024169921875,0.83099365234375
1686445602725128000,1.1081279296875,-0.5480804443359375,0.017425537109375,0.83154296875
1686445602735145000,1.11814501953125,-0.5539093017578125,0.02020263671875,0.8282928466796875
1686445602745161700,1.12816162109375,-0.55743408203125,0.0228729248046875,0.8321075439453125
1686445602755179000,1.138178955078125,-0.5595245361328125,0.0211944580078125,0.8311309814453125
1686445602765195800,1.14819580078125,-0.562835693359375,0.017913818359375,0.8274078369140625
1686445602775212800,1.158212890625,-0.5637969970703125,0.0155029296875,0.824249267578125
1686445602785228800,1.168228759765625,-0.56341552734375,0.015533447265625,0.82305908203125
1686445602795245600,1.17824560546875,-0.5628204345703125,0.017669677734375,0.82501220703125
1686445602805262600,1.1882626953125,-0.561614990234375,0.0218353271484375,0.8275604248046875
1686445602815279400,1.198279296875,-0.5610504150390625,0.0263519287109375,0.83148193359375
1686445602825296600,1.208296630859375,-0.56005859375,0.027374267578125,0.83575439453125
1686445602835313700,1.218313720703125,-0.558807373046875,0.0268707275390625,0.8372802734375
1686445602845330400,1.228330322265625,-0.55926513671875,0.0241241455078125,0.837921142578125
1686445602855347700,1.23834765625,-0.559814453125,0.0216522216796875,0.8361053466796875
1686445602865364500,1.248364501953125,-0.5589447021484375,0.0197296142578125,0.8345489501953125
1686445602875381500,1.258381591796875,-0.5592498779296875,0.0207061767578125,0.8315887451171875
1686445602885397800,1.268397705078125,-0.5581207275390625,0.0218353271484375,0.83050537109375
1686445602895414500,1.27841455078125,-0.556854248046875,0.0216064453125,0.830718994140625
1686445602905431600,1.288431640625,-0.555389404296875,0.0204620361328125,0.8286895751953125
1686445602915448600,1.298448486328125,-0.55474853515625,0.020263671875,0.825592041015625
1686445602925465600,1.308465576171875,-0.554290771484375,0.019744873046875,0.825653076171875
1686445602935482600,1.318482666015625,-0.554779052734375,0.018707275390625,0.827423095703125
1686445602945499600,1.328499755859375,-0.5507659912109375,0.0188140869140625,0.8284149169921875
1686445602955516700,1.3385166015625,-0.5488433837890625,0.0186004638671875,0.829498291015625
1686445602965533400,1.348533447265625,-0.54736328125,0.018829345703125,0.8318023681640625
1686445602975550700,1.35855078125,-0.5470428466796875,0.01824951171875,0.82916259765625
1686445602985566700,1.368566650390625,-0.5483551025390625,0.018310546875,0.8277740478515625
1686445602995583500,1.37858349609375,-0.5512847900390625,0.019805908203125,0.8272247314453125
1686445603005600800,1.388600830078125,-0.5535430908203125,0.0212860107421875,0.8250885009765625
1686445603015617500,1.398617431640625,-0.556396484375,0.0233917236328125,0.8260345458984375
1686445603025634600,1.408634521484375,-0.5565643310546875,0.022003173828125,0.8256683349609375
1686445603035651600,1.418651611328125,-0.5585174560546875,0.020355224609375,0.8256378173828125
1686445603045668600,1.428668701171875,-0.560394287109375,0.01885986328125,0.8251953125
1686445603055685600,1.438685546875,-0.560455322265625,0.0150146484375,0.82421875
1686445603065702700,1.44870263671875,-0.5603485107421875,0.0122528076171875,0.8211822509765625
1686445603075719700,1.4587197265625,-0.5603790283203125,0.0122528076171875,0.8202056884765625
1686445603085735700,1.468735595703125,-0.5610809326171875,0.01324462890625,0.820220947265625
1686445603095752400,1.47875244140625,-0.563568115234375,0.014862060546875,0.820953369140625
1686445603105769700,1.488769775390625,-0.5643768310546875,0.0166473388671875,0.82293701171875
1686445603115786500,1.498786376953125,-0.5660400390625,0.016571044921875,0.8248748779296875
1686445603125803500,1.508803466796875,-0.5676727294921875,0.0163726806640625,0.8269805908203125
1686445603135820500,1.518820556640625,-0.5699310302734375,0.0164947509765625,0.828521728515625
1686445603145837600,1.528837646484375,-0.5705718994140625,0.0168914794921875,0.827911376953125
1686445603155854300,1.538854248046875,-0.56842041015625,0.016571044921875,0.8236541748046875
1686445603165871600,1.54887158203125,-0.5643157958984375,0.015838623046875,0.8245849609375
1686445603175887600,1.5588876953125,-0.562164306640625,0.0168304443359375,0.8282623291015625
1686445603185904400,1.568904296875,-0.5588531494140625,0.0179290771484375,0.829620361328125
1686445603195921700,1.578921630859375,-0.5568389892578125,0.01715087890625,0.8293914794921875
1686445603205938700,1.588938720703125,-0.5565948486328125,0.015533447265625,0.8294219970703125
1686445603215955500,1.59895556640625,-0.55718994140625,0.0168914794921875,0.8296661376953125
1686445603225972700,1.60897265625,-0.5564422607421875,0.0198822021484375,0.8316497802734375
1686445603235989500,1.618989501953125,-0.554840087890625,0.0201873779296875,0.8313446044921875
1686445603246006500,1.629006591796875,-0.5542755126953125,0.0204315185546875,0.8308258056640625
1686445603256023600,1.6390234375,-0.553070068359375,0.0201416015625,0.8300628662109375
1686445603266040600,1.64904052734375,-0.5525054931640625,0.0198211669921875,0.829193115234375
1686445603276057600,1.6590576171875,-0.5520782470703125,0.020477294921875,0.8272552490234375
1686445603286073600,1.669073486328125,-0.5515289306640625,0.0209503173828125,0.826568603515625
1686445603296090600,1.679090576171875,-0.5523529052734375,0.0202484130859375,0.825927734375
1686445603306107600,1.689107666015625,-0.5532379150390625,0.018798828125,0.826751708984375
1686445603316124700,1.699124755859375,-0.5528564453125,0.01708984375,0.8267669677734375
1686445603326141700,1.7091416015625,-0.5540008544921875,0.0181121826171875,0.828399658203125
1686445603336158500,1.719158447265625,-0.554595947265625,0.01824951171875,0.8293914794921875
1686445603346175700,1.72917578125,-0.5574493408203125,0.017547607421875,0.8283233642578125
1686445603356192500,1.739192626953125,-0.560150146484375,0.0181732177734375,0.8266448974609375
1686445603366209500,1.74920947265625,-0.5616455078125,0.0176849365234375,0.827301025390625
1686445603376226600,1.7592265625,-0.563140869140625,0.0172271728515625,0.8277130126953125
1686445603386242600,1.76924267578125,-0.5648193359375,0.0172119140625,0.827606201171875
1686445603396259600,1.779259521484375,-0.5653076171875,0.017669677734375,0.8276519775390625
1686445603406276400,1.7892763671875,-0.566558837890625,0.0173797607421875,0.82696533203125
1686445603416293600,1.799293701171875,-0.56640625,0.0172576904296875,0.8277740478515625
1686445603426310700,1.809310546875,-0.5664825439453125,0.016815185546875,0.82708740234375
1686445603436327400,1.819327392578125,-0.5645751953125,0.0166473388671875,0.8255615234375
1686445603446344700,1.8293447265625,-0.564361572265625,0.0170135498046875,0.8260345458984375
1686445603456361500,1.839361572265625,-0.5621337890625,0.018951416015625,0.82421875
1686445603466378800,1.849378662109375,-0.560638427734375,0.0190582275390625,0.825042724609375
1686445603476395500,1.8593955078125,-0.5571746826171875,0.0191192626953125,0.8250732421875
1686445603486411500,1.86941162109375,-0.556915283203125,0.0184783935546875,0.826080322265625
1686445603496428500,1.879428466796875,-0.5565185546875,0.0172271728515625,0.825714111328125
1686445603506445600,1.889445556640625,-0.5575103759765625,0.01605224609375,0.8252105712890625
1686445603516462600,1.899462646484375,-0.5592193603515625,0.014984130859375,0.826324462890625
1686445603526479400,1.909479248046875,-0.5594482421875,0.0160980224609375,0.82598876953125
1686445603536496600,1.91949658203125,-0.559600830078125,0.017730712890625,0.826263427734375
1686445603546513700,1.929513671875,-0.5571136474609375,0.01849365234375,0.8264007568359375
1686445603556530400,1.939530517578125,-0.553070068359375,0.0198516845703125,0.827484130859375
1686445603566547700,1.949547607421875,-0.5518035888671875,0.0203704833984375,0.828094482421875
1686445603576564500,1.959564453125,-0.5515289306640625,0.0192413330078125,0.829376220703125
1686445603586580500,1.96958056640625,-0.552398681640625,0.0195465087890625,0.8304443359375
1686445603596597800,1.97959765625,-0.555999755859375,0.018310546875,0.829559326171875
1686445603606614500,1.989614501953125,-0.5590667724609375,0.0176849365234375,0.8288421630859375
1686445603616631600,1.999631591796875,-0.562042236328125,0.0178680419921875,0.8277740478515625
1686445603626648600,2.009648681640625,-0.563232421875,0.018646240234375,0.8282318115234375
1686445603636665600,2.01966552734375,-0.563629150390625,0.0199432373046875,0.8275604248046875
1686445603646682600,2.0296826171875,-0.561676025390625,0.0210418701171875,0.8275299072265625
1686445603656699600,2.03969970703125,-0.5596923828125,0.0211181640625,0.8267822265625
1686445603666716700,2.049716552734375,-0.559539794921875,0.0210418701171875,0.82855224609375
1686445603676733400,2.0597333984375,-0.558563232421875,0.0201263427734375,0.8292388916015625
1686445603686749400,2.06974951171875,-0.5569915771484375,0.0181732177734375,0.8290863037109375
1686445603696766700,2.0797666015625,-0.5593719482421875,0.015594482421875,0.82855224609375
1686445603706783500,2.089783447265625,-0.5609893798828125,0.0152587890625,0.827178955078125
1686445603716800800,2.09980078125,-0.5634765625,0.01654052734375,0.8282623291015625
1686445603726817500,2.109817626953125,-0.5656280517578125,0.018798828125,0.8291473388671875
1686445603736834600,2.11983447265625,-0.5642852783203125,0.0214691162109375,0.8275299072265625
1686445603746851600,2.1298515625,-0.561859130859375,0.0225830078125,0.825286865234375
1686445603756868600,2.13986865234375,-0.5601043701171875,0.021759033203125,0.8233184814453125
1686445603766885600,2.1498857421875,-0.5579071044921875,0.0193634033203125,0.8235626220703125
1686445603776902700,2.159902587890625,-0.558868408203125,0.0178070068359375,0.82342529296875
1686445603786917600,2.169917724609375,-0.5594482421875,0.016448974609375,0.8239898681640625
1686445603796935000,2.179934814453125,-0.5586090087890625,0.0147857666015625,0.823638916015625
1686445603806951700,2.18995166015625,-0.55767822265625,0.0144195556640625,0.82568359375
1686445603816968700,2.19996875,-0.5604705810546875,0.0169219970703125,0.8267822265625
1686445603826985700,2.20998583984375,-0.5618133544921875,0.0193939208984375,0.82769775390625
1686445603837002800,2.220002685546875,-0.5612030029296875,0.0217132568359375,0.825714111328125
1686445603847019800,2.230019775390625,-0.5605010986328125,0.0233612060546875,0.82366943359375
1686445603857036800,2.240036865234375,-0.55926513671875,0.0217437744140625,0.8233184814453125
1686445603867053800,2.2500537109375,-0.55938720703125,0.02154541015625,0.824554443359375
1686445603877069800,2.26006982421875,-0.559844970703125,0.022247314453125,0.82562255859375
1686445603887086600,2.270086669921875,-0.56048583984375,0.021270751953125,0.82586669921875
1686445603897104000,2.280103759765625,-0.5607757568359375,0.0198211669921875,0.8259429931640625
1686445603907120600,2.29012060546875,-0.5622711181640625,0.0183868408203125,0.8276824951171875
1686445603917137700,2.3001376953125,-0.564056396484375,0.017364501953125,0.8287506103515625
1686445603927154700,2.31015478515625,-0.5665130615234375,0.0179443359375,0.83013916015625
1686445603937171700,2.320171630859375,-0.56622314453125,0.0185546875,0.8292694091796875
1686445603947188700,2.330188720703125,-0.5640716552734375,0.020263671875,0.82940673828125
1686445603957205800,2.340205810546875,-0.562164306640625,0.0201416015625,0.8297576904296875
1686445603967222800,2.350222900390625,-0.5616912841796875,0.019134521484375,0.828338623046875
1686445603977238500,2.360238525390625,-0.56048583984375,0.0194549560546875,0.8263702392578125
1686445603987255800,2.370255859375,-0.55865478515625,0.019927978515625,0.82525634765625
1686445603997272800,2.38027294921875,-0.5569610595703125,0.019775390625,0.826416015625
1686445604007289600,2.39028955078125,-0.557098388671875,0.0209197998046875,0.825836181640625
1686445604017307000,2.400306884765625,-0.557769775390625,0.020233154296875,0.8261566162109375
1686445604027323600,2.41032373046875,-0.5587158203125,0.020477294921875,0.8247833251953125
1686445604037340700,2.420340576171875,-0.559906005859375,0.0207977294921875,0.8240509033203125
1686445604047357700,2.430357666015625,-0.5614166259765625,0.0211639404296875,0.8237762451171875
1686445604057374700,2.440374755859375,-0.5606536865234375,0.020599365234375,0.8235321044921875
1686445604067391700,2.450391845703125,-0.5612945556640625,0.0204620361328125,0.822357177734375
1686445604077408800,2.46040869140625,-0.561981201171875,0.0201873779296875,0.822784423828125
1686445604087424800,2.4704248046875,-0.561370849609375,0.02020263671875,0.82196044921875
1686445604097441800,2.48044189453125,-0.5608673095703125,0.01934814453125,0.822235107421875
1686445604107458800,2.490458740234375,-0.5609588623046875,0.0195465087890625,0.8240203857421875
1686445604117475800,2.500475830078125,-0.560760498046875,0.02001953125,0.824188232421875
1686445604127492600,2.51049267578125,-0.5607452392578125,0.0203857421875,0.8246002197265625
1686445604137510000,2.520510009765625,-0.5607757568359375,0.020294189453125,0.8246307373046875
1686445604147526700,2.530526611328125,-0.562225341796875,0.0203857421875,0.8263092041015625
1686445604157543700,2.540543701171875,-0.563446044921875,0.019989013671875,0.825775146484375
1686445604167560700,2.550560791015625,-0.5634918212890625,0.02001953125,0.826141357421875
1686445604177577700,2.56057763671875,-0.563690185546875,0.0201873779296875,0.8270416259765625
1686445604187593700,2.57059375,-0.564910888671875,0.0198211669921875,0.82757568359375
1686445604197610800,2.58061083984375,-0.5649566650390625,0.02008056640625,0.8291473388671875
1686445604207627800,2.590627685546875,-0.56427001953125,0.0212860107421875,0.831451416015625
1686445604217644800,2.600644775390625,-0.5638885498046875,0.0222930908203125,0.830963134765625
1686445604227661800,2.610661865234375,-0.562469482421875,0.0201263427734375,0.8286895751953125
1686445604237678800,2.620678955078125,-0.56097412109375,0.0194244384765625,0.8256683349609375
1686445604247695600,2.630695556640625,-0.5609588623046875,0.018524169921875,0.8238372802734375
1686445604257713000,2.640712890625,-0.560760498046875,0.01837158203125,0.8219757080078125
1686445604267729700,2.650729736328125,-0.562103271484375,0.01904296875,0.8212127685546875
1686445604277745700,2.66074560546875,-0.5612945556640625,0.0193939208984375,0.8232574462890625
1686445604287762700,2.6707626953125,-0.561859130859375,0.02020263671875,0.8256072998046875
1686445604297779700,2.68077978515625,-0.56365966796875,0.0210113525390625,0.8256072998046875
1686445604307796700,2.690796630859375,-0.5621490478515625,0.0225372314453125,0.8273773193359375
1686445604317813800,2.700813720703125,-0.5629730224609375,0.0225830078125,0.8277130126953125
1686445604327830800,2.710830810546875,-0.564178466796875,0.02276611328125,0.8273773193359375
1686445604337847800,2.720847900390625,-0.56378173828125,0.02166748046875,0.826507568359375
1686445604347864600,2.730864501953125,-0.5619049072265625,0.0216827392578125,0.82318115234375
1686445604357881900,2.7408818359375,-0.56121826171875,0.0216217041015625,0.8222198486328125
1686445604367898600,2.750898681640625,-0.5598602294921875,0.022430419921875,0.821746826171875
1686445604377914600,2.76091455078125,-0.5589141845703125,0.0214691162109375,0.822784423828125
1686445604387932000,2.770931884765625,-0.558837890625,0.0203399658203125,0.8238983154296875
1686445604397948700,2.78094873046875,-0.5601043701171875,0.0207672119140625,0.8242034912109375
1686445604407965700,2.790965576171875,-0.56158447265625,0.019561767578125,0.824737548828125
1686445604417982700,2.800982666015625,-0.5621185302734375,0.0186920166015625,0.8240203857421875
1686445604427999700,2.810999755859375,-0.5616912841796875,0.01763916015625,0.824554443359375
1686445604438016800,2.821016845703125,-0.5615692138671875,0.0192718505859375,0.82513427734375
1686445604448033800,2.83103369140625,-0.5623321533203125,0.0202484130859375,0.8258819580078125
1686445604458050800,2.84105078125,-0.5623779296875,0.02001953125,0.8252410888671875
1686445604468067600,2.851067626953125,-0.5631103515625,0.019744873046875,0.825897216796875
1686445604478083800,2.861083740234375,-0.5648345947265625,0.020477294921875,0.826446533203125
1686445604488100900,2.871100830078125,-0.5653228759765625,0.0211029052734375,0.825347900390625
1686445604498117600,2.88111767578125,-0.5655517578125,0.021514892578125,0.82550048828125
1686445604508135000,2.891135009765625,-0.563995361328125,0.02117919921875,0.82647705078125
1686445604518151700,2.901151611328125,-0.5643768310546875,0.0204620361328125,0.8263092041015625
1686445604528168700,2.911168701171875,-0.563262939453125,0.019805908203125,0.8253326416015625
1686445604538185700,2.921185791015625,-0.5634002685546875,0.0208740234375,0.825531005859375
1686445604548202800,2.93120263671875,-0.562835693359375,0.0209808349609375,0.8262176513671875
1686445604558219800,2.9412197265625,-0.5612640380859375,0.0203704833984375,0.82611083984375
1686445604568236800,2.95123681640625,-0.5593414306640625,0.019927978515625,0.825653076171875
1686445604578252800,2.961252685546875,-0.5601959228515625,0.0201416015625,0.8256072998046875
1686445604588269800,2.971269775390625,-0.560821533203125,0.019866943359375,0.824676513671875
1686445604598286600,2.98128662109375,-0.561004638671875,0.0191192626953125,0.8241729736328125
1686445604608303900,2.991303955078125,-0.562713623046875,0.019989013671875,0.824249267578125
1686445604618320600,3.001320556640625,-0.5634918212890625,0.0209808349609375,0.8235931396484375
1686445604628337700,3.011337646484375,-0.5621337890625,0.0208892822265625,0.823699951171875
1686445604638354700,3.021354736328125,-0.561126708984375,0.0217437744140625,0.825653076171875
1686445604648371700,3.031371826171875,-0.5610198974609375,0.0227813720703125,0.8259735107421875
1686445604658388700,3.041388671875,-0.560821533203125,0.0213165283203125,0.8271331787109375
1686445604668405800,3.05140576171875,-0.5615386962890625,0.02130126953125,0.8260040283203125
1686445604678421800,3.061421875,-0.5613861083984375,0.0201263427734375,0.8228912353515625
1686445604688438500,3.0714384765625,-0.5619964599609375,0.019378662109375,0.82232666015625
1686445604698455800,3.081455810546875,-0.5631103515625,0.0197906494140625,0.8223876953125
1686445604708472800,3.091472900390625,-0.5621337890625,0.0182952880859375,0.8233795166015625
1686445604718489600,3.101489501953125,-0.5633697509765625,0.0174713134765625,0.823089599609375
1686445604728507000,3.1115068359375,-0.56439208984375,0.0169219970703125,0.8240814208984375
1686445604738523600,3.121523681640625,-0.5643310546875,0.017913818359375,0.826995849609375
1686445604748540700,3.131540771484375,-0.563201904296875,0.019287109375,0.8275146484375
1686445604758557700,3.1415576171875,-0.561798095703125,0.0226898193359375,0.8282470703125
1686445604768574700,3.15157470703125,-0.562469482421875,0.0233001708984375,0.8287200927734375
1686445604778591700,3.161591796875,-0.560943603515625,0.024566650390625,0.826080322265625
1686445604788608300,3.171608154296875,-0.5602569580078125,0.023834228515625,0.826385498046875
1686445604798625300,3.181625244140625,-0.560455322265625,0.022125244140625,0.8272552490234375
1686445604808642300,3.191642333984375,-0.5626678466796875,0.02197265625,0.8275299072265625
1686445604818659300,3.201659423828125,-0.56524658203125,0.0210113525390625,0.82611083984375
1686445604828676000,3.211676025390625,-0.5647125244140625,0.020172119140625,0.8238372802734375
1686445604838693400,3.221693359375,-0.5645294189453125,0.019805908203125,0.823974609375
1686445604848710400,3.23171044921875,-0.5635528564453125,0.0191192626953125,0.826629638671875
1686445604858727200,3.24172705078125,-0.562896728515625,0.0198211669921875,0.8273468017578125
1686445604868744400,3.251744384765625,-0.563385009765625,0.018798828125,0.826202392578125
1686445604878761200,3.26176123046875,-0.561614990234375,0.017974853515625,0.8256378173828125
1686445604888777200,3.271777099609375,-0.56182861328125,0.01812744140625,0.8257904052734375
1686445604898794500,3.28179443359375,-0.562774658203125,0.0183258056640625,0.825042724609375
1686445604908811300,3.291811279296875,-0.5609893798828125,0.01959228515625,0.824676513671875
1686445604918828300,3.301828369140625,-0.5604400634765625,0.0202178955078125,0.8250579833984375
1686445604928845300,3.31184521484375,-0.5613250732421875,0.0195159912109375,0.8237152099609375
1686445604938862300,3.3218623046875,-0.560272216796875,0.0201416015625,0.824493408203125
1686445604948879400,3.33187939453125,-0.5606536865234375,0.022064208984375,0.8231048583984375
1686445604958896400,3.341896484375,-0.560882568359375,0.0223388671875,0.824310302734375
1686445604968913400,3.351913330078125,-0.562255859375,0.0218963623046875,0.8248291015625
1686445604978930200,3.36193017578125,-0.56317138671875,0.0218353271484375,0.824005126953125
1686445604988946400,3.371946533203125,-0.5634918212890625,0.0206146240234375,0.823638916015625
1686445604998963500,3.38196337890625,-0.564605712890625,0.0205535888671875,0.825103759765625
1686445605008980200,3.391980224609375,-0.5622711181640625,0.0203094482421875,0.8245697021484375
1686445605018997500,3.40199755859375,-0.560577392578125,0.0206756591796875,0.8244781494140625
1686445605029014300,3.41201416015625,-0.560638427734375,0.0196380615234375,0.8236846923828125
1686445605039031300,3.42203125,-0.559173583984375,0.01904296875,0.82293701171875
1686445605049048300,3.43204833984375,-0.5582122802734375,0.018890380859375,0.8242340087890625
1686445605059065300,3.4420654296875,-0.558685302734375,0.0187530517578125,0.824432373046875
1686445605069082400,3.452082275390625,-0.55975341796875,0.018890380859375,0.82464599609375
1686445605079099400,3.462099365234375,-0.5612335205078125,0.01953125,0.825408935546875
1686445605089115400,3.472115478515625,-0.5626983642578125,0.02020263671875,0.826995849609375
1686445605099132400,3.48213232421875,-0.5637054443359375,0.0207366943359375,0.82757568359375
1686445605109149200,3.492149169921875,-0.564788818359375,0.01971435546875,0.8284149169921875
1686445605119166500,3.50216650390625,-0.563629150390625,0.0204620361328125,0.827789306640625
1686445605129183200,3.512183349609375,-0.5646820068359375,0.02081298828125,0.8273773193359375
1686445605139200300,3.5222001953125,-0.56414794921875,0.0209503173828125,0.82781982421875
1686445605149217300,3.53221728515625,-0.5635528564453125,0.0201416015625,0.828643798828125
1686445605159234300,3.542234375,-0.5635528564453125,0.0206451416015625,0.82733154296875
1686445605169251300,3.552251220703125,-0.56329345703125,0.0204315185546875,0.8270721435546875
1686445605179268400,3.562268310546875,-0.5634613037109375,0.0191650390625,0.8271636962890625
1686445605189284400,3.572284423828125,-0.5632476806640625,0.0197601318359375,0.8257293701171875
1686445605199301000,3.582301025390625,-0.563323974609375,0.0193328857421875,0.82427978515625
1686445605209318400,3.592318359375,-0.5612945556640625,0.0186309814453125,0.825775146484375
1686445605219335400,3.60233544921875,-0.559967041015625,0.0183258056640625,0.824615478515625
1686445605229352200,3.612352294921875,-0.558197021484375,0.0191802978515625,0.8248443603515625
1686445605239369500,3.622369384765625,-0.557830810546875,0.01934814453125,0.826446533203125
1686445605249386200,3.63238623046875,-0.559112548828125,0.0198974609375,0.8263397216796875
1686445605259403300,3.6424033203125,-0.5608062744140625,0.0204620361328125,0.8242950439453125
1686445605269420300,3.652420166015625,-0.5613250732421875,0.0205535888671875,0.8240509033203125
1686445605279437300,3.662437255859375,-0.5607452392578125,0.020660400390625,0.8232879638671875
1686445605289453300,3.672453369140625,-0.561737060546875,0.0198516845703125,0.8231048583984375
1686445605299470300,3.68247021484375,-0.561309814453125,0.0202789306640625,0.824127197265625
1686445605309487400,3.6924873046875,-0.5608978271484375,0.0191192626953125,0.824005126953125
1686445605319504400,3.70250439453125,-0.5597991943359375,0.019683837890625,0.82501220703125
1686445605329521400,3.712521484375,-0.5594635009765625,0.01959228515625,0.82574462890625
1686445605339538400,3.722538330078125,-0.56097412109375,0.019683837890625,0.82537841796875
1686445605349555200,3.73255517578125,-0.560302734375,0.01806640625,0.8255615234375
1686445605359572500,3.742572509765625,-0.56072998046875,0.0186004638671875,0.8255615234375
1686445605369589200,3.75258935546875,-0.561370849609375,0.0182342529296875,0.82635498046875
1686445605379606300,3.762606201171875,-0.562103271484375,0.0183868408203125,0.826446533203125
1686445605389622300,3.772622314453125,-0.5631561279296875,0.01953125,0.82647705078125
1686445605399639300,3.782639404296875,-0.564117431640625,0.018951416015625,0.8275604248046875
1686445605409656300,3.79265625,-0.56396484375,0.0190582275390625,0.8259735107421875
1686445605419673000,3.802673095703125,-0.5635833740234375,0.0192413330078125,0.826995849609375
1686445605429690400,3.8126904296875,-0.5614166259765625,0.0190582275390625,0.827423095703125
1686445605439707400,3.822707275390625,-0.5606231689453125,0.019439697265625,0.8269805908203125
1686445605449724400,3.832724365234375,-0.5602569580078125,0.017913818359375,0.826202392578125
1686445605459741400,3.842741455078125,-0.5607757568359375,0.0181884765625,0.82501220703125
1686445605469758200,3.85275830078125,-0.560455322265625,0.0187835693359375,0.82513427734375
1686445605479775500,3.862775390625,-0.5596923828125,0.0202484130859375,0.82550048828125
1686445605489792300,3.872792236328125,-0.5604248046875,0.020599365234375,0.826751708984375
1686445605499808300,3.882808349609375,-0.560760498046875,0.0197296142578125,0.826507568359375
1686445605509825300,3.8928251953125,-0.559783935546875,0.0190887451171875,0.8262176513671875
1686445605519842300,3.90284228515625,-0.5595245361328125,0.0186767578125,0.8265228271484375
1686445605529859300,3.912859375,-0.5606231689453125,0.019012451171875,0.827056884765625
1686445605539876000,3.9228759765625,-0.5621185302734375,0.019683837890625,0.8262176513671875
1686445605549893400,3.932893310546875,-0.5613250732421875,0.020050048828125,0.8259124755859375
1686445605559910400,3.942910400390625,-0.561553955078125,0.0190887451171875,0.8255157470703125
1686445605569927200,3.95292724609375,-0.5597686767578125,0.018157958984375,0.82501220703125
1686445605579944400,3.9629443359375,-0.55889892578125,0.0185394287109375,0.8246917724609375
1686445605589961200,3.972961181640625,-0.5598602294921875,0.0192413330078125,0.825103759765625
1686445605599977200,3.982977294921875,-0.560760498046875,0.0196075439453125,0.8249664306640625
1686445605609994500,3.992994384765625,-0.559967041015625,0.019012451171875,0.8258819580078125
1686445605620011300,4.00301123046875,-0.560577392578125,0.0174102783203125,0.8259735107421875
1686445605630028300,4.0130283203125,-0.5609588623046875,0.018707275390625,0.8262176513671875
1686445605640045300,4.02304541015625,-0.5606536865234375,0.0199127197265625,0.827484130859375
1686445605650062300,4.033062255859375,-0.5614166259765625,0.0188446044921875,0.8269195556640625
1686445605660079400,4.043079345703125,-0.5605316162109375,0.017913818359375,0.826507568359375
1686445605670096400,4.053096435546875,-0.5615386962890625,0.0169830322265625,0.8251800537109375
1686445605680113400,4.063113525390625,-0.56231689453125,0.0170135498046875,0.822723388671875
1686445605690130200,4.073130126953125,-0.5622711181640625,0.0181884765625,0.8213043212890625
1686445605700147500,4.0831474609375,-0.561553955078125,0.018341064453125,0.8233184814453125
1686445605710163500,4.09316357421875,-0.5616455078125,0.018218994140625,0.825775146484375
1686445605720180200,4.10318017578125,-0.560760498046875,0.018707275390625,0.8260955810546875
1686445605730197500,4.113197509765625,-0.5599822998046875,0.0183563232421875,0.82855224609375
1686445605740214300,4.12321435546875,-0.5594940185546875,0.0195465087890625,0.8293304443359375
1686445605750231300,4.133231201171875,-0.56005859375,0.020477294921875,0.82916259765625
1686445605760248300,4.143248291015625,-0.56024169921875,0.0209503173828125,0.8269805908203125
1686445605770265300,4.153265380859375,-0.5615081787109375,0.0204010009765625,0.8267364501953125
1686445605780282400,4.163282470703125,-0.562957763671875,0.0196990966796875,0.829071044921875
1686445605790300000,4.1732998046875,-0.5635986328125,0.0198974609375,0.8286895751953125
1686445605800316000,4.18331591796875,-0.56396484375,0.020355224609375,0.82781982421875
1686445605810332700,4.193332763671875,-0.5639190673828125,0.0195159912109375,0.8264007568359375
1686445605820350000,4.203349853515625,-0.5633544921875,0.0196685791015625,0.8259429931640625
1686445605830367000,4.213366943359375,-0.564056396484375,0.020294189453125,0.8265228271484375
1686445605840383700,4.2233837890625,-0.5641326904296875,0.0195770263671875,0.8268890380859375
1686445605850401000,4.233401123046875,-0.5628204345703125,0.018768310546875,0.8264923095703125
1686445605860417800,4.243417724609375,-0.5611419677734375,0.0181732177734375,0.826019287109375
1686445605870434800,4.253434814453125,-0.560791015625,0.018157958984375,0.827301025390625
1686445605880451800,4.263451904296875,-0.5591278076171875,0.01739501953125,0.8274078369140625
1686445605890468900,4.27346875,-0.556854248046875,0.0164031982421875,0.8271026611328125
1686445605900485600,4.283485595703125,-0.5580291748046875,0.0160980224609375,0.8248291015625
1686445605910501600,4.293501708984375,-0.557373046875,0.01702880859375,0.823455810546875
1686445605920519000,4.303518798828125,-0.5573272705078125,0.01751708984375,0.8223114013671875
1686445605930535700,4.31353564453125,-0.556793212890625,0.019287109375,0.8212738037109375
1686445605940552700,4.323552734375,-0.5574493408203125,0.0194244384765625,0.82208251953125
1686445605950570000,4.333570068359375,-0.5582122802734375,0.02020263671875,0.82208251953125
1686445605960586800,4.343586669921875,-0.56036376953125,0.0200653076171875,0.82354736328125
1686445605970603800,4.353603759765625,-0.5621490478515625,0.018707275390625,0.8246612548828125
1686445605980620800,4.363620849609375,-0.5638427734375,0.019287109375,0.826141357421875
1686445605990637800,4.373637939453125,-0.56463623046875,0.0199737548828125,0.8265380859375
1686445606000654800,4.38365478515625,-0.5655059814453125,0.0210418701171875,0.8261871337890625
1686445606010671900,4.393671875,-0.5630950927734375,0.021087646484375,0.8258514404296875
1686445606020688000,4.40368798828125,-0.5626373291015625,0.0192718505859375,0.826019287109375
1686445606030704600,4.41370458984375,-0.5615692138671875,0.0193634033203125,0.8276824951171875
1686445606040722000,4.423721923828125,-0.56195068359375,0.0188446044921875,0.82806396484375
1686445606050738700,4.43373876953125,-0.5605010986328125,0.0184173583984375,0.8283843994140625
1686445606060755700,4.443755615234375,-0.5604400634765625,0.017578125,0.8275146484375
1686445606070773000,4.45377294921875,-0.56146240234375,0.018463134765625,0.8282623291015625
1686445606080789800,4.463789794921875,-0.561279296875,0.0186004638671875,0.8283843994140625
1686445606090806800,4.473806884765625,-0.5628814697265625,0.019439697265625,0.8280181884765625
1686445606100823800,4.48382373046875,-0.5619659423828125,0.020294189453125,0.829071044921875
1686445606110840800,4.4938408203125,-0.56048583984375,0.020751953125,0.828765869140625
1686445606120856800,4.50385693359375,-0.5605926513671875,0.020538330078125,0.828338623046875
1686445606130873900,4.513873779296875,-0.5594635009765625,0.0190887451171875,0.8273468017578125
1686445606140891000,4.523890869140625,-0.5570831298828125,0.0174102783203125,0.8269195556640625
1686445606150907600,4.53390771484375,-0.5578155517578125,0.0167388916015625,0.8258819580078125
1686445606160925000,4.543925048828125,-0.5577392578125,0.016265869140625,0.82550048828125
1686445606170942000,4.55394189453125,-0.558563232421875,0.016387939453125,0.8253021240234375
1686445606180958700,4.563958740234375,-0.5604705810546875,0.01507568359375,0.825927734375
1686445606190976000,4.57397607421875,-0.5610809326171875,0.0153350830078125,0.82489013671875
1686445606200992800,4.58399267578125,-0.5621185302734375,0.016204833984375,0.8237152099609375
1686445606211009800,4.594009765625,-0.5628509521484375,0.0173797607421875,0.8234710693359375
1686445606221026800,4.60402685546875,-0.561981201171875,0.01934814453125,0.82403564453125
1686445606231042800,4.614042724609375,-0.5604095458984375,0.0198211669921875,0.82330322265625
1686445606241059800,4.624059814453125,-0.5593414306640625,0.021148681640625,0.8226165771484375
1686445606251076900,4.634076904296875,-0.5604095458984375,0.0209808349609375,0.82366943359375
1686445606261094000,4.644093994140625,-0.5609283447265625,0.02081298828125,0.823272705078125
1686445606271110700,4.654110595703125,-0.56072998046875,0.020660400390625,0.8246002197265625
1686445606281128000,4.6641279296875,-0.5619049072265625,0.0214691162109375,0.8260345458984375
1686445606291145000,4.67414501953125,-0.5625152587890625,0.0195159912109375,0.8282623291015625
1686445606301161700,4.68416162109375,-0.5609893798828125,0.018951416015625,0.82952880859375
1686445606311179000,4.694178955078125,-0.561859130859375,0.01873779296875,0.8301239013671875
1686445606321195800,4.70419580078125,-0.561553955078125,0.01806640625,0.8309326171875
1686445606331211800,4.714211669921875,-0.561859130859375,0.0183868408203125,0.8285675048828125
1686445606341228800,4.724228759765625,-0.5623779296875,0.0176849365234375,0.8263397216796875
1686445606351245800,4.734245849609375,-0.5598297119140625,0.01788330078125,0.824462890625
1686445606361262800,4.744262939453125,-0.5597991943359375,0.0184173583984375,0.8249969482421875
1686445606371279600,4.754279541015625,-0.5594482421875,0.01873779296875,0.8253631591796875
1686445606381297000,4.764296875,-0.557708740234375,0.0204315185546875,0.8269500732421875
1686445606391313700,4.774313720703125,-0.5572662353515625,0.019439697265625,0.82733154296875
1686445606401330700,4.78433056640625,-0.55908203125,0.017425537109375,0.828094482421875
1686445606411348000,4.794347900390625,-0.5613555908203125,0.0180816650390625,0.828948974609375
1686445606421364700,4.80436474609375,-0.5626220703125,0.01800537109375,0.8278961181640625
1686445606431380700,4.814380615234375,-0.56402587890625,0.0186767578125,0.827880859375
1686445606441398000,4.82439794921875,-0.5651702880859375,0.018402099609375,0.8253173828125
1686445606451414800,4.834414794921875,-0.5644073486328125,0.0189056396484375,0.82415771484375
1686445606461431800,4.844431884765625,-0.5628509521484375,0.0198516845703125,0.825042724609375
1686445606471448800,4.85444873046875,-0.560638427734375,0.01922607421875,0.8265228271484375
1686445606481465900,4.8644658203125,-0.5587310791015625,0.018707275390625,0.82568359375
1686445606491482600,4.874482666015625,-0.5584716796875,0.01824951171875,0.8245697021484375
1686445606501500000,4.8845,-0.55908203125,0.01727294921875,0.8240203857421875
1686445606511517000,4.894516845703125,-0.559326171875,0.01629638671875,0.823394775390625
1686445606521533700,4.90453369140625,-0.5597991943359375,0.0172882080078125,0.8245697021484375
1686445606531551000,4.914551025390625,-0.560638427734375,0.0174102783203125,0.826263427734375
1686445606541567000,4.92456689453125,-0.5611419677734375,0.0179290771484375,0.8260498046875
1686445606551583700,4.934583740234375,-0.5619964599609375,0.0181427001953125,0.826385498046875
1686445606561601000,4.94460107421875,-0.5602874755859375,0.0183868408203125,0.82574462890625
1686445606571617800,4.95461767578125,-0.5606842041015625,0.0184326171875,0.826446533203125
1686445606581634800,4.964634765625,-0.56201171875,0.018218994140625,0.8269805908203125
1686445606591651800,4.97465185546875,-0.56048583984375,0.0186004638671875,0.826690673828125
1686445606601668900,4.9846689453125,-0.56048583984375,0.0186614990234375,0.827117919921875
1686445606611685600,4.994685546875,-0.5602874755859375,0.017974853515625,0.82708740234375
1686445606621703000,5.004702880859375,-0.56134033203125,0.0183258056640625,0.8270111083984375
1686445606631720000,5.014719970703125,-0.56036376953125,0.01800537109375,0.825897216796875
1686445606641736700,5.02473681640625,-0.5619049072265625,0.018951416015625,0.8267822265625
1686445606651752700,5.034752685546875,-0.562225341796875,0.0186767578125,0.828765869140625
1686445606661770000,5.04477001953125,-0.5628204345703125,0.01947021484375,0.8286895751953125
1686445606671786800,5.054786865234375,-0.562774658203125,0.020172119140625,0.828460693359375
1686445606681803800,5.0648037109375,-0.5611724853515625,0.020263671875,0.8274383544921875
1686445606691820800,5.07482080078125,-0.56060791015625,0.0207977294921875,0.8260650634765625
1686445606701837800,5.084837890625,-0.5600128173828125,0.019195556640625,0.8266754150390625
1686445606711854800,5.094854736328125,-0.55908203125,0.0174713134765625,0.8260040283203125
1686445606721872000,5.104871826171875,-0.559295654296875,0.0166778564453125,0.824859619140625
1686445606731889000,5.114888916015625,-0.558502197265625,0.015625,0.82708740234375
1686445606741906000,5.124906005859375,-0.558441162109375,0.016326904296875,0.8277740478515625
1686445606751922000,5.134921875,-0.5577239990234375,0.01470947265625,0.82720947265625
1686445606761938700,5.144938720703125,-0.5590667724609375,0.0160369873046875,0.8270263671875
1686445606771955700,5.154955810546875,-0.5611419677734375,0.0176849365234375,0.8267669677734375
1686445606781973000,5.164972900390625,-0.56231689453125,0.019989013671875,0.824798583984375
1686445606791988700,5.17498876953125,-0.5626220703125,0.02081298828125,0.822723388671875
1686445606802005800,5.185005859375,-0.560272216796875,0.0208892822265625,0.824188232421875
1686445606812023000,5.19502294921875,-0.5617523193359375,0.0205535888671875,0.825775146484375
1686445606822039800,5.205039794921875,-0.563079833984375,0.0213470458984375,0.8285675048828125
1686445606832056800,5.215056884765625,-0.5636444091796875,0.02020263671875,0.8267974853515625
1686445606842073900,5.225073974609375,-0.5644683837890625,0.019134521484375,0.82550048828125
1686445606852091000,5.2350908203125,-0.562530517578125,0.0178985595703125,0.8264007568359375
1686445606862107000,5.24510693359375,-0.5611572265625,0.018585205078125,0.826995849609375
1686445606872123600,5.25512353515625,-0.562103271484375,0.01763916015625,0.8267974853515625
1686445606882141000,5.265140869140625,-0.562469482421875,0.017303466796875,0.8251495361328125
1686445606892157700,5.27515771484375,-0.5622711181640625,0.01708984375,0.8238067626953125
1686445606902174700,5.2851748046875,-0.56298828125,0.016754150390625,0.8247833251953125
1686445606912191700,5.295191650390625,-0.5618133544921875,0.017547607421875,0.8244476318359375
1686445606922208800,5.305208740234375,-0.5604705810546875,0.0162353515625,0.8252105712890625
1686445606932225800,5.315225830078125,-0.5578155517578125,0.0160980224609375,0.826019287109375
1686445606942242800,5.325242919921875,-0.5555419921875,0.016571044921875,0.82586669921875
1686445606952259800,5.335259765625,-0.556793212890625,0.01763916015625,0.8263702392578125
1686445606962276900,5.34527685546875,-0.557952880859375,0.01898193359375,0.8249664306640625
1686445606972292900,5.35529296875,-0.55908203125,0.019439697265625,0.8229217529296875
1686445606982310000,5.365309814453125,-0.5598297119140625,0.020477294921875,0.822906494140625
1686445606992326700,5.37532666015625,-0.560699462890625,0.0217742919921875,0.824066162109375
1686445607002344000,5.385343994140625,-0.561553955078125,0.0216522216796875,0.8264923095703125
1686445607012360700,5.395360595703125,-0.561279296875,0.0212860107421875,0.8274078369140625
1686445607022377700,5.405377685546875,-0.5617828369140625,0.019989013671875,0.828460693359375
1686445607032395000,5.41539501953125,-0.5617523193359375,0.0210113525390625,0.82861328125
1686445607042411800,5.425411865234375,-0.5605621337890625,0.0204925537109375,0.8273162841796875
1686445607052428800,5.4354287109375,-0.5598602294921875,0.0191192626953125,0.826568603515625
1686445607062445800,5.44544580078125,-0.559326171875,0.01739501953125,0.8251953125
1686445607072461800,5.4554619140625,-0.558380126953125,0.0171051025390625,0.8251495361328125
1686445607082478800,5.465478759765625,-0.5592498779296875,0.016754150390625,0.8239288330078125
1686445607092496000,5.475495849609375,-0.5612030029296875,0.0166778564453125,0.8242950439453125
1686445607102513000,5.485512939453125,-0.5608978271484375,0.018524169921875,0.8250885009765625
1686445607112529700,5.49552978515625,-0.5625762939453125,0.018524169921875,0.82666015625
1686445607122547000,5.505546875,-0.563201904296875,0.0183563232421875,0.8279266357421875
1686445607132563700,5.515563720703125,-0.5630645751953125,0.0185699462890625,0.8283233642578125
1686445607142580700,5.525580810546875,-0.563018798828125,0.0178680419921875,0.8287811279296875
1686445607152598000,5.535597900390625,-0.563751220703125,0.0177001953125,0.8281097412109375
1686445607162614800,5.54561474609375,-0.5628662109375,0.0166473388671875,0.8279876708984375
1686445607172631800,5.5556318359375,-0.5627899169921875,0.0167236328125,0.82733154296875
1686445607182647800,5.565647705078125,-0.5624847412109375,0.0171051025390625,0.82568359375
1686445607192664800,5.575664794921875,-0.5621185302734375,0.0169830322265625,0.8245697021484375
1686445607202681900,5.585681884765625,-0.562469482421875,0.01751708984375,0.823974609375
1686445607212699000,5.595698974609375,-0.5600433349609375,0.0182037353515625,0.8232879638671875
1686445607222716000,5.6057158203125,-0.55810546875,0.0175628662109375,0.82464599609375
1686445607232732700,5.615732666015625,-0.558013916015625,0.0190887451171875,0.826446533203125
1686445607242750000,5.62575,-0.5582122802734375,0.0189666748046875,0.826873779296875
1686445607252766700,5.6357666015625,-0.559722900390625,0.017974853515625,0.8260650634765625
1686445607262783700,5.64578369140625,-0.5601959228515625,0.018890380859375,0.8245697021484375
1686445607272801000,5.655801025390625,-0.5593414306640625,0.0184478759765625,0.824615478515625
1686445607282817800,5.66581787109375,-0.55865478515625,0.0187530517578125,0.824951171875
1686445607292833800,5.675833740234375,-0.55816650390625,0.019287109375,0.8266754150390625
1686445607302850800,5.685850830078125,-0.5589141845703125,0.018524169921875,0.82635498046875
1686445607312867800,5.695867919921875,-0.5601806640625,0.019439697265625,0.8251800537109375
1686445607322884900,5.705884765625,-0.56097412109375,0.0205535888671875,0.8267974853515625
1686445607332901600,5.715901611328125,-0.5606842041015625,0.020050048828125,0.82720947265625
1686445607342919000,5.7259189453125,-0.5598602294921875,0.02008056640625,0.8271942138671875
1686445607352935700,5.735935791015625,-0.5589752197265625,0.0196533203125,0.828033447265625
1686445607362952700,5.74595263671875,-0.5611724853515625,0.0178070068359375,0.828033447265625
1686445607372970000,5.755969970703125,-0.5623779296875,0.0181884765625,0.8280181884765625
1686445607382986800,5.76598681640625,-0.563751220703125,0.0183258056640625,0.8275604248046875
1686445607393002800,5.776002685546875,-0.56304931640625,0.0168914794921875,0.82757568359375
1686445607403020000,5.78602001953125,-0.562347412109375,0.017364501953125,0.82843017578125
1686445607413036800,5.796036865234375,-0.5601959228515625,0.0171051025390625,0.82794189453125
1686445607423053800,5.8060537109375,-0.5599822998046875,0.0172119140625,0.82904052734375
1686445607433070800,5.81607080078125,-0.561004638671875,0.017974853515625,0.8277130126953125
1686445607443088000,5.826087890625,-0.561126708984375,0.01812744140625,0.8285064697265625
1686445607453104600,5.836104736328125,-0.5620574951171875,0.0188446044921875,0.8261260986328125
1686445607463122000,5.846121826171875,-0.563079833984375,0.018157958984375,0.825225830078125
1686445607473138700,5.856138671875,-0.5628509521484375,0.0179901123046875,0.824859619140625
1686445607483155700,5.86615576171875,-0.5620880126953125,0.01873779296875,0.8248748779296875
1686445607493173000,5.876173095703125,-0.560699462890625,0.0184783935546875,0.8241729736328125
1686445607503188700,5.886188720703125,-0.559326171875,0.017730712890625,0.8243408203125
1686445607513205800,5.896205810546875,-0.5606842041015625,0.01824951171875,0.825897216796875
1686445607523223000,5.90622314453125,-0.560394287109375,0.018096923828125,0.82568359375
1686445607533239800,5.91623974609375,-0.5592803955078125,0.0183258056640625,0.8245391845703125
1686445607543256800,5.9262568359375,-0.557830810546875,0.018310546875,0.8249053955078125
1686445607553273900,5.93627392578125,-0.558441162109375,0.0183563232421875,0.825653076171875
1686445607563291000,5.946290771484375,-0.5587615966796875,0.0195159912109375,0.8256988525390625
1686445607573307600,5.9563076171875,-0.559478759765625,0.019439697265625,0.8254241943359375
1686445607583325000,5.966324951171875,-0.5595245361328125,0.0176849365234375,0.8254241943359375
1686445607593342000,5.976342041015625,-0.5601959228515625,0.016021728515625,0.825164794921875
1686445607603358700,5.986358642578125,-0.562469482421875,0.0173797607421875,0.8264617919921875
1686445607613374700,5.996374755859375,-0.5623016357421875,0.0169677734375,0.8260498046875
1686445607623391700,6.006391845703125,-0.5619659423828125,0.0163726806640625,0.826873779296875
1686445607633408800,6.01640869140625,-0.560089111328125,0.015716552734375,0.8282470703125
1686445607643426000,6.026426025390625,-0.559906005859375,0.0178375244140625,0.8293609619140625
1686445607653442800,6.03644287109375,-0.5594482421875,0.0200042724609375,0.828277587890625
1686445607663459800,6.0464599609375,-0.56048583984375,0.0212249755859375,0.82696533203125
1686445607673476900,6.056476806640625,-0.56158447265625,0.0208740234375,0.8269805908203125
1686445607683494000,6.066493896484375,-0.5627899169921875,0.020233154296875,0.827056884765625
1686445607693510700,6.0765107421875,-0.56414794921875,0.02081298828125,0.829864501953125
1686445607703528000,6.08652783203125,-0.564544677734375,0.0200958251953125,0.8296661376953125
1686445607713544000,6.0965439453125,-0.5642547607421875,0.0182342529296875,0.8285064697265625
1686445607723560700,6.106560791015625,-0.56402587890625,0.0182952880859375,0.8268585205078125
1686445607733577700,6.11657763671875,-0.5628662109375,0.0194549560546875,0.8276824951171875
1686445607743595000,6.126594970703125,-0.5645751953125,0.019744873046875,0.8264923095703125
1686445607753611800,6.13661181640625,-0.5642852783203125,0.018768310546875,0.8259429931640625
1686445607763628800,6.14662890625,-0.5628814697265625,0.0181121826171875,0.8260650634765625
1686445607773645800,6.156645751953125,-0.560821533203125,0.018157958984375,0.8257904052734375
1686445607783662800,6.166662841796875,-0.55938720703125,0.0182952880859375,0.8250885009765625
1686445607793680600,6.1766806640625,-0.558135986328125,0.0175933837890625,0.82537841796875
1686445607803697700,6.18669775390625,-0.559051513671875,0.01678466796875,0.8254852294921875
1686445607813714700,6.196714599609375,-0.5595245361328125,0.0170440673828125,0.82379150390625
1686445607823730700,6.206730712890625,-0.559722900390625,0.0167083740234375,0.82330322265625
1686445607833747700,6.216747802734375,-0.5591583251953125,0.0182952880859375,0.8224639892578125
1686445607843764700,6.2267646484375,-0.5579986572265625,0.0181427001953125,0.8238067626953125
1686445607853781800,6.23678173828125,-0.5602264404296875,0.01947021484375,0.823150634765625
1686445607863798500,6.246798583984375,-0.5611114501953125,0.0195159912109375,0.822662353515625
1686445607873815800,6.25681591796875,-0.5615386962890625,0.019012451171875,0.8226470947265625
1686445607883832600,6.26683251953125,-0.563140869140625,0.01885986328125,0.8238067626953125
1686445607893849600,6.276849609375,-0.563262939453125,0.0188446044921875,0.8251495361328125
1686445607903867000,6.286866943359375,-0.563690185546875,0.0179595947265625,0.826446533203125
1686445607913883600,6.296883544921875,-0.5618743896484375,0.0180511474609375,0.8251495361328125
1686445607923900700,6.306900634765625,-0.561279296875,0.0178070068359375,0.8250579833984375
1686445607933917000,6.3169169921875,-0.5593719482421875,0.0182647705078125,0.82562255859375
1686445607943933700,6.32693359375,-0.5587158203125,0.0185546875,0.82550048828125
1686445607953950700,6.33695068359375,-0.5592041015625,0.019073486328125,0.825469970703125
1686445607963967700,6.3469677734375,-0.559112548828125,0.01849365234375,0.82586669921875
1686445607973984800,6.35698486328125,-0.5587310791015625,0.018310546875,0.82586669921875
1686445607984001500,6.36700146484375,-0.560638427734375,0.0177459716796875,0.8277740478515625
1686445607994018800,6.377018798828125,-0.5615692138671875,0.0177459716796875,0.828582763671875
1686445608004035600,6.38703564453125,-0.56201171875,0.0182342529296875,0.8290557861328125
1686445608014052600,6.397052490234375,-0.5622406005859375,0.0180511474609375,0.8298797607421875
1686445608024070000,6.40706982421875,-0.5633392333984375,0.018157958984375,0.82952880859375
1686445608034086700,6.417086669921875,-0.563629150390625,0.0179290771484375,0.8282470703125
1686445608044102700,6.4271025390625,-0.5631256103515625,0.018310546875,0.82843017578125
1686445608054119700,6.43711962890625,-0.5614776611328125,0.0184478759765625,0.82733154296875
1686445608064136700,6.44713671875,-0.5602569580078125,0.0191192626953125,0.82659912109375
1686445608074153700,6.45715380859375,-0.5595550537109375,0.018707275390625,0.8272247314453125
1686445608084170500,6.46717041015625,-0.5600738525390625,0.0183258056640625,0.8258209228515625
1686445608094187800,6.477187744140625,-0.5616455078125,0.0182647705078125,0.8256683349609375
1686445608104204500,6.48720458984375,-0.5611114501953125,0.0176239013671875,0.82562255859375
1686445608114221800,6.497221923828125,-0.562225341796875,0.019561767578125,0.824920654296875
1686445608124238800,6.50723876953125,-0.561981201171875,0.020111083984375,0.824462890625
1686445608134255600,6.517255615234375,-0.5620269775390625,0.0207366943359375,0.825225830078125
1686445608144271600,6.527271728515625,-0.5608062744140625,0.0192108154296875,0.8251953125
1686445608154289000,6.537288818359375,-0.5596466064453125,0.018341064453125,0.8245086669921875
1686445608164305700,6.5473056640625,-0.5587158203125,0.019287109375,0.824676513671875
1686445608174322700,6.55732275390625,-0.559112548828125,0.0182647705078125,0.8246917724609375
1686445608184339700,6.567339599609375,-0.55889892578125,0.0160980224609375,0.8249053955078125
1686445608194356700,6.577356689453125,-0.5616607666015625,0.020111083984375,0.82177734375
1686445608204373500,6.58737353515625,-0.5626678466796875,0.022735595703125,0.825836181640625
1686445608214390800,6.597390869140625,-0.5603485107421875,0.01861572265625,0.824554443359375
1686445608224407600,6.607407470703125,-0.5586395263671875,0.016937255859375,0.824676513671875
1686445608234424600,6.617424560546875,-0.559326171875,0.018646240234375,0.8289031982421875
1686445608244441900,6.62744189453125,-0.5623931884765625,0.018646240234375,0.82952880859375
1686445608254457600,6.63745751953125,-0.5633544921875,0.0168609619140625,0.8260040283203125
1686445608264474600,6.647474609375,-0.5642547607421875,0.018096923828125,0.8261566162109375
1686445608274492000,6.657491943359375,-0.5636444091796875,0.019256591796875,0.82684326171875
1686445608284508700,6.6675087890625,-0.5617523193359375,0.019683837890625,0.8265533447265625
1686445608294525700,6.677525634765625,-0.5614166259765625,0.0194549560546875,0.8267974853515625
1686445608304542700,6.687542724609375,-0.55987548828125,0.019775390625,0.8275299072265625
1686445608314559700,6.697559814453125,-0.562225341796875,0.01971435546875,0.8282470703125
1686445608324576500,6.707576416015625,-0.564453125,0.019287109375,0.8284759521484375
1686445608334593800,6.71759375,-0.5643463134765625,0.0184783935546875,0.826385498046875
1686445608344610800,6.72761083984375,-0.5634918212890625,0.0184326171875,0.8264617919921875
1686445608354627600,6.737627685546875,-0.5629119873046875,0.0187835693359375,0.8255767822265625
1686445608364643800,6.747643798828125,-0.5619049072265625,0.020111083984375,0.824859619140625
1686445608374660600,6.75766064453125,-0.5624542236328125,0.0201568603515625,0.8242950439453125
1686445608384677600,6.767677734375,-0.5621795654296875,0.0201873779296875,0.824798583984375
1686445608394695000,6.77769482421875,-0.562744140625,0.020660400390625,0.825653076171875
1686445608404711700,6.787711669921875,-0.559967041015625,0.0202484130859375,0.8260498046875
1686445608414728700,6.797728759765625,-0.558013916015625,0.0196075439453125,0.8265838623046875
1686445608424745700,6.807745849609375,-0.5574188232421875,0.0191802978515625,0.8270721435546875
1686445608434762800,6.8177626953125,-0.5597686767578125,0.01849365234375,0.82562255859375
1686445608444779500,6.827779541015625,-0.5607757568359375,0.018157958984375,0.82550048828125
1686445608454796800,6.837796875,-0.561492919921875,0.0185546875,0.8252716064453125
1686445608464812800,6.847812744140625,-0.562591552734375,0.0191497802734375,0.8251800537109375
1686445608474829600,6.85782958984375,-0.56182861328125,0.0184478759765625,0.8244171142578125
1686445608484846600,6.8678466796875,-0.5605316162109375,0.0190582275390625,0.8244781494140625
1686445608494864000,6.87786376953125,-0.5602874755859375,0.0186004638671875,0.8259124755859375
1686445608504880600,6.887880615234375,-0.5605010986328125,0.019256591796875,0.8257598876953125
1686445608514897700,6.897897705078125,-0.5615234375,0.0191192626953125,0.8262786865234375
1686445608524914700,6.907914794921875,-0.5619049072265625,0.019866943359375,0.829925537109375
1686445608534931700,6.917931640625,-0.5623779296875,0.021484375,0.829498291015625
1686445608544948700,6.92794873046875,-0.5611114501953125,0.020263671875,0.824066162109375
1686445608554965800,6.9379658203125,-0.5589752197265625,0.0179443359375,0.821136474609375
1686445608564982500,6.947982421875,-0.5594635009765625,0.01611328125,0.8216400146484375
1686445608574999800,6.957999755859375,-0.5617218017578125,0.0177764892578125,0.8238372802734375
1686445608585015800,6.968015869140625,-0.5625152587890625,0.0200958251953125,0.823883056640625
1686445608595032600,6.978032470703125,-0.5644683837890625,0.020751953125,0.8223419189453125
1686445608605049600,6.988049560546875,-0.5652313232421875,0.0215301513671875,0.8241424560546875
1686445608615067000,6.99806689453125,-0.5662994384765625,0.02191162109375,0.8274993896484375
1686445608625083600,7.008083740234375,-0.5668792724609375,0.0226898193359375,0.8294830322265625
1686445608635100700,7.0181005859375,-0.5678558349609375,0.02203369140625,0.82958984375
1686445608645117700,7.02811767578125,-0.568145751953125,0.0208892822265625,0.828857421875
1686445608655134700,7.038134765625,-0.5665435791015625,0.0190277099609375,0.8282623291015625
1686445608665151500,7.0481513671875,-0.5636749267578125,0.018157958984375,0.8259124755859375
1686445608675168800,7.058168701171875,-0.563873291015625,0.017822265625,0.8246917724609375
1686445608685185800,7.068185791015625,-0.5644073486328125,0.017242431640625,0.823516845703125
1686445608695201500,7.078201416015625,-0.564300537109375,0.01715087890625,0.82177734375
1686445608705218800,7.08821875,-0.563446044921875,0.0169677734375,0.823150634765625
1686445608715235600,7.098235595703125,-0.564178466796875,0.0170440673828125,0.8236541748046875
1686445608725252600,7.108252685546875,-0.562469482421875,0.0166473388671875,0.8232269287109375
1686445608735270000,7.118269775390625,-0.5615692138671875,0.017120361328125,0.822662353515625
1686445608745286700,7.12828662109375,-0.5595855712890625,0.01763916015625,0.8227081298828125
1686445608755303700,7.1383037109375,-0.5575408935546875,0.0184478759765625,0.8213348388671875
1686445608765320700,7.14832080078125,-0.5577392578125,0.0196990966796875,0.8231964111328125
1686445608775337700,7.158337646484375,-0.558868408203125,0.021209716796875,0.8220367431640625
1686445608785354500,7.1683544921875,-0.56134033203125,0.0207672119140625,0.82086181640625
1686445608795371000,7.17837109375,-0.56329345703125,0.021820068359375,0.8229522705078125
1686445608805387000,7.188386962890625,-0.5652313232421875,0.0219573974609375,0.82257080078125
1686445608815404300,7.198404296875,-0.565093994140625,0.0223236083984375,0.822998046875
1686445608825421000,7.208421142578125,-0.56353759765625,0.022735595703125,0.824981689453125
1686445608835438000,7.21843798828125,-0.5618743896484375,0.0220489501953125,0.8255615234375
1686445608845455000,7.228455078125,-0.5618896484375,0.020477294921875,0.825103759765625
1686445608855472000,7.23847216796875,-0.5611419677734375,0.0191802978515625,0.82452392578125
1686445608865489000,7.248489013671875,-0.5614013671875,0.01763916015625,0.8233489990234375
1686445608875506200,7.258506103515625,-0.5617523193359375,0.0175933837890625,0.8233795166015625
1686445608885523200,7.268523193359375,-0.56207275390625,0.018524169921875,0.8233184814453125
1686445608895540000,7.2785400390625,-0.562530517578125,0.0181427001953125,0.8240203857421875
1686445608905557200,7.28855712890625,-0.5642242431640625,0.0181427001953125,0.8251953125
1686445608915573200,7.2985732421875,-0.5654296875,0.0189208984375,0.8272857666015625
1686445608925590000,7.308590087890625,-0.5662841796875,0.0193328857421875,0.828277587890625
1686445608935607000,7.31860693359375,-0.56610107421875,0.02008056640625,0.8277740478515625
1686445608945624000,7.3286240234375,-0.5642242431640625,0.019744873046875,0.8281707763671875
1686445608955641000,7.33864111328125,-0.56341552734375,0.0198974609375,0.8276214599609375
1686445608965658000,7.348658203125,-0.56256103515625,0.0195465087890625,0.8276519775390625
1686445608975675100,7.358675048828125,-0.5635986328125,0.0200042724609375,0.825958251953125
1686445608985692000,7.36869189453125,-0.5650482177734375,0.0197296142578125,0.8240203857421875
1686445608995709200,7.378709228515625,-0.5652008056640625,0.0195770263671875,0.822723388671875
1686445609005726200,7.388726318359375,-0.566619873046875,0.0183258056640625,0.82293701171875
1686445609015743000,7.398742919921875,-0.56640625,0.019287109375,0.8232879638671875
1686445609025759000,7.408759033203125,-0.5649261474609375,0.01959228515625,0.8235626220703125
1686445609035776300,7.4187763671875,-0.5636138916015625,0.019317626953125,0.8235321044921875
1686445609045793000,7.42879296875,-0.5629425048828125,0.020111083984375,0.824951171875
1686445609055810000,7.43881005859375,-0.561370849609375,0.020538330078125,0.824676513671875
1686445609065827000,7.4488271484375,-0.56060791015625,0.0195465087890625,0.823822021484375
1686445609075844000,7.458843994140625,-0.5601348876953125,0.0193939208984375,0.8240814208984375
1686445609085860900,7.46886083984375,-0.561187744140625,0.020477294921875,0.82232666015625
1686445609095878100,7.478878173828125,-0.562255859375,0.0211029052734375,0.821685791015625
1686445609105895200,7.488895263671875,-0.5634613037109375,0.02154541015625,0.8222808837890625
1686445609115912000,7.498911865234375,-0.56396484375,0.020538330078125,0.8228302001953125
1686445609125929200,7.50892919921875,-0.5630950927734375,0.019622802734375,0.8233489990234375
1686445609135946000,7.518946044921875,-0.5630950927734375,0.020111083984375,0.8241119384765625
1686445609145962000,7.5289619140625,-0.5641632080078125,0.0207977294921875,0.825286865234375
1686445609155979300,7.538979248046875,-0.56298828125,0.020721435546875,0.826202392578125
1686445609165996000,7.54899609375,-0.562530517578125,0.019805908203125,0.8254852294921875
1686445609176013000,7.559012939453125,-0.5626220703125,0.0193634033203125,0.825531005859375
1686445609186030000,7.569030029296875,-0.56365966796875,0.0195770263671875,0.82489013671875
1686445609196047000,7.579047119140625,-0.5638580322265625,0.0194244384765625,0.824554443359375
1686445609206063900,7.58906396484375,-0.564666748046875,0.020172119140625,0.8245697021484375
1686445609216081200,7.5990810546875,-0.5647735595703125,0.021148681640625,0.8260955810546875
1686445609226098200,7.60909814453125,-0.566131591796875,0.0220489501953125,0.8266754150390625
1686445609236115000,7.619114990234375,-0.565826416015625,0.0219879150390625,0.8267364501953125
1686445609246132200,7.62913232421875,-0.5649261474609375,0.0221710205078125,0.82830810546875
1686445609256148200,7.639148193359375,-0.5641021728515625,0.0205230712890625,0.8267669677734375
1686445609266165000,7.6491650390625,-0.5626678466796875,0.019500732421875,0.8245849609375
1686445609276182300,7.659182373046875,-0.560302734375,0.0187530517578125,0.82403564453125
1686445609286199000,7.669198974609375,-0.561187744140625,0.0178070068359375,0.8232269287109375
1686445609296216000,7.679216064453125,-0.5619659423828125,0.018585205078125,0.82257080078125
1686445609306233000,7.689233154296875,-0.562255859375,0.01971435546875,0.82269287109375
1686445609316250000,7.69925,-0.562042236328125,0.0206756591796875,0.82403564453125
1686445609326267000,7.709266845703125,-0.5621490478515625,0.021148681640625,0.824859619140625
1686445609336284200,7.7192841796875,-0.5630035400390625,0.0210418701171875,0.82525634765625
1686445609346301200,7.72930126953125,-0.563934326171875,0.0208740234375,0.82476806640625
1686445609356318000,7.73931787109375,-0.5648345947265625,0.0197601318359375,0.82318115234375
1686445609366335200,7.749335205078125,-0.566192626953125,0.019378662109375,0.821044921875
1686445609376351200,7.759351318359375,-0.5661163330078125,0.018341064453125,0.8192596435546875
1686445609386368000,7.769367919921875,-0.5667266845703125,0.0174560546875,0.8193511962890625
1686445609396385000,7.779385009765625,-0.5669097900390625,0.0178985595703125,0.8207855224609375
1686445609406402000,7.789402099609375,-0.56732177734375,0.0193328857421875,0.8217620849609375
1686445609416419000,7.799419189453125,-0.5673980712890625,0.019500732421875,0.8230133056640625
1686445609426436000,7.80943603515625,-0.5653533935546875,0.0190887451171875,0.8265228271484375
1686445609436453000,7.819453125,-0.56475830078125,0.0194854736328125,0.82794189453125
1686445609446470100,7.82947021484375,-0.56500244140625,0.0197296142578125,0.82733154296875
1686445609456487200,7.839487060546875,-0.565582275390625,0.02044677734375,0.824981689453125
1686445609466504200,7.849504150390625,-0.566192626953125,0.02069091796875,0.8215484619140625
1686445609476521000,7.85952099609375,-0.565521240234375,0.0220794677734375,0.82171630859375
1686445609486537000,7.869536865234375,-0.565887451171875,0.0226593017578125,0.825531005859375
1686445609496554200,7.87955419921875,-0.5656280517578125,0.023834228515625,0.8267822265625
1686445609506571000,7.889571044921875,-0.5640716552734375,0.0245208740234375,0.8270721435546875
1686445609516588000,7.899588134765625,-0.5626068115234375,0.0233001708984375,0.8278961181640625
1686445609526605000,7.90960498046875,-0.56097412109375,0.020965576171875,0.8278961181640625
1686445609536622000,7.9196220703125,-0.561798095703125,0.019775390625,0.828277587890625
1686445609546638800,7.929638916015625,-0.5630035400390625,0.01715087890625,0.8268585205078125
1686445609556656000,7.93965625,-0.5622406005859375,0.0164031982421875,0.82366943359375
1686445609566673200,7.949673095703125,-0.561859130859375,0.0162811279296875,0.8220062255859375
1686445609576690000,7.95968994140625,-0.5601043701171875,0.0172119140625,0.8224334716796875
1686445609586707200,7.969707275390625,-0.558380126953125,0.018707275390625,0.8216552734375
1686445609596724000,7.979723876953125,-0.557830810546875,0.01934814453125,0.822845458984375
1686445609606740000,7.989739990234375,-0.5584869384765625,0.0197601318359375,0.8241119384765625
1686445609616757200,7.99975732421875,-0.55804443359375,0.0203094482421875,0.82440185546875
1686445609626774000,8.00977392578125,-0.560150146484375,0.021392822265625,0.824981689453125
1686445609636791000,8.019791015625,-0.5627899169921875,0.022247314453125,0.8222198486328125
1686445609646808000,8.02980810546875,-0.5646514892578125,0.0218353271484375,0.822021484375
1686445609656825000,8.0398251953125,-0.567657470703125,0.021636962890625,0.821441650390625
1686445609666841900,8.049841796875,-0.56982421875,0.0211639404296875,0.8216552734375
1686445609676859100,8.059859130859374,-0.5702667236328125,0.0210418701171875,0.8212432861328125
1686445609686876200,8.069876220703126,-0.569854736328125,0.01947021484375,0.822021484375
1686445609696893000,8.079892822265625,-0.5678558349609375,0.0191497802734375,0.8220977783203125
1686445609706910200,8.08991015625,-0.5662078857421875,0.0183258056640625,0.82305908203125
1686445609716927000,8.099927001953125,-0.5649261474609375,0.019195556640625,0.8241119384765625
1686445609726943000,8.10994287109375,-0.5635986328125,0.018798828125,0.8236083984375
1686445609736960300,8.119960205078126,-0.562103271484375,0.017791748046875,0.8232269287109375
1686445609746977000,8.12997705078125,-0.5623626708984375,0.0180511474609375,0.82391357421875
1686445609756994000,8.139994140625,-0.5650787353515625,0.0172576904296875,0.823211669921875
1686445609767011000,8.150010986328125,-0.5661163330078125,0.0179290771484375,0.8245086669921875
1686445609777028000,8.160028076171875,-0.5666961669921875,0.01751708984375,0.824249267578125
1686445609787045000,8.170045166015624,-0.5662841796875,0.018646240234375,0.8248443603515625
1686445609797062100,8.180062255859376,-0.5672454833984375,0.0193634033203125,0.825653076171875
1686445609807079200,8.1900791015625,-0.5650787353515625,0.0210723876953125,0.8252410888671875
1686445609817096000,8.200095947265625,-0.563079833984375,0.0208892822265625,0.82635498046875
1686445609827113200,8.21011328125,-0.56121826171875,0.0201263427734375,0.827423095703125
1686445609837129200,8.220129150390624,-0.560028076171875,0.02069091796875,0.826446533203125
1686445609847146000,8.23014599609375,-0.558685302734375,0.0198516845703125,0.8273773193359375
1686445609857163300,8.240163330078126,-0.5607452392578125,0.0199737548828125,0.826568603515625
1686445609867180000,8.250179931640625,-0.560516357421875,0.0183868408203125,0.8256072998046875
1686445609877197000,8.260197021484375,-0.560882568359375,0.0194091796875,0.8252105712890625
1686445609887214000,8.270214111328125,-0.5615234375,0.019561767578125,0.8243255615234375
1686445609897231000,8.280231201171874,-0.560638427734375,0.0203399658203125,0.8244171142578125
1686445609907248000,8.290248046875,-0.5601959228515625,0.0208587646484375,0.8253021240234375
1686445609917265200,8.30026513671875,-0.5616302490234375,0.0213623046875,0.8254241943359375
1686445609927282200,8.3102822265625,-0.5606536865234375,0.0212554931640625,0.8250885009765625
1686445609937299000,8.320298828125,-0.5618896484375,0.0205230712890625,0.82440185546875
1686445609947316200,8.330316162109375,-0.561279296875,0.020111083984375,0.82476806640625
1686445609957332200,8.340332275390624,-0.56085205078125,0.0197296142578125,0.82513427734375
1686445609967349000,8.350348876953126,-0.562286376953125,0.01934814453125,0.8245391845703125
1686445609977366300,8.3603662109375,-0.562469482421875,0.0185394287109375,0.8239898681640625
1686445609987383000,8.370383056640625,-0.5633392333984375,0.0178070068359375,0.8233489990234375
1686445609997400000,8.380400146484375,-0.5639190673828125,0.017181396484375,0.8227081298828125
1686445610007417000,8.3904169921875,-0.5642547607421875,0.0170745849609375,0.8215789794921875
1686445610017434000,8.40043408203125,-0.565704345703125,0.0178070068359375,0.822418212890625
1686445610027451100,8.410451171875,-0.566131591796875,0.0178375244140625,0.8240966796875
1686445610037468200,8.42046826171875,-0.567901611328125,0.0176544189453125,0.824462890625
1686445610047485200,8.430485107421875,-0.5672454833984375,0.017120361328125,0.8244171142578125
1686445610057502000,8.440501953125,-0.566802978515625,0.0183563232421875,0.824066162109375
1686445610067519200,8.450519287109374,-0.565673828125,0.01800537109375,0.8241729736328125
1686445610077535200,8.46053515625,-0.565277099609375,0.0180206298828125,0.8246002197265625
1686445610087552000,8.470552001953125,-0.5631256103515625,0.0186920166015625,0.8243560791015625
1686445610097569300,8.4805693359375,-0.5622711181640625,0.018890380859375,0.825225830078125
1686445610107586000,8.4905859375,-0.5609283447265625,0.0191192626953125,0.8253326416015625
1686445610117603000,8.50060302734375,-0.5619354248046875,0.0187530517578125,0.8246917724609375
1686445610127620000,8.5106201171875,-0.5613861083984375,0.01837158203125,0.824798583984375
1686445610137637000,8.52063720703125,-0.5621795654296875,0.018341064453125,0.8236236572265625
1686445610147654100,8.530654052734375,-0.562591552734375,0.01812744140625,0.8246307373046875
1686445610157671200,8.540671142578125,-0.5632781982421875,0.0186309814453125,0.82470703125
1686445610167688200,8.550688232421875,-0.5604248046875,0.018951416015625,0.824981689453125
1686445610177705000,8.560705078125,-0.56011962890625,0.020111083984375,0.825439453125
1686445610187722200,8.57072216796875,-0.5576324462890625,0.02099609375,0.826812744140625
1686445610197738200,8.58073828125,-0.557342529296875,0.0205841064453125,0.827362060546875
1686445610207755000,8.590755126953125,-0.5596923828125,0.0198822021484375,0.825531005859375
1686445610217772000,8.60077197265625,-0.5600128173828125,0.01971435546875,0.8256683349609375
1686445610227789000,8.6107890625,-0.5614776611328125,0.0186004638671875,0.8249969482421875
1686445610237806000,8.62080615234375,-0.562255859375,0.0175018310546875,0.824493408203125
1686445610247823000,8.630822998046876,-0.561370849609375,0.01708984375,0.82476806640625
1686445610257840000,8.640840087890625,-0.56170654296875,0.017303466796875,0.8252716064453125
1686445610267857200,8.650857177734375,-0.5616912841796875,0.0164337158203125,0.826171875
1686445610277874200,8.660874267578125,-0.5626983642578125,0.0153045654296875,0.826507568359375
1686445610287891200,8.67089111328125,-0.5636138916015625,0.0169677734375,0.827239990234375
1686445610297908000,8.680907958984376,-0.5646514892578125,0.019073486328125,0.826812744140625
1686445610307924000,8.690924072265625,-0.565582275390625,0.02069091796875,0.82635498046875
1686445610317941200,8.700941162109375,-0.564910888671875,0.020477294921875,0.8254547119140625
1686445610327958000,8.7109580078125,-0.564117431640625,0.01971435546875,0.8248443603515625
1686445610337975000,8.72097509765625,-0.5659637451171875,0.019500732421875,0.825714111328125
1686445610347992000,8.730991943359374,-0.56634521484375,0.02008056640625,0.8261260986328125
1686445610358009000,8.741009033203126,-0.565887451171875,0.019561767578125,0.824737548828125
1686445610368026000,8.751026123046875,-0.565826416015625,0.0184783935546875,0.8252105712890625
1686445610378043100,8.761043212890625,-0.5661773681640625,0.0180816650390625,0.8259735107421875
1686445610388060200,8.77106005859375,-0.5653076171875,0.017333984375,0.826904296875
1686445610398077000,8.781076904296874,-0.5655059814453125,0.0168304443359375,0.8264312744140625
1686445610408094200,8.79109423828125,-0.563232421875,0.0167388916015625,0.8243865966796875
1686445610418111000,8.801111083984376,-0.5617218017578125,0.016082763671875,0.8229217529296875
1686445610428127000,8.811126953125,-0.5623016357421875,0.0157928466796875,0.8222198486328125
1686445610438144300,8.821144287109375,-0.5614776611328125,0.0165863037109375,0.8234405517578125
1686445610448161000,8.8311611328125,-0.5607452392578125,0.016937255859375,0.8230438232421875
1686445610458178000,8.841177978515624,-0.5598907470703125,0.017242431640625,0.822998046875
1686445610468195000,8.851195068359376,-0.55914306640625,0.017791748046875,0.823638916015625
1686445610478212000,8.861212158203125,-0.560028076171875,0.0193939208984375,0.82421875
1686445610488229000,8.87122900390625,-0.561248779296875,0.0205535888671875,0.825714111328125
1686445610498246100,8.88124609375,-0.561553955078125,0.0211334228515625,0.8257598876953125
1686445610508263200,8.89126318359375,-0.563232421875,0.02069091796875,0.8255615234375
1686445610518280000,8.901280029296874,-0.5633544921875,0.021026611328125,0.8253326416015625
1686445610528297200,8.911297119140626,-0.5635528564453125,0.0205535888671875,0.8255615234375
1686445610538314000,8.92131396484375,-0.5631256103515625,0.0202484130859375,0.8252105712890625
1686445610548330000,8.931330078125,-0.5606842041015625,0.019775390625,0.825469970703125
1686445610558347300,8.94134716796875,-0.5604095458984375,0.0177764892578125,0.825714111328125
1686445610568364000,8.951364013671874,-0.558837890625,0.01568603515625,0.824920654296875
1686445610578381000,8.961381103515626,-0.5601654052734375,0.0169830322265625,0.8251953125
1686445610588398300,8.9713984375,-0.5610504150390625,0.018157958984375,0.825714111328125
1686445610598415000,8.9814150390625,-0.5604248046875,0.019378662109375,0.8242950439453125
1686445610608432000,8.99143212890625,-0.56231689453125,0.020355224609375,0.82452392578125
1686445610618449200,9.00144921875,-0.5637054443359375,0.0199127197265625,0.8272857666015625
1686445610628466200,9.011466064453124,-0.56317138671875,0.019866943359375,0.8271331787109375
1686445610638483000,9.02148291015625,-0.5623931884765625,0.0187225341796875,0.8284454345703125
1686445610648500200,9.031500244140625,-0.5631256103515625,0.0181732177734375,0.827880859375
1686445610658517200,9.041517333984375,-0.562255859375,0.017669677734375,0.826995849609375
1686445610668533000,9.051532958984374,-0.5623931884765625,0.0170745849609375,0.8270263671875
1686445610678550000,9.061550048828124,-0.5631866455078125,0.0169219970703125,0.82611083984375
1686445610688567000,9.071567138671876,-0.5629425048828125,0.0163726806640625,0.8257904052734375
1686445610698584000,9.081583984375,-0.5627288818359375,0.01678466796875,0.8248291015625
1686445610708601000,9.09160107421875,-0.563323974609375,0.017242431640625,0.8238525390625
1686445610718618000,9.1016181640625,-0.5644989013671875,0.0181884765625,0.82244873046875
1686445610728635100,9.11163525390625,-0.564971923828125,0.01837158203125,0.8233489990234375
1686445610738652200,9.121652099609374,-0.5659332275390625,0.0175018310546875,0.8230133056640625
1686445610748669200,9.131669189453126,-0.5649566650390625,0.0181884765625,0.8238525390625
1686445610758686000,9.14168603515625,-0.56451416015625,0.0182037353515625,0.824859619140625
1686445610768703200,9.151703125,-0.561676025390625,0.017303466796875,0.824493408203125
1686445610778720300,9.16172021484375,-0.560028076171875,0.018218994140625,0.8246917724609375
1686445610788736000,9.171736083984374,-0.55828857421875,0.0184478759765625,0.8255767822265625
1686445610798753300,9.181753173828126,-0.5583343505859375,0.01702880859375,0.8251800537109375
1686445610808770300,9.191770263671875,-0.55987548828125,0.016754150390625,0.82415771484375
1686445610818787300,9.201787353515625,-0.5592041015625,0.017425537109375,0.8228759765625
1686445610828804400,9.211804443359375,-0.5611419677734375,0.01751708984375,0.8235626220703125
1686445610838821400,9.2218212890625,-0.56005859375,0.017974853515625,0.82379150390625
1686445610848838400,9.23183837890625,-0.5609283447265625,0.0186920166015625,0.8235626220703125
1686445610858855200,9.241855224609376,-0.56097412109375,0.019073486328125,0.825347900390625
1686445610868872400,9.25187255859375,-0.5604248046875,0.0197601318359375,0.8264007568359375
1686445610878889200,9.26188916015625,-0.559967041015625,0.01873779296875,0.8277130126953125
1686445610888906200,9.27190625,-0.5599212646484375,0.0185394287109375,0.829559326171875
1686445610898923500,9.281923583984375,-0.559783935546875,0.0175628662109375,0.829254150390625
1686445610908939300,9.291939208984376,-0.56048583984375,0.01763916015625,0.8286895751953125
1686445610918956300,9.301956298828125,-0.5617218017578125,0.0178070068359375,0.8281097412109375
1686445610928973300,9.311973388671875,-0.5632781982421875,0.0177764892578125,0.8270416259765625
1686445610938990300,9.321990234375,-0.565277099609375,0.01788330078125,0.8272552490234375
1686445610949007400,9.33200732421875,-0.56512451171875,0.0182342529296875,0.826690673828125
1686445610959024400,9.3420244140625,-0.5645599365234375,0.0175323486328125,0.8267669677734375
1686445610969041400,9.35204150390625,-0.5648040771484375,0.0177764892578125,0.8270416259765625
1686445610979058200,9.36205810546875,-0.5632171630859375,0.018218994140625,0.8273773193359375
1686445610989075500,9.372075439453125,-0.562225341796875,0.0180511474609375,0.82696533203125
1686445610999092200,9.38209228515625,-0.5638427734375,0.017852783203125,0.825439453125
1686445611009109200,9.392109130859374,-0.5634002685546875,0.017425537109375,0.8241729736328125
1686445611019125200,9.402125244140626,-0.561920166015625,0.0164947509765625,0.8247528076171875
1686445611029142300,9.412142333984375,-0.562042236328125,0.0171966552734375,0.8244171142578125
1686445611039159300,9.4221591796875,-0.562896728515625,0.0174560546875,0.824676513671875
1686445611049176300,9.43217626953125,-0.563201904296875,0.017333984375,0.82440185546875
1686445611059193300,9.442193359375,-0.5625152587890625,0.017425537109375,0.8246917724609375
1686445611069210400,9.45221044921875,-0.5622100830078125,0.017578125,0.8243560791015625
1686445611079227100,9.46222705078125,-0.5619049072265625,0.0179290771484375,0.82342529296875
1686445611089244400,9.472244384765625,-0.5615081787109375,0.0178985595703125,0.8235626220703125
1686445611099261200,9.48226123046875,-0.5594940185546875,0.0172271728515625,0.8248138427734375
1686445611109278500,9.492278564453125,-0.559722900390625,0.0169830322265625,0.82330322265625
1686445611119295200,9.502295166015625,-0.5614013671875,0.0161590576171875,0.8224334716796875
1686445611129312300,9.512312255859374,-0.5604095458984375,0.0161895751953125,0.8249969482421875
1686445611139329500,9.52232958984375,-0.56024169921875,0.015655517578125,0.8251190185546875
1686445611149345300,9.53234521484375,-0.561370849609375,0.0158538818359375,0.8272247314453125
1686445611159362300,9.5423623046875,-0.5617218017578125,0.0171051025390625,0.82745361328125
1686445611169379300,9.55237939453125,-0.56298828125,0.0171356201171875,0.8265838623046875
1686445611179396400,9.562396240234374,-0.5634613037109375,0.0187835693359375,0.8270111083984375
1686445611189413400,9.572413330078126,-0.5638580322265625,0.02197265625,0.82781982421875
1686445611199430100,9.58243017578125,-0.5615081787109375,0.021240234375,0.827239990234375
1686445611209447400,9.592447509765625,-0.5605926513671875,0.01971435546875,0.82861328125
1686445611219464200,9.602464111328125,-0.5605621337890625,0.0178680419921875,0.827972412109375
1686445611229481200,9.612481201171875,-0.561370849609375,0.0171966552734375,0.8262939453125
1686445611239498500,9.62249853515625,-0.560516357421875,0.016571044921875,0.8251495361328125
1686445611249515300,9.632515380859376,-0.5611724853515625,0.0152587890625,0.8252105712890625
1686445611259531300,9.64253125,-0.5598602294921875,0.0159149169921875,0.8260040283203125
1686445611269548500,9.652548583984375,-0.5604705810546875,0.01715087890625,0.8261566162109375
1686445611279565300,9.6625654296875,-0.5615386962890625,0.020416259765625,0.8262481689453125
1686445611289582300,9.672582275390624,-0.5629119873046875,0.0222320556640625,0.8267364501953125
1686445611299599400,9.682599365234376,-0.5626220703125,0.022979736328125,0.826171875
1686445611309616400,9.692616455078126,-0.5638580322265625,0.0213623046875,0.827850341796875
1686445611319633200,9.702633056640625,-0.56451416015625,0.019927978515625,0.8276214599609375
1686445611329650400,9.712650390625,-0.565521240234375,0.0201416015625,0.8256683349609375
1686445611339667200,9.722667236328125,-0.565155029296875,0.0194091796875,0.8231201171875
1686445611349684200,9.732684326171874,-0.564056396484375,0.0176544189453125,0.8215179443359375
1686445611359701500,9.742701416015626,-0.565826416015625,0.0169525146484375,0.821044921875
1686445611369718300,9.75271826171875,-0.5651397705078125,0.0161590576171875,0.8215789794921875
1686445611379734300,9.762734375,-0.56439208984375,0.0147857666015625,0.82257080078125
1686445611389751600,9.77275146484375,-0.5623931884765625,0.01483154296875,0.82305908203125
1686445611399768300,9.782768310546874,-0.56121826171875,0.014984130859375,0.8232421875
1686445611409785300,9.792785400390626,-0.562408447265625,0.0148468017578125,0.8244171142578125
1686445611419802400,9.80280224609375,-0.5633544921875,0.015106201171875,0.82489013671875
1686445611429819400,9.8128193359375,-0.5630340576171875,0.0148162841796875,0.824676513671875
1686445611439836200,9.822836181640625,-0.56329345703125,0.0164794921875,0.82623291015625
1686445611449853400,9.832853515625,-0.5621795654296875,0.018341064453125,0.8292236328125
1686445611459870500,9.842870361328124,-0.5615386962890625,0.0212554931640625,0.8284149169921875
1686445611469887200,9.85288720703125,-0.5599365234375,0.02166748046875,0.8232421875
1686445611479904500,9.862904541015626,-0.560699462890625,0.0204620361328125,0.8213348388671875
1686445611489921300,9.87292138671875,-0.5613861083984375,0.018310546875,0.8211517333984375
1686445611499938300,9.882938232421875,-0.5617218017578125,0.0205078125,0.821502685546875
1686445611509954300,9.892954345703124,-0.56317138671875,0.0207672119140625,0.8232574462890625
1686445611519971300,9.902971435546876,-0.56414794921875,0.020965576171875,0.8252716064453125
1686445611529988400,9.91298828125,-0.5634613037109375,0.0195465087890625,0.82623291015625
1686445611540005000,9.923005126953125,-0.564910888671875,0.019256591796875,0.82611083984375
1686445611550022400,9.9330224609375,-0.566162109375,0.0193634033203125,0.826141357421875
1686445611560039200,9.9430390625,-0.567169189453125,0.020721435546875,0.8255462646484375
1686445611570056400,9.953056396484374,-0.565277099609375,0.02081298828125,0.82574462890625
1686445611580073500,9.963073486328126,-0.562408447265625,0.0203094482421875,0.8260955810546875
1686445611590090200,9.97309033203125,-0.5601348876953125,0.0193328857421875,0.8256988525390625
1686445611600107500,9.983107421875,-0.5592498779296875,0.017913818359375,0.825408935546875
1686445611610124300,9.993124267578125,-0.56048583984375,0.018157958984375,0.8260040283203125
1686445611620141300,10.003141357421875,-0.562347412109375,0.0169677734375,0.8257904052734375
1686445611630157300,10.0131572265625,-0.564361572265625,0.016845703125,0.825653076171875
1686445611640174300,10.02317431640625,-0.56494140625,0.0169677734375,0.824188232421875
1686445611650191400,10.03319140625,-0.5648345947265625,0.016876220703125,0.8226318359375
1686445611660208000,10.0432080078125,-0.5640716552734375,0.0164947509765625,0.821502685546875
1686445611670225400,10.053225341796875,-0.5623931884765625,0.0170135498046875,0.82086181640625
1686445611680242200,10.0632421875,-0.562225341796875,0.01739501953125,0.822174072265625
1686445611690259200,10.07325927734375,-0.5608673095703125,0.017578125,0.8224945068359375
1686445611700276500,10.0832763671875,-0.5631103515625,0.019134521484375,0.823516845703125
1686445611710293200,10.093293212890625,-0.5631103515625,0.0197906494140625,0.823699951171875
1686445611720310300,10.103310302734375,-0.562896728515625,0.0194244384765625,0.826141357421875
1686445611730327300,10.113327392578125,-0.561737060546875,0.01983642578125,0.8265380859375
1686445611740344300,10.12334423828125,-0.562225341796875,0.020172119140625,0.8259735107421875
1686445611750360300,10.1333603515625,-0.5629119873046875,0.019683837890625,0.8248291015625
1686445611760377300,10.14337744140625,-0.5628662109375,0.0197601318359375,0.8229217529296875
1686445611770394400,10.153394287109375,-0.564361572265625,0.0203857421875,0.821533203125
1686445611780411100,10.1634111328125,-0.5651702880859375,0.020172119140625,0.8235626220703125
1686445611790428400,10.173428466796874,-0.56610107421875,0.020294189453125,0.82330322265625
1686445611800445400,10.183445556640624,-0.564971923828125,0.0194854736328125,0.8242034912109375
1686445611810462500,10.19346240234375,-0.5639801025390625,0.0190887451171875,0.8248748779296875
1686445611820479500,10.2034794921875,-0.5640716552734375,0.0191650390625,0.825531005859375
1686445611830496500,10.21349658203125,-0.5637054443359375,0.0184478759765625,0.8249359130859375
1686445611840513500,10.223513427734375,-0.563568115234375,0.018096923828125,0.826416015625
1686445611850530300,10.2335302734375,-0.5645904541015625,0.0186004638671875,0.825592041015625
1686445611860547600,10.243547607421876,-0.5652618408203125,0.0185546875,0.8240203857421875
1686445611870563600,10.2535634765625,-0.56439208984375,0.01898193359375,0.825286865234375
1686445611880580400,10.263580322265625,-0.56524658203125,0.0198974609375,0.8256683349609375
1686445611890597400,10.273597412109375,-0.565093994140625,0.019683837890625,0.824798583984375
1686445611900614400,10.283614501953124,-0.564666748046875,0.01947021484375,0.824493408203125
1686445611910631400,10.29363134765625,-0.5643463134765625,0.0199737548828125,0.8258056640625
1686445611920648400,10.3036484375,-0.5620574951171875,0.0200042724609375,0.8251953125
1686445611930665500,10.31366552734375,-0.5613555908203125,0.0188446044921875,0.8256072998046875
1686445611940682500,10.3236826171875,-0.56103515625,0.0189666748046875,0.8245391845703125
1686445611950699300,10.33369921875,-0.5614013671875,0.0186614990234375,0.822845458984375
1686445611960716500,10.343716552734374,-0.5620574951171875,0.0192413330078125,0.8228759765625
1686445611970733300,10.3537333984375,-0.5632781982421875,0.0197296142578125,0.8223876953125
1686445611980750600,10.36375048828125,-0.562835693359375,0.019561767578125,0.8227081298828125
1686445611990766600,10.3737666015625,-0.561981201171875,0.0195159912109375,0.822784423828125
1686445612000783400,10.383783447265625,-0.564849853515625,0.019775390625,0.8234100341796875
1686445612010800400,10.39380029296875,-0.56402587890625,0.020111083984375,0.8226776123046875
1686445612020817400,10.4038173828125,-0.563079833984375,0.0207366943359375,0.8225555419921875
1686445612030834400,10.41383447265625,-0.5638275146484375,0.0199127197265625,0.8237152099609375
1686445612040851500,10.4238515625,-0.563385009765625,0.0202789306640625,0.8239593505859375
1686445612050868500,10.433868408203125,-0.56292724609375,0.020904541015625,0.824127197265625
1686445612060885500,10.443885498046875,-0.5641326904296875,0.0204620361328125,0.825103759765625
1686445612070902300,10.45390234375,-0.5648345947265625,0.019775390625,0.824737548828125
1686445612080919600,10.46391943359375,-0.5655364990234375,0.01898193359375,0.825347900390625
1686445612090936300,10.473936279296876,-0.56719970703125,0.019744873046875,0.82562255859375
1686445612100953300,10.483953369140625,-0.5675201416015625,0.020355224609375,0.82476806640625
1686445612110969600,10.493969482421875,-0.568145751953125,0.02099609375,0.82354736328125
1686445612120986400,10.503986328125,-0.5667724609375,0.020233154296875,0.8230743408203125
1686445612131003400,10.51400341796875,-0.5649871826171875,0.0201416015625,0.8233184814453125
1686445612141020400,10.5240205078125,-0.5640106201171875,0.0188751220703125,0.82354736328125
1686445612151037400,10.534037353515625,-0.5638580322265625,0.0180511474609375,0.8240509033203125
1686445612161054500,10.544054443359375,-0.563140869140625,0.0177001953125,0.823272705078125
1686445612171071500,10.554071533203125,-0.5643463134765625,0.018157958984375,0.8240509033203125
1686445612181088500,10.564088623046874,-0.5630035400390625,0.0177764892578125,0.824615478515625
1686445612191105300,10.574105224609376,-0.5627593994140625,0.0186920166015625,0.8253631591796875
1686445612201122600,10.58412255859375,-0.56365966796875,0.02044677734375,0.825286865234375
1686445612211139300,10.594139404296875,-0.564208984375,0.0225372314453125,0.823486328125
1686445612221156400,10.60415625,-0.5648040771484375,0.0239715576171875,0.8221893310546875
1686445612231172600,10.614172607421875,-0.5638580322265625,0.02435302734375,0.82196044921875
1686445612241189400,10.624189453125,-0.5641632080078125,0.024505615234375,0.8226165771484375
1686445612251206400,10.634206298828126,-0.5644989013671875,0.0236968994140625,0.824737548828125
1686445612261223700,10.6442236328125,-0.5645599365234375,0.0226593017578125,0.8260650634765625
1686445612271240400,10.654240478515625,-0.564208984375,0.02056884765625,0.8251495361328125
1686445612281257500,10.664257568359375,-0.5640716552734375,0.0189666748046875,0.82427978515625
1686445612291274500,10.6742744140625,-0.56524658203125,0.01776123046875,0.82403564453125
1686445612301291500,10.68429150390625,-0.5665435791015625,0.01654052734375,0.8242340087890625
1686445612311308300,10.694308349609376,-0.5660247802734375,0.0163116455078125,0.82293701171875
1686445612321325600,10.70432568359375,-0.5656280517578125,0.0174407958984375,0.822967529296875
1686445612331342300,10.71434228515625,-0.5645294189453125,0.0178375244140625,0.8224639892578125
1686445612341359400,10.724359375,-0.56268310546875,0.018341064453125,0.82232666015625
1686445612351376600,10.734376708984374,-0.562103271484375,0.019378662109375,0.8241119384765625
1686445612361392400,10.744392333984376,-0.5625,0.018341064453125,0.8243865966796875
1686445612371409400,10.754409423828125,-0.5637359619140625,0.019012451171875,0.82354736328125
1686445612381426400,10.764426513671875,-0.56390380859375,0.020904541015625,0.822235107421875
1686445612391443500,10.774443359375,-0.5657501220703125,0.022186279296875,0.8210601806640625
1686445612401460500,10.78446044921875,-0.5677490234375,0.0228424072265625,0.8207855224609375
1686445612411477500,10.7944775390625,-0.5677337646484375,0.0232391357421875,0.8226318359375
1686445612421494500,10.80449462890625,-0.56805419921875,0.0235443115234375,0.8225860595703125
1686445612431511300,10.81451123046875,-0.56793212890625,0.0228729248046875,0.8241424560546875
1686445612441528600,10.824528564453125,-0.5662078857421875,0.02227783203125,0.8243865966796875
1686445612451545600,10.834545654296875,-0.5651092529296875,0.0204925537109375,0.8238677978515625
1686445612461562400,10.844562255859374,-0.563995361328125,0.0192718505859375,0.823028564453125
1686445612471579600,10.85457958984375,-0.5621490478515625,0.0190277099609375,0.822845458984375
1686445612481595400,10.864595458984375,-0.5607452392578125,0.020172119140625,0.8226165771484375
1686445612491612400,10.8746123046875,-0.5611114501953125,0.020111083984375,0.8226470947265625
1686445612501629400,10.88462939453125,-0.56109619140625,0.01995849609375,0.8232879638671875
1686445612511646500,10.894646484375,-0.5630035400390625,0.019805908203125,0.823211669921875
1686445612521663500,10.90466357421875,-0.5648345947265625,0.0194549560546875,0.8246002197265625
1686445612531680300,10.91468017578125,-0.56707763671875,0.02001953125,0.8256072998046875
1686445612541697500,10.924697509765625,-0.56793212890625,0.0205078125,0.82672119140625
1686445612551714300,10.93471435546875,-0.56561279296875,0.0208892822265625,0.826080322265625
1686445612561731300,10.9447314453125,-0.56365966796875,0.0204010009765625,0.8260345458984375
1686445612571748600,10.95474853515625,-0.563232421875,0.0197296142578125,0.8262176513671875
1686445612581765400,10.964765380859374,-0.5636444091796875,0.0191802978515625,0.8251495361328125
1686445612591782400,10.974782470703126,-0.563751220703125,0.0187530517578125,0.823455810546875
1686445612601799400,10.98479931640625,-0.56414794921875,0.01885986328125,0.8225250244140625
1686445612611815400,10.9948154296875,-0.566009521484375,0.0182952880859375,0.82244873046875
1686445612621832400,11.00483251953125,-0.5666351318359375,0.019500732421875,0.8221282958984375
1686445612631849500,11.014849365234374,-0.5655364990234375,0.0191802978515625,0.8225860595703125
1686445612641866500,11.024866455078126,-0.56402587890625,0.019927978515625,0.8224334716796875
1686445612651883300,11.03488330078125,-0.563079833984375,0.0205841064453125,0.8247222900390625
1686445612661900500,11.044900634765625,-0.5627288818359375,0.0204925537109375,0.826385498046875
1686445612671917300,11.054917236328125,-0.5632476806640625,0.020416259765625,0.824127197265625
1686445612681934300,11.064934326171874,-0.563201904296875,0.020843505859375,0.8233184814453125
1686445612691951600,11.07495166015625,-0.562469482421875,0.0209197998046875,0.8225860595703125
1686445612701968400,11.084968505859376,-0.5631256103515625,0.0208892822265625,0.8222808837890625
1686445612711985400,11.0949853515625,-0.56390380859375,0.02154541015625,0.82147216796875
1686445612722002400,11.10500244140625,-0.5640869140625,0.0211639404296875,0.821746826171875
1686445612732018400,11.115018310546875,-0.5646514892578125,0.0201873779296875,0.8220672607421875
1686445612742035500,11.125035400390624,-0.565521240234375,0.020538330078125,0.8231201171875
1686445612752052500,11.135052490234376,-0.5642852783203125,0.018829345703125,0.822784423828125
1686445612762069500,11.145069580078125,-0.5637969970703125,0.018035888671875,0.8240966796875
1686445612772086300,11.155086181640625,-0.562408447265625,0.017242431640625,0.8245086669921875
1686445612782103600,11.165103515625,-0.5650482177734375,0.017181396484375,0.82525634765625
1686445612792120600,11.17512060546875,-0.5641326904296875,0.0189971923828125,0.82574462890625
1686445612802137600,11.1851376953125,-0.5648956298828125,0.01849365234375,0.8261566162109375
1686445612812154600,11.195154541015626,-0.5658416748046875,0.018585205078125,0.82562255859375
1686445612822171600,11.205171630859375,-0.566619873046875,0.019317626953125,0.8256072998046875
1686445612832188700,11.215188720703125,-0.5672607421875,0.019622802734375,0.8245391845703125
1686445612842205400,11.225205322265625,-0.566192626953125,0.0204315185546875,0.8240814208984375
1686445612852221400,11.235221435546874,-0.5637664794921875,0.0206146240234375,0.8238372802734375
1686445612862238700,11.24523876953125,-0.5641021728515625,0.0203399658203125,0.82421875
1686445612872255500,11.25525537109375,-0.5632476806640625,0.019805908203125,0.8240203857421875
1686445612882272500,11.2652724609375,-0.562469482421875,0.019195556640625,0.8241424560546875
1686445612892289500,11.27528955078125,-0.562042236328125,0.01898193359375,0.82452392578125
1686445612902306600,11.285306640625,-0.5625457763671875,0.0195465087890625,0.8252410888671875
1686445612912323600,11.295323486328124,-0.560516357421875,0.021026611328125,0.8252410888671875
1686445612922340600,11.305340576171876,-0.5591583251953125,0.019866943359375,0.825164794921875
1686445612932357600,11.315357666015625,-0.5614776611328125,0.0186004638671875,0.8239898681640625
1686445612942374400,11.32537451171875,-0.5625457763671875,0.0188751220703125,0.8223724365234375
1686445612952391700,11.3353916015625,-0.5648956298828125,0.0199737548828125,0.8234405517578125
1686445612962408400,11.345408447265624,-0.565216064453125,0.0197296142578125,0.82354736328125
1686445612972425500,11.355425537109374,-0.56427001953125,0.0194091796875,0.8235931396484375
1686445612982441700,11.365441650390625,-0.56256103515625,0.020111083984375,0.823822021484375
1686445612992458500,11.37545849609375,-0.56182861328125,0.0199127197265625,0.8254241943359375
1686445613002475500,11.3854755859375,-0.5628509521484375,0.0193328857421875,0.8252105712890625
1686445613012492500,11.395492431640625,-0.56402587890625,0.019317626953125,0.824493408203125
1686445613022509600,11.405509521484374,-0.5645294189453125,0.018157958984375,0.8227996826171875
1686445613032526600,11.415526611328126,-0.5638885498046875,0.016998291015625,0.8220672607421875
1686445613042543600,11.425543701171875,-0.5640716552734375,0.0164947509765625,0.822357177734375
1686445613052560600,11.435560546875,-0.5649261474609375,0.0161590576171875,0.823699951171875
1686445613062577400,11.445577392578125,-0.5635223388671875,0.0156707763671875,0.824188232421875
1686445613072594700,11.4555947265625,-0.56463623046875,0.0152740478515625,0.8250579833984375
1686445613082611500,11.465611572265624,-0.564788818359375,0.0167083740234375,0.8255462646484375
1686445613092628500,11.47562841796875,-0.564666748046875,0.019256591796875,0.825714111328125
1686445613102644700,11.485644775390625,-0.562896728515625,0.02117919921875,0.8242034912109375
1686445613112661500,11.49566162109375,-0.56304931640625,0.02215576171875,0.8233184814453125
1686445613122678500,11.505678466796875,-0.562744140625,0.02215576171875,0.824127197265625
1686445613132695600,11.515695556640624,-0.562255859375,0.02166748046875,0.82550048828125
1686445613142712600,11.525712646484376,-0.56561279296875,0.0210723876953125,0.827239990234375
1686445613152729600,11.5357294921875,-0.5660247802734375,0.0207366943359375,0.8264007568359375
1686445613162746600,11.54574658203125,-0.5642242431640625,0.0196685791015625,0.8260650634765625
1686445613172763600,11.555763671875,-0.56329345703125,0.0184173583984375,0.8265228271484375
1686445613182780400,11.565780517578125,-0.5632476806640625,0.0170135498046875,0.82568359375
1686445613192797700,11.575797607421874,-0.5641021728515625,0.0172271728515625,0.8249359130859375
1686445613202814500,11.585814453125,-0.563507080078125,0.0170135498046875,0.823333740234375
1686445613212831500,11.59583154296875,-0.5624237060546875,0.016937255859375,0.8218994140625
1686445613222847500,11.605847412109375,-0.5630035400390625,0.017333984375,0.8222503662109375
1686445613232864500,11.615864501953125,-0.5631866455078125,0.0185546875,0.8239593505859375
1686445613242881500,11.625881591796874,-0.5626983642578125,0.0182647705078125,0.8255157470703125
1686445613252898600,11.635898681640626,-0.562408447265625,0.01806640625,0.8251495361328125
1686445613262915600,11.64591552734375,-0.562774658203125,0.017059326171875,0.824432373046875
1686445613272932600,11.6559326171875,-0.5618896484375,0.0174560546875,0.82464599609375
1686445613282949600,11.66594970703125,-0.5619964599609375,0.0189361572265625,0.8240509033203125
1686445613292966700,11.675966552734375,-0.563720703125,0.01995849609375,0.823333740234375
1686445613302983400,11.6859833984375,-0.564300537109375,0.0196380615234375,0.8227996826171875
1686445613313000700,11.696000732421876,-0.56494140625,0.019134521484375,0.82196044921875
1686445613323017500,11.706017578125,-0.5653076171875,0.0179901123046875,0.8218231201171875
1686445613333034500,11.716034423828125,-0.5652618408203125,0.0193939208984375,0.8233184814453125
1686445613343051800,11.7260517578125,-0.5640716552734375,0.019500732421875,0.82305908203125
1686445613353067500,11.736067626953124,-0.562469482421875,0.0193634033203125,0.8231964111328125
1686445613363084500,11.74608447265625,-0.56268310546875,0.019439697265625,0.82354736328125
1686445613373101600,11.7561015625,-0.56097412109375,0.018768310546875,0.824798583984375
1686445613383118600,11.76611865234375,-0.5611419677734375,0.0186767578125,0.825775146484375
1686445613393135600,11.776135498046875,-0.5614776611328125,0.0192108154296875,0.8253326416015625
1686445613403152400,11.78615234375,-0.5618896484375,0.019012451171875,0.824798583984375
1686445613413169700,11.796169677734374,-0.5624542236328125,0.017578125,0.82391357421875
1686445613423186400,11.8061865234375,-0.5638427734375,0.0182037353515625,0.8241729736328125
1686445613433203500,11.816203369140625,-0.56439208984375,0.017913818359375,0.8263397216796875
1686445613443220700,11.826220703125,-0.5639801025390625,0.0180206298828125,0.8262481689453125
1686445613453237500,11.836237548828125,-0.5634765625,0.0169677734375,0.827972412109375
1686445613463254800,11.8462548828125,-0.5632476806640625,0.0181884765625,0.8271484375
1686445613473270500,11.8562705078125,-0.5641326904296875,0.018402099609375,0.82598876953125
1686445613483287600,11.86628759765625,-0.563751220703125,0.0173492431640625,0.8257293701171875
1686445613493304600,11.8763046875,-0.5642242431640625,0.018310546875,0.825592041015625
1686445613503321600,11.886321533203125,-0.5634002685546875,0.017608642578125,0.825653076171875
1686445613513338600,11.896338623046875,-0.5641021728515625,0.0173492431640625,0.8250732421875
1686445613523355400,11.90635546875,-0.5644073486328125,0.0175323486328125,0.82373046875
1686445613533372700,11.91637255859375,-0.5642242431640625,0.0178985595703125,0.8243865966796875
1686445613543389400,11.926389404296875,-0.5634765625,0.0190277099609375,0.8244171142578125
1686445613553406500,11.936406494140625,-0.5630035400390625,0.0184326171875,0.824462890625
1686445613563423700,11.946423828125,-0.5606842041015625,0.01800537109375,0.8250274658203125
1686445613573440500,11.9564404296875,-0.5586395263671875,0.018585205078125,0.8254852294921875
1686445613583457500,11.96645751953125,-0.5597381591796875,0.0185546875,0.8251800537109375
1686445613593474600,11.976474609375,-0.5599212646484375,0.0189208984375,0.8243560791015625
1686445613603490600,11.986490478515625,-0.5614166259765625,0.018524169921875,0.82269287109375
1686445613613507600,11.996507568359375,-0.5634307861328125,0.0186920166015625,0.82196044921875
1686445613623524600,12.006524658203125,-0.5632781982421875,0.01812744140625,0.8216705322265625
1686445613633541600,12.016541748046874,-0.5631256103515625,0.018524169921875,0.82177734375
1686445613643558400,12.026558349609376,-0.5628509521484375,0.0189056396484375,0.8238983154296875
1686445613653575700,12.03657568359375,-0.562896728515625,0.01678466796875,0.824676513671875
1686445613663592700,12.0465927734375,-0.56341552734375,0.01702880859375,0.8251800537109375
1686445613673609500,12.056609375,-0.56195068359375,0.01641845703125,0.825653076171875
1686445613683626800,12.066626708984375,-0.5614013671875,0.015899658203125,0.8266448974609375
1686445613693643500,12.0766435546875,-0.5635528564453125,0.0166015625,0.8253173828125
1686445613703660500,12.08666064453125,-0.56488037109375,0.016510009765625,0.8248138427734375
1686445613713677600,12.096677490234375,-0.5660400390625,0.0180816650390625,0.8246917724609375
1686445613723693600,12.106693603515625,-0.566070556640625,0.0192413330078125,0.8247528076171875
1686445613733710600,12.116710693359375,-0.56585693359375,0.018157958984375,0.825469970703125
1686445613743727600,12.1267275390625,-0.565155029296875,0.0189208984375,0.8262481689453125
1686445613753744600,12.13674462890625,-0.5647125244140625,0.01885986328125,0.82757568359375
1686445613763761400,12.146761474609375,-0.5647430419921875,0.017730712890625,0.8258056640625
1686445613773778700,12.15677880859375,-0.563751220703125,0.0164947509765625,0.825592041015625
1686445613783795700,12.166795654296875,-0.5627899169921875,0.0166168212890625,0.82537841796875
1686445613793812500,12.1768125,-0.561553955078125,0.0178680419921875,0.8260955810546875
1686445613803829000,12.1868291015625,-0.5598907470703125,0.0174713134765625,0.825042724609375
1686445613813845800,12.196845703125,-0.5605621337890625,0.0174560546875,0.8248291015625
1686445613823863000,12.206863037109375,-0.5605621337890625,0.0172271728515625,0.825775146484375
1686445613833880000,12.216880126953125,-0.560455322265625,0.01776123046875,0.82489013671875
1686445613843897000,12.22689697265625,-0.561248779296875,0.0169830322265625,0.824981689453125
1686445613853913000,12.2369130859375,-0.5621795654296875,0.0179595947265625,0.8256072998046875
1686445613863930000,12.24693017578125,-0.56219482421875,0.018524169921875,0.825164794921875
1686445613873947000,12.25694677734375,-0.5626983642578125,0.017730712890625,0.82489013671875
1686445613883964200,12.266964111328125,-0.561859130859375,0.016357421875,0.8246307373046875
1686445613893981000,12.27698095703125,-0.560546875,0.016815185546875,0.8246612548828125
1686445613903998000,12.286998046875,-0.562957763671875,0.0167694091796875,0.825653076171875
1686445613914015000,12.297014892578124,-0.5637664794921875,0.0165252685546875,0.825531005859375
1686445613924032000,12.307031982421876,-0.562042236328125,0.0172119140625,0.8250885009765625
1686445613934048800,12.317048828125,-0.56298828125,0.0181732177734375,0.82513427734375
1686445613944066000,12.327066162109375,-0.562957763671875,0.0169219970703125,0.8256378173828125
1686445613954083000,12.3370830078125,-0.5630035400390625,0.0170135498046875,0.8258209228515625
1686445613964099800,12.347099853515624,-0.56402587890625,0.01708984375,0.8252105712890625
1686445613974117000,12.3571171875,-0.564361572265625,0.0174560546875,0.8245849609375
1686445613984133000,12.367133056640625,-0.5641632080078125,0.0171966552734375,0.8245086669921875
1686445613994150000,12.37714990234375,-0.5624847412109375,0.01593017578125,0.8246612548828125
1686445614004167200,12.387167236328125,-0.5629425048828125,0.0164642333984375,0.824737548828125
1686445614014184000,12.397183837890625,-0.5628662109375,0.0164794921875,0.826141357421875
1686445614024201000,12.407200927734374,-0.5630950927734375,0.0170745849609375,0.8260040283203125
1686445614034218000,12.417218017578126,-0.5614471435546875,0.0168609619140625,0.825592041015625
1686445614044235000,12.427235107421875,-0.5608062744140625,0.0175628662109375,0.825836181640625
1686445614054252000,12.437251953125,-0.561279296875,0.01739501953125,0.8263092041015625
1686445614064269000,12.44726904296875,-0.5619354248046875,0.0176544189453125,0.826019287109375
1686445614074286000,12.4572861328125,-0.5628204345703125,0.01751708984375,0.825836181640625
1686445614084302800,12.467302734375,-0.5622100830078125,0.0179595947265625,0.8252105712890625
1686445614094320000,12.477320068359376,-0.5622100830078125,0.0180816650390625,0.825592041015625
1686445614104336100,12.487336181640625,-0.5627899169921875,0.0183563232421875,0.8239593505859375
1686445614114353000,12.497352783203125,-0.5631256103515625,0.017791748046875,0.8242645263671875
1686445614124370200,12.5073701171875,-0.56207275390625,0.017669677734375,0.8240203857421875
1686445614134387000,12.517386962890624,-0.5612640380859375,0.016632080078125,0.82464599609375
1686445614144404000,12.527404052734376,-0.5607757568359375,0.0165557861328125,0.8256072998046875
1686445614154421000,12.5374208984375,-0.56195068359375,0.01678466796875,0.8250579833984375
1686445614164438000,12.54743798828125,-0.5623321533203125,0.0161895751953125,0.8250579833984375
1686445614174455000,12.557455078125,-0.56182861328125,0.0148468017578125,0.8261871337890625
1686445614184472000,12.56747216796875,-0.5626678466796875,0.01568603515625,0.8260955810546875
1686445614194489000,12.577489013671874,-0.5619354248046875,0.01776123046875,0.82647705078125
1686445614204505900,12.587505859375,-0.5613250732421875,0.01849365234375,0.826416015625
1686445614214523100,12.597523193359375,-0.5616455078125,0.0181732177734375,0.8253021240234375
1686445614224540000,12.607539794921875,-0.5622100830078125,0.0175323486328125,0.82501220703125
1686445614234556000,12.617555908203125,-0.5631256103515625,0.0168609619140625,0.826751708984375
1686445614244573000,12.627572998046874,-0.565093994140625,0.0182342529296875,0.827392578125
1686445614254590000,12.63758984375,-0.565399169921875,0.018157958984375,0.8254547119140625
1686445614264607000,12.64760693359375,-0.5634765625,0.0179290771484375,0.8240203857421875
1686445614274623700,12.657623779296875,-0.5647430419921875,0.0179443359375,0.8264007568359375
1686445614284641000,12.66764111328125,-0.564422607421875,0.017608642578125,0.8274688720703125
1686445614294658000,12.677657958984375,-0.565887451171875,0.0172271728515625,0.8269500732421875
1686445614304675000,12.687675048828124,-0.56585693359375,0.0183868408203125,0.8258819580078125
1686445614314692000,12.697692138671876,-0.56396484375,0.0170135498046875,0.8242950439453125
1686445614324708900,12.707708984375,-0.564361572265625,0.01708984375,0.8241119384765625
1686445614334726100,12.71772607421875,-0.563873291015625,0.016632080078125,0.8242645263671875
1686445614344743000,12.727742919921875,-0.5633697509765625,0.01629638671875,0.8240814208984375
1686445614354760000,12.737760009765625,-0.5631866455078125,0.016357421875,0.8228912353515625
1686445614364776000,12.74777587890625,-0.561187744140625,0.0169525146484375,0.8228912353515625
1686445614374793000,12.75779296875,-0.5590057373046875,0.0177154541015625,0.8232421875
1686445614384810000,12.76781005859375,-0.55987548828125,0.0182342529296875,0.8234405517578125
1686445614394827000,12.777826904296875,-0.560943603515625,0.0190887451171875,0.823394775390625
1686445614404844000,12.787843994140625,-0.5607452392578125,0.019622802734375,0.82342529296875
1686445614414861000,12.797861083984374,-0.5637664794921875,0.01983642578125,0.8248291015625
1686445614424877800,12.8078779296875,-0.5644378662109375,0.0184783935546875,0.8243560791015625
1686445614434895000,12.81789501953125,-0.5637969970703125,0.0177459716796875,0.82489013671875
1686445614444911900,12.827911865234375,-0.561981201171875,0.01678466796875,0.8255462646484375
1686445614454929000,12.837928955078125,-0.5621337890625,0.0164947509765625,0.824981689453125
1686445614464946000,12.84794580078125,-0.5618133544921875,0.016448974609375,0.824188232421875
1686445614474963000,12.857962890625,-0.5611572265625,0.0172119140625,0.8234405517578125
1686445614484979000,12.86797900390625,-0.5608673095703125,0.0171051025390625,0.8231353759765625
1686445614494996000,12.877995849609375,-0.5603179931640625,0.0173797607421875,0.8236236572265625
1686445614505013000,12.888012939453125,-0.5601806640625,0.0175018310546875,0.82366943359375
1686445614515030000,12.898030029296875,-0.5615997314453125,0.0174102783203125,0.823760986328125
1686445614525047000,12.908047119140624,-0.5634765625,0.0181121826171875,0.825531005859375
1686445614535064000,12.91806396484375,-0.5650482177734375,0.0173797607421875,0.826690673828125
1686445614545080800,12.928080810546875,-0.5662384033203125,0.018096923828125,0.827117919921875
1686445614555098000,12.93809814453125,-0.5668487548828125,0.0183868408203125,0.8279571533203125
1686445614565115000,12.948114990234375,-0.5648193359375,0.0182342529296875,0.8281707763671875
1686445614575132000,12.9581318359375,-0.563568115234375,0.01824951171875,0.827301025390625
1686445614585149000,12.96814892578125,-0.563201904296875,0.018341064453125,0.8267059326171875
1686445614595166000,12.978166015625,-0.5625762939453125,0.018585205078125,0.826446533203125
1686445614605183000,12.988182861328125,-0.56219482421875,0.019073486328125,0.82415771484375
1686445614615199000,12.998198974609375,-0.5629425048828125,0.0179595947265625,0.82366943359375
1686445614625216000,13.008216064453125,-0.5628509521484375,0.0173492431640625,0.8233795166015625
1686445614635233000,13.01823291015625,-0.56243896484375,0.01788330078125,0.8228607177734375
1686445614645250000,13.02825,-0.5641326904296875,0.0174560546875,0.8229217529296875
1686445614655267000,13.03826708984375,-0.5627899169921875,0.0177764892578125,0.8238677978515625
1686445614665283800,13.048283935546875,-0.56243896484375,0.0180206298828125,0.8254547119140625
1686445614675301000,13.058301025390625,-0.56219482421875,0.0178985595703125,0.8257598876953125
1686445614685318000,13.06831787109375,-0.563140869140625,0.018218994140625,0.826385498046875
1686445614695335000,13.0783349609375,-0.5625457763671875,0.0191802978515625,0.8267364501953125
1686445614705352200,13.088352294921876,-0.562408447265625,0.018798828125,0.8251800537109375
1686445614715369000,13.098368896484375,-0.562469482421875,0.0185394287109375,0.82427978515625
1686445614725386000,13.108385986328125,-0.56201171875,0.019134521484375,0.8231658935546875
1686445614735403000,13.118403076171875,-0.5615234375,0.018768310546875,0.8235931396484375
1686445614745419000,13.1284189453125,-0.559539794921875,0.01806640625,0.8242950439453125
1686445614755436000,13.13843603515625,-0.5601348876953125,0.017425537109375,0.823089599609375
