time,seconds_elapsed,z,y,x
1686425166981138700,0.096138671875,-0.8581085205078125,-0.4348297119140625,0.2898406982421875
1686425166991084800,0.106084716796875,-0.826416015625,-0.4266204833984375,0.2627716064453125
1686425167001029600,0.116029541015625,-0.7906036376953125,-0.42694091796875,0.2426300048828125
1686425167010975700,0.125975830078125,-0.7490386962890625,-0.4232330322265625,0.235565185546875
1686425167020920800,0.1359208984375,-0.7186431884765625,-0.413482666015625,0.230987548828125
1686425167030866700,0.14586669921875,-0.6984710693359375,-0.40850830078125,0.2391815185546875
1686425167040811800,0.155811767578125,-0.681793212890625,-0.400360107421875,0.259490966796875
1686425167050757600,0.165757568359375,-0.6641693115234375,-0.3908843994140625,0.285003662109375
1686425167060702700,0.17570263671875,-0.6478729248046875,-0.3823699951171875,0.310943603515625
1686425167070648600,0.185648681640625,-0.6381683349609375,-0.3833770751953125,0.32794189453125
1686425167080594000,0.195593994140625,-0.6384124755859375,-0.39605712890625,0.3309478759765625
1686425167090539800,0.205539794921875,-0.6449737548828125,-0.414154052734375,0.3237457275390625
1686425167100484900,0.21548486328125,-0.6355743408203125,-0.4032440185546875,0.319183349609375
1686425167110430700,0.2254306640625,-0.6441650390625,-0.4039459228515625,0.3023834228515625
1686425167120375600,0.23537548828125,-0.652679443359375,-0.41015625,0.28424072265625
1686425167130321700,0.24532177734375,-0.6604461669921875,-0.41851806640625,0.2764129638671875
1686425167140266800,0.255266845703125,-0.662841796875,-0.430023193359375,0.2766876220703125
1686425167150212900,0.265212890625,-0.6622467041015625,-0.4407958984375,0.283843994140625
1686425167160157700,0.27515771484375,-0.6484375,-0.4534912109375,0.2992095947265625
1686425167170103800,0.285103759765625,-0.64324951171875,-0.4618072509765625,0.3101348876953125
1686425167180048600,0.295048583984375,-0.6414642333984375,-0.4646759033203125,0.315185546875
1686425167189994800,0.304994873046875,-0.65655517578125,-0.47406005859375,0.3064422607421875
1686425167199939800,0.31493994140625,-0.6574859619140625,-0.4636688232421875,0.304229736328125
1686425167209886000,0.324885986328125,-0.642425537109375,-0.43115234375,0.31640625
1686425167219830800,0.334830810546875,-0.650360107421875,-0.413177490234375,0.3238372802734375
1686425167229776600,0.344776611328125,-0.64117431640625,-0.375823974609375,0.3295745849609375
1686425167239721700,0.3547216796875,-0.61334228515625,-0.3278045654296875,0.3311920166015625
1686425167249667600,0.36466748046875,-0.636810302734375,-0.383056640625,0.4022064208984375
1686425167259612700,0.37461279296875,-0.6608123779296875,-0.40704345703125,0.4439849853515625
1686425167269558800,0.384558837890625,-0.6362152099609375,-0.39581298828125,0.42413330078125
1686425167279504000,0.39450390625,-0.625396728515625,-0.3794403076171875,0.4415130615234375
1686425167289449700,0.40444970703125,-0.6190643310546875,-0.3770904541015625,0.4828643798828125
1686425167299394800,0.414394775390625,-0.610687255859375,-0.3849334716796875,0.5107574462890625
1686425167309340700,0.424340576171875,-0.598175048828125,-0.38177490234375,0.529937744140625
1686425167319285500,0.434285400390625,-0.58721923828125,-0.3577880859375,0.5486907958984375
1686425167329231600,0.444231689453125,-0.5739898681640625,-0.3215789794921875,0.572021484375
1686425167339176700,0.4541767578125,-0.560089111328125,-0.284454345703125,0.5980072021484375
1686425167349122800,0.464122802734375,-0.568115234375,-0.2452545166015625,0.6505279541015625
1686425167359067600,0.474067626953125,-0.5871734619140625,-0.2151641845703125,0.72882080078125
1686425167369013800,0.484013671875,-0.5659332275390625,-0.21978759765625,0.7293701171875
1686425167378958600,0.49395849609375,-0.5373687744140625,-0.2252197265625,0.7438507080078125
1686425167388904700,0.50390478515625,-0.5074920654296875,-0.2319183349609375,0.76153564453125
1686425167398849800,0.513849853515625,-0.427978515625,-0.21209716796875,0.7907562255859375
1686425167408796000,0.5237958984375,-0.357086181640625,-0.189727783203125,0.8097381591796875
1686425167418740700,0.53374072265625,-0.323211669921875,-0.21527099609375,0.81182861328125
1686425167428686600,0.5436865234375,-0.2946624755859375,-0.2476043701171875,0.80987548828125
1686425167438631700,0.553631591796875,-0.2781829833984375,-0.243194580078125,0.79681396484375
1686425167448577500,0.56357763671875,-0.267486572265625,-0.21405029296875,0.791961669921875
1686425167458523000,0.57352294921875,-0.265777587890625,-0.172210693359375,0.8074188232421875
1686425167468468700,0.58346875,-0.2859344482421875,-0.124664306640625,0.828460693359375
1686425167478413800,0.593413818359375,-0.3090362548828125,-0.12481689453125,0.8589019775390625
1686425167488359700,0.603359619140625,-0.3174591064453125,-0.1582489013671875,0.9012298583984375
1686425167498304800,0.6133046875,-0.306915283203125,-0.174407958984375,0.9470672607421875
1686425167508250600,0.623250732421875,-0.2730560302734375,-0.182525634765625,0.975311279296875
1686425167518195700,0.63319580078125,-0.231597900390625,-0.167327880859375,0.9933624267578125
1686425167528141800,0.643141845703125,-0.2103118896484375,-0.1326446533203125,0.9870147705078125
1686425167538086700,0.653086669921875,-0.176666259765625,-0.110198974609375,0.992431640625
1686425167548032800,0.66303271484375,-0.1512908935546875,-0.12518310546875,1.044647216796875
1686425167557977600,0.6729775390625,-0.1719207763671875,-0.15350341796875,1.112091064453125
1686425167567923700,0.682923828125,-0.198211669921875,-0.18182373046875,1.1651458740234375
1686425167577868800,0.692868896484375,-0.23236083984375,-0.209686279296875,1.1912994384765625
1686425167587815000,0.70281494140625,-0.273040771484375,-0.2380828857421875,1.1938934326171875
1686425167597759700,0.712759765625,-0.3126678466796875,-0.2335205078125,1.1944427490234375
1686425167607705900,0.722705810546875,-0.3614044189453125,-0.19677734375,1.206390380859375
1686425167617650700,0.732650634765625,-0.3963470458984375,-0.1374664306640625,1.2497100830078125
1686425167627596500,0.742596435546875,-0.419647216796875,-0.0712738037109375,1.312255859375
1686425167637542000,0.7525419921875,-0.4402923583984375,-0.0297088623046875,1.36932373046875
1686425167647487700,0.76248779296875,-0.449981689453125,-0.0005950927734375,1.4181976318359375
1686425167657432800,0.772432861328125,-0.4324188232421875,0.0371246337890625,1.4548187255859375
1686425167667378700,0.782378662109375,-0.388763427734375,0.0758209228515625,1.459625244140625
1686425167677323800,0.79232373046875,-0.3127288818359375,0.09759521484375,1.45013427734375
1686425167687269600,0.80226953125,-0.208892822265625,0.1154327392578125,1.4421234130859375
1686425167697215700,0.8122158203125,-0.0926971435546875,0.115936279296875,1.4561309814453125
1686425167707160800,0.822160888671875,0.026947021484375,0.0943756103515625,1.4510345458984375
1686425167717107000,0.83210693359375,0.1450042724609375,0.05816650390625,1.4300689697265625
1686425167727051800,0.8420517578125,0.2652740478515625,0.0003814697265625,1.4044647216796875
1686425167736998000,0.851997802734375,0.3729095458984375,-0.05303955078125,1.3522491455078125
1686425167746942700,0.861942626953125,0.4546966552734375,-0.0877532958984375,1.2902679443359375
1686425167756888600,0.871888671875,0.5288848876953125,-0.0858001708984375,1.2314300537109375
1686425167766833700,0.881833740234375,0.5804290771484375,-0.0334014892578125,1.1951904296875
1686425167776779800,0.89177978515625,0.596435546875,0.0541534423828125,1.2080078125
1686425167786724900,0.901724853515625,0.813140869140625,0.269866943359375,1.245758056640625
1686425167796670700,0.911670654296875,0.9857330322265625,0.5161590576171875,1.2017974853515625
1686425167806615800,0.92161572265625,0.8983001708984375,0.921356201171875,1.1082611083984375
1686425167816561700,0.931561767578125,0.4876556396484375,0.967620849609375,0.9918975830078125
1686425167826506500,0.941506591796875,0.0592498779296875,0.5411376953125,0.82208251953125
1686425167836452600,0.95145263671875,-0.0382080078125,0.2281036376953125,0.7207183837890625
1686425167846397700,0.961397705078125,0.1669464111328125,0.1573638916015625,0.7145538330078125
1686425167856343800,0.97134375,0.300537109375,0.1558074951171875,0.76055908203125
1686425167866288600,0.98128857421875,0.2761077880859375,0.186737060546875,0.8325042724609375
1686425167876234800,0.99123486328125,0.2691802978515625,0.256805419921875,0.9261474609375
1686425167886179300,1.001179443359375,0.2317962646484375,0.2371826171875,0.950439453125
1686425167896125400,1.01112548828125,0.2229461669921875,0.1689910888671875,0.9289398193359375
1686425167906070300,1.0210703125,0.262420654296875,0.1067352294921875,0.91461181640625
1686425167916016400,1.031016357421875,0.28924560546875,-0.0077667236328125,0.8896026611328125
1686425167925961200,1.040961181640625,0.367645263671875,-0.0385894775390625,0.8557586669921875
1686425167935907300,1.0509072265625,0.4961395263671875,-0.0183258056640625,0.8605804443359375
1686425167945852200,1.06085205078125,0.52337646484375,-0.099334716796875,0.8265380859375
1686425167955798300,1.07079833984375,0.52728271484375,-0.20477294921875,0.8399810791015625
1686425167965743400,1.080743408203125,0.4560699462890625,-0.19195556640625,0.8538970947265625
1686425167975689200,1.090689208984375,0.363922119140625,-0.0010528564453125,0.7800750732421875
1686425167985634300,1.10063427734375,0.39697265625,0.1612548828125,0.715087890625
1686425167995580200,1.110580078125,0.48028564453125,0.1664886474609375,0.7386627197265625
1686425168005525200,1.120525146484375,0.542144775390625,-0.055877685546875,0.870452880859375
1686425168015471000,1.13047119140625,0.2664794921875,-0.3705291748046875,0.975006103515625
1686425168025416400,1.14041650390625,0.02490234375,-0.2681732177734375,0.9897918701171875
1686425168035362300,1.1503623046875,0.0239105224609375,-0.071807861328125,0.9307708740234375
1686425168045307100,1.16030712890625,-0.027435302734375,0.1040802001953125,0.88909912109375
1686425168055253200,1.170253173828125,0.1517181396484375,0.246063232421875,0.9431304931640625
1686425168065198000,1.180197998046875,0.2555694580078125,0.2681884765625,0.966583251953125
1686425168075144200,1.190144287109375,0.336639404296875,0.27789306640625,1.0232086181640625
1686425168085089300,1.20008935546875,0.4205169677734375,0.2802581787109375,1.0767669677734375
1686425168095035400,1.210035400390625,0.5714569091796875,0.2392730712890625,1.084320068359375
1686425168104980200,1.219980224609375,0.7859039306640625,0.240875244140625,1.024749755859375
1686425168114926300,1.22992626953125,0.9694061279296875,0.3352508544921875,0.897003173828125
1686425168124871200,1.23987109375,0.9635162353515625,0.4355621337890625,0.867156982421875
1686425168134817300,1.2498173828125,0.8552398681640625,0.5137939453125,0.9033966064453125
1686425168144762400,1.259762451171875,0.804901123046875,0.611541748046875,0.958282470703125
1686425168154708500,1.26970849609375,0.736968994140625,0.6735076904296875,0.9958038330078125
1686425168164653300,1.2796533203125,0.63287353515625,0.6367950439453125,0.9512939453125
1686425168174599200,1.28959912109375,0.5097503662109375,0.567596435546875,0.8956451416015625
1686425168184544300,1.299544189453125,0.4193267822265625,0.4676666259765625,0.8172454833984375
1686425168194490000,1.309489990234375,0.258636474609375,0.257904052734375,0.7281036376953125
1686425168204435500,1.319435546875,0.0601043701171875,0.10888671875,0.587982177734375
1686425168214381300,1.32938134765625,-0.0280914306640625,0.302459716796875,0.48687744140625
1686425168224326400,1.339326416015625,-0.0307769775390625,0.51513671875,0.3686981201171875
1686425168234272300,1.349272216796875,-0.0605926513671875,0.6382293701171875,0.3510894775390625
1686425168244217000,1.359217041015625,-0.1270751953125,0.85400390625,0.406829833984375
1686425168254163200,1.3691630859375,-0.195281982421875,1.0693511962890625,0.5091400146484375
1686425168264108300,1.3791083984375,-0.2671661376953125,1.085845947265625,0.6541900634765625
1686425168274054400,1.389054443359375,-0.322357177734375,1.021942138671875,0.7379608154296875
1686425168283999200,1.398999267578125,-0.3022003173828125,0.94256591796875,0.7421112060546875
1686425168293945300,1.4089453125,-0.2213897705078125,0.8946075439453125,0.7516632080078125
1686425168303890200,1.41889013671875,-0.1724395751953125,0.91796875,0.7646484375
1686425168313836300,1.428836181640625,-0.1235809326171875,0.9173431396484375,0.7451171875
1686425168323781400,1.438781494140625,-0.084564208984375,0.8857421875,0.7211761474609375
1686425168333727200,1.448727294921875,-0.0673370361328125,0.8822174072265625,0.675689697265625
1686425168343672300,1.45867236328125,-0.0456085205078125,0.9087677001953125,0.6166229248046875
1686425168353618400,1.468618408203125,-0.0096588134765625,0.913543701171875,0.5590057373046875
1686425168363563300,1.478563232421875,0.00933837890625,0.920928955078125,0.49932861328125
1686425168373509000,1.488509033203125,0.0195159912109375,0.9036407470703125,0.4336090087890625
1686425168383454200,1.4984541015625,0.0293121337890625,0.870086669921875,0.38653564453125
1686425168393400300,1.508400390625,0.07769775390625,0.846588134765625,0.374237060546875
1686425168403345400,1.518345458984375,0.1319122314453125,0.7986907958984375,0.3699798583984375
1686425168413291300,1.528291259765625,0.18231201171875,0.7733154296875,0.3927001953125
1686425168423236400,1.538236328125,0.18768310546875,0.740264892578125,0.415679931640625
1686425168433182200,1.54818212890625,0.1970062255859375,0.7012786865234375,0.41387939453125
1686425168443127000,1.558126953125,0.172088623046875,0.674224853515625,0.386505126953125
1686425168453073200,1.5680732421875,0.137542724609375,0.6170196533203125,0.326019287109375
1686425168463018200,1.578018310546875,0.129425048828125,0.5549163818359375,0.2471466064453125
1686425168472964400,1.58796435546875,0.1689453125,0.521942138671875,0.1764373779296875
1686425168482909200,1.5979091796875,0.219268798828125,0.50238037109375,0.115386962890625
1686425168492855300,1.607855224609375,0.2158966064453125,0.4908905029296875,0.07855224609375
1686425168502800100,1.617800048828125,0.1831207275390625,0.483856201171875,0.0811920166015625
1686425168512746200,1.627746337890625,0.14276123046875,0.483734130859375,0.091522216796875
1686425168522691300,1.63769140625,0.1203155517578125,0.477813720703125,0.0942230224609375
1686425168532637400,1.647637451171875,0.13360595703125,0.4513092041015625,0.10858154296875
1686425168542582300,1.657582275390625,0.160980224609375,0.4293212890625,0.1208343505859375
1686425168552528400,1.6675283203125,0.1546478271484375,0.461029052734375,0.188079833984375
1686425168562473200,1.67747314453125,0.171478271484375,0.8779449462890625,0.6285858154296875
1686425168572419000,1.687419189453125,0.13031005859375,1.25714111328125,0.480316162109375
1686425168582365200,1.697365234375,0.1283111572265625,1.4499053955078125,0.15789794921875
1686425168592310300,1.707310302734375,0.2370147705078125,1.89569091796875,0.1210479736328125
1686425168602256400,1.71725634765625,0.2945556640625,2.34765625,0.09844970703125
1686425168612201200,1.727201171875,0.2415924072265625,2.4514007568359375,0.135009765625
1686425168622147300,1.737147216796875,0.3337554931640625,2.2961273193359375,0.1883697509765625
1686425168632092200,1.747092041015625,0.316314697265625,1.8699798583984375,0.1628265380859375
1686425168642038300,1.757038330078125,0.268585205078125,1.3460235595703125,0.0910797119140625
1686425168651983400,1.7669833984375,0.2634735107421875,1.0787506103515625,0.1065826416015625
1686425168661929500,1.776929443359375,0.288604736328125,0.97637939453125,0.1352691650390625
1686425168671874300,1.786874267578125,0.3182525634765625,1.0065155029296875,0.19140625
1686425168681820200,1.796820068359375,0.3951263427734375,1.1765594482421875,0.2480010986328125
1686425168691765200,1.80676513671875,0.4509735107421875,1.3734130859375,0.2937469482421875
1686425168701711000,1.816711181640625,0.475677490234375,1.5064849853515625,0.315338134765625
1686425168711656400,1.826656494140625,0.4550018310546875,1.5459442138671875,0.3220977783203125
1686425168721602300,1.836602294921875,0.3961334228515625,1.538238525390625,0.30194091796875
1686425168731547400,1.84654736328125,0.340057373046875,1.5362548828125,0.2518768310546875
1686425168741493200,1.8564931640625,0.2927398681640625,1.520904541015625,0.2178192138671875
1686425168751438300,1.866438232421875,0.2381134033203125,1.4403533935546875,0.1719818115234375
1686425168761384200,1.87638427734375,0.1849517822265625,1.3369598388671875,0.1197967529296875
1686425168771329300,1.886329345703125,0.1334075927734375,1.2322998046875,0.07122802734375
1686425168781275400,1.896275390625,0.082733154296875,1.1278076171875,0.0278778076171875
1686425168791220200,1.90622021484375,0.038238525390625,1.0587615966796875,-0.02001953125
1686425168801166300,1.916166259765625,0.0077056884765625,1.0120391845703125,-0.051483154296875
1686425168811111200,1.926111083984375,-0.0028076171875,0.983978271484375,-0.073944091796875
1686425168821057300,1.936057373046875,-0.0052642822265625,0.978515625,-0.094757080078125
1686425168831002000,1.946002197265625,-0.011199951171875,1.004241943359375,-0.127410888671875
1686425168840948200,1.9559482421875,-0.0166015625,1.0540771484375,-0.185638427734375
1686425168850893300,1.965893310546875,-0.022216796875,1.1057281494140625,-0.254547119140625
1686425168860839400,1.97583935546875,-0.03814697265625,1.135650634765625,-0.3387298583984375
1686425168870784300,1.9857841796875,-0.05865478515625,1.1380462646484375,-0.4257965087890625
1686425168880730400,1.99573046875,-0.0566253662109375,1.1984405517578125,-0.5521087646484375
1686425168890675000,2.005675048828125,-0.009674072265625,1.191253662109375,-0.5926055908203125
1686425168900621000,2.01562109375,0.03424072265625,1.1449127197265625,-0.5634765625
1686425168910566100,2.025566162109375,0.089569091796875,1.0543975830078125,-0.4651947021484375
1686425168920512000,2.035511962890625,0.1716156005859375,0.9618682861328125,-0.3449859619140625
1686425168930457000,2.04545703125,0.20068359375,0.8712615966796875,-0.2431793212890625
1686425168940403000,2.05540283203125,0.1955413818359375,0.7492218017578125,-0.139678955078125
1686425168950348000,2.06534814453125,0.2058563232421875,0.6518402099609375,-0.0465240478515625
1686425168960294000,2.0752939453125,0.2178497314453125,0.60296630859375,0.025543212890625
1686425168970239000,2.085239013671875,0.2064056396484375,0.5751953125,0.0879974365234375
1686425168980185000,2.09518505859375,0.17706298828125,0.567352294921875,0.165313720703125
1686425168990130000,2.1051298828125,0.15576171875,0.5685272216796875,0.2308349609375
1686425169000076000,2.115075927734375,0.1259613037109375,0.5876922607421875,0.263580322265625
1686425169010020900,2.125020751953125,0.0941162109375,0.6030120849609375,0.2841644287109375
1686425169019967000,2.134967041015625,0.074249267578125,0.618560791015625,0.2914886474609375
1686425169029912000,2.144912109375,0.0479278564453125,0.6070098876953125,0.31561279296875
1686425169039858200,2.154858154296875,0.05218505859375,0.5841064453125,0.264739990234375
1686425169049803000,2.164802978515625,0.092620849609375,0.560577392578125,0.16058349609375
1686425169059749000,2.1747490234375,0.1086883544921875,0.532440185546875,0.0690765380859375
1686425169069694000,2.18469384765625,0.1114654541015625,0.5124664306640625,-0.014495849609375
1686425169079639800,2.194639892578125,0.0919342041015625,0.5367889404296875,-0.0450897216796875
1686425169089585200,2.204585205078125,0.0912017822265625,0.5540008544921875,-0.0442047119140625
1686425169099531000,2.214531005859375,0.10137939453125,0.584686279296875,-0.0645751953125
1686425169109476000,2.22447607421875,0.0956573486328125,0.6524200439453125,-0.0865936279296875
1686425169119422000,2.234421875,0.0959930419921875,0.719696044921875,-0.11260986328125
1686425169129367000,2.244366943359375,0.0904998779296875,0.7919921875,-0.0947113037109375
1686425169139313000,2.25431298828125,0.084442138671875,0.8759765625,-0.0455169677734375
1686425169149258200,2.26425830078125,0.0810089111328125,0.950347900390625,0.0123443603515625
1686425169159204000,2.2742041015625,0.1009674072265625,1.0343170166015625,0.050567626953125
1686425169169149000,2.28414892578125,0.1333770751953125,1.090179443359375,0.0797576904296875
1686425169179095000,2.294094970703125,0.175811767578125,1.144561767578125,0.1096649169921875
1686425169189039900,2.304039794921875,0.2312469482421875,1.2584686279296875,0.1726226806640625
1686425169198986000,2.313986083984375,0.6155242919921875,1.48284912109375,0.447662353515625
1686425169208931000,2.32393115234375,0.8044281005859375,1.6085052490234375,0.667266845703125
1686425169218877200,2.333877197265625,0.6882171630859375,1.4510650634765625,0.5252838134765625
1686425169228822000,2.343822021484375,0.614501953125,1.2818756103515625,0.4483489990234375
1686425169238768000,2.35376806640625,0.5198516845703125,1.1578521728515625,0.3742218017578125
1686425169248713000,2.363712890625,0.4486083984375,1.0878448486328125,0.3384246826171875
1686425169258659000,2.3736591796875,0.72955322265625,1.1146697998046875,0.4921875
1686425169268605000,2.38360498046875,1.1876678466796875,1.12030029296875,0.5758514404296875
1686425169278550000,2.393550048828125,1.0251312255859375,1.1603546142578125,0.35791015625
1686425169288496000,2.40349609375,0.76812744140625,1.283172607421875,0.1648101806640625
1686425169298441000,2.41344091796875,0.561004638671875,1.42388916015625,0.0352935791015625
1686425169308387000,2.423386962890625,0.3369903564453125,1.463134765625,-0.1293792724609375
1686425169318332000,2.433331787109375,0.232391357421875,1.3608551025390625,-0.2012939453125
1686425169328278000,2.443278076171875,0.2646331787109375,1.2012176513671875,-0.230560302734375
1686425169338223000,2.45322314453125,0.3531036376953125,1.097381591796875,-0.281280517578125
1686425169348169200,2.463169189453125,0.4601287841796875,1.0525360107421875,-0.39031982421875
1686425169358114000,2.473114013671875,0.4010772705078125,0.9638671875,-0.432281494140625
1686425169368060200,2.48306005859375,0.2341461181640625,0.8505401611328125,-0.32745361328125
1686425169378005000,2.4930048828125,0.14361572265625,0.8256072998046875,-0.216278076171875
1686425169387951000,2.502951171875,0.085662841796875,0.8750762939453125,-0.1898040771484375
1686425169397896000,2.51289599609375,0.04296875,0.92523193359375,-0.258270263671875
1686425169407842000,2.522842041015625,0.0503692626953125,0.977447509765625,-0.3661956787109375
1686425169417787100,2.532787109375,0.101226806640625,1.0188446044921875,-0.3904876708984375
1686425169427733000,2.54273291015625,0.1405029296875,1.03314208984375,-0.31671142578125
1686425169437678000,2.552677978515625,0.1731414794921875,1.0344696044921875,-0.2308502197265625
1686425169447624000,2.5626240234375,0.1944732666015625,1.0282745361328125,-0.175872802734375
1686425169457569000,2.572569091796875,0.191375732421875,1.038604736328125,-0.15106201171875
1686425169467515000,2.582514892578125,0.1866607666015625,1.0681610107421875,-0.1680755615234375
1686425169477460000,2.5924599609375,0.1639251708984375,1.077911376953125,-0.1915130615234375
1686425169487406000,2.602406005859375,0.1510772705078125,1.069061279296875,-0.2120819091796875
1686425169497351000,2.612350830078125,0.152252197265625,1.017791748046875,-0.1969757080078125
1686425169507297000,2.622297119140625,0.15277099609375,0.9515533447265625,-0.158233642578125
1686425169517241900,2.632241943359375,0.141693115234375,0.8725738525390625,-0.1057281494140625
1686425169527188000,2.64218798828125,0.120849609375,0.7797088623046875,-0.049591064453125
1686425169537133000,2.652133056640625,0.105438232421875,0.6958160400390625,-0.011199951171875
1686425169547079200,2.6620791015625,0.100067138671875,0.617034912109375,0.020721435546875
1686425169557024000,2.67202392578125,0.087982177734375,0.557708740234375,0.0303192138671875
1686425169566970000,2.68197021484375,0.0911407470703125,0.5254058837890625,0.0333404541015625
1686425169576915000,2.6919150390625,0.113494873046875,0.5149688720703125,0.0279388427734375
1686425169586861000,2.701861083984375,0.1089630126953125,0.5084381103515625,0.003631591796875
1686425169596806100,2.71180615234375,0.1077423095703125,0.5040740966796875,0.007293701171875
1686425169606752000,2.721751953125,0.1023101806640625,0.505706787109375,0.0165863037109375
1686425169616697000,2.731697021484375,0.111175537109375,0.538818359375,0.0287628173828125
1686425169626643000,2.741642822265625,0.1299896240234375,0.5972137451171875,0.036407470703125
1686425169636588000,2.751588134765625,0.156280517578125,0.6613922119140625,0.045745849609375
1686425169646534000,2.761533935546875,0.1823577880859375,0.73760986328125,0.042449951171875
1686425169656479200,2.771479248046875,0.1955108642578125,0.8136138916015625,0.0348968505859375
1686425169666425000,2.781425048828125,0.20538330078125,0.88702392578125,0.0482330322265625
1686425169676370000,2.791369873046875,0.220855712890625,0.958282470703125,0.07537841796875
1686425169686316000,2.80131591796875,0.2385406494140625,1.0224456787109375,0.105712890625
1686425169696260900,2.8112607421875,0.25823974609375,1.06964111328125,0.1437225341796875
1686425169706207000,2.82120703125,0.280517578125,1.09295654296875,0.179656982421875
1686425169716152000,2.831152099609375,0.3003082275390625,1.0869293212890625,0.2033538818359375
1686425169726098200,2.84109814453125,0.30377197265625,1.0690155029296875,0.2064971923828125
1686425169736043000,2.85104296875,0.3059234619140625,1.0555877685546875,0.2109832763671875
1686425169745989000,2.860989013671875,0.2950592041015625,1.0394287109375,0.200897216796875
1686425169755934000,2.870933837890625,0.2799530029296875,1.0432891845703125,0.188720703125
1686425169765880000,2.880880126953125,0.285552978515625,1.0705718994140625,0.1889801025390625
1686425169775825000,2.890824951171875,0.301361083984375,1.1194305419921875,0.1919403076171875
1686425169785771000,2.90077099609375,0.3209075927734375,1.18975830078125,0.208221435546875
1686425169795716000,2.910716064453125,0.3426513671875,1.278533935546875,0.2374267578125
1686425169805662000,2.920661865234375,0.3590850830078125,1.3815460205078125,0.285003662109375
1686425169815608000,2.930608154296875,0.38922119140625,1.499908447265625,0.3299560546875
1686425169825553000,2.940552978515625,0.42572021484375,1.5963287353515625,0.3614959716796875
1686425169835498000,2.950498046875,0.4659271240234375,1.6391754150390625,0.396759033203125
1686425169845443800,2.96044384765625,0.49749755859375,1.6081085205078125,0.4157867431640625
1686425169855390000,2.970389892578125,0.4865875244140625,1.514404296875,0.389801025390625
1686425169865335000,2.9803349609375,0.451507568359375,1.44537353515625,0.3500823974609375
1686425169875281200,2.99028125,0.41485595703125,1.368743896484375,0.3034515380859375
1686425169885226000,3.00022607421875,0.3744354248046875,1.239715576171875,0.252349853515625
1686425169895172400,3.01017236328125,0.342193603515625,1.09637451171875,0.2132568359375
1686425169905117200,3.0201171875,0.3183441162109375,0.9830474853515625,0.185211181640625
1686425169915063300,3.030063232421875,0.297882080078125,0.9156036376953125,0.1672210693359375
1686425169925008400,3.04000830078125,0.2711181640625,0.8844146728515625,0.1565093994140625
1686425169934954200,3.049954345703125,0.238494873046875,0.8803863525390625,0.1438446044921875
1686425169944899300,3.0598994140625,0.204925537109375,0.8974609375,0.1325836181640625
1686425169954845200,3.06984521484375,0.182769775390625,0.9259033203125,0.1157684326171875
1686425169964790300,3.079790283203125,0.1717681884765625,0.9808502197265625,0.0862884521484375
1686425169974736100,3.089736083984375,0.167510986328125,1.0528411865234375,0.045074462890625
1686425169984681500,3.099681396484375,0.1741485595703125,1.1332550048828125,-0.0090789794921875
1686425169994627300,3.10962744140625,0.1818695068359375,1.2318267822265625,-0.0948944091796875
1686425170004572400,3.119572509765625,0.2079010009765625,1.32757568359375,-0.21942138671875
1686425170014518300,3.129518310546875,0.266876220703125,1.36260986328125,-0.2951812744140625
1686425170024463000,3.139463134765625,0.308868408203125,1.414215087890625,-0.39520263671875
1686425170034409200,3.1494091796875,0.26422119140625,1.404083251953125,-0.471405029296875
1686425170044354300,3.159354248046875,0.067657470703125,1.358245849609375,-0.78704833984375
1686425170054300400,3.169300537109375,0.068389892578125,1.248199462890625,-0.8395538330078125
1686425170064245200,3.179245361328125,0.16375732421875,1.0636444091796875,-0.6309356689453125
1686425170074191400,3.18919140625,0.1988983154296875,0.9229736328125,-0.6152191162109375
1686425170084136200,3.19913623046875,0.2411041259765625,0.7646942138671875,-0.4609375
1686425170094082300,3.209082275390625,0.2678070068359375,0.6204986572265625,-0.306060791015625
1686425170104027400,3.21902734375,0.313323974609375,0.5066375732421875,-0.261474609375
1686425170113973500,3.228973388671875,0.38873291015625,0.434295654296875,-0.2137603759765625
1686425170123918300,3.23891845703125,0.416351318359375,0.4463653564453125,-0.107757568359375
1686425170133864200,3.2488642578125,0.3753509521484375,0.4589996337890625,-0.0158538818359375
1686425170143809300,3.258809326171875,0.31585693359375,0.4312286376953125,-0.01104736328125
1686425170153755100,3.268755126953125,0.248291015625,0.4147491455078125,-0.020294189453125
1686425170163700200,3.2787001953125,0.1826629638671875,0.403656005859375,-0.0240325927734375
1686425170173646300,3.288646240234375,0.1542510986328125,0.405609130859375,-0.037567138671875
1686425170183591400,3.29859130859375,0.1173858642578125,0.4141387939453125,-0.034576416015625
1686425170193537300,3.308537353515625,0.088531494140625,0.4294586181640625,-0.03692626953125
1686425170203482400,3.318482421875,0.0840606689453125,0.44561767578125,-0.0298309326171875
1686425170213428200,3.32842822265625,0.0905303955078125,0.481231689453125,-0.020477294921875
1686425170223373000,3.338373046875,0.108184814453125,0.52117919921875,-0.0067291259765625
1686425170233319200,3.348319091796875,0.1128387451171875,0.550750732421875,0.026641845703125
1686425170243264300,3.35826416015625,0.130340576171875,0.5747528076171875,0.0792999267578125
1686425170253210400,3.36821044921875,0.1600341796875,0.595184326171875,0.1272430419921875
1686425170263156200,3.37815625,0.2081756591796875,0.6180419921875,0.1428375244140625
1686425170273101300,3.388101318359375,0.2880706787109375,0.6656951904296875,0.1458740234375
1686425170283047200,3.398047119140625,0.406982421875,0.75921630859375,0.1244049072265625
1686425170292992300,3.4079921875,0.582244873046875,0.8976287841796875,0.0373687744140625
1686425170302938000,3.417938232421875,0.7483978271484375,1.0201263427734375,-0.0939178466796875
1686425170312883500,3.427883544921875,0.8687744140625,1.1512298583984375,-0.2913970947265625
1686425170322829300,3.437829345703125,1.0199737548828125,1.40142822265625,-0.4281463623046875
1686425170332774100,3.447774169921875,1.0094146728515625,1.7178802490234375,-0.32080078125
1686425170342720300,3.45772021484375,0.86810302734375,1.747100830078125,-0.153076171875
1686425170352665000,3.4676650390625,0.8649749755859375,1.57379150390625,0.025482177734375
1686425170362611200,3.477611083984375,0.9051666259765625,1.35589599609375,0.2212371826171875
1686425170372556300,3.487556396484375,1.148101806640625,1.1645660400390625,0.463287353515625
1686425170382502400,3.49750244140625,1.51434326171875,1.0169830322265625,0.5860443115234375
1686425170392447200,3.507447265625,1.242218017578125,0.8061370849609375,0.3170013427734375
1686425170402393300,3.517393310546875,0.7220306396484375,0.7030181884765625,-0.0040740966796875
1686425170412338200,3.527338134765625,0.333221435546875,0.8145904541015625,-0.1488800048828125
1686425170422284300,3.5372841796875,0.1115875244140625,0.9977569580078125,-0.29437255859375
1686425170432229400,3.5472294921875,0.075469970703125,1.1581878662109375,-0.445159912109375
1686425170442175500,3.557175537109375,0.18023681640625,1.3266754150390625,-0.5570831298828125
1686425170452120300,3.567120361328125,0.3203277587890625,1.448333740234375,-0.607757568359375
1686425170462066200,3.577066162109375,0.4371795654296875,1.5085296630859375,-0.6145782470703125
1686425170472011300,3.58701123046875,0.518280029296875,1.4952392578125,-0.5602264404296875
1686425170481957000,3.59695703125,0.5001220703125,1.39239501953125,-0.46014404296875
1686425170491902500,3.60690234375,0.3270721435546875,1.1936798095703125,-0.350433349609375
1686425170501848300,3.616848388671875,0.228424072265625,1.0075531005859375,-0.2894134521484375
1686425170511793400,3.62679345703125,0.2095184326171875,0.9075927734375,-0.2791900634765625
1686425170521739300,3.6367392578125,0.213348388671875,0.8863067626953125,-0.2928009033203125
1686425170531684000,3.64668408203125,0.2264404296875,0.8990020751953125,-0.301116943359375
1686425170541630200,3.656630126953125,0.2644805908203125,0.921295166015625,-0.2662353515625
1686425170551575300,3.6665751953125,0.2824554443359375,0.9611358642578125,-0.2309112548828125
1686425170561521400,3.676521484375,0.2996368408203125,1.0120391845703125,-0.1949920654296875
1686425170571466200,3.68646630859375,0.302001953125,1.0625457763671875,-0.16790771484375
1686425170581412400,3.696412353515625,0.302154541015625,1.1127471923828125,-0.1687164306640625
1686425170591357200,3.706357177734375,0.3020477294921875,1.1517791748046875,-0.1934814453125
1686425170601303300,3.71630322265625,0.2822723388671875,1.1636962890625,-0.2174224853515625
1686425170611248000,3.726248046875,0.2467193603515625,1.12469482421875,-0.2050628662109375
1686425170621194200,3.7361943359375,0.210784912109375,1.0332489013671875,-0.181854248046875
1686425170631139300,3.746139404296875,0.1784515380859375,0.91107177734375,-0.150970458984375
1686425170641085400,3.75608544921875,0.14971923828125,0.780364990234375,-0.1167449951171875
1686425170651031300,3.76603125,0.1225128173828125,0.65478515625,-0.0807037353515625
1686425170660976000,3.77597607421875,0.100738525390625,0.5532379150390625,-0.0449066162109375
1686425170670921200,3.785921142578125,0.081634521484375,0.47332763671875,-0.0235443115234375
1686425170680867000,3.7958671875,0.0659332275390625,0.411529541015625,-0.0111541748046875
1686425170690813200,3.805813232421875,0.0564422607421875,0.3691864013671875,-0.0099029541015625
1686425170700758300,3.81575830078125,0.0501861572265625,0.3449859619140625,-0.0189056396484375
1686425170710704400,3.825704345703125,0.0601654052734375,0.3428955078125,-0.037353515625
1686425170720649200,3.835649169921875,0.08331298828125,0.36688232421875,-0.065521240234375
1686425170730595300,3.84559521484375,0.1151275634765625,0.412506103515625,-0.0962371826171875
1686425170740540200,3.8555400390625,0.1504058837890625,0.465789794921875,-0.1329345703125
1686425170750486300,3.865486328125,0.18023681640625,0.5321502685546875,-0.1674957275390625
1686425170760431400,3.875431396484375,0.2113800048828125,0.615814208984375,-0.196044921875
1686425170770377200,3.885377197265625,0.2448577880859375,0.7193756103515625,-0.218475341796875
1686425170780322300,3.895322265625,0.26580810546875,0.82928466796875,-0.237213134765625
1686425170790268200,3.90526806640625,0.2922821044921875,0.9372406005859375,-0.23199462890625
1686425170800213200,3.915213134765625,0.307830810546875,1.029052734375,-0.1870574951171875
1686425170810159000,3.9251591796875,0.320526123046875,1.100250244140625,-0.109405517578125
1686425170820104400,3.9351044921875,0.32574462890625,1.1523895263671875,-0.040130615234375
1686425170830050300,3.94505029296875,0.3249053955078125,1.1836090087890625,0.0079498291015625
1686425170839995400,3.954995361328125,0.3228302001953125,1.1930999755859375,0.0380401611328125
1686425170849941200,3.964941162109375,0.3174591064453125,1.190093994140625,0.05511474609375
1686425170859886000,3.974885986328125,0.3198699951171875,1.2006683349609375,0.088104248046875
1686425170869832200,3.984832275390625,0.3378448486328125,1.2211456298828125,0.103546142578125
1686425170879777300,3.99477734375,0.354400634765625,1.25640869140625,0.100128173828125
1686425170889723100,4.00472314453125,0.3755035400390625,1.3038787841796875,0.1263427734375
1686425170899668200,4.014668212890625,0.4190826416015625,1.3310699462890625,0.2645111083984375
1686425170909614000,4.024614013671875,0.4810943603515625,1.295257568359375,0.4651947021484375
1686425170919559000,4.034558837890625,0.5481719970703125,1.294830322265625,0.5789337158203125
1686425170929505000,4.044505126953125,0.609649658203125,1.3527374267578125,0.6532440185546875
1686425170939450000,4.0544501953125,0.6941986083984375,1.3993072509765625,0.8106536865234375
1686425170949396200,4.064396240234375,0.7686614990234375,1.49615478515625,0.933624267578125
1686425170959341000,4.074341064453125,0.761749267578125,1.6033935546875,0.9705657958984375
1686425170969287200,4.084287109375,0.7090911865234375,1.7441864013671875,0.889373779296875
1686425170979232000,4.09423193359375,0.632476806640625,1.6427764892578125,0.7072296142578125
1686425170989178000,4.10417822265625,0.5180511474609375,1.3614044189453125,0.5054473876953125
1686425170999123200,4.114123291015625,0.4058074951171875,1.123748779296875,0.31707763671875
1686425171009069300,4.1240693359375,0.310546875,0.9453582763671875,0.19964599609375
1686425171019015200,4.13401513671875,0.23699951171875,0.7928314208984375,0.14935302734375
1686425171028960000,4.1439599609375,0.1536712646484375,0.6800689697265625,0.112152099609375
1686425171038906000,4.153906005859375,0.1031951904296875,0.6390380859375,-0.0293121337890625
1686425171048851000,4.163850830078125,0.0697021484375,0.6806640625,-0.146331787109375
1686425171058797000,4.173797119140625,0.025543212890625,0.74578857421875,-0.3114471435546875
1686425171068742100,4.1837421875,0.0065765380859375,0.813812255859375,-0.5695953369140625
1686425171078688300,4.193688232421875,0.0406494140625,0.92694091796875,-0.644500732421875
1686425171088633000,4.203633056640625,0.194549560546875,1.0629119873046875,-0.373138427734375
1686425171098579200,4.2135791015625,0.3812255859375,1.17437744140625,-0.0630035400390625
1686425171108524000,4.22352392578125,0.4557647705078125,1.1845855712890625,0.0869140625
1686425171118470100,4.23347021484375,0.5428466796875,1.1852874755859375,0.13262939453125
1686425171128415200,4.243415283203125,0.6507568359375,1.182861328125,0.1994476318359375
1686425171138361000,4.253361083984375,0.7610931396484375,1.1885223388671875,0.2326202392578125
1686425171148306200,4.26330615234375,0.854827880859375,1.1544036865234375,0.22430419921875
1686425171158252000,4.273251953125,0.80230712890625,1.098236083984375,0.1412811279296875
1686425171168197000,4.283197021484375,0.669342041015625,0.976318359375,0.0980072021484375
1686425171178143000,4.29314306640625,0.5924224853515625,0.8685150146484375,0.178253173828125
1686425171188088000,4.303088134765625,0.5451507568359375,0.7479705810546875,0.2418212890625
1686425171198034200,4.3130341796875,0.4438323974609375,0.6455078125,0.2550506591796875
1686425171207979300,4.322979248046875,0.3061370849609375,0.59515380859375,0.2337646484375
1686425171217925000,4.332925048828125,0.1495208740234375,0.579132080078125,0.1422119140625
1686425171227870000,4.342869873046875,0.0707244873046875,0.5424346923828125,0.00006103515625
1686425171237816000,4.352816162109375,0.00146484375,0.4937286376953125,-0.05072021484375
1686425171247761000,4.362760986328125,-0.0330352783203125,0.4328460693359375,-0.0727691650390625
1686425171257707000,4.37270703125,-0.0418701171875,0.3810577392578125,-0.107177734375
1686425171267652000,4.382652099609375,-0.0337066650390625,0.34600830078125,-0.1670074462890625
1686425171277598200,4.39259814453125,0.010009765625,0.3474578857421875,-0.1636505126953125
1686425171287543000,4.40254296875,0.0656280517578125,0.3909454345703125,-0.12060546875
1686425171297489200,4.4124892578125,0.0987548828125,0.4594268798828125,-0.1927947998046875
1686425171307434000,4.42243408203125,0.13360595703125,0.5191192626953125,-0.18646240234375
1686425171317380000,4.432380126953125,0.193328857421875,0.5970458984375,-0.16156005859375
1686425171327325200,4.4423251953125,0.164093017578125,0.6941986083984375,-0.1869049072265625
1686425171337271300,4.452271240234375,0.1230926513671875,0.7295989990234375,-0.1594696044921875
1686425171347217200,4.462217041015625,0.1727752685546875,0.7242889404296875,-0.08453369140625
1686425171357162000,4.472161865234375,0.2356109619140625,0.7261505126953125,-0.0369415283203125
1686425171367108000,4.482108154296875,0.30029296875,0.7813262939453125,-0.029144287109375
1686425171377053000,4.492052978515625,0.3935546875,0.875457763671875,-0.0271759033203125
1686425171386999000,4.5019990234375,0.471649169921875,0.976654052734375,-0.0789947509765625
1686425171396944100,4.511944091796875,0.62054443359375,1.029083251953125,-0.25347900390625
1686425171406890200,4.52189013671875,1.1721649169921875,1.0417938232421875,-0.644012451171875
1686425171416835000,4.5318349609375,1.4055938720703125,1.3837890625,-0.7830657958984375
1686425171426781200,4.54178125,1.11102294921875,1.749664306640625,-0.332366943359375
1686425171436726000,4.55172607421875,1.1549072265625,1.83880615234375,-0.0894775390625
1686425171446672100,4.561672119140625,1.4007720947265625,1.8010101318359375,0.1850128173828125
1686425171456617200,4.5716171875,1.366424560546875,1.4391937255859375,0.243499755859375
1686425171466563300,4.581563232421875,1.1846466064453125,0.9460601806640625,0.11212158203125
1686425171476508200,4.591508056640625,1.0294189453125,0.5921783447265625,0.0529327392578125
1686425171486454000,4.6014541015625,0.77362060546875,0.385772705078125,0.102813720703125
1686425171496399000,4.611399169921875,0.47412109375,0.39825439453125,0.0810394287109375
1686425171506345000,4.621344970703125,0.24383544921875,0.581695556640625,0.0349578857421875
1686425171516290300,4.631290283203125,0.1747589111328125,0.8159332275390625,-0.0297698974609375
1686425171526236200,4.641236083984375,0.23565673828125,1.0659942626953125,-0.09918212890625
1686425171536181200,4.65118115234375,0.3332061767578125,1.321533203125,-0.157623291015625
1686425171546127000,4.661127197265625,0.4347381591796875,1.5080413818359375,-0.190093994140625
1686425171556072000,4.671072021484375,0.489044189453125,1.6295013427734375,-0.2367706298828125
1686425171566018000,4.68101806640625,0.461212158203125,1.6392059326171875,-0.27215576171875
1686425171575963100,4.690963134765625,0.3793487548828125,1.52069091796875,-0.283447265625
1686425171585909200,4.7009091796875,0.2721405029296875,1.35076904296875,-0.31640625
1686425171595854000,4.71085400390625,0.19647216796875,1.175567626953125,-0.3646697998046875
1686425171605800200,4.72080029296875,0.160308837890625,1.045867919921875,-0.3907318115234375
1686425171615745000,4.7307451171875,0.1471099853515625,0.952880859375,-0.3907623291015625
1686425171625691100,4.740691162109375,0.154205322265625,0.8969268798828125,-0.3445281982421875
1686425171635637000,4.750636962890625,0.1824951171875,0.897125244140625,-0.282379150390625
1686425171645582000,4.76058203125,0.2029876708984375,0.948577880859375,-0.245147705078125
1686425171655528200,4.770528076171875,0.216094970703125,1.0234375,-0.2170867919921875
1686425171665473300,4.780473388671875,0.22296142578125,1.0769500732421875,-0.188232421875
1686425171675419100,4.790419189453125,0.2293548583984375,1.10186767578125,-0.1649322509765625
1686425171685364000,4.800364013671875,0.229461669921875,1.125732421875,-0.1696014404296875
1686425171695310000,4.81031005859375,0.2256622314453125,1.148773193359375,-0.1900634765625
1686425171705255000,4.8202548828125,0.22943115234375,1.1524658203125,-0.2091064453125
1686425171715201000,4.830200927734375,0.2284088134765625,1.12054443359375,-0.1977996826171875
1686425171725146000,4.84014599609375,0.217071533203125,1.0501556396484375,-0.1693572998046875
1686425171735092200,4.85009228515625,0.1952972412109375,0.952301025390625,-0.1304473876953125
1686425171745037000,4.860037109375,0.1705780029296875,0.8408966064453125,-0.086669921875
1686425171754983200,4.869983154296875,0.14874267578125,0.724853515625,-0.035003662109375
1686425171764928000,4.879927978515625,0.126068115234375,0.6233062744140625,0.0016632080078125
1686425171774874000,4.8898740234375,0.1089630126953125,0.5416717529296875,0.014678955078125
1686425171784819200,4.899819091796875,0.095184326171875,0.4652862548828125,0.0321807861328125
1686425171794765000,4.90976513671875,0.0714263916015625,0.402130126953125,0.035614013671875
1686425171804710100,4.919710205078125,0.055938720703125,0.3593902587890625,0.02191162109375
1686425171814656000,4.929656005859375,0.0813140869140625,0.3556976318359375,-0.0050811767578125
1686425171824601000,4.93960107421875,0.1141357421875,0.3724517822265625,-0.0250244140625
1686425171834547000,4.949546875,0.1496734619140625,0.405975341796875,-0.02447509765625
1686425171844492300,4.9594921875,0.17572021484375,0.4829864501953125,-0.0242767333984375
1686425171854438100,4.969438232421875,0.190643310546875,0.572174072265625,-0.00897216796875
1686425171864383200,4.97938330078125,0.2035369873046875,0.669708251953125,0.0076904296875
1686425171874329000,4.9893291015625,0.2235107421875,0.772735595703125,0.0252685546875
1686425171884274000,4.99927392578125,0.247589111328125,0.8713531494140625,0.0437774658203125
1686425171894220000,5.009219970703125,0.2754974365234375,0.965728759765625,0.0602874755859375
1686425171904165000,5.0191650390625,0.2966461181640625,1.050018310546875,0.0685272216796875
1686425171914111200,5.029111328125,0.312286376953125,1.1146087646484375,0.0781097412109375
1686425171924056000,5.03905615234375,0.30157470703125,1.157501220703125,0.1119537353515625
1686425171934002200,5.049002197265625,0.3032379150390625,1.1848907470703125,0.199920654296875
1686425171943948000,5.058947998046875,0.3245849609375,1.175872802734375,0.3213958740234375
1686425171953893000,5.06889306640625,0.3717498779296875,1.14654541015625,0.465911865234375
1686425171963839000,5.0788388671875,0.4366302490234375,1.144012451171875,0.572723388671875
1686425171973784300,5.088784423828125,0.4809417724609375,1.1682281494140625,0.57427978515625
1686425171983730200,5.098730224609375,0.5122833251953125,1.183013916015625,0.5637359619140625
1686425171993675300,5.10867529296875,0.53643798828125,1.20294189453125,0.543975830078125
1686425172003621000,5.11862109375,0.527801513671875,1.2357635498046875,0.4855499267578125
1686425172013566200,5.128566162109375,0.4921112060546875,1.3070526123046875,0.412628173828125
1686425172023512000,5.138511962890625,0.4760589599609375,1.3835296630859375,0.359954833984375
1686425172033457200,5.14845703125,0.4867401123046875,1.463226318359375,0.32794189453125
1686425172043403300,5.1584033203125,0.5040130615234375,1.530792236328125,0.3246917724609375
1686425172053348000,5.16834814453125,0.5156097412109375,1.5387725830078125,0.358184814453125
1686425172063294200,5.178294189453125,0.546905517578125,1.5379791259765625,0.3873138427734375
1686425172073239000,5.188239013671875,0.5660552978515625,1.5004119873046875,0.374908447265625
1686425172083185200,5.19818505859375,0.4842529296875,1.3087921142578125,0.33953857421875
1686425172093130000,5.2081298828125,0.3852691650390625,1.1039276123046875,0.2733306884765625
1686425172103076000,5.218076171875,0.2841339111328125,0.9542083740234375,0.2194366455078125
1686425172113021200,5.228021240234375,0.2122039794921875,0.842864990234375,0.1778411865234375
1686425172122967300,5.23796728515625,0.158416748046875,0.7740936279296875,0.14093017578125
1686425172132912000,5.247912109375,0.1543121337890625,0.73883056640625,0.122100830078125
1686425172142858200,5.257858154296875,0.192779541015625,0.7435760498046875,0.112518310546875
1686425172152803000,5.267802978515625,0.2290496826171875,0.7952117919921875,0.095001220703125
1686425172162749000,5.2777490234375,0.258697509765625,0.8835296630859375,0.0778961181640625
1686425172172694300,5.2876943359375,0.2900543212890625,0.98944091796875,0.0610198974609375
1686425172182640000,5.29764013671875,0.3236236572265625,1.103424072265625,0.04351806640625
1686425172192585200,5.307585205078125,0.3566741943359375,1.2168121337890625,0.0277099609375
1686425172202531000,5.317531005859375,0.3944854736328125,1.3240966796875,0.001556396484375
1686425172212476200,5.32747607421875,0.4287872314453125,1.39520263671875,-0.024444580078125
1686425172222422000,5.337422119140625,0.4533843994140625,1.4087677001953125,-0.0418548583984375
1686425172232368000,5.3473681640625,0.4601593017578125,1.363616943359375,-0.0754241943359375
1686425172242313200,5.357313232421875,0.4457855224609375,1.264892578125,-0.121490478515625
1686425172252259300,5.36725927734375,0.404388427734375,1.12896728515625,-0.151641845703125
1686425172262204200,5.3772041015625,0.3476104736328125,1.0069427490234375,-0.2089385986328125
1686425172272150000,5.38714990234375,0.31005859375,0.90283203125,-0.2874298095703125
1686425172282095000,5.39709521484375,0.2871246337890625,0.8125762939453125,-0.4160614013671875
1686425172292041000,5.407041015625,0.265869140625,0.67718505859375,-0.2820587158203125
1686425172301986300,5.416986328125,0.2170257568359375,0.5593414306640625,-0.1875
1686425172311932200,5.42693212890625,0.2086334228515625,0.489013671875,-0.2203826904296875
1686425172321877200,5.436877197265625,0.2230072021484375,0.40606689453125,-0.2448272705078125
1686425172331823000,5.446822998046875,0.21044921875,0.33758544921875,-0.2345123291015625
1686425172341768200,5.456768310546875,0.1841583251953125,0.300201416015625,-0.1866302490234375
1686425172351714000,5.466714111328125,0.1728515625,0.288543701171875,-0.1761322021484375
1686425172361659100,5.4766591796875,0.1671142578125,0.29754638671875,-0.18719482421875
1686425172371605200,5.486605224609375,0.1593475341796875,0.3256988525390625,-0.1887664794921875
1686425172381550000,5.496550048828125,0.1715240478515625,0.37335205078125,-0.20050048828125
1686425172391496200,5.50649609375,0.1819305419921875,0.427642822265625,-0.19073486328125
1686425172401441000,5.51644091796875,0.1769256591796875,0.4681243896484375,-0.14715576171875
1686425172411387100,5.52638720703125,0.1752471923828125,0.5149078369140625,-0.116912841796875
1686425172421332200,5.536332275390625,0.177001953125,0.5667877197265625,-0.09259033203125
1686425172431278300,5.5462783203125,0.179443359375,0.613311767578125,-0.063385009765625
1686425172441223200,5.55622314453125,0.1894683837890625,0.6523590087890625,-0.058258056640625
1686425172451169300,5.566169189453125,0.2141265869140625,0.710418701171875,-0.0810394287109375
1686425172461114000,5.576114013671875,0.254852294921875,0.774658203125,-0.0981903076171875
1686425172471060000,5.58606005859375,0.33758544921875,0.810333251953125,-0.012908935546875
1686425172481006000,5.596006103515625,0.4864654541015625,0.83599853515625,0.1320953369140625
1686425172490951200,5.605951171875,0.6936492919921875,0.976776123046875,0.2262115478515625
1686425172500897300,5.615897216796875,0.8895416259765625,1.22998046875,0.0315399169921875
1686425172510842000,5.625842041015625,1.0687408447265625,1.4964141845703125,-0.3406982421875
1686425172520788200,5.635788330078125,1.0944061279296875,1.817901611328125,-0.527008056640625
1686425172530733000,5.645733154296875,0.99737548828125,1.80810546875,-0.3701019287109375
1686425172540679200,5.65567919921875,0.926483154296875,1.4965362548828125,-0.1177215576171875
1686425172550624300,5.665624267578125,0.994781494140625,1.21295166015625,0.0653839111328125
1686425172560570400,5.6755703125,1.516937255859375,1.024169921875,0.1941070556640625
1686425172570515200,5.68551513671875,1.9444427490234375,0.8137359619140625,0.17645263671875
1686425172580461300,5.69546142578125,1.678741455078125,0.58807373046875,0.126495361328125
1686425172590406100,5.70540625,1.0423126220703125,0.637542724609375,-0.013671875
1686425172600352000,5.71535205078125,0.4098358154296875,0.901214599609375,-0.1860198974609375
1686425172610297000,5.725297119140625,0.0683135986328125,1.0616912841796875,-0.3427581787109375
1686425172620243200,5.7352431640625,0.0259857177734375,1.1798095703125,-0.48309326171875
1686425172630188300,5.745188232421875,0.17236328125,1.3203277587890625,-0.5788421630859375
1686425172640134100,5.755134033203125,0.3690185546875,1.431854248046875,-0.6248016357421875
1686425172650079200,5.765079345703125,0.46075439453125,1.4618988037109375,-0.6318817138671875
1686425172660025000,5.775025146484375,0.4654388427734375,1.4103546142578125,-0.5762481689453125
1686425172669970000,5.784969970703125,0.3641204833984375,1.254150390625,-0.4449615478515625
1686425172679916000,5.794916015625,0.255615234375,1.1063232421875,-0.360321044921875
1686425172689861000,5.804861083984375,0.2355194091796875,1.0181121826171875,-0.324554443359375
1686425172699807200,5.81480712890625,0.2440185546875,0.98016357421875,-0.3061676025390625
1686425172709752000,5.824751953125,0.2523651123046875,0.974212646484375,-0.2916107177734375
1686425172719698200,5.8346982421875,0.2735137939453125,0.9726715087890625,-0.2488861083984375
1686425172729643000,5.84464306640625,0.2980804443359375,0.99267578125,-0.209259033203125
1686425172739589000,5.854589111328125,0.31072998046875,1.02850341796875,-0.21258544921875
1686425172749535000,5.864534912109375,0.3162994384765625,1.0963897705078125,-0.22821044921875
1686425172759480300,5.874480224609375,0.3095550537109375,1.1773834228515625,-0.2311248779296875
1686425172769426200,5.88442626953125,0.304229736328125,1.2220001220703125,-0.2222747802734375
1686425172779371300,5.894371337890625,0.295257568359375,1.2072906494140625,-0.20074462890625
1686425172789317000,5.904317138671875,0.2761077880859375,1.15625,-0.182525634765625
1686425172799262000,5.914261962890625,0.25762939453125,1.0794677734375,-0.1712493896484375
1686425172809208000,5.9242080078125,0.2491912841796875,0.9769134521484375,-0.170928955078125
1686425172819153200,5.934153076171875,0.2199554443359375,0.8531341552734375,-0.167236328125
1686425172829099300,5.944099365234375,0.20098876953125,0.7288970947265625,-0.14056396484375
1686425172839044000,5.954044189453125,0.1756134033203125,0.61865234375,-0.1244354248046875
1686425172848990200,5.963990234375,0.15411376953125,0.530487060546875,-0.1225433349609375
1686425172858935000,5.97393505859375,0.126953125,0.46685791015625,-0.12774658203125
1686425172868881200,5.983881103515625,0.0933380126953125,0.4041900634765625,-0.11749267578125
1686425172878826200,5.993826171875,0.0440521240234375,0.34442138671875,-0.13336181640625
1686425172888772400,6.0037724609375,0.0290374755859375,0.310638427734375,-0.156158447265625
1686425172898717200,6.01371728515625,0.047760009765625,0.2926483154296875,-0.1644287109375
1686425172908663300,6.023663330078125,0.0899810791015625,0.30780029296875,-0.1970977783203125
1686425172918608100,6.033608154296875,0.131591796875,0.350067138671875,-0.2327117919921875
1686425172928554200,6.04355419921875,0.163360595703125,0.4178924560546875,-0.2505035400390625
1686425172938499300,6.053499267578125,0.1853485107421875,0.503662109375,-0.2484588623046875
1686425172948445400,6.063445556640625,0.207763671875,0.6138916015625,-0.236236572265625
1686425172958390300,6.073390380859375,0.2370147705078125,0.7509918212890625,-0.1843414306640625
1686425172968336400,6.08333642578125,0.2613067626953125,0.886016845703125,-0.1186981201171875
1686425172978281200,6.09328125,0.28326416015625,1.0112457275390625,-0.063568115234375
1686425172988227000,6.10322705078125,0.3021087646484375,1.1206207275390625,-0.0074920654296875
1686425172998173200,6.113173095703125,0.318389892578125,1.20489501953125,0.045745849609375
1686425173008118300,6.1231181640625,0.3369598388671875,1.28173828125,0.090576171875
1686425173018064400,6.133064453125,0.3529815673828125,1.3389129638671875,0.1109619140625
1686425173028009200,6.14300927734375,0.3632659912109375,1.3781890869140625,0.105865478515625
1686425173037955300,6.152955322265625,0.368408203125,1.409820556640625,0.102996826171875
1686425173047900200,6.162900146484375,0.3652191162109375,1.430694580078125,0.101043701171875
1686425173057846300,6.17284619140625,0.357391357421875,1.4277801513671875,0.110076904296875
1686425173067791000,6.182791015625,0.35400390625,1.42523193359375,0.122802734375
1686425173077737200,6.1927373046875,0.3568878173828125,1.4322662353515625,0.1387786865234375
1686425173087682300,6.202682373046875,0.371734619140625,1.4596710205078125,0.157989501953125
1686425173097628200,6.212628173828125,0.39508056640625,1.510650634765625,0.173583984375
1686425173107573200,6.2225732421875,0.4233245849609375,1.560821533203125,0.194488525390625
1686425173117519000,6.23251904296875,0.425018310546875,1.4021148681640625,0.3904266357421875
1686425173127464200,6.242464111328125,0.395111083984375,1.4222412109375,0.5665283203125
1686425173137410000,6.25241015625,0.50079345703125,1.665191650390625,0.531982421875
1686425173147355400,6.26235546875,0.6086273193359375,1.6743927001953125,0.563934326171875
1686425173157301200,6.27230126953125,0.609130859375,1.429290771484375,0.517059326171875
1686425173167246300,6.282246337890625,0.510345458984375,1.115509033203125,0.40789794921875
1686425173177192200,6.292192138671875,0.3925018310546875,0.8894195556640625,0.33270263671875
1686425173187137000,6.302136962890625,0.2821807861328125,0.6956329345703125,0.299346923828125
1686425173197083100,6.312083251953125,0.19110107421875,0.5187835693359375,0.3153839111328125
1686425173207028200,6.3220283203125,0.1571197509765625,0.4323272705078125,0.3449554443359375
1686425173216974300,6.331974365234375,0.1899871826171875,0.509063720703125,0.327972412109375
1686425173226919200,6.341919189453125,0.2469635009765625,0.6903228759765625,0.259765625
1686425173236865300,6.351865234375,0.297943115234375,0.8545074462890625,0.177093505859375
1686425173246811100,6.36181103515625,0.3543853759765625,1.0280609130859375,0.10296630859375
1686425173256756200,6.371756103515625,0.38873291015625,1.1833343505859375,0.050689697265625
1686425173266702000,6.3817021484375,0.3735198974609375,1.2975006103515625,-0.004058837890625
1686425173276647400,6.3916474609375,0.323760986328125,1.360565185546875,-0.06298828125
1686425173286593300,6.40159326171875,0.2993621826171875,1.3658599853515625,-0.096160888671875
1686425173296538000,6.4115380859375,0.3366851806640625,1.3127288818359375,-0.1133270263671875
1686425173306484200,6.421484130859375,0.3822174072265625,1.23114013671875,-0.11846923828125
1686425173316429000,6.431428955078125,0.375335693359375,1.1859893798828125,-0.1137847900390625
1686425173326375200,6.441375244140625,0.34613037109375,1.152923583984375,-0.122314453125
1686425173336320300,6.4513203125,0.3130340576171875,1.0878753662109375,-0.12701416015625
1686425173346266400,6.461266357421875,0.2755889892578125,1.0056915283203125,-0.1354827880859375
1686425173356211200,6.471211181640625,0.2449798583984375,0.904876708984375,-0.1202392578125
1686425173366157300,6.4811572265625,0.2153778076171875,0.8033447265625,-0.081085205078125
1686425173376102100,6.49110205078125,0.1760406494140625,0.71502685546875,-0.054901123046875
1686425173386048300,6.50104833984375,0.1485748291015625,0.639495849609375,-0.0479583740234375
1686425173395993300,6.510993408203125,0.12054443359375,0.5891571044921875,-0.069915771484375
1686425173405939500,6.520939453125,0.0932159423828125,0.547149658203125,-0.0893096923828125
1686425173415884300,6.53088427734375,0.0720977783203125,0.5099334716796875,-0.1020660400390625
1686425173425830100,6.540830078125,0.0448150634765625,0.4703216552734375,-0.1058807373046875
1686425173435775200,6.550775146484375,0.0076446533203125,0.4645843505859375,-0.1606597900390625
1686425173445721000,6.56072119140625,-0.01995849609375,0.48101806640625,-0.1829376220703125
1686425173455667200,6.570667236328125,-0.0315093994140625,0.5095367431640625,-0.23193359375
1686425173465612300,6.5806123046875,-0.03741455078125,0.549896240234375,-0.29083251953125
1686425173475558400,6.590558349609375,-0.038970947265625,0.5865936279296875,-0.3657989501953125
1686425173485503200,6.600503173828125,-0.0236663818359375,0.628448486328125,-0.5285797119140625
1686425173495449300,6.610449462890625,0.114898681640625,0.5659027099609375,-0.5442657470703125
1686425173505394200,6.620394287109375,0.2483062744140625,0.4607391357421875,-0.4220123291015625
1686425173515340300,6.63034033203125,0.29473876953125,0.423126220703125,-0.2932281494140625
1686425173525285000,6.64028515625,0.269500732421875,0.4835052490234375,-0.224456787109375
1686425173535231200,6.650231201171875,0.2359619140625,0.62066650390625,-0.2052154541015625
1686425173545176300,6.66017626953125,0.263092041015625,0.8338470458984375,-0.220306396484375
1686425173555122200,6.6701220703125,0.350494384765625,1.1009521484375,-0.2530364990234375
1686425173565067300,6.6800673828125,0.491363525390625,1.292510986328125,-0.3375244140625
1686425173575013000,6.69001318359375,0.981414794921875,1.407501220703125,-0.5166473388671875
1686425173584958200,6.699958251953125,1.360260009765625,1.7273406982421875,-0.514434814453125
1686425173594904000,6.709904052734375,1.135040283203125,1.94189453125,-0.1887664794921875
1686425173604849400,6.719849365234375,1.0165557861328125,1.8058319091796875,0.1029510498046875
1686425173614795300,6.729795166015625,0.8863067626953125,1.4306488037109375,0.27349853515625
1686425173624740000,6.739739990234375,1.0055694580078125,1.0453948974609375,0.4130096435546875
1686425173634686200,6.749686279296875,1.2259979248046875,0.7762603759765625,0.5016326904296875
1686425173644631000,6.759631103515625,1.03875732421875,0.5527191162109375,0.3227386474609375
1686425173654577200,6.7695771484375,0.66363525390625,0.4676361083984375,0.2076416015625
1686425173664522200,6.779522216796875,0.3193817138671875,0.637664794921875,0.1347198486328125
1686425173674468400,6.78946826171875,0.160552978515625,0.9181365966796875,-0.0270233154296875
1686425173684414200,6.799414306640625,0.2174224853515625,1.2360992431640625,-0.1969451904296875
1686425173694359300,6.809359375,0.3571319580078125,1.499725341796875,-0.2859344482421875
1686425173704305200,6.81930517578125,0.46356201171875,1.615020751953125,-0.341033935546875
1686425173714250200,6.829250244140625,0.538360595703125,1.6675872802734375,-0.360321044921875
1686425173724196000,6.839196044921875,0.4927978515625,1.6009063720703125,-0.317718505859375
1686425173734141400,6.849141357421875,0.393157958984375,1.472015380859375,-0.2808990478515625
1686425173744087300,6.85908740234375,0.294769287109375,1.3024444580078125,-0.28826904296875
1686425173754032000,6.8690322265625,0.2115478515625,1.14581298828125,-0.30059814453125
1686425173763978200,6.878978271484375,0.1624298095703125,1.031341552734375,-0.3035736083984375
1686425173773923000,6.888923095703125,0.15155029296875,0.9518585205078125,-0.2778167724609375
1686425173783869200,6.898869140625,0.157562255859375,0.9124755859375,-0.257843017578125
1686425173793814300,6.908814208984375,0.1708984375,0.905548095703125,-0.2437896728515625
1686425173803760400,6.918760498046875,0.1936187744140625,0.9282989501953125,-0.2193450927734375
1686425173813705200,6.928705322265625,0.2207489013671875,0.9878387451171875,-0.191131591796875
1686425173823651300,6.9386513671875,0.2265625,1.053863525390625,-0.170745849609375
1686425173833596200,6.94859619140625,0.22265625,1.112823486328125,-0.1650848388671875
1686425173843542300,6.958542236328125,0.214508056640625,1.14990234375,-0.174591064453125
1686425173853487400,6.9684873046875,0.213226318359375,1.14385986328125,-0.163665771484375
1686425173863433200,6.97843310546875,0.2170562744140625,1.0871734619140625,-0.1334381103515625
1686425173873378300,6.98837841796875,0.216949462890625,0.998321533203125,-0.1047515869140625
1686425173883324200,6.99832421875,0.2039642333984375,0.8934173583984375,-0.074676513671875
1686425173893270500,7.0082705078125,0.1818084716796875,0.782806396484375,-0.0410308837890625
1686425173903215400,7.01821533203125,0.161407470703125,0.6840972900390625,-0.0079193115234375
1686425173913161500,7.028161376953125,0.1419525146484375,0.6032867431640625,0.017730712890625
1686425173923106300,7.038106201171875,0.126373291015625,0.544586181640625,0.0221710205078125
1686425173933052400,7.048052490234375,0.1156005859375,0.4997100830078125,0.021728515625
1686425173942997500,7.05799755859375,0.1092071533203125,0.4588775634765625,0.024932861328125
1686425173952943400,7.067943359375,0.107513427734375,0.41729736328125,0.02789306640625
1686425173962888400,7.077888427734375,0.1114349365234375,0.3908843994140625,0.0088653564453125
1686425173972834300,7.087834228515625,0.1248626708984375,0.39044189453125,-0.0172119140625
1686425173982779400,7.097779296875,0.145843505859375,0.401092529296875,-0.02752685546875
1686425173992725200,7.107725341796875,0.1579742431640625,0.4303131103515625,-0.0309906005859375
1686425174002670300,7.11767041015625,0.1658782958984375,0.4892578125,-0.0376434326171875
1686425174012616400,7.127616455078125,0.17962646484375,0.55963134765625,-0.0360565185546875
1686425174022561300,7.137561279296875,0.21087646484375,0.636077880859375,-0.0252685546875
1686425174032507400,7.14750732421875,0.22161865234375,0.7295379638671875,-0.080535888671875
1686425174042452200,7.1574521484375,0.2277984619140625,0.8300628662109375,-0.136749267578125
1686425174052398300,7.1673984375,0.2450714111328125,0.923828125,-0.1474761962890625
1686425174062343400,7.177343505859375,0.266754150390625,1.00787353515625,-0.0897064208984375
1686425174072289500,7.18728955078125,0.2994842529296875,1.07177734375,0.0086669921875
1686425174082234400,7.197234375,0.3096923828125,1.13330078125,0.0572967529296875
1686425174092180500,7.207180419921875,0.3212127685546875,1.18316650390625,0.094512939453125
1686425174102126300,7.217126220703125,0.33447265625,1.226654052734375,0.12921142578125
1686425174112071400,7.227071533203125,0.342041015625,1.25567626953125,0.170379638671875
1686425174122017300,7.237017333984375,0.3719024658203125,1.275482177734375,0.2823638916015625
1686425174131962400,7.24696240234375,0.4501953125,1.2898712158203125,0.5025482177734375
1686425174141908500,7.256908447265625,0.5627593994140625,1.34326171875,0.674591064453125
1686425174151853300,7.266853271484375,0.6368255615234375,1.452545166015625,0.5868377685546875
1686425174161799400,7.27679931640625,0.6988983154296875,1.54071044921875,0.58575439453125
1686425174171744300,7.286744140625,0.6958770751953125,1.581512451171875,0.60174560546875
1686425174181690400,7.2966904296875,0.6156463623046875,1.5494232177734375,0.594451904296875
1686425174191635500,7.306635498046875,0.612091064453125,1.6616058349609375,0.543609619140625
1686425174201581600,7.31658154296875,0.6143798828125,1.7183837890625,0.440582275390625
1686425174211526400,7.3265263671875,0.5236968994140625,1.5703277587890625,0.3424530029296875
1686425174221472500,7.336472412109375,0.430511474609375,1.4054412841796875,0.2313079833984375
1686425174231417300,7.346417236328125,0.3448333740234375,1.274017333984375,0.1440582275390625
1686425174241363200,7.35636328125,0.2623138427734375,1.1144561767578125,0.114898681640625
1686425174251308500,7.36630859375,0.197784423828125,0.937835693359375,0.11883544921875
1686425174261254400,7.37625439453125,0.1685943603515625,0.8162689208984375,0.1343841552734375
1686425174271199500,7.386199462890625,0.16583251953125,0.7251129150390625,0.1504974365234375
1686425174281145300,7.396145263671875,0.151458740234375,0.6635589599609375,0.1448822021484375
1686425174291091500,7.406091552734375,0.1421966552734375,0.6517181396484375,0.1249542236328125
1686425174301036300,7.416036376953125,0.145263671875,0.70697021484375,0.0939178466796875
1686425174310982400,7.425982421875,0.1610107421875,0.807098388671875,0.0636749267578125
1686425174320927500,7.435927490234375,0.1964263916015625,0.9287567138671875,0.042633056640625
1686425174330873600,7.44587353515625,0.245574951171875,1.0596923828125,0.0139923095703125
1686425174340818400,7.455818359375,0.3057708740234375,1.189300537109375,-0.0244903564453125
1686425174350764500,7.4657646484375,0.3688812255859375,1.2975311279296875,-0.0674285888671875
1686425174360709400,7.47570947265625,0.436920166015625,1.34051513671875,-0.08367919921875
1686425174370655200,7.4856552734375,0.4595184326171875,1.330718994140625,-0.0748443603515625
1686425174380600600,7.4956005859375,0.4134063720703125,1.2713470458984375,-0.0867767333984375
1686425174390546400,7.50554638671875,0.377655029296875,1.166107177734375,-0.0996246337890625
1686425174400491500,7.515491455078125,0.3668212890625,1.04144287109375,-0.1187591552734375
1686425174410437400,7.525437255859375,0.357696533203125,0.9057464599609375,-0.1336517333984375
1686425174420382500,7.535382568359375,0.3144989013671875,0.7790374755859375,-0.15179443359375
1686425174430328300,7.545328369140625,0.2519989013671875,0.69512939453125,-0.1593780517578125
1686425174440273400,7.5552734375,0.2113037109375,0.6898040771484375,-0.257110595703125
1686425174450219500,7.565219482421875,0.2144012451171875,0.628814697265625,-0.3534698486328125
1686425174460164400,7.575164306640625,0.2150421142578125,0.5511322021484375,-0.29937744140625
1686425174470110500,7.5851103515625,0.2846527099609375,0.512939453125,-0.282440185546875
1686425174480055300,7.59505517578125,0.4610137939453125,0.5146484375,-0.28033447265625
1686425174490001400,7.60500146484375,0.433837890625,0.5068206787109375,-0.1992340087890625
1686425174499947300,7.614947265625,0.318939208984375,0.453765869140625,-0.1425628662109375
1686425174509892400,7.624892333984375,0.2064056396484375,0.4086761474609375,-0.1240692138671875
1686425174519838200,7.634838134765625,0.1212921142578125,0.382659912109375,-0.132720947265625
1686425174529783600,7.644783447265625,0.0588531494140625,0.3730010986328125,-0.142578125
1686425174539729400,7.6547294921875,0.025848388671875,0.3723602294921875,-0.131072998046875
1686425174549674500,7.664674560546875,0.028717041015625,0.4006805419921875,-0.120269775390625
1686425174559620400,7.674620361328125,0.081695556640625,0.455413818359375,-0.139068603515625
1686425174569565200,7.684565185546875,0.1450347900390625,0.4790802001953125,-0.1212310791015625
1686425174579511300,7.69451123046875,0.1909332275390625,0.485015869140625,-0.085235595703125
1686425174589456400,7.704456298828125,0.25347900390625,0.531768798828125,-0.0535888671875
1686425174599402500,7.714402587890625,0.314788818359375,0.663970947265625,-0.0457916259765625
1686425174609347300,7.724347412109375,0.402862548828125,0.847259521484375,-0.091766357421875
1686425174619293400,7.73429345703125,0.5414581298828125,1.0044708251953125,-0.2015380859375
1686425174629238300,7.74423828125,0.7404632568359375,1.1097564697265625,-0.3724517822265625
1686425174639184400,7.754184326171875,1.1068878173828125,1.236846923828125,-0.599365234375
1686425174649129500,7.76412939453125,1.3003387451171875,1.629180908203125,-0.6290283203125
1686425174659075600,7.77407568359375,1.024658203125,1.909393310546875,-0.3345947265625
1686425174669020400,7.7840205078125,0.8779144287109375,1.82391357421875,-0.0296173095703125
1686425174678966300,7.79396630859375,0.9236602783203125,1.546142578125,0.2194671630859375
1686425174688912400,7.803912353515625,0.951812744140625,1.1513824462890625,0.340789794921875
1686425174698857200,7.813857177734375,1.2110443115234375,0.899658203125,0.42059326171875
1686425174708803300,7.82380322265625,1.15570068359375,0.6458282470703125,0.305755615234375
1686425174718748400,7.83374853515625,0.78729248046875,0.537567138671875,0.2135772705078125
1686425174728694500,7.843694580078125,0.407623291015625,0.6951904296875,0.0825958251953125
1686425174738639400,7.853639404296875,0.233184814453125,0.978240966796875,-0.0871734619140625
1686425174748585500,7.86358544921875,0.2244720458984375,1.249603271484375,-0.2452545166015625
1686425174758530300,7.8735302734375,0.301544189453125,1.443572998046875,-0.3622894287109375
1686425174768476400,7.883476318359375,0.3865814208984375,1.5728302001953125,-0.463409423828125
1686425174778421500,7.89342138671875,0.470367431640625,1.61224365234375,-0.51763916015625
1686425174788367600,7.90336767578125,0.4749908447265625,1.4865570068359375,-0.4885406494140625
1686425174798312400,7.9133125,0.3498382568359375,1.2944183349609375,-0.4404449462890625
1686425174808258300,7.92325830078125,0.24578857421875,1.1320953369140625,-0.414398193359375
1686425174818203400,7.933203369140625,0.193023681640625,0.9806976318359375,-0.399139404296875
1686425174828149200,7.943149169921875,0.1666259765625,0.8882598876953125,-0.39984130859375
1686425174838094600,7.953094482421875,0.1607513427734375,0.8547210693359375,-0.386627197265625
1686425174848040400,7.96304052734375,0.1758575439453125,0.873260498046875,-0.3573150634765625
1686425174857985500,7.972985595703125,0.19635009765625,0.92724609375,-0.322540283203125
1686425174867931400,7.982931396484375,0.218780517578125,0.9915771484375,-0.28228759765625
1686425174877877500,7.99287744140625,0.2363433837890625,1.051422119140625,-0.236480712890625
1686425174887822300,8.002822265625,0.2533721923828125,1.0899658203125,-0.186614990234375
1686425174897768700,8.012768798828125,0.270538330078125,1.1225128173828125,-0.174072265625
1686425174907713500,8.022713623046876,0.2753448486328125,1.1415863037109375,-0.182342529296875
1686425174917659600,8.03265966796875,0.2679595947265625,1.13818359375,-0.1714019775390625
1686425174927604700,8.042604736328125,0.256591796875,1.099578857421875,-0.151580810546875
1686425174937550800,8.05255078125,0.2323760986328125,1.0242462158203125,-0.120513916015625
1686425174947495700,8.06249560546875,0.1912078857421875,0.9202728271484375,-0.0978546142578125
1686425174957441800,8.07244189453125,0.1540679931640625,0.807769775390625,-0.0875244140625
1686425174967386600,8.08238671875,0.1326904296875,0.69757080078125,-0.0702667236328125
1686425174977332700,8.092332763671875,0.1163482666015625,0.5996551513671875,-0.055328369140625
1686425174987277800,8.10227783203125,0.104644775390625,0.527862548828125,-0.04345703125
1686425174997223700,8.1122236328125,0.101043701171875,0.4761199951171875,-0.0317535400390625
1686425175007168800,8.122168701171875,0.097076416015625,0.436767578125,-0.0221405029296875
1686425175017114600,8.132114501953126,0.0889892578125,0.41046142578125,-0.0139007568359375
1686425175027059700,8.142059814453125,0.083587646484375,0.3963470458984375,-0.004364013671875
1686425175037005600,8.152005615234375,0.0966796875,0.370574951171875,0.005279541015625
1686425175046951700,8.16195166015625,0.1286163330078125,0.372344970703125,-0.0106353759765625
1686425175056896800,8.171896728515625,0.167327880859375,0.401763916015625,-0.0359954833984375
1686425175066843000,8.1818427734375,0.1971893310546875,0.462799072265625,-0.0499420166015625
1686425175076787700,8.19178759765625,0.2123260498046875,0.548553466796875,-0.0591583251953125
1686425175086733800,8.20173388671875,0.23028564453125,0.6523590087890625,-0.07611083984375
1686425175096678700,8.2116787109375,0.2573699951171875,0.7633056640625,-0.090118408203125
1686425175106624800,8.221624755859375,0.288818359375,0.8820343017578125,-0.0874786376953125
1686425175116569900,8.23156982421875,0.3125457763671875,0.993988037109375,-0.0717010498046875
1686425175126515700,8.241515625,0.337615966796875,1.0901336669921875,-0.0309906005859375
1686425175136460800,8.251460693359375,0.3589019775390625,1.16796875,0.0154571533203125
1686425175146406700,8.26140673828125,0.3572235107421875,1.2293243408203125,0.065185546875
1686425175156351700,8.271351806640626,0.358306884765625,1.2833251953125,0.093597412109375
1686425175166297600,8.281297607421875,0.352935791015625,1.3125152587890625,0.0994720458984375
1686425175176243000,8.291242919921874,0.3543243408203125,1.318939208984375,0.1280975341796875
1686425175186188800,8.301188720703125,0.3602447509765625,1.304534912109375,0.1993865966796875
1686425175196133600,8.311133544921875,0.4022369384765625,1.2720794677734375,0.3288726806640625
1686425175206079700,8.321079833984374,0.4819488525390625,1.2461395263671875,0.4967498779296875
1686425175216025900,8.33102587890625,0.5724639892578125,1.284698486328125,0.5418853759765625
1686425175225970700,8.340970703125,0.6495819091796875,1.343658447265625,0.5642242431640625
1686425175235916500,8.35091650390625,0.6709136962890625,1.4054718017578125,0.58221435546875
1686425175245862000,8.36086181640625,0.6246490478515625,1.4296722412109375,0.5746917724609375
1686425175255807700,8.370807861328124,0.588592529296875,1.4758758544921875,0.6023712158203125
1686425175265752800,8.3807529296875,0.647674560546875,1.6532135009765625,0.5389251708984375
1686425175275698700,8.39069873046875,0.647857666015625,1.663421630859375,0.4473114013671875
1686425175285643800,8.400643798828124,0.5635528564453125,1.4998321533203125,0.354736328125
1686425175295589600,8.410589599609375,0.4627685546875,1.308868408203125,0.23486328125
1686425175305534700,8.42053466796875,0.3438720703125,1.12359619140625,0.1597137451171875
1686425175315480800,8.430480712890626,0.2471160888671875,0.975494384765625,0.1300811767578125
1686425175325425700,8.44042578125,0.175140380859375,0.866302490234375,0.117828369140625
1686425175335371800,8.450371826171875,0.1306915283203125,0.7754669189453125,0.11492919921875
1686425175345316600,8.460316650390626,0.1166534423828125,0.70623779296875,0.115234375
1686425175355262700,8.4702626953125,0.1314849853515625,0.684112548828125,0.121490478515625
1686425175365207600,8.48020751953125,0.141387939453125,0.7317962646484375,0.1157684326171875
1686425175375153700,8.490153564453125,0.167999267578125,0.8230133056640625,0.09716796875
1686425175385099800,8.500099853515625,0.2151947021484375,0.9382781982421875,0.07830810546875
1686425175395044900,8.510044921875,0.283660888671875,1.0848846435546875,0.0515289306640625
1686425175404990700,8.51999072265625,0.3626861572265625,1.241058349609375,0.0196075439453125
1686425175414935800,8.529935791015625,0.4387054443359375,1.3813323974609375,-0.0220489501953125
1686425175424881700,8.539881591796876,0.501190185546875,1.4753875732421875,-0.070159912109375
1686425175434826500,8.549826416015625,0.5349578857421875,1.5063629150390625,-0.1312408447265625
1686425175444772600,8.559772705078124,0.538848876953125,1.4427337646484375,-0.1862945556640625
1686425175454717700,8.5697177734375,0.5238800048828125,1.3055267333984375,-0.2082977294921875
1686425175464663800,8.579663818359375,0.458984375,1.1191253662109375,-0.1666107177734375
1686425175474608600,8.589608642578124,0.37017822265625,0.94964599609375,-0.1411895751953125
1686425175484554800,8.5995546875,0.279754638671875,0.835662841796875,-0.2389373779296875
1686425175494499600,8.60949951171875,0.265350341796875,0.7248077392578125,-0.3497161865234375
1686425175504445700,8.61944580078125,0.2497711181640625,0.576812744140625,-0.257843017578125
1686425175514390800,8.629390869140625,0.24542236328125,0.4681854248046875,-0.27001953125
1686425175524337000,8.6393369140625,0.2440948486328125,0.3819580078125,-0.2993621826171875
1686425175534281700,8.64928173828125,0.2404632568359375,0.31744384765625,-0.2927398681640625
1686425175544227800,8.659227783203125,0.2332000732421875,0.271087646484375,-0.2708587646484375
1686425175554173700,8.669173583984374,0.242279052734375,0.2612152099609375,-0.2268524169921875
1686425175564118500,8.679118408203125,0.249755859375,0.2982330322265625,-0.189788818359375
1686425175574064600,8.689064697265625,0.2250213623046875,0.331024169921875,-0.1622467041015625
1686425175584009700,8.699009765625,0.1961822509765625,0.341705322265625,-0.137054443359375
1686425175593955800,8.708955810546875,0.1804656982421875,0.3455657958984375,-0.1224365234375
1686425175603900700,8.718900634765625,0.173553466796875,0.3767547607421875,-0.1239166259765625
1686425175613846800,8.7288466796875,0.1610107421875,0.411346435546875,-0.11785888671875
1686425175623791600,8.73879150390625,0.154266357421875,0.4473114013671875,-0.1052703857421875
1686425175633737700,8.74873779296875,0.1477508544921875,0.468292236328125,-0.0838775634765625
1686425175643682800,8.758682861328126,0.159210205078125,0.4693756103515625,-0.0466461181640625
1686425175653629000,8.76862890625,0.22113037109375,0.510650634765625,-0.0201416015625
1686425175663573800,8.77857373046875,0.31060791015625,0.6323089599609375,-0.0231781005859375
1686425175673519900,8.788519775390625,0.4499664306640625,0.8507080078125,-0.107330322265625
1686425175683464700,8.798464599609375,0.6560516357421875,1.09686279296875,-0.292327880859375
1686425175693410600,8.80841064453125,0.9617462158203125,1.2769775390625,-0.53924560546875
1686425175703356000,8.81835595703125,1.343841552734375,1.511962890625,-0.75921630859375
1686425175713301800,8.8283017578125,1.4379119873046875,1.9643402099609375,-0.6333160400390625
1686425175723247900,8.838247802734376,1.2257080078125,2.073883056640625,-0.2772979736328125
1686425175733192700,8.848192626953125,1.2525177001953125,1.8549041748046875,0.104888916015625
1686425175743138800,8.858138916015625,1.2536773681640625,1.3633880615234375,0.274566650390625
1686425175753083600,8.868083740234376,1.336151123046875,1.002838134765625,0.2367095947265625
1686425175763029800,8.87802978515625,1.180023193359375,0.73944091796875,0.0724029541015625
1686425175772974800,8.887974853515624,0.818084716796875,0.501739501953125,-0.0154571533203125
1686425175782921000,8.8979208984375,0.481658935546875,0.508544921875,-0.061370849609375
1686425175792865800,8.90786572265625,0.2842559814453125,0.7545013427734375,-0.127716064453125
1686425175802811600,8.917811767578126,0.1833343505859375,1.0028228759765625,-0.2490692138671875
1686425175812756700,8.9277568359375,0.1958770751953125,1.283447265625,-0.3766632080078125
1686425175822702600,8.93770263671875,0.260589599609375,1.5145111083984375,-0.4738006591796875
1686425175832647700,8.947647705078126,0.3589019775390625,1.6132354736328125,-0.5181121826171875
1686425175842593800,8.95759375,0.4327392578125,1.5711517333984375,-0.51092529296875
1686425175852539000,8.967538818359374,0.412384033203125,1.400054931640625,-0.4344024658203125
1686425175862484700,8.977484619140625,0.324798583984375,1.166015625,-0.346588134765625
1686425175872430800,8.987430908203125,0.2434539794921875,0.9641265869140625,-0.2931060791015625
1686425175882375700,8.997375732421874,0.211700439453125,0.85565185546875,-0.2945098876953125
1686425175892321800,9.00732177734375,0.18511962890625,0.809112548828125,-0.3238677978515625
1686425175902267000,9.017266845703125,0.183502197265625,0.8235626220703125,-0.3586273193359375
1686425175912213000,9.027212890625,0.194610595703125,0.8642425537109375,-0.3710479736328125
1686425175922158000,9.037157958984375,0.2105712890625,0.92877197265625,-0.3546905517578125
1686425175932104200,9.047104248046875,0.223114013671875,0.993865966796875,-0.315673828125
1686425175942049000,9.057049072265626,0.2359771728515625,1.0581512451171875,-0.2820281982421875
1686425175951995100,9.0669951171875,0.251861572265625,1.1006317138671875,-0.2517547607421875
1686425175961940000,9.07693994140625,0.2617034912109375,1.1192474365234375,-0.2135772705078125
1686425175971885800,9.0868857421875,0.259368896484375,1.106109619140625,-0.18414306640625
1686425175981831200,9.0968310546875,0.253143310546875,1.08734130859375,-0.1871795654296875
1686425175991777000,9.106777099609374,0.244293212890625,1.06085205078125,-0.1818084716796875
1686425176001722000,9.11672216796875,0.2166748046875,1.02093505859375,-0.149139404296875
1686425176011668000,9.12666796875,0.1893768310546875,0.949462890625,-0.12420654296875
1686425176021613000,9.136613037109376,0.1496734619140625,0.85357666015625,-0.1233673095703125
1686425176031559000,9.146558837890625,0.119842529296875,0.7520751953125,-0.1186065673828125
1686425176041505000,9.156505126953125,0.116119384765625,0.654541015625,-0.084930419921875
1686425176051450000,9.1664501953125,0.1161651611328125,0.5748138427734375,-0.0535430908203125
1686425176061396200,9.176396240234375,0.1186676025390625,0.5189361572265625,-0.0176239013671875
1686425176071341000,9.186341064453124,0.11761474609375,0.472564697265625,0.0216827392578125
1686425176081287000,9.196286865234375,0.1122283935546875,0.44500732421875,0.048095703125
1686425176091232000,9.20623193359375,0.11004638671875,0.4420318603515625,0.0501708984375
1686425176101177900,9.216177734375,0.1187286376953125,0.4399261474609375,0.051788330078125
1686425176111123200,9.226123291015625,0.1562347412109375,0.4329071044921875,0.0433197021484375
1686425176121069000,9.236069091796875,0.188079833984375,0.471923828125,0.011260986328125
1686425176131014100,9.24601416015625,0.206939697265625,0.528045654296875,-0.017303466796875
1686425176140960000,9.2559599609375,0.2218475341796875,0.5904083251953125,-0.0235595703125
1686425176150905000,9.265905029296874,0.235687255859375,0.6568756103515625,-0.0142669677734375
1686425176160851000,9.275850830078125,0.2493133544921875,0.7326507568359375,0.0063934326171875
1686425176170796000,9.285796142578125,0.2688446044921875,0.8173065185546875,0.0224609375
1686425176180742100,9.2957421875,0.28900146484375,0.90362548828125,0.0340728759765625
1686425176190688300,9.305688232421875,0.30419921875,0.995574951171875,0.0386962890625
1686425176200633000,9.315633056640625,0.315826416015625,1.0774688720703125,0.0454864501953125
1686425176210579000,9.325578857421876,0.31787109375,1.1480560302734375,0.0540313720703125
1686425176220524000,9.33552392578125,0.3159637451171875,1.217987060546875,0.0565185546875
1686425176230470000,9.345469970703125,0.322845458984375,1.2860565185546875,0.0600433349609375
1686425176240415000,9.3554150390625,0.3370208740234375,1.3531494140625,0.0706787109375
1686425176250361000,9.365361083984375,0.3574981689453125,1.41845703125,0.0712738037109375
1686425176260306200,9.37530615234375,0.3808441162109375,1.474090576171875,0.0709991455078125
1686425176270252000,9.385251953125,0.39788818359375,1.5068206787109375,0.0889739990234375
1686425176280196900,9.39519677734375,0.40850830078125,1.513916015625,0.1220245361328125
1686425176290143000,9.40514306640625,0.4154510498046875,1.46453857421875,0.2315216064453125
1686425176300087800,9.415087890625,0.4506072998046875,1.3899078369140625,0.379638671875
1686425176310034000,9.425033935546875,0.5185699462890625,1.6116485595703125,0.4104156494140625
1686425176319979000,9.43497900390625,0.6272125244140625,1.813201904296875,0.4022674560546875
1686425176329925000,9.444925048828125,0.6093902587890625,1.72930908203125,0.3515167236328125
1686425176339871000,9.45487109375,0.50213623046875,1.57354736328125,0.25726318359375
1686425176349816000,9.464816162109376,0.4132232666015625,1.3602752685546875,0.1887664794921875
1686425176359762000,9.474761962890625,0.3350067138671875,1.1424560546875,0.17327880859375
1686425176369707000,9.48470703125,0.27325439453125,0.9367828369140625,0.2231903076171875
1686425176379652900,9.49465283203125,0.2542572021484375,0.7833404541015625,0.3014068603515625
1686425176389598200,9.50459814453125,0.25347900390625,0.7319793701171875,0.356597900390625
1686425176399544000,9.5145439453125,0.2698822021484375,0.73516845703125,0.363922119140625
1686425176409489000,9.524489013671875,0.2795257568359375,0.72125244140625,0.3249664306640625
1686425176419435000,9.53443505859375,0.2787933349609375,0.7059173583984375,0.2702178955078125
1686425176429379800,9.5443798828125,0.2669830322265625,0.72735595703125,0.2049560546875
1686425176439326000,9.554325927734375,0.25555419921875,0.7964630126953125,0.1368865966796875
1686425176449271000,9.56427099609375,0.266326904296875,0.9242095947265625,0.0536651611328125
1686425176459217200,9.574217041015626,0.3063507080078125,1.0974273681640625,-0.0261993408203125
1686425176469163000,9.5841630859375,0.331390380859375,1.247589111328125,-0.0913238525390625
1686425176479108000,9.594108154296874,0.346466064453125,1.3307647705078125,-0.1419830322265625
1686425176489054000,9.604053955078125,0.378570556640625,1.3351898193359375,-0.1675262451171875
1686425176498999000,9.6139990234375,0.413055419921875,1.306549072265625,-0.196807861328125
1686425176508945000,9.62394482421875,0.4127197265625,1.2175445556640625,-0.216278076171875
1686425176518890000,9.633889892578125,0.37237548828125,1.099945068359375,-0.2167510986328125
1686425176528836000,9.643836181640625,0.3060302734375,0.9928436279296875,-0.221435546875
1686425176538781000,9.653781005859376,0.251739501953125,0.895172119140625,-0.23370361328125
1686425176548727000,9.66372705078125,0.2535400390625,0.8049774169921875,-0.2536163330078125
1686425176558672000,9.673671875,0.7112579345703125,0.7535552978515625,-0.35479736328125
1686425176568618000,9.683617919921875,1.4017181396484375,0.7990264892578125,-0.3792572021484375
1686425176578563000,9.69356298828125,0.8195953369140625,0.7291412353515625,-0.23138427734375
1686425176588509200,9.70350927734375,0.507659912109375,0.54168701171875,-0.183074951171875
1686425176598454000,9.7134541015625,0.3065032958984375,0.367156982421875,-0.16766357421875
1686425176608400100,9.723400146484375,0.1361083984375,0.2854766845703125,-0.147796630859375
1686425176618346000,9.733345947265626,0.0375518798828125,0.2461700439453125,-0.13250732421875
1686425176628291000,9.743291015625,-0.03485107421875,0.2281494140625,-0.1106414794921875
1686425176638237000,9.75323681640625,-0.0701751708984375,0.2111663818359375,-0.093780517578125
1686425176648182000,9.76318212890625,-0.0957489013671875,0.18743896484375,-0.07733154296875
1686425176658128100,9.773128173828125,-0.09625244140625,0.194580078125,-0.0541229248046875
1686425176668073000,9.783072998046874,-0.0622100830078125,0.208526611328125,-0.0331268310546875
1686425176678019000,9.79301904296875,-0.0190887451171875,0.2550811767578125,-0.029449462890625
1686425176687964000,9.8029638671875,0.0380706787109375,0.3255157470703125,-0.0153656005859375
1686425176697910000,9.812909912109374,0.07672119140625,0.4488677978515625,-0.0316162109375
1686425176707855000,9.822855224609375,0.113189697265625,0.61572265625,-0.0546875
1686425176717801200,9.83280126953125,0.155029296875,0.7985382080078125,-0.089813232421875
1686425176727746000,9.84274609375,0.21649169921875,0.991424560546875,-0.1205291748046875
1686425176737692200,9.852692138671875,0.283477783203125,1.23760986328125,-0.1343231201171875
1686425176747637000,9.862636962890624,0.3267059326171875,1.517333984375,-0.145751953125
1686425176757583000,9.8725830078125,0.393524169921875,1.7716217041015625,-0.15826416015625
1686425176767529000,9.882529052734375,0.8221435546875,2.0046539306640625,-0.1101531982421875
1686425176777474000,9.89247412109375,0.990386962890625,2.038238525390625,-0.0023345947265625
1686425176787420200,9.902420166015625,0.79656982421875,1.6413116455078125,0.1124725341796875
1686425176797365000,9.912364990234375,0.704498291015625,1.294769287109375,0.1651458740234375
1686425176807311000,9.92231103515625,0.610809326171875,1.05865478515625,0.2024383544921875
1686425176817256000,9.932255859375,0.544281005859375,0.9211578369140625,0.242462158203125
1686425176827202000,9.9422021484375,0.5018768310546875,0.890716552734375,0.2906951904296875
1686425176837147000,9.95214697265625,0.4403533935546875,1.0189971923828125,0.3070220947265625
1686425176847093000,9.962093017578125,0.3962249755859375,1.24066162109375,0.3008575439453125
1686425176857038000,9.9720380859375,0.3875579833984375,1.521514892578125,0.230804443359375
1686425176866984200,9.981984130859376,0.41424560546875,1.710296630859375,0.143585205078125
1686425176876929000,9.991928955078125,0.439208984375,1.6706390380859375,0.0689239501953125
1686425176886875000,10.001875,0.409271240234375,1.503265380859375,-0.010498046875
1686425176896819200,10.011819091796875,0.3484344482421875,1.3309326171875,-0.094970703125
1686425176906765300,10.021765380859375,0.2759246826171875,1.2257843017578125,-0.166229248046875
1686425176916711400,10.03171142578125,0.205474853515625,1.155242919921875,-0.20208740234375
1686425176926656300,10.04165625,0.151458740234375,1.1215362548828125,-0.2210845947265625
1686425176936602000,10.05160205078125,0.1149749755859375,1.1135101318359375,-0.2473297119140625
1686425176946547200,10.061547119140625,0.1070404052734375,1.1111907958984375,-0.269744873046875
1686425176956493000,10.0714931640625,0.1166534423828125,1.109039306640625,-0.2978515625
1686425176966438400,10.0814384765625,0.1109619140625,1.074859619140625,-0.32928466796875
1686425176976384300,10.09138427734375,0.1167144775390625,1.034149169921875,-0.3381805419921875
1686425176986329300,10.101329345703125,0.1488494873046875,0.9966278076171875,-0.3099517822265625
1686425176996275200,10.111275146484376,0.20654296875,0.9967498779296875,-0.227203369140625
1686425177006220300,10.12122021484375,0.2125396728515625,1.0180206298828125,-0.18359375
1686425177016166100,10.131166259765624,0.189422607421875,1.0312042236328125,-0.14373779296875
1686425177026111200,10.141111328125,0.17626953125,1.01788330078125,-0.09405517578125
1686425177036057300,10.151057373046875,0.149810791015625,0.9873046875,-0.0627593994140625
1686425177046003500,10.16100341796875,0.142578125,0.94451904296875,0.0182342529296875
1686425177055948300,10.1709482421875,0.1014404296875,0.9155120849609375,0.0990142822265625
1686425177065894100,10.18089404296875,-0.0374755859375,0.855987548828125,0.2865753173828125
1686425177075839200,10.190839111328126,-0.0731964111328125,0.806488037109375,0.78631591796875
1686425177085785000,10.20078515625,-0.283905029296875,0.8703460693359375,1.325897216796875
1686425177095730400,10.21073046875,-0.2681121826171875,0.80157470703125,0.5713958740234375
1686425177105676300,10.22067626953125,0.1438140869140625,0.6902618408203125,-0.1639556884765625
1686425177115621400,10.230621337890625,0.2334747314453125,0.593170166015625,-0.3389434814453125
1686425177125567200,10.240567138671874,0.2255706787109375,0.469757080078125,-0.26190185546875
1686425177135512000,10.250511962890625,0.1749725341796875,0.3447418212890625,-0.10577392578125
1686425177145458200,10.260458251953125,0.1224212646484375,0.279815673828125,-0.020477294921875
1686425177155403300,10.2704033203125,0.0932464599609375,0.2766265869140625,-0.00885009765625
1686425177165349000,10.28034912109375,0.0748291015625,0.2799072265625,-0.04510498046875
1686425177175295200,10.290295166015625,0.051513671875,0.284271240234375,-0.109649658203125
1686425177185240300,10.300240234375,0.0453338623046875,0.31744384765625,-0.2020263671875
1686425177195186200,10.310186279296875,0.0536346435546875,0.378753662109375,-0.36151123046875
1686425177205131300,10.32013134765625,0.044921875,0.4808349609375,-0.5876007080078125
1686425177215077000,10.3300771484375,-0.0418548583984375,0.623992919921875,-0.7176971435546875
1686425177225022200,10.340022216796875,0.003143310546875,0.8291778564453125,-0.6016693115234375
1686425177234968000,10.349968017578124,0.192138671875,1.045135498046875,-0.2498016357421875
1686425177244913400,10.359913330078125,0.3195953369140625,1.194000244140625,-0.05694580078125
1686425177254859300,10.369859375,0.3701324462890625,1.317779541015625,0.0388641357421875
1686425177264804000,10.37980419921875,0.3412628173828125,1.395782470703125,0.0385894775390625
1686425177274750200,10.389750244140625,0.261444091796875,1.42864990234375,0.0813140869140625
1686425177284695000,10.399695068359375,0.2410430908203125,1.4651947021484375,0.3299560546875
1686425177294641200,10.40964111328125,0.3913421630859375,1.4674835205078125,0.6097564697265625
1686425177304587000,10.4195869140625,0.539794921875,1.5272216796875,0.6506195068359375
1686425177314532400,10.429532470703125,0.6033782958984375,1.4667816162109375,0.557037353515625
1686425177324478200,10.439478271484376,0.535919189453125,1.3190460205078125,0.42138671875
1686425177334423300,10.44942333984375,0.4247589111328125,1.233062744140625,0.284698486328125
1686425177344369200,10.459369140625,0.4222412109375,1.2595977783203125,0.20458984375
1686425177354314200,10.469314208984375,0.3975982666015625,1.320526123046875,0.16009521484375
1686425177364260000,10.479260009765625,0.3253631591796875,1.386077880859375,0.15496826171875
1686425177374205200,10.489205078125,0.2688140869140625,1.424346923828125,0.2078857421875
1686425177384151300,10.4991513671875,0.2614288330078125,1.490142822265625,0.2994232177734375
1686425177394096000,10.50909619140625,0.3348846435546875,1.492645263671875,0.358612060546875
1686425177404042200,10.519042236328126,0.382171630859375,1.451263427734375,0.3388671875
1686425177413987000,10.528987060546875,0.3725738525390625,1.353485107421875,0.2682647705078125
1686425177423933200,10.53893310546875,0.3130645751953125,1.2045745849609375,0.171875
1686425177433879000,10.548879150390626,0.25897216796875,1.0626068115234375,0.120452880859375
1686425177443824400,10.558824462890625,0.251861572265625,0.9590911865234375,0.107940673828125
1686425177453770200,10.568770263671874,0.25299072265625,0.910858154296875,0.082275390625
1686425177463715300,10.57871533203125,0.247100830078125,0.9359893798828125,0.0575408935546875
1686425177473661200,10.5886611328125,0.2275390625,1.007904052734375,0.0300140380859375
1686425177483606300,10.598606201171876,0.2127227783203125,1.1017303466796875,-0.01019287109375
1686425177493552000,10.60855224609375,0.2110137939453125,1.210784912109375,-0.0637054443359375
1686425177503497200,10.618497314453125,0.16766357421875,1.3366851806640625,-0.163055419921875
1686425177513443300,10.628443359375,0.1166229248046875,1.399871826171875,-0.254791259765625
1686425177523388200,10.63838818359375,0.10028076171875,1.4122314453125,-0.307861328125
1686425177533334300,10.648334228515624,0.08538818359375,1.374786376953125,-0.3363189697265625
1686425177543279000,10.658279052734375,0.0800628662109375,1.2871856689453125,-0.3515167236328125
1686425177553225200,10.66822509765625,0.04791259765625,1.199127197265625,-0.451995849609375
1686425177563171000,10.678171142578124,0.0579376220703125,1.1008758544921875,-0.496612548828125
1686425177573116400,10.688116455078125,0.1727142333984375,0.9274444580078125,-0.3228607177734375
1686425177583062300,10.698062255859375,0.2095489501953125,0.764007568359375,-0.1889495849609375
1686425177593007400,10.70800732421875,0.2112884521484375,0.646453857421875,-0.1112518310546875
1686425177602953200,10.717953125,0.19268798828125,0.54803466796875,-0.0439605712890625
1686425177612898300,10.727898193359374,0.1834716796875,0.4743499755859375,-0.0073089599609375
1686425177622844200,10.73784423828125,0.2013397216796875,0.440643310546875,0.0408782958984375
1686425177632789200,10.747789306640625,0.358245849609375,0.5194549560546875,0.21685791015625
1686425177642735400,10.7577353515625,0.378753662109375,0.5885009765625,0.3606414794921875
1686425177652680200,10.76768017578125,0.307403564453125,0.5284423828125,0.321136474609375
1686425177662626300,10.777626220703125,0.2292327880859375,0.44927978515625,0.2250823974609375
1686425177672571100,10.787571044921876,0.163360595703125,0.3733062744140625,0.1273651123046875
1686425177682517200,10.797517333984375,0.11309814453125,0.336151123046875,0.05230712890625
1686425177692463000,10.807463134765625,0.063140869140625,0.3132781982421875,-0.0085906982421875
1686425177702408200,10.817408203125,0.0310211181640625,0.3014373779296875,-0.06134033203125
1686425177712354300,10.827354248046875,0.0175018310546875,0.2989501953125,-0.1093902587890625
1686425177722299400,10.83729931640625,0.026397705078125,0.3248138427734375,-0.156036376953125
1686425177732245200,10.847245361328126,0.0456695556640625,0.3670501708984375,-0.1717681884765625
1686425177742190000,10.857190185546875,0.06475830078125,0.4452667236328125,-0.169830322265625
1686425177752136200,10.86713623046875,0.07720947265625,0.534454345703125,-0.1763458251953125
1686425177762081000,10.8770810546875,0.1117401123046875,0.6318359375,-0.18560791015625
1686425177772027100,10.887027099609375,0.141815185546875,0.734161376953125,-0.20257568359375
1686425177781972200,10.89697216796875,0.165863037109375,0.856109619140625,-0.218963623046875
1686425177791918300,10.90691845703125,0.20037841796875,0.9816436767578125,-0.1949005126953125
1686425177801864200,10.9168642578125,0.2644805908203125,1.11639404296875,-0.12847900390625
1686425177811809300,10.926809326171876,0.3693084716796875,1.2907867431640625,0.009979248046875
1686425177821755100,10.936755126953125,0.8060302734375,1.5601043701171875,0.299407958984375
1686425177831700200,10.9467001953125,1.2460174560546875,1.8621978759765625,0.4847564697265625
1686425177841646000,10.95664599609375,1.053131103515625,1.84881591796875,0.2637939453125
1686425177851591400,10.96659130859375,0.819976806640625,1.496307373046875,0.1378021240234375
1686425177861537300,10.976537353515624,0.6461944580078125,1.2024688720703125,0.1543731689453125
1686425177871482000,10.986482177734375,0.4733734130859375,1.0546417236328125,0.2090911865234375
1686425177881428200,10.99642822265625,0.4716949462890625,1.032470703125,0.35791015625
1686425177891373000,11.006373046875,1.1119232177734375,1.0285797119140625,0.6119232177734375
1686425177901319200,11.016319091796875,1.364654541015625,0.8834686279296875,0.5711212158203125
1686425177911264300,11.02626416015625,1.0500640869140625,0.8609161376953125,0.289642333984375
1686425177921210400,11.03621044921875,0.6853485107421875,1.1413116455078125,0.082550048828125
1686425177931156200,11.04615625,0.4747161865234375,1.5042572021484375,-0.0335235595703125
1686425177941101300,11.056101318359374,0.4271392822265625,1.5934600830078125,-0.1240234375
1686425177951047200,11.066047119140626,0.3849639892578125,1.499053955078125,-0.2303924560546875
1686425177960992300,11.0759921875,0.3295135498046875,1.3118896484375,-0.287750244140625
1686425177970938000,11.085938232421874,0.3228302001953125,1.135467529296875,-0.3538970947265625
1686425177980883200,11.09588330078125,0.3106231689453125,1.0342559814453125,-0.4239654541015625
1686425177990829300,11.105829345703125,0.3093109130859375,0.9777374267578125,-0.4636383056640625
1686425178000774100,11.115774169921876,0.292083740234375,0.95843505859375,-0.5039520263671875
1686425178010720300,11.12572021484375,0.283233642578125,0.954132080078125,-0.4718170166015625
1686425178020665000,11.1356650390625,0.2653350830078125,0.95098876953125,-0.3790435791015625
1686425178030611200,11.145611083984376,0.2462310791015625,0.959930419921875,-0.273681640625
1686425178040556300,11.155556396484375,0.2205810546875,1.0021820068359375,-0.21282958984375
1686425178050502400,11.16550244140625,0.2006378173828125,1.057159423828125,-0.2242584228515625
1686425178060448300,11.1754482421875,0.205810546875,1.0861358642578125,-0.2154388427734375
1686425178070393300,11.185393310546875,0.2309417724609375,1.097015380859375,-0.208251953125
1686425178080339200,11.195339111328124,0.2476348876953125,1.103240966796875,-0.249267578125
1686425178090284300,11.2052841796875,0.2380523681640625,1.1023101806640625,-0.278106689453125
1686425178100230100,11.215230224609375,0.2086639404296875,1.0950927734375,-0.2569732666015625
1686425178110175200,11.22517529296875,0.196044921875,1.05133056640625,-0.1936798095703125
1686425178120121300,11.235121337890625,0.20867919921875,0.9923248291015625,-0.1393280029296875
1686425178130066200,11.245066162109374,0.2033233642578125,0.9339141845703125,-0.1331329345703125
1686425178140012300,11.25501220703125,0.19049072265625,0.8483428955078125,-0.1235198974609375
1686425178149957000,11.26495703125,0.1722564697265625,0.739501953125,-0.0966796875
1686425178159903200,11.2749033203125,0.1522979736328125,0.6339569091796875,-0.0684661865234375
1686425178169849000,11.28484912109375,0.1319580078125,0.5327301025390625,-0.0360260009765625
1686425178179794400,11.29479443359375,0.10357666015625,0.4375762939453125,-0.0154266357421875
1686425178189740300,11.304740234375,0.08367919921875,0.3994140625,0.0051116943359375
1686425178199685400,11.314685302734375,0.052642822265625,0.3764495849609375,0.03424072265625
1686425178209631200,11.32463134765625,0.0299530029296875,0.36334228515625,0.02996826171875
1686425178219576000,11.334576171875,0.0420074462890625,0.3399200439453125,-0.0567474365234375
1686425178229522200,11.344522216796875,0.083953857421875,0.36932373046875,-0.138092041015625
1686425178239467300,11.35446728515625,0.120880126953125,0.3950653076171875,-0.1666412353515625
1686425178249413400,11.364413330078126,0.1468963623046875,0.4564361572265625,-0.145660400390625
1686425178259358200,11.374358154296875,0.1668701171875,0.5555267333984375,-0.1186370849609375
1686425178269304300,11.38430419921875,0.2027130126953125,0.6737060546875,-0.0746917724609375
1686425178279249200,11.394249267578125,0.2313995361328125,0.79132080078125,-0.0430908203125
1686425178289195300,11.4041953125,0.253997802734375,0.9096832275390625,-0.023712158203125
1686425178299141000,11.41414111328125,0.28460693359375,1.024078369140625,0.00714111328125
1686425178309086200,11.424086181640625,0.3022918701171875,1.126129150390625,0.0631561279296875
1686425178319032300,11.4340322265625,0.3145294189453125,1.1817474365234375,0.1393890380859375
1686425178328977400,11.443977294921876,0.3002777099609375,1.2371673583984375,0.2014923095703125
1686425178338923300,11.45392333984375,0.3282470703125,1.277496337890625,0.29083251953125
1686425178348868000,11.4638681640625,0.36651611328125,1.2934112548828125,0.3788604736328125
1686425178358814200,11.473814208984376,0.428070068359375,1.2870025634765625,0.4797515869140625
1686425178368759000,11.483759033203125,0.4970855712890625,1.255706787109375,0.59539794921875
1686425178378705200,11.493705078125,0.576019287109375,1.2200164794921875,0.6763458251953125
1686425178388650200,11.503650146484375,0.624481201171875,1.2248992919921875,0.5616455078125
1686425178398596400,11.513596435546875,0.6104278564453125,1.263397216796875,0.41522216796875
1686425178408542200,11.523542236328124,0.5220947265625,1.3165130615234375,0.341827392578125
1686425178418487300,11.5334873046875,0.4355926513671875,1.361663818359375,0.3110504150390625
1686425178428433200,11.54343310546875,0.38836669921875,1.383392333984375,0.3509521484375
1686425178438378200,11.553378173828126,0.469970703125,1.5171356201171875,0.358428955078125
1686425178448324000,11.563323974609375,0.539886474609375,1.555908203125,0.3878326416015625
1686425178458269200,11.573269287109374,0.535247802734375,1.4996185302734375,0.4036865234375
1686425178468215300,11.58321533203125,0.5226898193359375,1.39093017578125,0.37396240234375
1686425178478160100,11.59316015625,0.4582977294921875,1.220458984375,0.3123321533203125
1686425178488106200,11.603106201171874,0.3614501953125,1.0466156005859375,0.261138916015625
1686425178498051000,11.613051025390625,0.2847442626953125,0.926971435546875,0.2215118408203125
1686425178507997200,11.6229970703125,0.233001708984375,0.8495941162109375,0.1786346435546875
1686425178517943000,11.632943115234376,0.2088623046875,0.800079345703125,0.1619720458984375
1686425178527888400,11.642888427734375,0.2246551513671875,0.8008575439453125,0.15850830078125
1686425178537834200,11.652834228515625,0.2544097900390625,0.85162353515625,0.14764404296875
1686425178547779300,11.662779296875,0.2828521728515625,0.9489898681640625,0.125946044921875
1686425178557725200,11.67272509765625,0.30889892578125,1.0699005126953125,0.0977630615234375
1686425178567670300,11.682670166015624,0.32330322265625,1.1928558349609375,0.0609588623046875
1686425178577616100,11.6926162109375,0.33612060546875,1.31707763671875,0.010589599609375
1686425178587561200,11.702561279296875,0.3518218994140625,1.4069366455078125,-0.04107666015625
1686425178597507300,11.71250732421875,0.367523193359375,1.457305908203125,-0.137237548828125
1686425178607452200,11.7224521484375,0.3973388671875,1.463409423828125,-0.2239837646484375
1686425178617398300,11.732398193359375,0.418609619140625,1.3790435791015625,-0.220794677734375
1686425178627343000,11.742343017578126,0.3792266845703125,1.23876953125,-0.19183349609375
1686425178637289200,11.752289306640625,0.3608856201171875,1.07183837890625,-0.151702880859375
1686425178647235000,11.762235107421875,0.32708740234375,0.9316864013671875,-0.171112060546875
1686425178657180400,11.772180419921876,0.2801513671875,0.7960357666015625,-0.18487548828125
1686425178667126300,11.782126220703125,0.2461700439453125,0.6764984130859375,-0.1753387451171875
1686425178677071400,11.7920712890625,0.2150115966796875,0.586822509765625,-0.22479248046875
1686425178687017200,11.802017333984375,0.2076873779296875,0.4790802001953125,-0.21728515625
1686425178696962000,11.811962158203125,0.203826904296875,0.4000701904296875,-0.195526123046875
1686425178706908200,11.821908203125,0.2054443359375,0.3443756103515625,-0.206756591796875
1686425178716853200,11.831853271484375,0.2322845458984375,0.3034210205078125,-0.2125701904296875
1686425178726799400,11.84179931640625,0.37896728515625,0.325897216796875,-0.181549072265625
1686425178736744200,11.851744140625,0.4157867431640625,0.3759002685546875,-0.0927734375
1686425178746690300,11.861690185546875,0.3311920166015625,0.34417724609375,-0.03369140625
1686425178756636200,11.87163623046875,0.2675018310546875,0.316375732421875,-0.0251312255859375
1686425178766581200,11.881581298828126,0.2165374755859375,0.3187713623046875,-0.0523223876953125
1686425178776527000,11.891527099609375,0.170501708984375,0.3493499755859375,-0.0850677490234375
1686425178786472400,11.901472412109374,0.121307373046875,0.3808441162109375,-0.0953826904296875
1686425178796418300,11.911418212890625,0.070587158203125,0.41729736328125,-0.0784149169921875
1686425178806363400,11.92136328125,0.0333099365234375,0.4366607666015625,-0.0343017578125
1686425178816309200,11.931309326171874,0.0618133544921875,0.4352874755859375,-0.0066070556640625
1686425178826254000,11.941254150390625,0.16741943359375,0.4761505126953125,-0.0055999755859375
1686425178836200200,11.9512001953125,0.3067169189453125,0.575927734375,-0.0355224609375
1686425178846145300,11.961145263671876,0.5074005126953125,0.7110443115234375,-0.1197967529296875
1686425178856091100,11.971091064453125,0.7822113037109375,0.806060791015625,-0.2353668212890625
1686425178866037200,11.981037353515624,1.0262908935546875,0.934417724609375,-0.43646240234375
1686425178875982300,11.990982421875,1.1668243408203125,1.1873626708984375,-0.7068023681640625
1686425178885928200,12.00092822265625,1.2899932861328125,1.6749267578125,-0.75567626953125
1686425178895873300,12.010873291015624,1.1702423095703125,2.205169677734375,-0.46441650390625
1686425178905819400,12.0208193359375,1.0474090576171875,2.2042388916015625,-0.148651123046875
1686425178915764200,12.03076416015625,1.0881805419921875,1.749481201171875,0.1419677734375
1686425178925710300,12.04071044921875,1.10589599609375,1.3153839111328125,0.24395751953125
1686425178935655400,12.050655517578125,1.0260467529296875,0.9451904296875,0.13720703125
1686425178945601500,12.0606015625,0.9176788330078125,0.6841888427734375,0.0271453857421875
1686425178955546400,12.07054638671875,0.6738128662109375,0.5551300048828125,-0.05181884765625
1686425178965492200,12.0804921875,0.4224090576171875,0.64447021484375,-0.103759765625
1686425178975438300,12.090438232421874,0.25787353515625,0.8660125732421875,-0.2010345458984375
1686425178985383200,12.100383056640625,0.184906005859375,1.108001708984375,-0.3777008056640625
1686425178995329300,12.110329345703125,0.2045745849609375,1.2996826171875,-0.49993896484375
1686425179005274400,12.1202744140625,0.260009765625,1.415130615234375,-0.5508575439453125
1686425179015220500,12.130220458984375,0.3536224365234375,1.4891815185546875,-0.537689208984375
1686425179025165300,12.140165283203125,0.413726806640625,1.515411376953125,-0.5027923583984375
1686425179035111400,12.150111328125,0.4174346923828125,1.4812469482421875,-0.4732513427734375
1686425179045056300,12.16005615234375,0.3557891845703125,1.3520660400390625,-0.409881591796875
1686425179055002400,12.17000244140625,0.2985382080078125,1.1677703857421875,-0.3105010986328125
1686425179064947500,12.179947509765626,0.2737274169921875,1.01507568359375,-0.2176361083984375
1686425179074893600,12.1898935546875,0.27044677734375,0.91998291015625,-0.155731201171875
1686425179084839400,12.19983935546875,0.2646484375,0.90985107421875,-0.1618499755859375
1686425179094784300,12.2097841796875,0.254913330078125,0.9522247314453125,-0.18365478515625
1686425179104730400,12.21973046875,0.251251220703125,0.99749755859375,-0.1683807373046875
1686425179114675200,12.22967529296875,0.2725677490234375,1.0444793701171875,-0.13671875
1686425179124621300,12.239621337890625,0.2641754150390625,1.0879974365234375,-0.1449432373046875
1686425179134566400,12.24956640625,0.195404052734375,1.11688232421875,-0.187896728515625
1686425179144512500,12.259512451171876,0.200653076171875,1.1100921630859375,-0.1902618408203125
1686425179154457300,12.269457275390625,0.1792449951171875,1.083251953125,-0.1957244873046875
1686425179164403500,12.279403564453125,0.1558074951171875,1.0334625244140625,-0.171356201171875
1686425179174348300,12.289348388671876,0.15240478515625,0.9284515380859375,-0.1269378662109375
1686425179184294400,12.29929443359375,0.1124114990234375,0.817352294921875,-0.1188812255859375
1686425179194240300,12.309240234375,0.093109130859375,0.72686767578125,-0.2072296142578125
1686425179204185300,12.319185302734375,0.1284637451171875,0.6426239013671875,-0.226226806640625
1686425179214131500,12.32913134765625,0.1482391357421875,0.5468597412109375,-0.0926666259765625
1686425179224076300,12.339076171875,0.117889404296875,0.4672088623046875,-0.0022735595703125
1686425179234022400,12.3490224609375,0.093658447265625,0.426910400390625,-0.0039215087890625
1686425179243967200,12.35896728515625,0.0724029541015625,0.3921966552734375,-0.027374267578125
1686425179253913300,12.368913330078126,0.066375732421875,0.36846923828125,0.0028839111328125
1686425179263858400,12.3788583984375,0.072174072265625,0.3633270263671875,-0.007659912109375
1686425179273804500,12.388804443359374,0.1011199951171875,0.3358001708984375,-0.0148162841796875
1686425179283749400,12.398749267578125,0.13568115234375,0.3402099609375,-0.036346435546875
1686425179293695500,12.408695556640625,0.1658935546875,0.38018798828125,-0.052642822265625
1686425179303641300,12.418641357421874,0.193511962890625,0.4453277587890625,-0.0532073974609375
1686425179313586400,12.42858642578125,0.20709228515625,0.5446929931640625,-0.0803070068359375
1686425179323532300,12.4385322265625,0.2236785888671875,0.664337158203125,-0.1019744873046875
1686425179333477400,12.448477294921876,0.2512054443359375,0.7904205322265625,-0.0851898193359375
1686425179343423500,12.458423583984375,0.2844085693359375,0.9210357666015625,-0.066558837890625
1686425179353368300,12.468368408203125,0.3161468505859375,1.0496673583984375,-0.0619354248046875
1686425179363314400,12.478314453125,0.3791656494140625,1.162811279296875,0.0158843994140625
1686425179373259300,12.48825927734375,0.3590545654296875,1.2594757080078125,0.0677947998046875
1686425179383205400,12.498205322265624,0.314239501953125,1.3338775634765625,0.090179443359375
1686425179393150200,12.508150146484375,0.3402099609375,1.391357421875,0.126495361328125
1686425179403096300,12.518096435546875,0.3520050048828125,1.415435791015625,0.1266937255859375
1686425179413042400,12.52804248046875,0.3369293212890625,1.416046142578125,0.107696533203125
1686425179422987500,12.537987548828125,0.3143310546875,1.404541015625,0.1216888427734375
1686425179432933400,12.547933349609375,0.3443603515625,1.371795654296875,0.160614013671875
1686425179442878200,12.557878173828126,0.356170654296875,1.3214874267578125,0.19940185546875
1686425179452824300,12.56782421875,0.411895751953125,1.276031494140625,0.2982025146484375
1686425179462769200,12.57776904296875,0.5184326171875,1.297027587890625,0.3988800048828125
1686425179472715300,12.58771533203125,0.5927581787109375,1.340118408203125,0.4872589111328125
1686425179482660400,12.597660400390625,0.624908447265625,1.347869873046875,0.578369140625
1686425179492606500,12.6076064453125,0.6722869873046875,1.50018310546875,0.6053619384765625
1686425179502552300,12.61755224609375,0.7233428955078125,1.623748779296875,0.5463104248046875
1686425179512497400,12.627497314453125,0.6536407470703125,1.52764892578125,0.4378814697265625
1686425179522443300,12.637443359375,0.554962158203125,1.31634521484375,0.3493194580078125
1686425179532388400,12.647388427734375,0.438568115234375,1.134674072265625,0.2775726318359375
1686425179542334200,12.657334228515625,0.344696044921875,0.9843902587890625,0.21881103515625
1686425179552279600,12.667279541015626,0.3121185302734375,0.8256988525390625,0.20068359375
1686425179562225400,12.677225341796875,0.30328369140625,0.7077789306640625,0.2043914794921875
1686425179572170200,12.687170166015624,0.29559326171875,0.679290771484375,0.214874267578125
1686425179582116400,12.697116455078126,0.2991485595703125,0.6969757080078125,0.213623046875
1686425179592061200,12.707061279296875,0.3064117431640625,0.75347900390625,0.20306396484375
1686425179602007300,12.71700732421875,0.31768798828125,0.8492431640625,0.18548583984375
1686425179611953200,12.726953125,0.3359375,0.9694671630859375,0.1549530029296875
1686425179621898500,12.7368984375,0.3594512939453125,1.119171142578125,0.103363037109375
1686425179631844400,12.74684423828125,0.408233642578125,1.2669525146484375,0.041473388671875
1686425179641789400,12.75678955078125,0.46435546875,1.3508758544921875,-0.0017242431640625
1686425179651735300,12.7667353515625,0.380279541015625,1.40277099609375,-0.0677032470703125
1686425179661680400,12.776680419921876,0.2995147705078125,1.4024658203125,-0.0730438232421875
1686425179671626200,12.786626220703125,0.35009765625,1.3419189453125,-0.076690673828125
1686425179681571300,12.7965712890625,0.3457183837890625,1.249603271484375,-0.1066131591796875
1686425179691517400,12.806517333984376,0.3125152587890625,1.1496734619140625,-0.1330108642578125
1686425179701462300,12.816462158203125,0.2995452880859375,1.0817108154296875,-0.2010650634765625
1686425179711408400,12.826408447265624,0.2861175537109375,0.970123291015625,-0.23736572265625
1686425179721354200,12.836354248046876,0.27984619140625,0.8115997314453125,-0.214935302734375
1686425179731299300,12.84629931640625,0.2437896728515625,0.696044921875,-0.2080230712890625
1686425179741245200,12.8562451171875,0.2017059326171875,0.602294921875,-0.1785430908203125
1686425179751190500,12.8661904296875,0.19482421875,0.52862548828125,-0.174713134765625
1686425179761136400,12.876136474609375,0.2206268310546875,0.470733642578125,-0.2201690673828125
1686425179771081500,12.88608154296875,0.317596435546875,0.4536895751953125,-0.2830657958984375
1686425179781027300,12.89602734375,0.542633056640625,0.5167999267578125,-0.2820587158203125
1686425179790972400,12.905972412109374,0.3613433837890625,0.485870361328125,-0.1941680908203125
1686425179800918300,12.915918212890626,0.1728668212890625,0.3826446533203125,-0.1436309814453125
1686425179810864400,12.925864501953125,0.087890625,0.3225860595703125,-0.13531494140625
1686425179820809500,12.9358095703125,0.0463104248046875,0.3023681640625,-0.1243438720703125
1686425179830755600,12.945755615234376,0.0323944091796875,0.2787933349609375,-0.0869598388671875
1686425179840700400,12.955700439453125,0.04150390625,0.279205322265625,-0.0669708251953125
1686425179850646300,12.965646240234374,0.0716094970703125,0.316253662109375,-0.0770416259765625
1686425179860591400,12.97559130859375,0.0557403564453125,0.3389892578125,-0.0910797119140625
1686425179870537200,12.985537109375,0.04443359375,0.3136138916015625,-0.08160400390625
1686425179880482600,12.995482666015626,0.1070556640625,0.345703125,-0.0966949462890625
1686425179890428400,13.005428466796875,0.2575225830078125,0.477874755859375,-0.1269683837890625
1686425179900373500,13.01537353515625,0.4304656982421875,0.64947509765625,-0.1763153076171875
1686425179910319400,13.0253193359375,0.62640380859375,0.823089599609375,-0.2690887451171875
1686425179920265500,13.035265380859375,0.8131256103515625,1.0132598876953125,-0.3894500732421875
1686425179930210300,13.045210205078124,1.0501861572265625,1.26092529296875,-0.5550079345703125
1686425179940156400,13.055156494140626,1.326690673828125,1.727325439453125,-0.54351806640625
