time,seconds_elapsed,z,y,x
1686425166987355000,0.10235498046875,-7.925014415866136,-5.2616620528191325,2.3831584342248737
1686425166997299700,0.1122998046875,-7.899697603780031,-5.281099159216881,2.423870676102489
1686425167007245800,0.122245849609375,-7.8646549319714305,-5.306541058987379,2.481573361878097
1686425167017190700,0.132190673828125,-7.821935149663687,-5.334536150372028,2.555471834042668
1686425167027136800,0.14213671875,-7.774376695153117,-5.361936198472977,2.6417957802772523
1686425167037081600,0.15208154296875,-7.725276271897554,-5.385830868801475,2.7355656586036083
1686425167047027700,0.16202783203125,-7.677990204587578,-5.403894933280348,2.831390423633158
1686425167056972800,0.171972900390625,-7.63535283986628,-5.414189532801508,2.9254624997764824
1686425167066919000,0.1819189453125,-7.599723892602324,-5.414762948775291,3.015779315039515
1686425167076863700,0.19186376953125,-7.57190532682836,-5.404751257848739,3.102467418411374
1686425167086809600,0.2018095703125,-7.551507850965857,-5.383888502562046,3.1872961576521397
1686425167096754700,0.211754638671875,-7.538535556668043,-5.354340336516499,3.266787627518177
1686425167106700500,0.221700439453125,-7.531081733530759,-5.318813096061349,3.341169499285519
1686425167116646000,0.23164599609375,-7.525461555561423,-5.280211270466447,3.4142619157642122
1686425167126591700,0.241591796875,-7.517884982827305,-5.242040822026134,3.4889532918721438
1686425167136536800,0.251536865234375,-7.505592487487196,-5.2072524172395465,3.5666499872758983
1686425167146482700,0.261482666015625,-7.487122764816879,-5.177452322259545,3.6479260024711486
1686425167156427500,0.271427490234375,-7.462671045127511,-5.152908248111605,3.7318183376446363
1686425167166373600,0.28137353515625,-7.432773334991931,-5.132450566494464,3.8186666000142693
1686425167176318700,0.291318603515625,-7.398494048771262,-5.113626039037108,3.9094118698224425
1686425167186264800,0.301264892578125,-7.361164142808318,-5.093640066584944,4.004807011263072
1686425167196209700,0.311209716796875,-7.321719436648488,-5.070342777627706,4.105415503437817
1686425167206155800,0.32115576171875,-7.283178401330113,-5.043614345178008,4.2056697753474115
1686425167216101600,0.3311015625,-7.244560793644189,-5.012667418250441,4.308119219213724
1686425167226046700,0.341046630859375,-7.202433132010698,-4.977359373503923,4.418284936545789
1686425167235992600,0.35099267578125,-7.1501768750727175,-4.93752829837501,4.546006184312701
1686425167245938000,0.36093798828125,-7.098153842368721,-4.895187286251783,4.671588374224305
1686425167255883800,0.3708837890625,-7.045069902434944,-4.855592942488193,4.791720774297416
1686425167265828900,0.380828857421875,-6.981148926666378,-4.821161096054316,4.918368839874863
1686425167275774700,0.390774658203125,-6.903905527988075,-4.793013444456458,5.053067817699909
1686425167285719600,0.400719482421875,-6.811905874204635,-4.772441488809883,5.1953942216634745
1686425167295665700,0.410665771484375,-6.70288669655919,-4.7601960474818945,5.346234186950325
1686425167305610800,0.42061083984375,-6.5750102582305665,-4.756305762045085,5.506103261867165
1686425167315556900,0.430556884765625,-6.426951448094845,-4.760076512755453,5.67506399025619
1686425167325501700,0.440501708984375,-6.2587424148559565,-4.7698900507614015,5.852066570803522
1686425167335447800,0.45044775390625,-6.07068710989654,-4.783995148481428,6.035771863859892
1686425167345392600,0.460392578125,-5.86803570882976,-4.800839900298416,6.220006733748316
1686425167355338800,0.4703388671875,-5.657845728951692,-4.819169045454263,6.398028720471262
1686425167365283800,0.480283935546875,-5.433073681491613,-4.837614802727103,6.576441752338409
1686425167375230000,0.49022998046875,-5.194013580960035,-4.854138944287598,6.754994484937191
1686425167385174800,0.5001748046875,-4.938164842712879,-4.866656480555236,6.935456266027688
1686425167395120600,0.51012060546875,-4.662648111921548,-4.873705814544857,7.118785126987099
1686425167405065700,0.520065673828125,-4.368986360369623,-4.874418638989329,7.3022174483209845
1686425167415011600,0.530011474609375,-4.054416260823607,-4.865709847354888,7.487119842207432
1686425167424956700,0.539956787109375,-3.7156618603527543,-4.844437926745415,7.67435155582428
1686425167434902800,0.54990283203125,-3.3510978958427904,-4.8074634100914,7.863131083405017
1686425167444847900,0.559847900390625,-2.9673619056120515,-4.750684415031969,8.04960584117472
1686425167454793700,0.569793701171875,-2.574730661264062,-4.667999117560685,8.2310946272254
1686425167464738800,0.57973876953125,-2.1879756154730914,-4.551580185052752,8.406322599315644
1686425167474684700,0.5896845703125,-1.8233872471742332,-4.3942856367990375,8.575307293102144
1686425167484629500,0.59962939453125,-1.4930989156231282,-4.191874474228919,8.738947703251242
1686425167494575600,0.60957568359375,-1.2052195468649267,-3.945347398817539,8.896745232591032
1686425167504520700,0.619520751953125,-0.9626504152990877,-3.6589059539079662,9.047436144796013
1686425167514466800,0.629466796875,-0.7629279072910546,-3.336941944718361,9.189839705649018
1686425167524411600,0.63941162109375,-0.5961824072660878,-2.9809780507713555,9.323559024786949
1686425167534357800,0.649357666015625,-0.46387642552480096,-2.5937416512042284,9.446042079639435
1686425167544302600,0.659302490234375,-0.37105672406274826,-2.185826766876131,9.552740120860934
1686425167554248700,0.669248779296875,-0.3124526324680075,-1.7703979997865855,9.64045873632431
1686425167564193800,0.67919384765625,-0.27558581397216764,-1.3571914387911557,9.708370827555656
1686425167574140000,0.689139892578125,-0.25791306863212954,-0.9512748156081885,9.756994865471125
1686425167584084700,0.699084716796875,-0.26078811261178925,-0.552412239122577,9.78760452326834
1686425167594030600,0.709030517578125,-0.2806844157528132,-0.15779610456768423,9.801361245942115
1686425167603975700,0.7189755859375,-0.31009781297016886,0.2335962821677327,9.798962368106842
1686425167613921500,0.728921630859375,-0.34360523803550747,0.618559549171105,9.781088273242116
1686425167623867000,0.738866943359375,-0.37743732847794886,0.9907244171388446,9.749173962587118
1686425167633812700,0.748812744140625,-0.4067262590654194,1.3429381647720933,9.705743401661515
1686425167643757800,0.7587578125,-0.4304480935776606,1.6693011395730077,9.653938395622372
1686425167653703700,0.76870361328125,-0.4561513842307031,1.9642498621955513,9.597084874022006
1686425167663648800,0.778648681640625,-0.4911712596856057,2.224436483516544,9.538398876297473
1686425167673594600,0.7885947265625,-0.5410062077607959,2.4488299069225787,9.480556343659758
1686425167683539700,0.798539794921875,-0.6042574675742537,2.6353458734855053,9.426568148362636
1686425167693485800,0.80848583984375,-0.6763986477427184,2.7827339447528123,9.37919148015976
1686425167703430700,0.8184306640625,-0.7563963135652244,2.8899045719221235,9.340594330739975
1686425167713376800,0.828376708984375,-0.8418517333369702,2.958365529207885,9.31180662767291
1686425167723321600,0.838321533203125,-0.9275223302293568,2.991607289074361,9.29302769292295
1686425167733267700,0.848267822265625,-1.0089455718755722,2.995313450115919,9.28334508782029
1686425167743212800,0.858212890625,-1.0802471594147383,2.9781656236991285,9.280838657957315
1686425167753159000,0.868158935546875,-1.1347962034650145,2.948664219404757,9.283748992446064
1686425167763103700,0.878103759765625,-1.168507334408909,2.9148619030460714,9.290239523509145
1686425167773049900,0.8880498046875,-1.1820799326874316,2.881703145287931,9.29886355946958
1686425167782994700,0.89799462890625,-1.1633788124140352,2.8521824517711996,9.310316096854208
1686425167792940500,0.9079404296875,-1.0955373022008688,2.8292539961263534,9.325529448077083
1686425167802886000,0.917885986328125,-0.9856989171270281,2.8195506404966113,9.34071240416169
1686425167812831700,0.927831787109375,-0.8580418206375092,2.8198607293590903,9.35321006668508
1686425167822776800,0.93777685546875,-0.7080223779533058,2.8182372198104857,9.366248996478319
1686425167832722700,0.94772265625,-0.5296204885346815,2.808510483305156,9.380945630350709
1686425167842667800,0.957667724609375,-0.3369274773046374,2.7889629022702573,9.395666229620575
1686425167852613600,0.967613525390625,-0.1434668244366534,2.7601760759860277,9.40910380334258
1686425167862558700,0.977558837890625,0.05716846473447512,2.728815015299618,9.419165178629756
1686425167872504800,0.9875048828125,0.26104731153724714,2.70333512160629,9.423069200330971
1686425167882449700,0.99744970703125,0.4496321750624105,2.6894755230799317,9.4199221344769
1686425167892395300,1.007395263671875,0.6122823685977608,2.6882828061640263,9.411090008723736
1686425167902340000,1.017340087890625,0.75311970304735,2.6942653877049683,9.399155240780114
1686425167912286200,1.0272861328125,0.8932475740533321,2.6990523297205566,9.385500224915146
1686425167922231300,1.037231201171875,1.033948934098333,2.693749254876375,9.372569431671499
1686425167932177400,1.047177490234375,1.1688898309204727,2.672420927904546,9.362813176810741
1686425167942122200,1.057122314453125,1.3109848372809587,2.6364593876853584,9.354186218240857
1686425167952068400,1.067068359375,1.458808669617027,2.5861256232425567,9.34634602613449
1686425167962013200,1.07701318359375,1.5947151235356927,2.5262299574673173,9.340525941678882
1686425167971959300,1.086959228515625,1.7009649825982749,2.47217746476233,9.336243149793148
1686425167981904400,1.096904296875,1.7750448026791215,2.43727361690253,9.331629518517852
1686425167991850500,1.1068505859375,1.8328293215192852,2.4180470845155417,9.32545988997221
1686425168001795300,1.11679541015625,1.8909427800528704,2.3967612815111874,9.319350467181206
1686425168011741200,1.1267412109375,1.944556881340593,2.370556142283231,9.315016237369178
1686425168021686300,1.136686279296875,1.9758026450842618,2.3462321406267583,9.314599473261833
1686425168031632100,1.146632080078125,1.9803576780401169,2.334220215793699,9.316650560572743
1686425168041577200,1.1565771484375,1.977474523819238,2.337236787135899,9.316509106275438
1686425168051523300,1.1665234375,1.992069450882822,2.3444173462897537,9.311590939095616
1686425168061468400,1.176468505859375,2.0352339082181454,2.344917550896853,9.30212811422348
1686425168071414300,1.186414306640625,2.0940463088013233,2.333579579802602,9.291921192985772
1686425168081359400,1.196359375,2.1473782321467993,2.310421553185582,9.285533537775278
1686425168091305200,1.20630517578125,2.1852840383015573,2.2779697746530174,9.28470702382326
1686425168101250000,1.21625,2.2077174039058387,2.239503704266995,9.28875542243123
1686425168111196200,1.226196044921875,2.2238896632887424,2.208297688011825,9.292368936753272
1686425168121142300,1.236142333984375,2.2534020273685456,2.2027537901490923,9.28657340221703
1686425168131087400,1.24608740234375,2.2882181969448925,2.2348126238413153,9.27038740656972
1686425168141033200,1.256033203125,2.3077101022697986,2.3116281524963678,9.246687382030487
1686425168150978300,1.265978271484375,2.297371079085022,2.432124271315336,9.218310013329981
1686425168160924200,1.275924072265625,2.2613860118597744,2.589089149223268,9.184396053290367
1686425168170869200,1.285869140625,2.225598513033241,2.78012697712481,9.137176036953926
1686425168180815000,1.295815185546875,2.2146584552153943,3.0011610071003436,9.069658497998118
1686425168190760400,1.305760498046875,2.2414023774951697,3.248806565147638,8.977291764467955
1686425168200706300,1.315706298828125,2.2681359245114026,3.518907992891967,8.86810249095261
1686425168210651100,1.325651123046875,2.2986421219341455,3.8278172901973124,8.731233183351158
1686425168220597200,1.33559716796875,2.3577058669298885,4.202777268776297,8.540974815389513
1686425168230542000,1.3455419921875,2.440865357784182,4.643486607594788,8.285564468559622
1686425168240488200,1.35548828125,2.534215403263271,5.103574016100168,7.981333684459329
1686425168250433300,1.365433349609375,2.5925527336806056,5.5209746677845715,7.679053449904918
1686425168260379400,1.37537939453125,2.6044243732601404,5.872862690594792,7.40923989919126
1686425168270324200,1.38532421875,2.595226629064977,6.166913441464304,7.169684124097228
1686425168280270300,1.395270263671875,2.5805685736373065,6.416538775151968,6.952632441756129
1686425168290215200,1.405215087890625,2.5690748274594544,6.630978813689946,6.752803112372756
1686425168300161300,1.415161376953125,2.5632094425573944,6.816013894045352,6.568281242236495
1686425168310106400,1.4251064453125,2.5587661994129416,6.974185517394543,6.401865522155165
1686425168320052500,1.435052490234375,2.5568828698843715,7.111312599149346,6.2499570508539675
1686425168329997300,1.444997314453125,2.561416129399836,7.236362874141335,6.102832891219854
1686425168339943200,1.454943115234375,2.5714117459744212,7.353337979227304,5.957064822369814
1686425168349888300,1.46488818359375,2.585226336315274,7.4627289127945895,5.8133174456924195
1686425168359834000,1.474834228515625,2.5976822055235504,7.566430110287666,5.671997003901004
1686425168369779500,1.484779541015625,2.601457924669981,7.667354828804731,5.533034523412585
1686425168379725300,1.494725341796875,2.5935841225549576,7.770123713883757,5.391554507145285
1686425168389670400,1.50467041015625,2.5677277967646717,7.877178897979855,5.246635748600959
1686425168399616300,1.5146162109375,2.5198829265281555,7.985898800417781,5.103526085305214
1686425168409561000,1.52456103515625,2.4514440349437296,8.091546455803513,4.968670455613732
1686425168419507200,1.534507080078125,2.372940553201735,8.192140334931015,4.840288990372419
1686425168429452300,1.544452392578125,2.2984445535354316,8.287486376532911,4.7122313502579924
1686425168439398400,1.5543984375,2.2292767631545662,8.379500058841705,4.580907401823997
1686425168449343200,1.56434326171875,2.159455038909614,8.469931440395117,4.446055279263854
1686425168459289300,1.574289306640625,2.0827884172059594,8.562964528879522,4.302094844357669
1686425168469234200,1.584234130859375,1.9942698835365473,8.662396963012219,4.141996636860072
1686425168479180300,1.59418017578125,1.8912258347779511,8.771032109776138,3.9576065764099355
1686425168489125400,1.60412548828125,1.7724591701000927,8.891178830635548,3.7384123290821907
1686425168499071200,1.6140712890625,1.639188033121079,9.021662236592173,3.4775098145768046
1686425168509016300,1.624016357421875,1.4938001957602798,9.15792539499402,3.173540019500255
1686425168518962400,1.63396240234375,1.3399185246899723,9.294925635498762,2.8247762661904097
1686425168528907300,1.6439072265625,1.1836831301003694,9.426342522913217,2.4317317648664116
1686425168538853000,1.65385302734375,1.0343648944880812,9.545366377222537,1.996617031184584
1686425168548798200,1.663798095703125,0.8978020955525338,9.645683192974328,1.524838892624527
1686425168558744300,1.673744384765625,0.7798759733520447,9.718963533240556,1.0506856954962014
1686425168568689400,1.683689453125,0.6895884572487324,9.764415370860695,0.5924860004335641
1686425168578635300,1.69363525390625,0.6103895405884832,9.78663830858469,0.13974085358292795
1686425168588580400,1.703580322265625,0.5261462000202387,9.788476629927754,-0.28151620866814625
1686425168598526200,1.713526123046875,0.4364017412850633,9.777804429265856,-0.6119651193421334
1686425168608471000,1.723470947265625,0.345275874661468,9.768245158281921,-0.7953415457703172
1686425168618417200,1.733417236328125,0.2556828253620304,9.766301038476824,-0.8510974083270877
1686425168628362200,1.7433623046875,0.1695188371958211,9.770005738213658,-0.8298302369579672
1686425168638308400,1.753308349609375,0.08477691772198304,9.775399706211685,-0.7776841623961925
1686425168648253200,1.763253173828125,-0.001344698743562185,9.780131995430589,-0.7206864830847829
1686425168658199300,1.77319921875,-0.08844479257976635,9.78290672084093,-0.6762240218281745
1686425168668144000,1.78314404296875,-0.17467021034331992,9.783139360553026,-0.6557796380840242
1686425168678090200,1.79309033203125,-0.2511568358375691,9.781917709803581,-0.6491514521159232
1686425168688035300,1.803035400390625,-0.302599438305106,9.781464120817184,-0.6338488151744007
1686425168697981400,1.8129814453125,-0.32010322028640653,9.783537419959902,-0.5918685261223465
1686425168707926300,1.82292626953125,-0.2998156893380917,9.78818670707047,-0.5214411276018247
1686425168717872400,1.832872314453125,-0.23867267211657017,9.79443115441799,-0.4272491148732602
1686425168727817200,1.842817138671875,-0.13784093824573793,9.800497322589159,-0.3187846485011279
1686425168737763000,1.85276318359375,-0.0003767472978184742,9.804451613172889,-0.20766225149873643
1686425168747708400,1.86270849609375,0.1733871299965307,9.804569686594604,-0.10362697234624065
1686425168757654300,1.872654296875,0.3801553552649915,9.799273918274045,-0.010692636095150374
1686425168767599400,1.882599365234375,0.6081330668985844,9.787556007951498,0.06570625631671864
1686425168777545200,1.892545166015625,0.847898977611959,9.769147660079598,0.12326804948402569
1686425168787490300,1.902490234375,1.091655127005279,9.744332367774843,0.16325281733730806
1686425168797436200,1.912436279296875,1.3298485277049243,9.714214877408743,0.18950722080077975
1686425168807381500,1.922381591796875,1.554253349287808,9.680461076366901,0.20817398214684799
1686425168817327400,1.932327392578125,1.7599552239663898,9.644761986476182,0.22691720626261083
1686425168827272200,1.942272216796875,1.9434962663717568,9.608813890260457,0.25277842742372303
1686425168837218300,1.95221826171875,2.1008732322119177,9.574562076568602,0.2906421845350414
1686425168847163100,1.9621630859375,2.2261514707408843,9.544408930367231,0.34477154186852277
1686425168857109200,1.972109130859375,2.3131072851382193,9.520618889456987,0.4216055194957182
1686425168867054300,1.982054443359375,2.3536801185451446,9.505424242934584,0.5267826712928712
1686425168877000400,1.99200048828125,2.343068269768357,9.501360062235593,0.6360609382659197
1686425168886945000,2.001945068359375,2.2851881815992297,9.508839019814133,0.7282168785896151
1686425168896891100,2.01189111328125,2.188720588621497,9.525904720905423,0.7981449127532542
1686425168906836000,2.0218359375,2.0635086933270097,9.549060555565356,0.8530948657546192
1686425168916782000,2.031781982421875,1.9235816055901347,9.574144727939366,0.8977715542837977
1686425168926728000,2.04172802734375,1.7793328552618621,9.598504093170165,0.9343961615215987
1686425168936673000,2.051673095703125,1.6382877232804893,9.620332478618622,0.9672819475572556
1686425168946619100,2.061619140625,1.5100643712103365,9.638367317003011,0.9959691128592938
1686425168956564000,2.07156396484375,1.4034486014448107,9.652304656940698,1.0167354950994252
1686425168966510000,2.081510009765625,1.3230544836506246,9.662048052319884,1.0318612411040813
1686425168976455000,2.091454833984375,1.2684892191179096,9.667488197547197,1.0492849618528037
1686425168986401000,2.101401123046875,1.2414780242040753,9.668101945531367,1.0756030599359423
1686425168996346000,2.11134619140625,1.2424302103623748,9.663893387925624,1.1117057621914892
1686425169006292200,2.121292236328125,1.268961074413359,9.65519219507575,1.156453543195501
1686425169016237000,2.131237060546875,1.3181670038700104,9.6423975954324,1.2070564069032668
1686425169026183200,2.14118310546875,1.3863102735087274,9.625599605366586,1.2634791358709334
1686425169036128000,2.1511279296875,1.469694513029605,9.605304420834779,1.3223203241571784
1686425169046073900,2.161073974609375,1.5701771868675947,9.582389409193397,1.372133279596269
1686425169056019000,2.17101904296875,1.6872104518815874,9.558239887320994,1.4013510446436703
1686425169065965000,2.180965087890625,1.8183944073230027,9.534482579636574,1.3990928904533386
1686425169075910100,2.19091015625,1.9561136097520588,9.512373039159177,1.3633597521625458
1686425169085856000,2.20085595703125,2.094129749301076,9.491645892950892,1.3013969247244297
1686425169095801000,2.210801025390625,2.2304783940292894,9.471502684110403,1.2190180628538132
1686425169105747000,2.220746826171875,2.36301858638525,9.451704927706718,1.1188372215066105
1686425169115692000,2.230692138671875,2.488509590882063,9.432123444402217,1.0063698761686681
1686425169125638000,2.240637939453125,2.6028777283400295,9.412550144404172,0.894047419194132
1686425169135583000,2.2505830078125,2.700799173387885,9.393390685904025,0.8001914700195193
1686425169145529000,2.260529052734375,2.7771257494822144,9.376253673142195,0.7374431182269007
1686425169155474000,2.270473876953125,2.830782520867884,9.362526176562906,0.7072077736347914
1686425169165420000,2.280419921875,2.863228161920607,9.352970997232198,0.7030355294514447
1686425169175364900,2.29036474609375,2.876857751083374,9.347973919597267,0.7137416323829442
1686425169185311000,2.30031103515625,2.8734046880200506,9.348834920340776,0.7164008416548371
1686425169195256000,2.310256103515625,2.871047603499889,9.354718133160471,0.6455559849072248
1686425169205202200,2.3202021484375,2.881941630218923,9.362363094955683,0.4592534784318879
1686425169215147000,2.33014697265625,2.888840157561004,9.368884021157026,0.22135869535263628
1686425169225093000,2.340093017578125,2.8914292972713707,9.370701299712062,0.003028325141253299
1686425169235038000,2.350037841796875,2.8951909878924487,9.368202468633651,-0.15830524139991028
1686425169244983800,2.35998388671875,2.8984491129055616,9.365248295003175,-0.24796593084177002
1686425169254929200,2.36992919921875,2.917835950420797,9.358902725368738,-0.25993763326229524
1686425169264875000,2.379875,2.9871009175658223,9.338537982732056,-0.19827437329264355
1686425169274820000,2.389820068359375,3.063742258697748,9.31522257359624,-0.10236421326827257
1686425169284766000,2.399765869140625,3.0727880272015926,9.312782779228687,-0.020465643444599117
1686425169294711000,2.4097109375,3.0070915661931035,9.334147054296732,0.03842250523893163
1686425169304657000,2.419656982421875,2.903462264892459,9.366552947860956,0.0894504533578176
1686425169314602200,2.429602294921875,2.784125691372156,9.402232748529315,0.1306928657225333
1686425169324548000,2.439548095703125,2.664479613511264,9.43646410395503,0.15527619416862726
1686425169334493000,2.449492919921875,2.560703304955363,9.465143085950613,0.15575789500465614
1686425169344439000,2.45943896484375,2.4909388638556003,9.484291438534855,0.11772200532997958
1686425169354384000,2.4693837890625,2.4584794865384696,9.493393613401055,0.04191341609461233
1686425169364330000,2.479330078125,2.448031888412684,9.49610754853487,-0.03792644251741003
1686425169374275000,2.489275146484375,2.4478764055900273,9.495849774381519,-0.08438189965556375
1686425169384221200,2.49922119140625,2.4532675971090794,9.494517064473033,-0.07759128053421153
1686425169394166000,2.509166015625,2.459511752195656,9.493189030739664,-0.0234003862888203
1686425169404112100,2.519112060546875,2.4668124305978414,9.491188212311267,0.05066430243826471
1686425169414057000,2.529056884765625,2.4809198664054275,9.48685748963058,0.12234453229778446
1686425169424003000,2.539003173828125,2.508379535739124,9.478551433578133,0.1883253906050697
1686425169433948200,2.5489482421875,2.5538074079617856,9.464839134567976,0.2554243936215527
1686425169443894000,2.55889404296875,2.620283036649227,9.444397235041857,0.3284180076345801
1686425169453839000,2.568839111328125,2.7073610161215065,9.416653488069771,0.40894561561532317
1686425169463785000,2.578784912109375,2.8130440350815653,9.3815582092911,0.4934960128387436
1686425169473730000,2.58872998046875,2.9317011019051074,9.340504898890853,0.5748926222063601
1686425169483676000,2.598676025390625,3.0555688891142605,9.296288156023621,0.6426262150656431
1686425169493621000,2.60862109375,3.1801196901515123,9.251033886802196,0.6896537775699049
1686425169503567000,2.618567138671875,3.3021436030596494,9.20619345907867,0.7157008766919374
1686425169513512200,2.62851220703125,3.417881275305152,9.163300658291577,0.7227534255519509
1686425169523458000,2.6384580078125,3.5228342264249917,9.124068718099593,0.7151553716383874
1686425169533403000,2.64840283203125,3.613019524262845,9.090255295825004,0.6954806570924819
1686425169543349000,2.658348876953125,3.6866847721934315,9.062842388242483,0.666034636247158
1686425169553293800,2.6682939453125,3.7435359557062386,9.042254942765831,0.6276465995334088
1686425169563240000,2.678239990234375,3.7844071875378487,9.028295390996336,0.5818146034892648
1686425169573186000,2.68818603515625,3.814949625317752,9.018677667823434,0.5291671552766114
1686425169583131100,2.698131103515625,3.838445067195594,9.01200827306211,0.4695478952899575
1686425169593077000,2.708076904296875,3.8565281286358832,9.0074577701509,0.404121994851157
1686425169603022000,2.71802197265625,3.8698379843249913,9.004575492712855,0.3351939315102994
1686425169612968000,2.727968017578125,3.8786633880764243,9.00309314520061,0.26581651696674524
1686425169622913000,2.7379130859375,3.8844127453833814,9.002339696484803,0.1990424898546189
1686425169632859000,2.74785888671875,3.8886256869032976,9.00169613788426,0.1357829919357784
1686425169642804000,2.757803955078125,3.892912570442259,9.000560411852598,0.07448694871016778
1686425169652750000,2.76775,3.8955768212154505,8.999705256327987,0.011666492945852223
1686425169662695000,2.77769482421875,3.892335647337138,9.000939766559004,-0.056264634062815455
1686425169672641000,2.78764111328125,3.8774844074249266,9.006572219488024,-0.13083532466683537
1686425169682585900,2.7975859375,3.8464004101142284,9.018369624787569,-0.21108990612616763
1686425169692532000,2.807531982421875,3.797017370525002,9.036995414802432,-0.29290468610692766
1686425169702477000,2.81747705078125,3.7306414028197525,9.061724782389401,-0.3712597723541781
1686425169712423200,2.827423095703125,3.651709320402145,9.090632896965742,-0.44252047989368437
1686425169722368000,2.837367919921875,3.5662931366622446,9.121232617890835,-0.505027643341571
1686425169732314000,2.847314208984375,3.4803166886910795,9.151191118302942,-0.5598875799719244
1686425169742259000,2.857259033203125,3.397061190116405,9.179135356283187,-0.6114059145567938
1686425169752205000,2.867205078125,3.315492037193477,9.205181067165732,-0.6652328914102167
1686425169762150100,2.877150146484375,3.2353698682084677,9.22935338539183,-0.7223587271459401
1686425169772096000,2.887095947265625,3.157615597398579,9.251439544993639,-0.7814869887452572
1686425169782041000,2.897041015625,3.0804911489248274,9.272160845983027,-0.8414370881214738
1686425169791987000,2.906987060546875,2.996464081455767,9.293896876972914,-0.9028063335806131
1686425169801932000,2.91693212890625,2.8920363232538104,9.32044352311492,-0.9673823391918093
1686425169811878000,2.9268779296875,2.75798031950742,9.353418156477808,-1.038021444234252
1686425169821823200,2.9368232421875,2.5909216253474354,9.392425055742263,-1.1134920610863714
1686425169831769000,2.94676904296875,2.3961624388352036,9.435966091305017,-1.1795475646656006
1686425169841714000,2.9567138671875,2.190424762190878,9.480463989201187,-1.221969752266258
1686425169851660000,2.966659912109375,1.99014315899536,9.522892095085979,-1.2345961557358502
1686425169861604900,2.97660498046875,1.8068332949973642,9.5609713581115,-1.2221159558039159
1686425169871551000,2.986551025390625,1.6509372153647244,9.592534371110796,-1.1950080225173383
1686425169881496000,2.99649609375,1.5320511620908974,9.61606663786769,-1.1638074130896479
1686425169891442200,3.006442138671875,1.4558235163263975,9.631298693791031,-1.1353590249795467
1686425169901387300,3.01638720703125,1.4220650391094385,9.63935925064981,-1.1094481925230473
1686425169911333400,3.02633349609375,1.4295704463034868,9.641573419567942,-1.0801715368952602
1686425169921278200,3.0362783203125,1.4751207758620382,9.639158175119757,-1.0397471720483153
1686425169931224300,3.046224365234375,1.5542140401907265,9.632820204269885,-0.9816182967498898
1686425169941169200,3.056169189453125,1.659072152633965,9.623130584904551,-0.9017841509260237
1686425169951115300,3.066115234375,1.7812855967648327,9.61058206897676,-0.7963290224377065
1686425169961060400,3.076060302734375,1.9128570902191102,9.595358780881762,-0.6636990329064428
1686425169971006200,3.086006103515625,2.0450572369657456,9.577693360331654,-0.5058685511451214
1686425169980951300,3.095951416015625,2.1676203713171183,9.558477203208207,-0.3275814472125843
1686425169990897200,3.105897216796875,2.2680285186141727,9.539752044472097,-0.1399175527235493
1686425170000842200,3.11584228515625,2.335027732784301,9.5245287563771,0.03704867558547994
1686425170010788000,3.1257880859375,2.3682338368155063,9.514449845433235,0.19262968193655833
1686425170020733400,3.1357333984375,2.3760062243826687,9.50899333359301,0.32256646859478205
1686425170030679300,3.14567919921875,2.362828324510157,9.508243976530432,0.42508908729515965
1686425170040624400,3.155624267578125,2.316124002610892,9.516740586718916,0.48744160817060617
1686425170050570200,3.1655703125,2.2307268158324063,9.536981410714983,0.4901314317764714
1686425170060516400,3.175516357421875,2.132267172254622,9.561284077322483,0.4535008697219193
1686425170070461200,3.185461181640625,2.0368881051659584,9.584628712552785,0.3954037047360092
1686425170080407300,3.1954072265625,1.948979812349379,9.604716391813755,0.34824221365377306
1686425170090352400,3.205352294921875,1.8710010851338505,9.620624739563464,0.33659740510005504
1686425170100298200,3.21529833984375,1.8133603586785494,9.630829322713613,0.35954653820674864
1686425170110243300,3.225243408203125,1.7943645663075147,9.632727849811316,0.40150461542699484
1686425170120189200,3.235189208984375,1.8267814196571706,9.62475614027977,0.4442119401119649
1686425170130134300,3.24513427734375,1.9114621287293732,9.606611411780118,0.4793217954052612
1686425170140080000,3.255080078125,2.041866624230891,9.578675357106327,0.5001199244905263
1686425170150025500,3.265025390625,2.206582116265595,9.542028172710538,0.5010746313994751
1686425170159971300,3.274971435546875,2.3914684358000753,9.498414071911572,0.4810314123347401
1686425170169916400,3.28491650390625,2.5854475778505206,9.4494445815593,0.4402980911364779
1686425170179862300,3.2948623046875,2.776898954989016,9.39739232276082,0.3850606629632413
1686425170189807000,3.30480712890625,2.9549577665910123,9.345243617850542,0.3241224658651277
1686425170199753200,3.314753173828125,3.1124066286236047,9.295850349128246,0.2654471904640086
1686425170209698300,3.3246982421875,3.2446956226974724,9.251765123686194,0.21707038704156875
1686425170219644400,3.33464453125,3.3487530862823127,9.215375128921865,0.1819252960381098
1686425170229589200,3.34458935546875,3.419117831362784,9.189940243414044,0.15821944454628972
1686425170239535400,3.354535400390625,3.447804996664822,9.179464442107081,0.14293661741693503
1686425170249480200,3.364480224609375,3.4279563868567346,9.1870918682456,0.12986828799927608
1686425170259426300,3.37442626953125,3.3572727850854394,9.213401783022285,0.11093173326849937
1686425170269371400,3.384371337890625,3.235661544631421,9.257171951165795,0.07538460536936763
1686425170279317500,3.3943173828125,3.0675106713205573,9.314535175853967,0.015287238442990929
1686425170289262300,3.404262451171875,2.876359153911471,9.37516295529604,-0.05747608307865448
1686425170299208200,3.414208251953125,2.701812149822712,9.426308620643615,-0.12373618758558295
1686425170309153300,3.4241533203125,2.5845769324958323,9.45824689669609,-0.17859735719179734
1686425170319099100,3.43409912109375,2.5594068354040385,9.463689964532852,-0.24161215963456778
1686425170329044200,3.444044189453125,2.6341350363910196,9.440507826387881,-0.3294731427107006
1686425170338990300,3.453990234375,2.7812618263736364,9.393576563864945,-0.44239802255779503
1686425170348935400,3.463935302734375,2.961847818365693,9.330918155378102,-0.5760384677732363
1686425170358881300,3.47388134765625,3.124675743088126,9.2675887157619,-0.7201319179419428
1686425170368826400,3.483826416015625,3.219775993235409,9.224733324375748,-0.841280509320274
1686425170378772200,3.493772216796875,3.2709754345968363,9.203044639658927,-0.8803848045445978
1686425170388717000,3.503717041015625,3.341040904469788,9.182183637937904,-0.833884699980542
1686425170398663200,3.5136630859375,3.423774132736027,9.159954854995012,-0.7371723384615033
1686425170408608300,3.523608154296875,3.4879636963129044,9.14438494541943,-0.6202806738752872
1686425170418554400,3.533554443359375,3.5086797366052864,9.143290720441938,-0.5097149243749678
1686425170428499200,3.543499267578125,3.4763664897605775,9.160120274689794,-0.42125316239409144
1686425170438445300,3.5534453125,3.402481169338524,9.190370451524853,-0.3613925313996151
1686425170448390100,3.56339013671875,3.312320129159093,9.224405407595635,-0.3306254545509815
1686425170458336300,3.573336181640625,3.228957370817661,9.254128345686198,-0.3245773700257763
1686425170468281300,3.58328125,3.167959004497528,9.274750862476228,-0.3367457640621811
1686425170478227500,3.5932275390625,3.1344083248123527,9.28545579636395,-0.3552284192793071
1686425170488173300,3.60317333984375,3.1179321140468117,9.290879574978351,-0.3583741699591279
1686425170498118100,3.6131181640625,3.110333914002776,9.294404241973162,-0.3320204891059547
1686425170508064300,3.623064208984375,3.1117803134188056,9.295658625948429,-0.27917088765101505
1686425170518009000,3.633009033203125,3.1256904730886217,9.292813173389435,-0.20997538727931678
1686425170527955200,3.642955078125,3.155897395303845,9.283998583292961,-0.13445538746067323
1686425170537900300,3.652900390625,3.2067595675349234,9.267354907006025,-0.05663760926078539
1686425170547846400,3.662846435546875,3.2797590450331566,9.241912422713638,0.02471435039764037
1686425170557791200,3.672791259765625,3.3747701555922625,9.20695859823227,0.11501629916839301
1686425170567737300,3.6827373046875,3.488874089156091,9.162358993527294,0.22209292791131882
1686425170577682200,3.69268212890625,3.6158164615049957,9.108982208126783,0.35032084655873474
1686425170587628300,3.702628173828125,3.750090491916239,9.047909607526659,0.49248964880779383
1686425170597573400,3.712573486328125,3.8864910129621624,8.981507920858263,0.6309445451002568
1686425170607519500,3.72251953125,4.0177930418252945,8.914334665295481,0.7498890505630522
1686425170617464300,3.73246435546875,4.136765458208322,8.851466413450241,0.8420789662215858
1686425170627410200,3.74241015625,4.238650838451087,8.796699634996056,0.9068096509378403
1686425170637355300,3.752355224609375,4.322655401827395,8.75142607655227,0.9474196014847606
1686425170647301000,3.762301025390625,4.388671596309543,8.715857335042953,0.9714914550110697
1686425170657246500,3.77224658203125,4.436922709259391,8.689577815404533,0.9875869958959519
1686425170667192300,3.7821923828125,4.467794525124132,8.672137435781956,1.0016141330089419
1686425170677137400,3.792137451171875,4.482285407291353,8.662906081578136,1.0166322539206594
1686425170687083300,3.802083251953125,4.481557093016803,8.661250715586542,1.0338079912576823
1686425170697028000,3.812028076171875,4.4665068234011525,8.66679432118833,1.05229948736839
1686425170706974200,3.82197412109375,4.439964268912375,8.678259718054532,1.0700192684542387
1686425170716919300,3.831919189453125,4.405876121349633,8.693878142946957,1.0840258742358535
1686425170726865400,3.841865478515625,4.369962219664454,8.711224414545297,1.0901501292698084
1686425170736810200,3.851810302734375,4.338211282877624,8.727502180129289,1.0867402477610855
1686425170746756400,3.86175634765625,4.3150627547413105,8.740769657981396,1.0721731585524976
1686425170756701200,3.871701171875,4.303457657143474,8.749605290865897,1.0464579217333345
1686425170766647300,3.881647216796875,4.305265583348274,8.753035265314578,1.0096810465432704
1686425170776592100,3.891592041015625,4.321617583212256,8.750304379045962,0.9623629766598343
1686425170786538200,3.901538330078125,4.352359342956543,8.740824603039025,0.9084666974298655
1686425170796483300,3.9114833984375,4.395702225598693,8.724453898474573,0.8556457923464477
1686425170806429400,3.921429443359375,4.448163357459008,8.70174522306025,0.8147616279680281
1686425170816374300,3.931374267578125,4.505348595231771,8.674206643271445,0.7939361359518021
1686425170826320100,3.941320068359375,4.563013433215022,8.643951790261267,0.7945937230776995
1686425170836265200,3.95126513671875,4.618020450165868,8.613160346156358,0.8109983299117535
1686425170846211000,3.961211181640625,4.667867892396449,8.584265675583481,0.8317331479698419
1686425170856156400,3.971156494140625,4.712610997225344,8.558461956763267,0.845214780029282
1686425170866102300,3.981102294921875,4.75511304512918,8.535292093577981,0.8414886721782385
1686425170876048400,3.99104833984375,4.79764548817128,8.514427000203728,0.8108540991354733
1686425170885993200,4.0009931640625,4.8416176086276765,8.49514011593163,0.7494944982875138
1686425170895939000,4.01093896484375,4.890795188772678,8.473958796215056,0.6652087068170308
1686425170905884000,4.0208837890625,4.948670454636216,8.44767460040152,0.5637618641220032
1686425170915830000,4.030830078125,5.008933492419123,8.420254678556322,0.42462665741518135
1686425170925775000,4.040775146484375,5.05196540941596,8.402530805817246,0.21324050828879698
1686425170935721200,4.05072119140625,5.06901182128489,8.394677754229306,-0.06977599454023875
1686425170945666000,4.060666015625,5.0761201919853685,8.382637187823653,-0.36708672445323315
1686425170955612200,4.070612060546875,5.0877083384484045,8.362230944132804,-0.5989414967158809
1686425170965557000,4.080556884765625,5.099869316363335,8.346886075484752,-0.7008583315428346
1686425170975503000,4.090503173828125,5.123388139116764,8.336897765433788,-0.6460653226688504
1686425170985448200,4.1004482421875,5.168745868712663,8.320358134043216,-0.47546018807366486
1686425170995394000,4.11039404296875,5.232291581428051,8.290150627306103,-0.2586530185455456
1686425171005339100,4.120339111328125,5.307700750416517,8.245981230711937,-0.04981468160529621
1686425171015285000,4.130284912109375,5.3927212128371,8.189773021277786,0.128908092064457
1686425171025230000,4.14022998046875,5.480832627010345,8.127538975682855,0.27199343376969914
1686425171035176000,4.150176025390625,5.561996998524665,8.067924172675609,0.37836668174993243
1686425171045121300,4.160121337890625,5.624602215519547,8.020722276517748,0.4497327128274366
1686425171055067100,4.170067138671875,5.653285873690248,7.997844674277305,0.49518268728405235
1686425171065012200,4.18001220703125,5.634159148415923,8.010183346846699,0.5134364291161299
1686425171074958000,4.1899580078125,5.557704269766807,8.063389451855421,0.5138468365479261
1686425171084903000,4.19990283203125,5.421581396618485,8.153914941433072,0.5389830313701183
1686425171094849000,4.20984912109375,5.231573204025626,8.270997598546742,0.6257812440529466
1686425171104794000,4.219794189453125,4.993762226772308,8.405615912351012,0.7604918392505496
1686425171114740200,4.229740234375,4.7187218813210725,8.550321904927491,0.8922089517205953
1686425171124685000,4.23968505859375,4.424227478337287,8.697886794066429,0.9712435446646064
1686425171134631200,4.249631103515625,4.134517094759643,8.838698701813817,0.9765051915198564
1686425171144576000,4.259575927734375,3.8802816369280215,8.958096065610647,0.930771175957471
1686425171154522000,4.269522216796875,3.6830806102216243,9.048018328598141,0.8594663004826754
1686425171164468000,4.279468017578125,3.544517065922916,9.111061352488399,0.7715932981751858
1686425171174413300,4.289413330078125,3.4599148289144037,9.14977423724234,0.6935335416126995
1686425171184359200,4.299359130859375,3.4282395877122878,9.16456439461708,0.6544794422056526
1686425171194304000,4.309303955078125,3.446547105558216,9.156913587602972,0.665318962258473
1686425171204250000,4.31925,3.504354859143495,9.130838066104054,0.719498442343995
1686425171214195000,4.32919482421875,3.584692424444854,9.093103670993447,0.7973762664683163
1686425171224141000,4.33914111328125,3.6729081757754085,9.050709467378258,0.8745376859515905
1686425171234086100,4.349086181640625,3.7574937539100643,9.009514118158817,0.9382477954484522
1686425171244032300,4.3590322265625,3.8291359715804454,8.973893938723206,0.9885961729384958
1686425171253977000,4.36897705078125,3.8835423922896384,8.9464518050462,1.0244291914071888
1686425171263923200,4.378923095703125,3.9195612156540154,8.928912056702375,1.040185855726525
1686425171273868000,4.388867919921875,3.9386081536903976,8.920973664918542,1.036339190235734
1686425171283814100,4.398814208984375,3.944218979309499,8.919609975349903,1.026686176553741
1686425171293759200,4.40875927734375,3.93555431907773,8.924227698278427,1.0197918869953602
1686425171303705000,4.418705078125,3.911469094613194,8.93455327745974,1.0220548634912818
1686425171313650200,4.428650146484375,3.8739319756403563,8.94889393750131,1.0393916366089135
1686425171323596000,4.438595947265625,3.817729319164157,8.970359334856271,1.0620529657501727
1686425171333541000,4.448541015625,3.7291084941640493,9.006640024027227,1.0698482227362691
1686425171343487000,4.458487060546875,3.5988358083486554,9.062211689123512,1.0464457198388875
1686425171353432000,4.46843212890625,3.4297190126150845,9.13381035991311,0.990411259536445
1686425171363378000,4.4783779296875,3.229293470904231,9.214310714560746,0.9157171800147742
1686425171373323300,4.4883232421875,3.0145684779450295,9.293746654847263,0.8420189796626567
1686425171383269000,4.49826904296875,2.80548207539469,9.364278573188185,0.7809965018145739
1686425171393214000,4.5082138671875,2.6266253914132713,9.420483275490998,0.7250729545406996
1686425171403160000,4.51816015625,2.540133979657292,9.45127062794268,0.625771014919877
1686425171413105000,4.52810498046875,2.5888886582151054,9.448625666391848,0.4376195561096072
1686425171423051000,4.538051025390625,2.715825185345113,9.420846263584494,0.20582900818958877
1686425171432996000,4.54799609375,2.8572204459384083,9.381187037891149,-0.004420286675139505
1686425171442942200,4.557942138671875,2.987052986770868,9.339840882024168,-0.12358917119717225
1686425171452887000,4.567886962890625,3.085326313996315,9.307979762861132,-0.11241973420339636
1686425171462833200,4.577833251953125,3.146634184657037,9.288105434089898,-0.012648125535988947
1686425171472778000,4.587778076171875,3.183843094588816,9.274421192130445,0.13651073082159274
1686425171482724000,4.59772412109375,3.2083187796756625,9.261817731145024,0.3095513580685481
1686425171492669200,4.607669189453125,3.220167330640554,9.2504499494344,0.4796329802462831
1686425171502615300,4.617615234375,3.2116610758408903,9.244787685889005,0.6241047622080892
1686425171512561200,4.62756103515625,3.1794533351972696,9.247966900447011,0.7325096804127097
1686425171522506000,4.637506103515625,3.1292516727015376,9.260039615556597,0.7936139182601124
1686425171532452000,4.6474521484375,3.0745936153188347,9.276898980420828,0.810198996227607
1686425171542397000,4.65739697265625,3.0333824840083716,9.291171835923194,0.8019348796207457
1686425171552343000,4.667343017578125,3.017860797488689,9.297579364877938,0.7860676675990224
1686425171562288000,4.6772880859375,3.0323434963494535,9.29375250006616,0.7755320258636027
1686425171572234200,4.687234130859375,3.0733363087341186,9.280065335497259,0.7780455430544913
1686425171582179000,4.697178955078125,3.133834616577625,9.259000920158623,0.7876228611517697
1686425171592125200,4.707125244140625,3.2047859293743968,9.234263953787087,0.7925208623263984
1686425171602070000,4.717070068359375,3.2774647966161368,9.209104378089307,0.7880244276899844
1686425171612016000,4.72701611328125,3.3464015547201034,9.185034935715795,0.7791581074062734
1686425171621961200,4.736961181640625,3.4110949761658906,9.161482795214653,0.7759160567451268
1686425171631907300,4.7469072265625,3.475985381488502,9.135832221129537,0.7902540864381938
1686425171641852200,4.75685205078125,3.5433798785865305,9.106810124784708,0.8251314116172492
1686425171651798000,4.766798095703125,3.61270242113769,9.074664343461393,0.8770650124721229
1686425171661743000,4.7767431640625,3.6822426980927583,9.040269906428456,0.9407368357852101
1686425171671689000,4.78668896484375,3.751754041214287,9.003937779331206,1.0118506456673144
1686425171681634300,4.79663427734375,3.8200279514953492,8.966415565666555,1.086797530906275
1686425171691580200,4.806580078125,3.883233180209994,8.930248858264088,1.158265780249238
1686425171701525200,4.816525146484375,3.9383550557121634,8.8981130138129,1.2179278564643115
1686425171711471000,4.82647119140625,3.984005338513851,8.871968518730997,1.2594728228390215
1686425171721416000,4.836416015625,4.019327411785722,8.853120610398054,1.279717592357844
1686425171731362000,4.846362060546875,4.043624525435269,8.842090682339668,1.2794215320207178
1686425171741307100,4.85630712890625,4.0575016596183175,8.83818841420412,1.262346040187776
1686425171751253200,4.866253173828125,4.0614454288080335,8.840204430201648,1.2352426369458436
1686425171761198000,4.876197998046875,4.055310871575773,8.847167254951597,1.2051729312442243
1686425171771144200,4.886144287109375,4.04010658044219,8.85820069014132,1.174812498967722
1686425171781089000,4.896089111328125,4.017310811266303,8.87224324401915,1.1466953155733643
1686425171791035100,4.90603515625,3.986202264036238,8.889371488952635,1.1223358772773295
1686425171800980000,4.91597998046875,3.945479793025553,8.910235997805,1.1005670399963856
1686425171810926000,4.925926025390625,3.8996909785360097,8.933294217309355,1.0766086567819118
1686425171820872200,4.9358720703125,3.8571863002836704,8.955710631778835,1.0429460411548614
1686425171830817300,4.9458173828125,3.8261724455997346,8.974513531926274,0.9944394921392202
1686425171840763100,4.95576318359375,3.8116383088126775,8.987550708153844,0.9304297421086579
1686425171850708000,4.9657080078125,3.8145331534713502,8.993812106636167,0.8550351861674338
1686425171860654000,4.975654052734375,3.833674199531972,8.99304170678556,0.7736378096148371
1686425171870599000,4.985598876953125,3.8674434904038906,8.985269903740287,0.6915360111199319
1686425171880545000,4.995544921875,3.9133915871083733,8.971005816066265,0.6138560476552695
1686425171890490000,5.005489990234375,3.970243647404015,8.950493189391493,0.5442480026936158
1686425171900436200,5.015436279296875,4.036597403277456,8.924289073076844,0.48302623941376804
1686425171910381000,5.025381103515625,4.1098400418817995,8.893625054743886,0.42779677535127847
1686425171920327200,5.0353271484375,4.1833536063820125,8.86181946516037,0.37160299630127847
1686425171930272000,5.04527197265625,4.245835781519115,8.834808124116062,0.29904103343747557
1686425171940218000,5.055218017578125,4.286710520482063,8.81782308704555,0.20116300740623846
1686425171950163200,5.0651630859375,4.300848643688857,8.81286283428967,0.08063040163493715
1686425171960109300,5.075109375,4.289262543052435,8.818718574580549,-0.052996015055151655
1686425171970054100,5.08505419921875,4.258614891332388,8.83169846766293,-0.18897329658716916
1686425171980000300,5.095000244140625,4.216578999635577,8.848355003431438,-0.31220680448077615
1686425171989945000,5.104945068359375,4.1763498650997875,8.863581798657775,-0.4067263321306556
1686425171999891000,5.114890869140625,4.15088867610693,8.872508616957068,-0.4680769094219431
1686425172009836300,5.124836181640625,4.139549535968899,8.875648668548465,-0.5073498757440597
1686425172019782100,5.1347822265625,4.134671700799465,8.876135575282573,-0.5376772460011765
1686425172029727200,5.144727294921875,4.130743713700771,8.876018086382746,-0.5689331292800605
1686425172039673000,5.154673095703125,4.121171583235264,8.877418016308546,-0.6146694829300046
1686425172049618200,5.1646181640625,4.0946182150915265,8.88395472460091,-0.6926777285009622
1686425172059564000,5.17456396484375,4.048436601892114,8.896997161525487,-0.7899212742872536
1686425172069510100,5.18451025390625,4.010706006173789,8.908231672245263,-0.8532474259678274
1686425172079455200,5.194455322265625,3.991549178022146,8.91521261717379,-0.8700113676335662
1686425172089401300,5.2044013671875,3.9841403630703685,8.919813973489402,-0.8566985162697732
1686425172099346200,5.21434619140625,3.980090503157675,8.924729802581668,-0.8236876425497234
1686425172109292000,5.2242919921875,3.973173271115124,8.93244607604742,-0.7718206041250377
1686425172119237000,5.234237060546875,3.9585450263038275,8.944972964665293,-0.698390553189814
1686425172129183000,5.244182861328125,3.9329423830136654,8.963419890981912,-0.5995396452721208
1686425172139128300,5.25412841796875,3.897057122901082,8.986508505624531,-0.47539870367739345
1686425172149074200,5.26407421875,3.8513966109663245,9.012683980366587,-0.3296116378659382
1686425172159019300,5.274019287109375,3.7967312470600008,9.040347063317894,-0.1654232384452596
1686425172168965000,5.283965087890625,3.731198744441569,9.069089173677563,0.01233806749790674
1686425172178910200,5.29391015625,3.653071256405115,9.098752490535379,0.19540939404927193
1686425172188856000,5.30385595703125,3.5607951237678526,9.129626352226733,0.3756242511739954
1686425172198801200,5.31380126953125,3.4551278868988153,9.161626587599516,0.5450911755194887
1686425172208747300,5.323747314453125,3.3385929267957803,9.194347538462281,0.6986747769586742
1686425172218692000,5.333692138671875,3.217220755794644,9.22620456597209,0.8348901506960391
1686425172228638200,5.34363818359375,3.0973730178818104,9.255635243117808,0.9538677547108382
1686425172238583000,5.3535830078125,2.985850917504728,9.281299845728277,1.0547959803592413
1686425172248529200,5.363529052734375,2.8865365567937493,9.302938846084475,1.1373814707178622
1686425172258474000,5.373473876953125,2.7983456476435062,9.322031084567309,1.199743526606634
1686425172268420000,5.383420166015625,2.7192408390074965,9.340534124985338,1.237147155392915
1686425172278365200,5.393365234375,2.647807587912679,9.360660382691025,1.2399652815535664
1686425172288311300,5.403311279296875,2.5820140962705014,9.381479298835993,1.2212452373839915
1686425172298256100,5.413256103515625,2.519242875058949,9.40050899347663,1.2059212653934954
1686425172308202200,5.4232021484375,2.463004562747478,9.416634198847413,1.1962355915509164
1686425172318147000,5.43314697265625,2.4223158478759226,9.428494732511043,1.185871287794411
1686425172328093000,5.443093017578125,2.402288958891481,9.43554932719767,1.1703796310868113
1686425172338038300,5.453038330078125,2.4018501290827987,9.438061017757654,1.1508864105876535
1686425172347984100,5.462984130859375,2.4179566297531125,9.436980236783624,1.1257242776066063
1686425172357930200,5.47293017578125,2.4488933275476095,9.433125899443029,1.0906002111248672
1686425172367875000,5.482875,2.491852763830125,9.42717605112791,1.0437436212733386
1686425172377821200,5.4928212890625,2.5458850905299184,9.41915524175763,0.9840560452908277
1686425172387766000,5.50276611328125,2.609525495791435,9.40873204742074,0.9146273389514535
1686425172397712100,5.512712158203125,2.680106806232035,9.395539972892403,0.8433592152904719
1686425172407657200,5.5226572265625,2.752197059930861,9.380238358864188,0.7790528204008936
1686425172417603300,5.532603271484375,2.8199998455688355,9.364109646362065,0.7290085404239595
1686425172427548200,5.542548095703125,2.879656441891193,9.348162720167636,0.6998973775561899
1686425172437494000,5.552493896484375,2.9287919364601374,9.333340414088964,0.6937934346579014
1686425172447439000,5.562439208984375,2.965875758707523,9.320613618984819,0.7071995903283357
1686425172457385000,5.572385009765625,2.988974602483213,9.311853973945976,0.7251242463365197
1686425172467330300,5.582330322265625,2.992321574823558,9.311038565909861,0.7217850919764488
1686425172477276200,5.592276123046875,2.96784881234616,9.323244552010298,0.6628676235835999
1686425172487221200,5.60222119140625,2.906212732644379,9.352052128821612,0.5132676118878647
1686425172497167000,5.6121669921875,2.823854767431319,9.38629342111945,0.30616286640772594
1686425172507112200,5.6221123046875,2.762788304311037,9.408978131136298,0.09226889004572295
1686425172517058000,5.63205810546875,2.746474590630829,9.413346263217926,-0.12712795804888008
1686425172527003100,5.642003173828125,2.767842372830212,9.401519047302006,-0.34767511782292276
1686425172536949200,5.65194921875,2.804060518158972,9.38042072969377,-0.5615369546141475
1686425172546894000,5.66189404296875,2.801298944491148,9.36766529301703,-0.7549466262135655
1686425172556840200,5.671840087890625,2.7354569375321267,9.374808150508999,-0.8947822362747043
1686425172566785000,5.681784912109375,2.6942034283846614,9.380391503599286,-0.9591196838896721
1686425172576731100,5.691731201171875,2.740583486765623,9.368077965471148,-0.9480025890044868
1686425172586676200,5.70167626953125,2.866184089116752,9.33726664762199,-0.8779699254225939
1686425172596622300,5.711622314453125,3.0197458805829287,9.298478359544276,-0.7679930817261338
1686425172606568200,5.721568115234375,3.1546307363688944,9.263822641226648,-0.6326856896791607
1686425172616513300,5.73151318359375,3.2531311503484845,9.238543238541483,-0.486635077560693
1686425172626459100,5.741459228515625,3.3211116306409236,9.220638164016604,-0.34707145284134894
1686425172636404000,5.751404052734375,3.376128584463894,9.20415990742445,-0.23577501444630322
1686425172646350000,5.76135009765625,3.430479183332622,9.18556509706974,-0.16612159597296267
1686425172656295200,5.771295166015625,3.4873064014479516,9.164635706287623,-0.13604296717937103
1686425172666241300,5.7812412109375,3.539049155905843,9.144953100696206,-0.12394160136403515
1686425172676186000,5.79118603515625,3.577068505437672,9.130389737814664,-0.10482302286354825
1686425172686132200,5.80113232421875,3.6035128602489825,9.120313164958358,-0.07043632161249407
1686425172696077000,5.8110771484375,3.6250744114547966,9.112008277949691,-0.022472446372499687
1686425172706023200,5.821023193359375,3.6496708003118634,9.102147978192567,0.034193167423352135
1686425172715968300,5.83096826171875,3.6834342459648846,9.0880791208297,0.09759140937589109
1686425172725914000,5.8409140625,3.7299589735135434,9.067945848861337,0.17375382615076376
1686425172735859200,5.850859130859375,3.7894264770045876,9.04095438156128,0.2678751665296033
1686425172745805300,5.860805419921875,3.8617043622300025,9.0062448872298,0.38103688733987506
1686425172755750100,5.870750244140625,3.9418756310537457,8.96478533411622,0.5144194488041103
1686425172765696000,5.880696044921875,4.022065604577958,8.919033052244782,0.6665165014799684
1686425172775641000,5.89064111328125,4.09636418197602,8.871561106973886,0.8280000989213585
1686425172785587200,5.900587158203125,4.15932829541117,8.825873122510313,0.9871006736837327
1686425172795532300,5.9105322265625,4.207380378657579,8.78574511026144,1.1309403317544608
1686425172805478100,5.92047802734375,4.242227235633135,8.753010715395211,1.2484804503120481
1686425172815423200,5.93042333984375,4.2687750508189195,8.727791518464684,1.3317659056335687
1686425172825369000,5.940369140625,4.291210462249815,8.708715646594761,1.3835314564451575
1686425172835314000,5.95031396484375,4.311649146905541,8.69445272796452,1.409462162645906
1686425172845260000,5.960260009765625,4.331217770728468,8.683737857204676,1.4155071418985723
1686425172855205000,5.970205078125,4.349378573580086,8.676077697840332,1.4067762845627962
1686425172865151200,5.980151123046875,4.363277042812109,8.672075476461648,1.3882713444486259
1686425172875097000,5.99009716796875,4.369043935775757,8.673362593662738,1.3618382416836916
1686425172885042200,6.000042236328125,4.365782011370361,8.680490838107467,1.3264204529523849
1686425172894988300,6.00998828125,4.358007577976585,8.691042042738198,1.282179598557204
1686425172904933000,6.01993310546875,4.353908033703267,8.700971316078304,1.2275723945789039
1686425172914879200,6.029879150390625,4.360641433611512,8.706718335297703,1.161149592057243
1686425172924824300,6.03982421875,4.381252259963751,8.706199279859662,1.0849331983391195
1686425172934770400,6.0497705078125,4.4168201246902346,8.698095468381046,1.0025836356282234
1686425172944715300,6.05971533203125,4.4681060752913355,8.681251301085949,0.917749416494742
1686425172954661000,6.0696611328125,4.535947731634974,8.654129485404491,0.8376097849182784
1686425172964606200,6.079606201171875,4.6198462042883035,8.615775497090816,0.7719018526677042
1686425172974552000,6.089552001953125,4.716950195473432,8.5667177439332,0.7294824415460228
1686425172984497400,6.099497314453125,4.823175066225231,8.508595809832215,0.7149632831323891
1686425172994443300,6.109443359375,4.934467157238721,8.44366536476016,0.7252209116440266
1686425173004388400,6.119388427734375,5.0482168705373995,8.374061667180062,0.7489769041541964
1686425173014334200,6.129334228515625,5.163378204199671,8.3015710159868,0.7706037756811827
1686425173024279000,6.139279052734375,5.278505051070451,8.228814991855621,0.770952150727436
1686425173034225200,6.14922509765625,5.390953618642688,8.159052888843418,0.7333901165090501
1686425173044170200,6.159170166015625,5.496206721752881,8.095798268029093,0.6482078145902603
1686425173054116400,6.169116455078125,5.588289377644657,8.042067846885322,0.5163079294318333
1686425173064061200,6.179061279296875,5.662354730808735,7.998998520487547,0.35234942977689204
1686425173074007300,6.18900732421875,5.716406638991832,7.966300950500369,0.17632406023126093
1686425173083952000,6.1989521484375,5.750808090287447,7.943462511226534,0.004169170020615274
1686425173093898200,6.208898193359375,5.768447207352518,7.9291335416227575,-0.1555857715744525
1686425173103843300,6.21884326171875,5.7729930340886115,7.921492671480775,-0.3047970214146189
1686425173113789400,6.22878955078125,5.750941945800185,7.927130385106802,-0.5076266833914443
1686425173123735300,6.2387353515625,5.646301421630382,7.974937261420488,-0.8306631806507706
1686425173133680400,6.248680419921875,5.4510407153367995,8.068342105826735,-1.1655079333972185
1686425173143626200,6.258626220703125,5.239215827733278,8.174280853113531,-1.379176329975575
1686425173153571000,6.268571044921875,5.0761418192952865,8.266428390935063,-1.4385289749152959
1686425173163517200,6.27851708984375,4.970552616098523,8.337282380837202,-1.397753896934539
1686425173173462300,6.288462158203125,4.90507681210339,8.38851689351201,-1.3203669981323183
1686425173183408400,6.298408447265625,4.860097852692007,8.42574275457859,-1.247668403276801
1686425173193353200,6.308353271484375,4.812085516934096,8.459694124019146,-1.2032602294906973
1686425173203299300,6.31829931640625,4.740140224663913,8.500853817403316,-1.198732522933185
1686425173213244200,6.328244140625,4.6354494316115975,8.555487324866652,-1.2192739373110233
1686425173223190300,6.338190185546875,4.507051307496428,8.621820037952064,-1.2333201444506645
1686425173233135000,6.348135009765625,4.366602387842535,8.695036665332317,-1.2245539235405623
1686425173243081200,6.358081298828125,4.223076544961333,8.77002380951643,-1.192771495636925
1686425173253026300,6.3680263671875,4.082229565900564,8.843143406262993,-1.1421811260845511
1686425173262972200,6.37797216796875,3.9412428861081596,8.914366813999415,-1.0821623453862965
1686425173272917200,6.387917236328125,3.7878690184295176,8.987617928171158,-1.022329807975143
1686425173282863000,6.397863037109375,3.6137460849717256,9.065335374101997,-0.9648610040206461
1686425173292808200,6.40780810546875,3.4316713157266374,9.142097126743197,-0.9033939242102205
1686425173302754000,6.417754150390625,3.2734798186331986,9.206897807955741,-0.8293181227173656
1686425173312699400,6.427699462890625,3.1568945896476506,9.254908682408928,-0.7423477683380246
1686425173322645200,6.437645263671875,3.0823037513047455,9.286977891364693,-0.6495058915767818
1686425173332590300,6.44759033203125,3.045001610131562,9.305210298147797,-0.5580576245984062
1686425173342536200,6.4575361328125,3.0397187012925744,9.311628348496555,-0.47334695877935734
1686425173352482300,6.467482421875,3.0611864367350936,9.308163887256383,-0.39698176770769056
1686425173362427100,6.47742724609375,3.1049224103480575,9.296541254001855,-0.32272392417881635
1686425173372373200,6.487373291015625,3.165771139064431,9.278393602892756,-0.24432909044306725
1686425173382318300,6.497318359375,3.2388539109319447,9.255019741567969,-0.15750523186232893
1686425173392264200,6.50726416015625,3.31975729342252,9.227438491681218,-0.06293639431116171
1686425173402209300,6.517209228515625,3.403083226884901,9.197176624408364,0.03673183275522897
1686425173412155100,6.527155029296875,3.4837571845337747,9.165930422273277,0.139689580053417
1686425173422100200,6.537100341796875,3.5573388458341357,9.135399674931168,0.24540742373168467
1686425173432046000,6.547046142578125,3.6176384162351485,9.10824161889255,0.35073198464289307
1686425173441991400,6.556991455078125,3.658034139509499,9.087531423819065,0.45379645513501016
1686425173451937300,6.566937255859375,3.674245854119956,9.075574444043635,0.5515876613993197
1686425173461882000,6.576882080078125,3.663679159659147,9.074125998800993,0.638787221424654
1686425173471828200,6.586828125,3.625584406803548,9.08414704207778,0.7097898990824818
1686425173481773000,6.59677294921875,3.5607603447154164,9.106745827376843,0.747353102344647
1686425173491719200,6.60671923828125,3.4847707454904913,9.136972038814426,0.7365332368403673
1686425173501664300,6.616664306640625,3.416849594169855,9.16648337998092,0.6863643806356936
1686425173511610400,6.6266103515625,3.363813000509143,9.190892429572344,0.6186003926381468
1686425173521555200,6.63655517578125,3.3131802531197665,9.213941296726464,0.5444985433885827
1686425173531501300,6.646501220703125,3.2392107615455985,9.244842630946636,0.45913829108700155
1686425173541446100,6.656446044921875,3.1270211371704932,9.288093743652105,0.35135990728288885
1686425173551392300,6.666392333984375,2.986894873599708,9.337892086043952,0.22945386686706915
1686425173561337300,6.67633740234375,2.848255049194395,9.383207730063795,0.11497768419105558
1686425173571283500,6.686283447265625,2.7687390294089913,9.407675231844186,-0.011112561415607342
1686425173581229300,6.696229248046875,2.80707577432692,9.394546870201825,-0.18220246901167556
1686425173591174100,6.706174072265625,2.9344252661719916,9.350288626280426,-0.36284736985042687
1686425173601120300,6.716120361328125,3.104953390008211,9.288167393410205,-0.5095298866642639
1686425173611065000,6.726065185546875,3.2584049990981816,9.229617589285969,-0.6060844638057052
1686425173621011200,6.73601123046875,3.3408272617191073,9.197882142329215,-0.6389229035682976
1686425173630956300,6.745956298828125,3.367376830470562,9.192469469630717,-0.5741965297009796
1686425173640902400,6.75590234375,3.379678093639016,9.196558200249076,-0.41409627637676893
1686425173650847200,6.76584716796875,3.388139632514119,9.20063582495153,-0.19801437064958735
1686425173660793300,6.77579345703125,3.3732664730310438,9.208173234719037,0.03171189940109616
1686425173670738200,6.78573828125,3.3157170781210064,9.226062527152896,0.23704353654477744
1686425173680684300,6.795684326171875,3.2248008356601,9.253297155559062,0.3841202403079718
1686425173690629000,6.805629150390625,3.132532886329293,9.281544175878167,0.45886473484262824
1686425173700575200,6.8155751953125,3.065346186763048,9.303485374051332,0.46819341194108127
1686425173710520300,6.825520263671875,3.041981677788496,9.312836555242537,0.4333813705505803
1686425173720466200,6.835466064453125,3.069197016972303,9.306010508614778,0.38543753345161674
1686425173730411300,6.845411376953125,3.138993606775999,9.284082169923186,0.3506403608366847
1686425173740357000,6.855357177734375,3.240481804394722,9.249607068869471,0.33832459421884264
1686425173750302200,6.86530224609375,3.3622432669743896,9.205828717419504,0.34413792014010247
1686425173760248000,6.875248046875,3.4914036076337096,9.156848705673218,0.3642089039945975
1686425173770193400,6.885193359375,3.619142683318257,9.105590227600931,0.4005288657300174
1686425173780139300,6.89513916015625,3.7433740431427953,9.052800302177667,0.4520152342740446
1686425173790084000,6.905083984375,3.8652114935681223,8.998231092122197,0.5121810587601736
1686425173800030200,6.9150302734375,3.9864845881089566,8.941226763874292,0.5768569080166518
1686425173809976300,6.924976318359375,4.107939176696538,8.881236697813868,0.647170069040358
1686425173819921200,6.934921142578125,4.22657870786339,8.819474361383914,0.7233904813464731
1686425173829867000,6.944866943359375,4.33690224610567,8.758823785588145,0.8029084008280187
1686425173839812400,6.954812255859375,4.431758166103065,8.70374078079164,0.8802125167176127
1686425173849758200,6.96475830078125,4.505200418932736,8.658604000470042,0.9498103690788149
1686425173859703300,6.974703369140625,4.555373147594929,8.62587954247594,1.0065605764351784
1686425173869649200,6.984649169921875,4.584934465382993,8.605529412886499,1.0457567877266556
1686425173879594200,6.99459423828125,4.598070718070864,8.59616595673561,1.0649416729290038
1686425173889540000,7.0045400390625,4.597137236613035,8.596271170675754,1.0681043747436254
1686425173899485400,7.0144853515625,4.5837961090028285,8.604161631664633,1.0618761478785426
1686425173909431600,7.024431640625,4.559658569829166,8.618165607097744,1.0522105669759214
1686425173919376400,7.03437646484375,4.526190015469491,8.63702871299982,1.0419935627356172
1686425173929322500,7.044322509765625,4.484729001051187,8.659808700084685,1.0321559132017195
1686425173939267300,7.054267333984375,4.4365009767159815,8.685599559423327,1.0238134706616402
1686425173949213400,7.06421337890625,4.383140850189328,8.713293622034788,1.018323421877995
1686425173959158500,7.074158447265625,4.3270106744274495,8.741720090574026,1.0147431522384285
1686425173969104400,7.0841044921875,4.272907036057115,8.769065193617344,1.0080459926873444
1686425173979049500,7.094049560546875,4.227285394828021,8.792900827234982,0.9926336848262697
1686425173988995300,7.103995361328125,4.1945477850914,8.811633000233769,0.9650366528484969
1686425173998941400,7.11394140625,4.175834609054029,8.824644457498191,0.9265108150992541
1686425174008886300,7.12388623046875,4.169965132498741,8.832149134039879,0.8802935460645704
1686425174018832400,7.133832275390625,4.1775232927933335,8.833454371419549,0.8299526212286203
1686425174028777500,7.143777587890625,4.19744789044708,8.828944785040617,0.7755707504387944
1686425174038723600,7.1537236328125,4.226263942825794,8.820516563913225,0.7124562687475234
1686425174048668400,7.16366845703125,4.261301938459277,8.809328230422734,0.6383090094536542
1686425174058614500,7.173614501953125,4.299984135814011,8.795999377772212,0.5576454270683229
1686425174068559400,7.183559326171875,4.341384944477677,8.78016643334627,0.48106038270089774
1686425174078505500,7.19350537109375,4.383293410402536,8.762651819443702,0.41597986163366585
1686425174088450300,7.2034501953125,4.422872848857939,8.744986983415483,0.36576274584047497
1686425174098396400,7.213396484375,4.45870725556612,8.728244522929192,0.3287540346559137
1686425174108341500,7.223341552734375,4.487424523745477,8.714821562254428,0.292039411047101
1686425174118287400,7.233287353515625,4.500951237055659,8.709681276756525,0.23079589259317143
1686425174128232400,7.243232421875,4.493279679514467,8.715723479530215,0.1304762912292499
1686425174138178300,7.25317822265625,4.465428672775626,8.730997036507725,-0.006317472055359394
1686425174148123400,7.263123291015625,4.425172065711021,8.749836761534214,-0.16919873839598149
1686425174158069200,7.2730693359375,4.38819111931622,8.763735523027181,-0.33330296666454523
1686425174168014300,7.283014404296875,4.367659787940979,8.767107045286894,-0.4814005013754591
1686425174177960400,7.29296044921875,4.347307612524927,8.768068583795428,-0.6262996419038623
1686425174187905300,7.3029052734375,4.3129017773151395,8.774439287871122,-0.7605726494017988
1686425174197851400,7.312851318359375,4.295696960014104,8.775926896080374,-0.8369367079623043
1686425174207797200,7.32279736328125,4.310954734900593,8.766695541876555,-0.8550554983031005
1686425174217742300,7.332742431640625,4.3488212319582695,8.748359090197086,-0.8510785574961454
1686425174227688200,7.342688232421875,4.390968182814121,8.72587896284163,-0.8653466637581586
1686425174237633500,7.352633544921875,4.4241964986771345,8.70424346961677,-0.9126773739274591
1686425174247579400,7.362579345703125,4.440600520989299,8.688753055018186,-0.9782771696284412
1686425174257524500,7.3725244140625,4.438735896161198,8.683331029969453,-1.0333533793579786
1686425174267470300,7.38247021484375,4.421590992353856,8.689264511671661,-1.056676095017418
1686425174277415400,7.39241552734375,4.391651488903165,8.706551746559143,-1.0390857124648987
1686425174287361300,7.402361328125,4.350842508652806,8.73384015097916,-0.9801024122942239
1686425174297306400,7.412306396484375,4.300181704212725,8.769124814850091,-0.8839049414947628
1686425174307252500,7.42225244140625,4.237976884712278,8.811177073159813,-0.7570598920404911
1686425174317197300,7.432197265625,4.161427021256089,8.859204898747802,-0.6061147858787328
1686425174327143400,7.442143310546875,4.068201040548086,8.91217602595687,-0.43962099559251216
1686425174337088300,7.452088134765625,3.958320569898188,8.968315261808037,-0.267250550091546
1686425174347034400,7.462034423828125,3.835606921160221,9.024873015332222,-0.10081851819623261
1686425174356979500,7.4719794921875,3.70722136426568,9.078795744177699,0.048498050615354435
1686425174366925600,7.481925537109375,3.5780993097901344,9.128919080740213,0.17441709409877657
1686425174376870400,7.491870361328125,3.44084246417582,9.179049431565403,0.2757645132736303
1686425174386816500,7.50181640625,3.2885786035656928,9.23179610236883,0.35990843032170083
1686425174396762400,7.511762451171875,3.129386697258055,9.283614552411436,0.4380273697255179
1686425174406707200,7.521707275390625,2.983858282382786,9.32737887533605,0.5167152315910906
1686425174416653300,7.5316533203125,2.862254640713334,9.360611867374182,0.5973366918677464
1686425174426598400,7.541598388671875,2.7633541215002535,9.384750867852569,0.6787341049529612
1686425174436544500,7.55154443359375,2.683321968886256,9.402548974871635,0.7498209537629038
1686425174446489300,7.5614892578125,2.622882405492663,9.416344275990127,0.7895197808142751
1686425174456435500,7.571435546875,2.5824220925495025,9.426932890021801,0.7965102242235094
1686425174466380300,7.58138037109375,2.5670471210241317,9.433027699765562,0.7737080253068357
1686425174476326400,7.591326416015625,2.5973683172687885,9.429594802707433,0.7118741580106318
1686425174486271500,7.601271484375,2.675940334202349,9.414421783494948,0.6151147424794733
1686425174496217600,7.611217529296875,2.7855010713785884,9.389396063309908,0.5006327693834901
1686425174506162400,7.621162353515625,2.9077164152055976,9.357807331347464,0.3834207868017256
1686425174516108500,7.631108642578125,3.0277783803910014,9.323494142857193,0.2745972047936171
1686425174526053400,7.641053466796875,3.1350086287930607,9.290289792391658,0.18067418173216282
1686425174535999200,7.650999267578125,3.2214328205317257,9.261800195488334,0.10869340715664438
1686425174545944600,7.660944580078125,3.2829163400202988,9.240611861509084,0.06267867495673708
1686425174555890400,7.670890380859375,3.3196856894910334,9.227586375719309,0.04153884259460028
1686425174565835500,7.68083544921875,3.3325609531551597,9.222954624265432,0.03910631821805145
1686425174575781400,7.690781494140625,3.3121672766849395,9.230281606152653,0.042357209772779604
1686425174585727500,7.7007275390625,3.244425281323492,9.254362154442072,0.029707877518748864
1686425174595672300,7.71067236328125,3.121134124958515,9.296708427262306,-0.01144156275782152
1686425174605618400,7.720618408203125,2.9517697842046617,9.351595032703877,-0.07150743514245841
1686425174615563500,7.7305634765625,2.769852543608844,9.406440721613167,-0.13110401293984614
1686425174625509400,7.74050927734375,2.620180160796642,9.448262678298354,-0.1879862765775062
1686425174635454500,7.750454345703125,2.5566797485277055,9.463817390304804,-0.2645308428040705
1686425174645400300,7.760400390625,2.6131726201221346,9.444180961942672,-0.3862228020777926
1686425174655345400,7.770345458984375,2.7529344342947004,9.397364265710115,-0.5303579724963754
1686425174665291300,7.780291259765625,2.91598360055238,9.339678969460726,-0.6616825054522604
1686425174675236400,7.790236328125,3.056741147764027,9.287070245823264,-0.7596266737885773
1686425174685182200,7.80018212890625,3.135988872002065,9.25617124969065,-0.8119584071155637
1686425174695127600,7.81012744140625,3.1709006109073754,9.24604733056128,-0.7914481915935874
1686425174705073400,7.820073486328125,3.2041055458948016,9.242294700029491,-0.6957398194853216
1686425174715018500,7.8300185546875,3.2441862118706104,9.23853037905991,-0.543328257500194
1686425174724964400,7.83996435546875,3.2658021236121653,9.239623434993623,-0.36642902772948144
1686425174734909200,7.8499091796875,3.245911135967076,9.251701410800218,-0.20115334452874958
1686425174744855300,7.859855224609375,3.183214733557403,9.275355842632054,-0.07271491580265574
1686425174754800400,7.86980029296875,3.0987007593542337,9.304200828844309,0.01640993831300875
1686425174764746500,7.87974658203125,3.0193823079675433,9.329987012007832,0.07098275824780576
1686425174774692400,7.8896923828125,2.9692975498497485,9.345835738524794,0.09493660228447988
1686425174784637400,7.899637451171875,2.9638895533263683,9.34753903531134,0.09624708209484815
1686425174794583300,7.909583251953125,2.99612272067219,9.33732100815773,0.0897900605757255
1686425174804528400,7.9195283203125,3.051235243824124,9.319511795222759,0.08393371749664656
1686425174814474200,7.92947412109375,3.1185093294128774,9.297215792262554,0.08395172807737253
1686425174824419600,7.939419677734375,3.191623373201489,9.272284180101751,0.09304422179977409
1686425174834365400,7.949365478515625,3.2683234587833283,9.245292128279806,0.11414230194599367
1686425174844310300,7.959310302734375,3.3503444471269845,9.215409615713357,0.14759242559983393
1686425174854256400,7.96925634765625,3.4404531725972887,9.181305686059593,0.19313856304045765
1686425174864201200,7.979201171875,3.5406437316209076,9.141723032733797,0.25126460706098
1686425174874147300,7.989147216796875,3.6508433512225746,9.095995885303616,0.3234388675151393
1686425174884092400,7.999092529296875,3.769604170681536,9.043778206810355,0.4129457546347752
1686425174894038800,8.009038818359375,3.8939968585476277,8.98532075714469,0.5207248690912499
1686425174903983900,8.01898388671875,4.020541171489656,8.92162716039121,0.6404914680592715
1686425174913929700,8.0289296875,4.14259927892834,8.855809411090611,0.7641611754130572
1686425174923874600,8.03887451171875,4.25203580520302,8.792462435817718,0.8849591267228126
1686425174933820700,8.048820556640624,4.343334032718837,8.735860843151807,0.9952903368148952
1686425174943765800,8.058765869140625,4.411843213060498,8.690694836735725,1.085299035976827
1686425174953711900,8.0687119140625,4.454480870042741,8.660891819146276,1.1475640612319111
1686425174963657700,8.07865771484375,4.472502264423668,8.64725141632855,1.1798846876654774
1686425174973602800,8.088602783203125,4.469382671098411,8.648000188869238,1.1862210510801523
1686425174983548700,8.098548583984375,4.448902777649462,8.660429462331534,1.172435686833784
1686425174993493800,8.10849365234375,4.414787157557904,8.681720087641477,1.143571484464407
1686425175003439600,8.118439697265625,4.370592918783426,8.709149361836909,1.1040846927285193
1686425175013384700,8.128384765625,4.3185429980725045,8.740721142664551,1.0584745227415113
1686425175023330800,8.138330810546876,4.258200173051655,8.775947938868402,1.010389706269279
1686425175033276000,8.14827587890625,4.192306143644452,8.812688646766542,0.9651502692908048
1686425175043221800,8.1582216796875,4.127083145366609,8.847807306420803,0.9240455209642648
1686425175053166600,8.16816650390625,4.070632067087293,8.878113012835383,0.8828766944255679
1686425175063112700,8.17811279296875,4.029678125408291,8.901199873912335,0.8370764086939394
1686425175073057500,8.1880576171875,4.006711968101561,8.916319117110968,0.784808826644346
1686425175083003600,8.198003662109375,4.000698991422355,8.924076891630888,0.7250166943088173
1686425175092948700,8.20794873046875,4.011229445526004,8.924623419597744,0.6569024315688758
1686425175102894800,8.217894775390626,4.038329341636598,8.917567071345449,0.5825066043414175
1686425175112839700,8.227839599609375,4.080597580784559,8.903006046551466,0.5055618232835084
1686425175122785800,8.237785888671874,4.136318298962712,8.881205718153714,0.43060975041277705
1686425175132730600,8.247730712890625,4.202750088508427,8.853044038030506,0.3617897140236571
1686425175142676700,8.2576767578125,4.275338939379155,8.820502535387874,0.30098109812196344
1686425175152622600,8.26762255859375,4.348901311457157,8.786155444628,0.24680764591842888
1686425175162567700,8.277567626953125,4.419000975860655,8.752414503067731,0.19521189871579409
1686425175172513800,8.287513671875,4.480678264355659,8.722101782390475,0.13739627235131338
1686425175182458600,8.297458740234376,4.525100466667116,8.700058292886615,0.052903619497385805
1686425175192404700,8.30740478515625,4.542272550742328,8.690947350192069,-0.07468085471391678
1686425175202349600,8.317349609375,4.528380803512037,8.695185133892297,-0.2406710793921724
1686425175212295700,8.327295654296876,4.490665113101899,8.70777105922103,-0.42312549560461193
1686425175222240800,8.33724072265625,4.448260095831752,8.71957489426136,-0.5936391890566796
1686425175232187000,8.347186767578124,4.421505944418907,8.722490489447116,-0.7340446348950267
1686425175242131700,8.357131591796875,4.402293586687743,8.720644569319486,-0.8605733849417417
1686425175252077800,8.367077880859375,4.36194959360063,8.725849736747145,-1.001660602499172
1686425175262022700,8.377022705078126,4.314279495409131,8.73617356236279,-1.1120562561295926
1686425175271968800,8.38696875,4.30125547092408,8.738543798625468,-1.1434372636254877
1686425175281913900,8.396913818359375,4.332758570429682,8.727025210267305,-1.1120149012058973
1686425175291859700,8.406859619140626,4.396509158067405,8.701917072495817,-1.0572245226804167
1686425175301805800,8.416805908203125,4.475808027970791,8.667271875572204,-1.0079247043952346
1686425175311750700,8.426750732421874,4.551501274597644,8.631194600018858,-0.9781132843036204
1686425175321696800,8.43669677734375,4.608524599806964,8.602609726047515,-0.9628019525989889
1686425175331641600,8.4466416015625,4.640639401470125,8.58786574590206,-0.939879049912095
1686425175341587700,8.456587646484374,4.645357954424619,8.59068138784468,-0.8895236581593752
1686425175351532800,8.46653271484375,4.620903604386746,8.61231863463521,-0.8034940917614847
1686425175361479000,8.47647900390625,4.565893957087397,8.652182442989945,-0.6802441441897302
1686425175371423700,8.486423828125,4.481080123154819,8.70734026658833,-0.5220504916718229
1686425175381369900,8.496369873046875,4.367440884493291,8.774045320117473,-0.3346550388606265
1686425175391314700,8.506314697265625,4.225381314772367,8.84868993447423,-0.13129274044497868
1686425175401260500,8.516260498046876,4.060050759579241,8.926415563711524,0.07428332503000273
1686425175411206000,8.526205810546875,3.8792072856947777,9.002795039036869,0.26805552806518973
1686425175421151700,8.53615185546875,3.6933833930492397,9.074059947827458,0.43669648644793774
1686425175431096800,8.546096923828125,3.5131279481858013,9.138133483809233,0.568202732646279
1686425175441042700,8.556042724609375,3.3456635958343743,9.194799373883008,0.6576932166203856
1686425175450987800,8.56598779296875,3.198904177859425,9.242670547604561,0.7144349484093487
1686425175460933600,8.57593359375,3.0766973095998167,9.28064167408049,0.7576367420803755
1686425175470879700,8.585879638671875,2.9751535824015733,9.31012788080573,0.8002396930754184
1686425175480824800,8.595824951171876,2.8860172090947627,9.334607657545805,0.8404735768515617
1686425175490771000,8.60577099609375,2.806948056294024,9.356582757988571,0.8635835265431553
1686425175500715800,8.6157158203125,2.7381857779741288,9.375674411949515,0.8771846933290361
1686425175510662000,8.625661865234376,2.680877790604532,9.391255427441001,0.8874905448965728
1686425175520606700,8.635606689453125,2.640225169959664,9.40246188111007,0.8907007391147315
1686425175530552600,8.645552490234374,2.622274502727389,9.40824747877419,0.8825777114789932
1686425175540497700,8.65549755859375,2.6302280920803547,9.408104270911217,0.8601479991365224
1686425175550443800,8.66544384765625,2.6653230785980817,9.401639458811282,0.8219810578275472
1686425175560388900,8.675388916015624,2.7260315220609304,9.389041843044756,0.7648745113141834
1686425175570334700,8.685334716796875,2.806531584447622,9.37118820644617,0.688904858898744
1686425175580279800,8.69527978515625,2.8992931625142693,9.34916517520845,0.5980048734528943
1686425175590225700,8.7052255859375,2.9962247197419405,9.324225379741192,0.5018570504814386
1686425175600170500,8.71517041015625,3.092666447626054,9.297199425649643,0.40971440803073345
1686425175610116600,8.72511669921875,3.1847172470748424,9.269290258982776,0.32902243980113416
1686425175620061700,8.735061767578125,3.2673370780944824,9.242487592253088,0.2671276178316213
1686425175630007800,8.7450078125,3.330257352387905,9.221180600330234,0.22265090885395183
1686425175639953700,8.75495361328125,3.352344681033492,9.214085089111327,0.181120975651592
1686425175649898800,8.764898681640625,3.3095676155805585,9.2305680218786,0.11727192347492091
1686425175659844600,8.7748447265625,3.1849531016573307,9.275041954377294,0.008372819412034004
1686425175669789700,8.784789794921876,2.996223258437216,9.336958604586124,-0.11938782878350465
1686425175679735600,8.794735595703125,2.797370957392454,9.39647813052535,-0.2265858736827038
1686425175689681000,8.804680908203125,2.652541922958195,9.43610754560232,-0.3070398501716554
1686425175699626800,8.814626708984376,2.617233585950732,9.442754144009948,-0.3935149683799594
1686425175709571800,8.82457177734375,2.7031612263441085,9.412735437843203,-0.5135065352102741
1686425175719517700,8.834517578125,2.85068958286494,9.36072584914267,-0.6486511013783514
1686425175729462500,8.844462646484375,3.001047609853744,9.305496129351853,-0.7561972107965499
1686425175739408600,8.85440869140625,3.0982167752295733,9.269559723573922,-0.8041969793338328
1686425175749353700,8.864353759765624,3.158962043571472,9.250852100494503,-0.7829864335227757
1686425175759299800,8.8742998046875,3.2299212474137544,9.232173703509568,-0.710603699683398
1686425175769244700,8.88424462890625,3.31491715991497,9.209368581983446,-0.6076369174120947
1686425175779190800,8.894190673828126,3.394879754424095,9.187469469386338,-0.4853721084201708
1686425175789135600,8.904135498046875,3.4505499114587903,9.1726395645231,-0.35606118030901995
1686425175799081700,8.914081787109374,3.470585860532522,9.169120742747188,-0.22945136438272892
1686425175809027600,8.924027587890626,3.454313063384592,9.177439658281207,-0.1128083225290291
1686425175818973000,8.933972900390625,3.409840884451568,9.19474033717215,-0.009752868743718135
1686425175828918800,8.943918701171874,3.3541023383557795,9.214868348443508,0.08130570708061569
1686425175838864000,8.95386376953125,3.306855141751468,9.230890677961707,0.16053583172988145
1686425175848809700,8.963809814453125,3.279793531824648,9.239140619912742,0.22722329480340703
1686425175858754600,8.973754638671876,3.2740155329450964,9.239660259872675,0.2825957840657793
1686425175868700700,8.98370068359375,3.284357478739321,9.234372090336679,0.33131186591256406
1686425175878645800,8.993645751953125,3.308326675608754,9.224105547866225,0.37579814643617715
1686425175888592000,9.003591796875,3.344362450107932,9.209310714316368,0.417418187341094
1686425175898537000,9.013536865234375,3.391852515557408,9.18996713142097,0.45848103275466706
1686425175908483000,9.023483154296875,3.451381978368759,9.165517165297269,0.5016641217252239
1686425175918428000,9.033427978515626,3.5243162816762923,9.135051299884914,0.5481183413209393
1686425175928374000,9.0433740234375,3.6104300922915336,9.098086720103025,0.6000238485924899
1686425175938318800,9.05331884765625,3.708161567725241,9.05445625269115,0.6608961043149233
1686425175948265000,9.063264892578125,3.8160178390711543,9.003919074630737,0.7333763802446425
1686425175958211000,9.073211181640625,3.931406551748514,8.946495644187927,0.8213716937575489
1686425175968156200,9.08315625,4.04629842081964,8.884312451997399,0.9310486046593636
1686425175978102000,9.09310205078125,4.152283053074777,8.820651588469744,1.060672690372914
1686425175988047000,9.103047119140625,4.246539838135242,8.758508728289604,1.1940817745178938
1686425175997993000,9.112992919921876,4.325340695388615,8.70200650434494,1.3179149288050829
1686425176007937800,9.122937744140625,4.384756760953366,8.655355227807163,1.4244709312073887
1686425176017884000,9.1328837890625,4.422115308488905,8.622657657819985,1.5050135175615549
1686425176027829000,9.1428291015625,4.43655095333755,8.606718914932012,1.5529878593966364
1686425176037775000,9.152775146484375,4.430300953032076,8.607025204402207,1.5690687872342763
1686425176047720000,9.162719970703124,4.407897982566058,8.620228384846449,1.5596403030231594
1686425176057666000,9.172666015625,4.373730340026318,8.642323312276602,1.5333403251186013
1686425176067611000,9.18261083984375,4.331794693833589,8.66950065753758,1.498561126551777
1686425176077557000,9.192556884765626,4.28514078694731,8.69894887033999,1.4615952315956353
1686425176087502000,9.202502197265625,4.235942456275224,8.729003816863894,1.4253740175269543
1686425176097448200,9.2124482421875,4.1854917874544855,8.759114292967318,1.3892454501777887
1686425176107394000,9.22239404296875,4.140561635620892,8.78604555451274,1.3533493764102458
1686425176117339100,9.232339111328125,4.108455309525132,8.807158485168218,1.3133642797634004
1686425176127285000,9.242284912109374,4.094123709572852,8.82142198832035,1.2613855245925485
1686425176137229800,9.252229736328125,4.099893525145948,8.828068586727976,1.1943642447210847
1686425176147176000,9.262176025390625,4.125561634887755,8.826565780949592,1.114394343688339
1686425176157121000,9.27212109375,4.169066137832403,8.816942797079681,1.0250633245922625
1686425176167067100,9.282067138671875,4.22909624364227,8.798828463718294,0.9304643019653857
1686425176177012000,9.292011962890625,4.303724491386116,8.772128672841191,0.8355280102081596
1686425176186958000,9.3019580078125,4.390211226966977,8.737406903550028,0.7443900878205895
1686425176196903000,9.31190283203125,4.484033712263405,8.69654180919826,0.6587533931978047
1686425176206849000,9.32184912109375,4.579825451806188,8.652147956198453,0.5795888537311926
1686425176216794000,9.331794189453126,4.671276531796157,8.607800280427933,0.5052827506138011
1686425176226740200,9.341740234375,4.753682720065116,8.566543556410073,0.4326477590464055
1686425176236685000,9.35168505859375,4.8237075656667345,8.53070710387528,0.3595718553110957
1686425176246631000,9.361630859375,4.879963121373951,8.501583300721645,0.28190347268637267
1686425176256576000,9.371575927734375,4.92253472738266,8.479470837634802,0.19398432968221604
1686425176266521900,9.38152197265625,4.950401808473467,8.465009181562065,0.08663220846615731
1686425176276468000,9.391468017578125,4.959968093720078,8.459677172884344,-0.05433315454358235
1686425176286413000,9.4014130859375,4.933839965251088,8.47122966351211,-0.25672975886538624
1686425176296359200,9.411359130859376,4.850339552004635,8.507157885983586,-0.5223432640733197
1686425176306304000,9.421303955078125,4.708315345858037,8.566076523420215,-0.7902326783239841
1686425176316250000,9.43125,4.562913479971885,8.62604320860505,-0.9703505413476378
1686425176326195000,9.44119482421875,4.463486891058087,8.66996242983043,-1.0389438197761773
1686425176336141000,9.45114111328125,4.41191394020915,8.69682062613964,-1.0347586430460214
1686425176346086100,9.461086181640624,4.393829709725082,8.708437414175272,-1.0138005376260728
1686425176356032300,9.4710322265625,4.391068136057258,8.708546719768643,-1.024758861752972
1686425176365977000,9.48097705078125,4.387105662167072,8.703120603066683,-1.0859792002607136
1686425176375923000,9.4909228515625,4.369304048016667,8.69960061224699,-1.181751212189719
1686425176385868000,9.500867919921875,4.324955203202366,8.70752439098358,-1.2822744372338055
1686425176395814000,9.51081396484375,4.2545495415896175,8.73123142978549,-1.354539170716703
1686425176405760000,9.520760009765626,4.1675192006513475,8.769553269395232,-1.3773686960317193
1686425176415705000,9.530705078125,4.0685193127170205,8.820436484414339,-1.348118928410858
1686425176425651200,9.540651123046874,3.95588223683536,8.882023464277387,-1.2771296216912567
1686425176435596000,9.550595947265625,3.821075122460723,8.95355666861534,-1.184730666391924
1686425176445542100,9.560542236328125,3.6604184042975305,9.032592795929313,-1.0881157008327542
1686425176455487000,9.570487060546874,3.4823283207744358,9.113366706821322,-0.9951515859313309
1686425176465433000,9.58043310546875,3.289523775461316,9.193430423617363,-0.9111902771748602
1686425176475378000,9.5903779296875,3.076761899268627,9.273527458161116,-0.8400052286874502
1686425176485324000,9.600323974609376,2.846759549939632,9.352074340653418,-0.7778581307236104
1686425176495269000,9.61026904296875,2.615644855454564,9.424133614692092,-0.7172837619692086
1686425176505215000,9.620215087890625,2.4054577981859446,9.484567917388677,-0.6535279866997152
1686425176515160000,9.63016015625,2.2316316557176408,9.531257187849283,-0.5876680056925863
1686425176525106000,9.64010595703125,2.09418732470721,9.56615782083869,-0.5228733523620293
1686425176535051000,9.650051025390624,1.983456082446873,9.59278863813281,-0.46338721723575144
1686425176544996900,9.659996826171875,1.888409900574386,9.614274493753909,-0.4123693795189261
1686425176554943000,9.66994287109375,1.8304656611278651,9.626983168679475,-0.3755011362509802
1686425176564888000,9.67988818359375,1.8879114495329559,9.616701428639889,-0.35386374332997944
1686425176574834200,9.689834228515625,2.032351338519156,9.587830723464489,-0.33679873635843394
1686425176584779000,9.699779052734375,2.2201262191019953,9.546617838588356,-0.3216974306752905
1686425176594725000,9.70972509765625,2.423042993106693,9.49748702019453,-0.311468882127665
1686425176604670000,9.719669921875,2.620908182810247,9.444854331159592,-0.30982034773565825
1686425176614615800,9.72961572265625,2.799928240659833,9.393091995218395,-0.31719021891653537
1686425176624561200,9.73956103515625,2.950260256424546,9.346585095587372,-0.32814207677002993
1686425176634507000,9.749507080078125,3.0678195911392567,9.30837665322423,-0.3361420625479892
1686425176644452000,9.7594521484375,3.151251907585561,9.2804540425539,-0.33642968385033306
1686425176654398000,9.76939794921875,3.200749513465166,9.263919087338447,-0.32463830643277614
1686425176664343000,9.779343017578125,3.2200273376479744,9.258219414392114,-0.2953127153630368
1686425176674289000,9.789288818359376,3.2128473630160093,9.262105900436639,-0.24772220348007976
1686425176684234000,9.79923388671875,3.182733672042191,9.273928440177441,-0.18668566057402639
1686425176694180000,9.80918017578125,3.129623720884323,9.29308088441491,-0.12041194766685366
1686425176704126200,9.819126220703126,3.052664399844408,9.319245837762951,-0.057492353793443175
1686425176714071000,9.829071044921875,2.952662933652103,9.3515880184412,-0.002846228020895796
1686425176724017000,9.839016845703124,2.8353879688367245,9.387711471223831,0.04263796750949696
1686425176733962000,9.8489619140625,2.70643133405596,9.425501395913958,0.07458708918297197
1686425176743907800,9.858907958984375,2.563094584006071,9.465387416100501,0.08606861976664514
1686425176753853200,9.868853271484374,2.4024454646274447,9.507523261040449,0.07487394330033566
1686425176763799000,9.878799072265625,2.249079341863841,9.545165886214376,0.04251794872586615
1686425176773744000,9.888744140625,2.137279739719629,9.570914075455068,2.3605645870592438e-7
1686425176783690000,9.89868994140625,2.0760326593354343,9.584342881348729,-0.029180462961026932
1686425176793635000,9.908635009765625,2.0646042334787547,9.586787351891397,-0.035989974012516905
1686425176803581000,9.918580810546874,2.093984203350544,9.580448211997746,-0.024546916842286007
1686425176813526000,9.928526123046876,2.1516068096272645,9.56770329671502,0.00012888275983332278
1686425176823472000,9.93847216796875,2.224874290411919,9.55086263655126,0.03672814067751169
1686425176833418200,9.948418212890624,2.302209166765958,9.532207620441913,0.0850577622236684
1686425176843363000,9.958363037109375,2.367008240543306,9.515618889212607,0.14367137969858013
1686425176853309000,9.968308837890625,2.3962777357779443,9.507404018574952,0.19370940346466375
1686425176863254000,9.97825390625,2.388629266851395,9.50867710725069,0.2233620893306099
1686425176873199900,9.988199951171875,2.371706189101189,9.512285360875726,0.2486987934272736
1686425176883145200,9.998145263671875,2.3762010163024065,9.510161792850495,0.284418999171257
1686425176893091000,10.008091064453126,2.417036592298746,9.498573061865567,0.3247297841085121
1686425176903035100,10.01803515625,2.4920640684932467,9.477842408525943,0.3612187092026695
1686425176912981200,10.027981201171874,2.5934935216620563,9.449455102953314,0.38982900987621394
1686425176922926000,10.037926025390625,2.713734350545704,9.414683649301528,0.41200419946834443
1686425176932872200,10.0478720703125,2.8439456615626812,9.37532837499082,0.43080012188572436
1686425176942817300,10.0578173828125,2.9740909216061233,9.33392610502243,0.4505640856176614
1686425176952763400,10.067763427734375,3.0944211823388934,9.293562530452013,0.4739803978446871
1686425176962708200,10.077708251953124,3.1955624662160873,9.258028860256076,0.4976464470490813
1686425176972654300,10.087654296875,3.2750559819087384,9.229160493168234,0.5166863342901692
1686425176982600200,10.09760009765625,3.3417607431769367,9.204521141952275,0.5290060098981485
1686425176992545000,10.107544921875,3.4098677724584934,9.179050600609182,0.536876524077542
1686425177002491100,10.1174912109375,3.488104273827374,9.149305450686812,0.5419529870916158
1686425177012436200,10.127436279296875,3.5764611871942877,9.114799954494833,0.5475061277067288
1686425177022382300,10.13738232421875,3.6727903946146365,9.075896515604853,0.5559560857418924
1686425177032327200,10.1473271484375,3.7721488867282864,9.034226534610987,0.5692330986073241
1686425177042273300,10.157273193359375,3.8683106286272406,8.99205094218254,0.5912270498810336
1686425177052218000,10.167218017578126,3.952492594397068,8.953136397376657,0.6241371301077306
1686425177062164200,10.177164306640625,4.003425493776798,8.926243714275955,0.6820389917172491
1686425177072109300,10.187109375,4.008172688303888,8.914671934425831,0.795962161886692
1686425177082055400,10.197055419921876,3.949315717926621,8.919721619030833,1.0059229361187667
1686425177092000300,10.207000244140625,3.8154020452603694,8.944345772677659,1.2695504186086355
1686425177101946000,10.216946044921874,3.6655300482228395,8.976436608943343,1.4689675139293075
1686425177111892200,10.226892333984376,3.54271907659024,9.010668548890948,1.558000572992116
1686425177121837000,10.236837158203125,3.457318674941361,9.044957187461852,1.5511574290990828
1686425177131783200,10.246783203125,3.4038986349210143,9.076602033525704,1.482962283142656
1686425177141728300,10.256728271484375,3.3729426479041575,9.104225368988514,1.3808388563603162
1686425177151674400,10.26667431640625,3.354479939496517,9.128079122784733,1.2633414809659123
1686425177161619200,10.276619140625,3.340098362922668,9.14975670158565,1.1384676585193723
1686425177171565300,10.2865654296875,3.319368878626823,9.172205264759063,1.0113418193623422
1686425177181510100,10.29651025390625,3.2859380259290334,9.197722567853331,0.880283316931501
1686425177191456300,10.306456298828126,3.241711638450622,9.226312117999791,0.7327084909204393
1686425177201401300,10.3164013671875,3.1869720402643082,9.258035289996862,0.5498584264539181
1686425177211347500,10.326347412109374,3.1142496261417865,9.293208310186863,0.3288445624835789
1686425177221292300,10.336292236328125,3.0257702554389834,9.327762906217574,0.08910697368239053
1686425177231238100,10.346238037109375,2.9464716777965423,9.352770506224036,-0.11997216801010072
1686425177241184300,10.356184326171874,2.8961498960524796,9.365711236339807,-0.2571635289064608
1686425177251129000,10.366129150390625,2.8781276248887178,9.369683647102118,-0.3095005046641454
1686425177261075200,10.3760751953125,2.8700790507286786,9.372876305663585,-0.28675261148428544
1686425177271020300,10.386020263671876,2.8233032710283994,9.387931251454352,-0.25707592368824406
1686425177280966400,10.39596630859375,2.670748318517208,9.429913367137312,-0.3379662457678467
1686425177290911200,10.4059111328125,2.410808073172718,9.491196980139613,-0.5249473456244915
1686425177300857300,10.415857421875,2.1111350985072552,9.551541850987077,-0.6939181570161134
1686425177310802200,10.42580224609375,1.8395885865211485,9.601606735360622,-0.7716358952078968
1686425177320748300,10.435748291015624,1.6326362733900546,9.6399548784554,-0.7590483624439686
1686425177330693000,10.445693115234375,1.4935745703108607,9.667397596654295,-0.6935567032925785
1686425177340639200,10.45563916015625,1.4194116019912064,9.684093879911304,-0.6115415967004373
1686425177350584300,10.465584228515626,1.4059322349540888,9.690436526936292,-0.5377789162773638
1686425177360530200,10.4755302734375,1.4344969429202377,9.68885656426847,-0.4885315953643992
1686425177370476300,10.485476318359375,1.4656277019821107,9.684963648483157,-0.47309375120326874
1686425177380421000,10.495421142578126,1.4563555773764847,9.685807698091864,-0.4843034928079694
1686425177390367200,10.5053671875,1.3945548086322843,9.694354577162862,-0.49505515191424637
1686425177400312000,10.51531201171875,1.3084895133338867,9.707072019916772,-0.48059605312477793
1686425177410258200,10.525258056640626,1.2401928066991268,9.717938281846045,-0.4404124016985297
1686425177420203300,10.535203369140625,1.2102484809428453,9.723981069141626,-0.38713955159652974
1686425177430149400,10.5451494140625,1.21940377423577,9.724969495657087,-0.3292938406210392
1686425177440094200,10.55509423828125,1.2696148621469736,9.720457571190595,-0.2667333212844096
1686425177450040300,10.565040283203125,1.362925890789926,9.709476158449053,-0.19728285977095364
1686425177459985200,10.574985107421876,1.496997092105448,9.69098305490315,-0.11924505017879418
1686425177469931000,10.584930908203125,1.663798742764443,9.664425887367129,-0.031980857102165465
1686425177479876400,10.59487646484375,1.8531589928425847,9.629737435823678,0.06585338230298365
1686425177489822200,10.604822265625,2.054140707131475,9.587513328078389,0.17457339890534057
1686425177499768300,10.614768310546875,2.2507154186330736,9.540473929005861,0.28984454961763695
1686425177509713200,10.624713134765624,2.423142507958412,9.493749587231873,0.4092239211000502
1686425177519659300,10.6346591796875,2.559375855743885,9.451824754694103,0.5319481277646496
1686425177529604000,10.64460400390625,2.651811270596087,9.41848421062827,0.6560990062315016
1686425177539550200,10.65455029296875,2.6969913055375216,9.396257181251048,0.7790650222953408
1686425177549495300,10.664495361328125,2.694394274781644,9.387318087992071,0.8881932863384485
1686425177559441400,10.67444140625,2.650790403115749,9.392216381427644,0.964355977107957
1686425177569386200,10.68438623046875,2.590689277896285,9.404382035517692,1.0081221266634761
1686425177579332000,10.69433203125,2.530872814837098,9.417923654136061,1.0333269297424703
1686425177589277200,10.704277099609374,2.4782941940769554,9.43004897621572,1.0500508316587656
1686425177599223000,10.71422314453125,2.4323624639853834,9.43985900709033,1.0691448967725037
1686425177609168400,10.72416845703125,2.3901463934160767,9.447145656967162,1.0995592511933296
1686425177619114200,10.7341142578125,2.350622046148777,9.451651736214757,1.1450870035938918
1686425177629060400,10.744060302734376,2.335184092389792,9.448841354969144,1.19862058699131
1686425177639005200,10.754005126953125,2.364332153201848,9.433913834950328,1.2576076134890317
1686425177648951300,10.763951416015624,2.4352181456774473,9.40721813572645,1.3207343701399863
1686425177658896100,10.773896240234375,2.5385925954341886,9.371070133024453,1.3816529492221772
1686425177668842200,10.78384228515625,2.663534733876586,9.328845440757274,1.431292301660031
1686425177678787300,10.793787353515626,2.8017002187684175,9.283577143010497,1.4615395558856428
1686425177688733400,10.8037333984375,2.943829931116104,9.23839886163473,1.4684158713959157
1686425177698678300,10.81367822265625,3.0805136530175803,9.196758691257237,1.4492996675156056
1686425177708624100,10.8236240234375,3.20359496602416,9.161508514177799,1.4050262260250745
1686425177718569200,10.8335693359375,3.3085841575011607,9.134301358300448,1.3372351308248935
1686425177728515000,10.84351513671875,3.3938270305007694,9.115332453936338,1.2502300704583524
1686425177738460400,10.85346044921875,3.4572982166752215,9.104366823285817,1.1523958653025328
1686425177748406300,10.86340625,3.495927514798939,9.10152780046761,1.0540650357361883
1686425177758352400,10.873352294921874,3.5074984178662296,9.106944564819335,0.9650831954039633
1686425177768297200,10.883297119140625,3.491854566271603,9.12060659494698,0.8898799973163753
1686425177778243300,10.893243408203125,3.4478190251901744,9.143188429111241,0.8276669214442371
1686425177788188200,10.903188232421876,3.3750244226142763,9.175233088147639,0.7711659396085888
1686425177798134300,10.91313427734375,3.2743560169458386,9.217115835109352,0.7026677921175957
1686425177808079400,10.923079345703124,3.142132489323616,9.271062529352307,0.587204918225482
1686425177818025200,10.933025146484376,3.0011244744822383,9.327314577928185,0.4060083931196481
1686425177827970300,10.94297021484375,2.918264404965937,9.360637001815437,0.1806183416253887
1686425177837916200,10.952916259765624,2.9042423093542453,9.36663887257874,-0.04284656875887886
1686425177847861200,10.962861328125,2.9445328186884523,9.351029215514659,-0.2415822576866485
1686425177857807000,10.97280712890625,3.022796208064258,9.320011561438442,-0.41286355624403803
1686425177867752200,10.982752197265626,3.1164462594032285,9.28209830262959,-0.5484584599955007
1686425177877698300,10.9926982421875,3.1949060481339693,9.24936624585092,-0.6420072794497013
1686425177887644400,11.00264453125,3.2698803328365087,9.220056564736366,-0.6847326877806336
1686425177897589200,11.01258935546875,3.346365898884833,9.194468534493446,-0.65877604342103
1686425177907535400,11.022535400390625,3.3650346512585876,9.192948777580261,-0.5802027478458359
1686425177917480200,11.032480224609374,3.304571706989407,9.221516115894913,-0.4624067182984203
1686425177927426300,11.04242626953125,3.202422122852504,9.26374489981532,-0.31283991475254297
1686425177937371100,11.05237109375,3.099395463620126,9.302917218774557,-0.1409167198287323
1686425177947317200,11.062317138671874,3.0134701613143084,9.332122270470856,0.029759975315455812
1686425177957262300,11.072262451171875,2.950516569273174,9.35059783836007,0.1765509825886227
1686425177967208200,11.082208251953125,2.9134625576421618,9.359560897016525,0.2841886062151752
1686425177977153300,11.0921533203125,2.901167139692604,9.36143370515108,0.34235461691990493
1686425177987099100,11.10209912109375,2.9128996630623933,9.357452526560426,0.35147253734450784
1686425177997045200,11.112045166015625,2.945825781108439,9.348208312875032,0.32173487660884853
1686425178006990000,11.121989990234376,2.999455372226238,9.33269276383519,0.2729649822155945
1686425178016936200,11.131936279296875,3.0738027572020887,9.30955037317872,0.23320605900743974
1686425178026881300,11.14188134765625,3.1677041529536245,9.278063348025084,0.23145309612657874
1686425178036827400,11.151827392578125,3.2785110907986756,9.238053993719817,0.28297882856661455
1686425178046772200,11.161772216796875,3.3990745757654306,9.190876647481321,0.3800726819502189
1686425178056718300,11.17171826171875,3.52235316490978,9.13834274264574,0.5041104919640347
1686425178066663200,11.1816630859375,3.6459266453474757,9.08116130426526,0.6404433911338449
1686425178076609000,11.191609130859375,3.7682787672966715,9.020413697835803,0.7762510608531534
1686425178086554400,11.201554443359376,3.884557999072969,8.959179184672236,0.9020754620227962
1686425178096500200,11.211500244140625,3.9852810575380917,8.903037026211619,1.0118624091703443
1686425178106445300,11.2214453125,4.061513233347237,8.857862836489081,1.1012610866751522
1686425178116391200,11.23139111328125,4.112769081071019,8.825604242441058,1.1680053031709043
1686425178126337300,11.241337158203125,4.142027031998336,8.806029188877343,1.2115562756057827
1686425178136282000,11.2512822265625,4.153758094063401,8.797516212075948,1.2330439578577876
1686425178146228200,11.261228271484375,4.1522877292498945,8.797617918884754,1.2372484238103032
1686425178156173300,11.27117333984375,4.141201102568209,8.803770596295594,1.2306358738027512
1686425178166119400,11.281119384765624,4.123264171600342,8.813989792492984,1.217645605456829
1686425178176064300,11.291064208984375,4.09993648750484,8.82699832714796,1.2020788376864044
1686425178186010000,11.301010009765625,4.072270189683139,8.841897205594181,1.1865298978336154
1686425178195955200,11.310955078125,4.039544270384312,8.858691104006766,1.1730595178205518
1686425178205901000,11.320901123046875,4.000696361073851,8.877681051158904,1.1625905115805566
1686425178215846400,11.330846435546874,3.9589328565776345,8.898695782136917,1.1447526570729911
1686425178225792300,11.340792236328125,3.9210470702975986,8.920458116611838,1.105081960137561
1686425178235738400,11.35073828125,3.892205883477628,8.941120965412258,1.0380050045561044
1686425178245683200,11.36068310546875,3.8741473719567057,8.95866714349687,0.9506137213509529
1686425178255629300,11.37062939453125,3.8669133290499444,8.971595598652959,0.8531386318311095
1686425178265574100,11.38057421875,3.8716523402705785,8.978272007676958,0.7558484704241156
1686425178275520300,11.390520263671876,3.889162570258975,8.977865764963626,0.6653816522311419
1686425178285465300,11.40046533203125,3.9184550079777836,8.970731675300001,0.5848693879500031
1686425178295411500,11.410411376953125,3.9579061438784002,8.957636046883463,0.515862121893093
1686425178305356300,11.420356201171876,4.002720268116891,8.940990617030858,0.4553633025929332
1686425178315302100,11.43030224609375,4.041330861540138,8.926660478383303,0.3908959815206006
1686425178325247200,11.440247314453124,4.05772085532695,8.922648320132494,0.3027538068829104
1686425178335193000,11.450193115234375,4.038062215133011,8.93486950380206,0.18032551442496478
1686425178345138400,11.460138427734375,3.9776258666098117,8.963688771051167,0.0334886016338598
1686425178355084300,11.470084228515624,3.886103767210245,9.00312938555777,-0.11047181500601581
1686425178365030400,11.480030517578125,3.784123402160406,9.044430533239245,-0.2215941663426347
1686425178374975200,11.489975341796875,3.695278413015604,9.079308954396843,-0.28532853349791837
1686425178384921300,11.49992138671875,3.6422713377103206,9.09975786818564,-0.31406678966637697
1686425178394866200,11.5098662109375,3.6416061517998575,9.099441057321428,-0.33052645115591583
1686425178404812300,11.519812255859375,3.6885815457254645,9.079820411050319,-0.3487340157587081
1686425178414757400,11.52975732421875,3.7577991665974255,9.049842621415854,-0.3869059985689819
1686425178424703200,11.539703125,3.8044822995781895,9.026059594768284,-0.47598684229627247
1686425178434648300,11.5496484375,3.81479501927793,9.014421763944625,-0.5982522358100861
1686425178444594200,11.55959423828125,3.8108588488727806,9.008642596021295,-0.7014825278557837
1686425178454539300,11.569539306640625,3.804524969676137,9.006409722402692,-0.7619703873705118
1686425178464485000,11.579485107421876,3.8005718481361863,9.006649376377462,-0.7786701046936213
1686425178474431200,11.58943115234375,3.8018458135947584,9.007186551994085,-0.766128603028506
1686425178484376300,11.599376220703125,3.8079742333471773,9.006931700450181,-0.7381993434216827
1686425178494322200,11.609322265625,3.81728537478894,9.006086481797695,-0.6993746688563376
1686425178504267300,11.619267333984375,3.827061211133003,9.005723493704199,-0.6487911674361676
1686425178514213400,11.62921337890625,3.835075006240606,9.00693462305963,-0.581094509053789
1686425178524158200,11.639158203125,3.8411256845816966,9.009863662248849,-0.4883786332923919
1686425178534104300,11.649104248046875,3.843069219864905,9.014893473109602,-0.36460513677056877
1686425178544049200,11.659049072265624,3.836112240333855,9.022754123482107,-0.21104659670740364
1686425178553995000,11.6689951171875,3.8157211942121383,9.033785220584273,-0.03748156427714275
1686425178563940400,11.6789404296875,3.778934893606603,9.04813114132285,0.14607799331573768
1686425178573886200,11.68888623046875,3.722007429987192,9.066965605652332,0.32736290909107774
1686425178583832300,11.698832275390625,3.6444328996583817,9.090819359448552,0.4954332645116374
1686425178593777200,11.708777099609375,3.5482813868924974,9.119876527106761,0.6386860260725021
1686425178603723300,11.71872314453125,3.4397879866868255,9.153264417445659,0.7456641263443976
1686425178613668000,11.728668212890625,3.327237420044839,9.18883023634553,0.8156570424377918
1686425178623614200,11.7386142578125,3.210061531689763,9.226474615085124,0.8591044814329594
1686425178633559300,11.748559326171875,3.091087361741066,9.263941299170256,0.891601998803392
1686425178643505400,11.75850537109375,2.9750477839395404,9.298816213196515,0.9227785697683691
1686425178653450200,11.7684501953125,2.8652041381686923,9.329947849041224,0.9555535889059305
1686425178663396000,11.77839599609375,2.7645009534478184,9.356651147049664,0.9904371246300637
1686425178673341200,11.788341064453125,2.6752275097578764,9.379214276513457,1.0217243163626641
1686425178683287000,11.798287109375,2.6008088131114837,9.39769101344645,1.043828303882107
1686425178693233200,11.808233154296875,2.5445354294866322,9.411761624374986,1.055667502496764
1686425178703178200,11.81817822265625,2.5103303775459525,9.421239062294363,1.0530481868438422
1686425178713124400,11.828124267578126,2.5027289626315237,9.425763846242427,1.030397598292306
1686425178723069200,11.838069091796875,2.5397110780701038,9.421707848849891,0.9755341545306145
1686425178733015300,11.848015380859374,2.6286577740237114,9.406310957753657,0.8842205833151936
1686425178742960000,11.857960205078125,2.7550436815336345,9.380427743956446,0.7666293190922587
1686425178752906200,11.86790625,2.904574025526643,9.345472750431298,0.6292766118880361
1686425178762851300,11.877851318359374,3.0636376292794942,9.3034701764822,0.47954051618985827
1686425178772797400,11.88779736328125,3.221478120978176,9.256730637139082,0.32467374307233837
1686425178782742300,11.8977421875,3.3668288411989806,9.20889628829658,0.17629536385973915
1686425178792688000,11.907688232421876,3.4862925482302902,9.165915224704145,0.04629995604918804
1686425178802634200,11.91763427734375,3.559650922168791,9.137580526101589,-0.06241472679092548
1686425178812579000,11.9275791015625,3.5635099356845017,9.134976481083035,-0.15493804825544355
1686425178822525200,11.937525146484376,3.487952882657945,9.16223565940857,-0.24084291056143117
1686425178832470300,11.94747021484375,3.33648572538346,9.215731102752684,-0.32948680590987206
1686425178842416400,11.95741650390625,3.135930712074041,9.282495777514576,-0.41426195179987696
1686425178852361200,11.967361328125,2.9382433631554243,9.343957085171342,-0.4770972512235865
1686425178862307300,11.977307373046875,2.7956042399808765,9.38560426981151,-0.5152200611298904
1686425178872252200,11.987252197265626,2.741172100308537,9.399735671016574,-0.5489520156661049
1686425178882198300,11.9971982421875,2.7876550345420834,9.382739528030157,-0.6029891646714881
1686425178892143400,12.007143310546875,2.9038001185446976,9.342873381587863,-0.6701384183041751
1686425178902089500,12.01708935546875,3.029650019481778,9.29800314324796,-0.7340079561464488
1686425178912035600,12.02703564453125,3.132753251081705,9.259655584675073,-0.7842252546027302
1686425178921980400,12.03698046875,3.210777571004629,9.231180600818991,-0.8041147809430956
1686425178931926300,12.04692626953125,3.2759657902300354,9.209861918458342,-0.78540766932033
1686425178941871400,12.056871337890625,3.3490219663515686,9.188184924179316,-0.7291621966157108
1686425178951817200,12.066817138671874,3.4303020732000467,9.164673700210452,-0.6419834601826966
1686425178961762300,12.07676220703125,3.5011116394385695,9.144341106277704,-0.5419155411580577
1686425178971708400,12.08670849609375,3.5416666449278593,9.13366189135313,-0.4508073563216254
1686425178981653500,12.096653564453124,3.540670619627833,9.137108816936612,-0.383768540793471
1686425178991599400,12.106599365234375,3.50516676004827,9.152466545066236,-0.341398448706232
1686425179001544200,12.116544189453125,3.4524309028998017,9.173617469644546,-0.30961634959615764
1686425179011490300,12.126490234375,3.4013667783558366,9.193814454498886,-0.27359301445344464
1686425179021435100,12.13643505859375,3.3646652334243057,9.208624485617875,-0.2249757350723259
1686425179031381200,12.14638134765625,3.347336789743602,9.216160141819715,-0.16768018705919385
1686425179041327400,12.156327392578126,3.3498516951739785,9.2161326692909,-0.10852198697933926
1686425179051272400,12.1662724609375,3.3715178757980464,9.208731453123688,-0.04985619179261848
1686425179061218300,12.17621826171875,3.4137396454557773,9.193298321670293,0.00888969031367742
1686425179071163400,12.186163330078125,3.478613099643588,9.168676506111025,0.07065949024334549
1686425179081109200,12.196109130859375,3.567180148629844,9.133815620610118,0.1379112178698182
1686425179091054300,12.206054443359376,3.6774738762557506,9.088556675213574,0.21149726308435202
1686425179101000200,12.216000244140625,3.8049212755173443,9.033588821229339,0.295365121403709
1686425179110945500,12.225945556640625,3.9458290448546407,8.969114887753129,0.3947102791117504
1686425179120891400,12.235891357421876,4.093710452596843,8.896392765891552,0.5158720587652176
1686425179130836200,12.245836181640625,4.2338291173830624,8.821115114328265,0.6580271978151053
1686425179140782300,12.2557822265625,4.3582580456063145,8.747595704609155,0.80967117296122
1686425179150728400,12.265728515625,4.460432764184475,8.680707111206651,0.9592889760419726
1686425179160673300,12.27567333984375,4.5335073527455325,8.626292214930057,1.097632155588269
1686425179170619100,12.285619140625,4.576778631456196,8.587460672232508,1.2161512752458452
1686425179180564500,12.295564453125,4.589827205860614,8.56682880309224,1.3089471939735113
1686425179190510300,12.30551025390625,4.573238182370364,8.566582134854793,1.3673247102707624
1686425179200455400,12.315455322265626,4.537247123795748,8.583218796879052,1.3827911594718694
1686425179210401300,12.3254013671875,4.491386120852828,8.60948311894834,1.3691731146164237
1686425179220346400,12.335346435546874,4.43747420566231,8.640742180564999,1.347874306000024
1686425179230292200,12.345292236328126,4.376605895462632,8.674881181532143,1.327453303131461
1686425179240237600,12.355237548828125,4.310138157820702,8.711044381803273,1.3079663662426173
1686425179250183400,12.365183349609374,4.23983069588542,8.747998440191148,1.2910207843996584
1686425179260129500,12.375129638671876,4.168116874283552,8.784697647035122,1.2752458537712692
1686425179270074400,12.385074462890625,4.100929005673527,8.818909713238478,1.2568399901174008
1686425179280020200,12.395020263671874,4.045999145612121,8.847616752284765,1.2328845295123756
1686425179289965300,12.40496533203125,4.009769017584621,8.868693442583083,1.199341083285585
1686425179299911200,12.4149111328125,3.9967107985690236,8.880584371384979,1.1540957280229776
1686425179309856500,12.4248564453125,4.007387383145094,8.883267911380528,1.094880299596861
1686425179319802400,12.43480224609375,4.0399671719715,8.877442566227913,1.0198421558778732
1686425179329747500,12.44474755859375,4.093171815675497,8.862814321416616,0.9310410058747977
1686425179339693300,12.454693359375,4.165885754230618,8.838445603835583,0.8352552576813846
1686425179349639400,12.464639404296875,4.255317603352665,8.804362716969846,0.7388366184119135
1686425179359584300,12.474584228515624,4.358740860687196,8.760374522161483,0.6539172782782465
1686425179369530400,12.4845302734375,4.469898219405114,8.708973420748114,0.5866663543693721
1686425179379475500,12.494475341796875,4.57614588651061,8.657243233510851,0.5304581084026023
1686425179389421600,12.504421630859374,4.670521037253737,8.609524620002508,0.4823575829045847
1686425179399366400,12.514366455078125,4.748844340123236,8.569016084003447,0.43682774814479053
1686425179409312300,12.524312255859375,4.807236323337257,8.539037709847092,0.38165852636955677
1686425179419257300,12.53425732421875,4.842232525655627,8.522403970432281,0.30303129038373006
1686425179429203200,12.544203125,4.856172203680873,8.517615567111969,0.19535103319184854
1686425179439148500,12.5541484375,4.849254679377377,8.523634389010072,0.052968437495059334
1686425179449094400,12.564094482421876,4.815849545642734,8.541710143926739,-0.1308519378749188
1686425179459040500,12.57404052734375,4.755813886874914,8.569372057834267,-0.34426136385668066
1686425179468985300,12.5839853515625,4.66862338693887,8.604768949908017,-0.5764334949728102
1686425179478931500,12.593931396484376,4.545895417414606,8.649925019451976,-0.8270508353725076
1686425179488876300,12.603876220703125,4.394663530200719,8.702150881251692,-1.0629609474405646
1686425179498822400,12.613822509765624,4.263467592060565,8.747994933059811,-1.2107054309301077
1686425179508767500,12.623767578125,4.178616348727047,8.781414972102642,-1.2634572163000701
1686425179518713600,12.633713623046875,4.13388756468445,8.803119438910484,-1.25955056425035
1686425179528658400,12.643658447265626,4.110999733310938,8.816176488882302,-1.2430265688203275
1686425179538604300,12.653604248046875,4.09137616443038,8.825405504998564,-1.242282618585229
1686425179548550400,12.66355029296875,4.066461503404379,8.834196129697562,-1.2614477761738
1686425179558495200,12.6734951171875,4.035720035921037,8.845017967963217,-1.2841389159314334
1686425179568441300,12.68344140625,4.001918011823296,8.859941980850696,-1.2870447203755377
1686425179578386400,12.693386474609374,3.968928765413165,8.879656735146046,-1.252870063573122
1686425179588332300,12.703332275390625,3.9377915766105054,8.904158723717927,-1.1748008815951645
1686425179598277400,12.71327734375,3.9090968125239014,8.93212751161754,-1.0518626303210854
1686425179608223500,12.723223388671874,3.8810105357244606,8.962123421430586,-0.8879743828907608
1686425179618168300,12.733168212890625,3.847615923383832,8.993514584994315,-0.6949426777582616
1686425179628114400,12.743114501953125,3.802357854770124,9.025877223938704,-0.49602173192407933
1686425179638059300,12.753059326171876,3.7465035733401773,9.057408672755956,-0.31221816612500697
1686425179648005000,12.763005126953125,3.675710373714566,9.090489104580879,-0.15018351067211477
1686425179657950500,12.772950439453124,3.5768367425084113,9.131077135556936,-0.005477461584241246
1686425179667896300,12.782896240234376,3.4547730821117755,9.17708134636283,0.1269057757987175
1686425179677842400,12.792842529296875,3.3186633607059717,9.224518804842234,0.2551599157327786
1686425179687787300,12.802787353515624,3.1682436666578053,9.272944105315208,0.3809704345075413
1686425179697733400,12.8127333984375,3.011900427779555,9.319475554865598,0.4962027145141735
1686425179707678200,12.82267822265625,2.862355470739305,9.360884839096665,0.5925848576981574
1686425179717624300,12.832624267578124,2.7327608303159474,9.39427915917635,0.670758376833424
1686425179727569400,12.8425693359375,2.6316999181985854,9.418478365409374,0.7326827719572931
1686425179737515500,12.852515625,2.5590239735662936,9.434435812997817,0.7830888709839433
1686425179747460400,12.86246044921875,2.514042676067352,9.443071539396048,0.8236535941496491
1686425179757406500,12.872406494140625,2.498769995872676,9.445076449477671,0.8467839290421456
1686425179767352300,12.882352294921875,2.5192767773285505,9.440464571768045,0.8374204728912562
1686425179777297200,12.892297119140625,2.5990581700518725,9.424100881466268,0.7756344633247703
1686425179787243300,12.9022431640625,2.7237247064232823,9.39679377234578,0.6722726538538932
1686425179797188400,12.912188232421874,2.8608216853007673,9.363885189956425,0.5511152581145986
