time,seconds_elapsed,z,y,x
1686425166987355000,0.10235498046875,-0.3012596368789673,0.2076963484287262,0.28189578652381897
1686425166997299700,0.1122998046875,-0.2657793164253235,0.44573256373405457,0.3737581670284271
1686425167007245800,0.122245849609375,-0.22488249838352203,0.6944190859794617,0.4206002354621887
1686425167017190700,0.132190673828125,-0.21040993928909302,0.8973658084869385,0.43137145042419434
1686425167027136800,0.14213671875,-0.22808028757572174,1.0216587781906128,0.4160369634628296
1686425167037081600,0.15208154296875,-0.2659808099269867,1.0616438388824463,0.37300923466682434
1686425167047027700,0.16202783203125,-0.3073181211948395,1.029977560043335,0.30415770411491394
1686425167056972800,0.171972900390625,-0.35021671652793884,0.9702317714691162,0.2086416482925415
1686425167066919000,0.1819189453125,-0.3904445469379425,0.8909947276115417,0.09327110648155212
1686425167076863700,0.19186376953125,-0.4376426041126251,0.8269066214561462,-0.029709594324231148
1686425167086809600,0.2018095703125,-0.49984338879585266,0.7509793639183044,-0.13604216277599335
1686425167096754700,0.211754638671875,-0.5527318716049194,0.6230413317680359,-0.20130282640457153
1686425167106700500,0.221700439453125,-0.6096012592315674,0.5490542054176331,-0.23675136268138885
1686425167116646000,0.23164599609375,-0.6470012068748474,0.5250183343887329,-0.22932492196559906
1686425167126591700,0.241591796875,-0.6609042882919312,0.5617510676383972,-0.18727999925613403
1686425167136536800,0.251536865234375,-0.6377456188201904,0.6166120767593384,-0.1314586102962494
1686425167146482700,0.261482666015625,-0.5902119278907776,0.7080439925193787,-0.07636472582817078
1686425167156427500,0.271427490234375,-0.5076336860656738,0.7930002212524414,-0.044772420078516006
1686425167166373600,0.28137353515625,-0.4297950863838196,0.9068583250045776,-0.03848336637020111
1686425167176318700,0.291318603515625,-0.3767985999584198,0.9913402199745178,-0.05548904463648796
1686425167186264800,0.301264892578125,-0.3877553641796112,1.0903469324111938,-0.08391056954860687
1686425167196209700,0.311209716796875,-0.43256431818008423,1.083098292350769,-0.10317656397819519
1686425167206155800,0.32115576171875,-0.5059911012649536,1.036993145942688,-0.10388043522834778
1686425167216101600,0.3311015625,-0.6104562282562256,1.0303151607513428,-0.0983179435133934
1686425167226046700,0.341046630859375,-0.743266224861145,1.1344425678253174,-0.06667958945035934
1686425167235992600,0.35099267578125,-0.8833662271499634,1.2456028461456299,-0.02855888195335865
1686425167245938000,0.36093798828125,-0.8775200247764587,1.094329595565796,-0.015946684405207634
1686425167255883800,0.3708837890625,-0.8389178514480591,1.1642156839370728,0.04122660681605339
1686425167265828900,0.380828857421875,-0.8432827591896057,1.307013750076294,0.1383531540632248
1686425167275774700,0.390774658203125,-0.846752405166626,1.4249144792556763,0.2637959420681
1686425167285719600,0.400719482421875,-0.8497199416160583,1.565354347229004,0.40633100271224976
1686425167295665700,0.410665771484375,-0.8478336334228516,1.7291762828826904,0.5569467544555664
1686425167305610800,0.42061083984375,-0.8529384136199951,1.8956526517868042,0.7155414819717407
1686425167315556900,0.430556884765625,-0.8757498264312744,2.064631700515747,0.8852500915527344
1686425167325501700,0.440501708984375,-0.9356496334075928,2.1864190101623535,1.06961190700531
1686425167335447800,0.45044775390625,-1.039968490600586,2.269096612930298,1.2949618101119995
1686425167345392600,0.460392578125,-1.1963108777999878,2.1152913570404053,1.57057523727417
1686425167355338800,0.4703388671875,-1.3901097774505615,1.9653210639953613,1.9025540351867676
1686425167365283800,0.480283935546875,-1.5967494249343872,1.8937581777572632,2.259958267211914
1686425167375230000,0.49022998046875,-1.7912578582763672,1.775844931602478,2.618561267852783
1686425167385174800,0.5001748046875,-1.960668683052063,1.794739007949829,2.9509997367858887
1686425167395120600,0.51012060546875,-2.0551071166992188,1.8063393831253052,3.225717306137085
1686425167405065700,0.520065673828125,-2.0825161933898926,1.9068922996520996,3.4042656421661377
1686425167415011600,0.530011474609375,-2.073404550552368,2.12214732170105,3.4724438190460205
1686425167424956700,0.539956787109375,-2.0479636192321777,2.4264607429504395,3.461550235748291
1686425167434902800,0.54990283203125,-2.0473432540893555,2.7172563076019287,3.423922538757324
1686425167444847900,0.559847900390625,-2.105536699295044,2.8665032386779785,3.400251626968384
1686425167454793700,0.569793701171875,-2.26826810836792,2.862994909286499,3.4191367626190186
1686425167464738800,0.57973876953125,-2.5257716178894043,2.6459310054779053,3.469989061355591
1686425167474684700,0.5896845703125,-2.855881452560425,2.2914254665374756,3.52407169342041
1686425167484629500,0.59962939453125,-3.199917793273926,1.8438928127288818,3.5726609230041504
1686425167494575600,0.60957568359375,-3.5101513862609863,1.4055603742599487,3.600874900817871
1686425167504520700,0.619520751953125,-3.7695014476776123,0.9864535927772522,3.592022657394409
1686425167514466800,0.629466796875,-4.000797271728516,0.7095298767089844,3.5335886478424072
1686425167524411600,0.63941162109375,-4.238168716430664,0.5386548042297363,3.4072229862213135
1686425167534357800,0.649357666015625,-4.418085098266602,0.32019758224487305,3.2125625610351562
1686425167544302600,0.659302490234375,-4.473504066467285,0.09416951984167099,2.96244478225708
1686425167554248700,0.669248779296875,-4.420547008514404,-0.012773202732205391,2.674886465072632
1686425167564193800,0.67919384765625,-4.312323570251465,-0.04341420158743858,2.385258197784424
1686425167574140000,0.689139892578125,-4.198996543884277,-0.1358388215303421,2.1561357975006104
1686425167584084700,0.699084716796875,-4.122211933135986,-0.23876601457595825,2.0135128498077393
1686425167594030600,0.709030517578125,-4.089032173156738,-0.30058544874191284,1.9233289957046509
1686425167603975700,0.7189755859375,-4.05393123626709,-0.2827047109603882,1.8622640371322632
1686425167613921500,0.728921630859375,-3.9686779975891113,-0.23780424892902374,1.8274604082107544
1686425167623867000,0.738866943359375,-3.819542407989502,-0.1528416872024536,1.8305855989456177
1686425167633812700,0.748812744140625,-3.6053473949432373,0.00003724731504917145,1.9186921119689941
1686425167643757800,0.7587578125,-3.3408429622650146,0.12243932485580444,2.104130506515503
1686425167653703700,0.76870361328125,-3.0251963138580322,0.18314549326896667,2.377229690551758
1686425167663648800,0.778648681640625,-2.6973297595977783,0.1866597980260849,2.697847366333008
1686425167673594600,0.7885947265625,-2.3531744480133057,0.16966836154460907,3.017265796661377
1686425167683539700,0.798539794921875,-1.9924883842468262,0.18504785001277924,3.26859712600708
1686425167693485800,0.80848583984375,-1.610650658607483,0.19755497574806213,3.412489414215088
1686425167703430700,0.8184306640625,-1.2183926105499268,0.15799611806869507,3.419788122177124
1686425167713376800,0.828376708984375,-0.8396577835083008,0.11554372310638428,3.3006186485290527
1686425167723321600,0.838321533203125,-0.4910627603530884,0.07012724131345749,3.0404038429260254
1686425167733267700,0.848267822265625,-0.19882354140281677,0.008565496653318405,2.62540864944458
1686425167743212800,0.858212890625,0.0258183516561985,-0.023198556154966354,2.0870299339294434
1686425167753159000,0.868158935546875,0.1761428564786911,-0.017555037513375282,1.4505352973937988
1686425167763103700,0.878103759765625,0.27200067043304443,-0.015278300270438194,0.7628520131111145
1686425167773049900,0.8880498046875,0.3351919949054718,-0.0034099395852535963,0.04350368678569794
1686425167782994700,0.89799462890625,0.42318710684776306,0.12010933458805084,-1.0152403116226196
1686425167792940500,0.9079404296875,0.440081924200058,0.3700227439403534,-2.2132139205932617
1686425167802886000,0.917885986328125,0.346649169921875,0.3617919683456421,-3.034722328186035
1686425167812831700,0.927831787109375,0.27269667387008667,0.5340778827667236,-3.136512279510498
1686425167822776800,0.93777685546875,0.23997415602207184,1.0237778425216675,-2.458367347717285
1686425167832722700,0.94772265625,0.23438552021980286,1.5946992635726929,-1.4522730112075806
1686425167842667800,0.957667724609375,0.2846481502056122,1.8930041790008545,-0.5753121972084045
1686425167852613600,0.967613525390625,0.33899956941604614,2.092172145843506,0.002301496220752597
1686425167862558700,0.977558837890625,0.31813985109329224,2.293119430541992,0.3529636263847351
1686425167872504800,0.9875048828125,0.23114952445030212,2.2903270721435547,0.5640650987625122
1686425167882449700,0.99744970703125,0.10853972285985947,2.079103469848633,0.6908912658691406
1686425167892395300,1.007395263671875,0.0012299418449401855,1.800595760345459,0.7114410400390625
1686425167902340000,1.017340087890625,-0.020563505589962006,1.6216404438018799,0.6259967088699341
1686425167912286200,1.0272861328125,0.019288036972284317,1.6823370456695557,0.46467143297195435
1686425167922231300,1.037231201171875,0.1650734692811966,1.5101083517074585,0.21880121529102325
1686425167932177400,1.047177490234375,0.2903192639350891,1.4311274290084839,-0.12809079885482788
1686425167942122200,1.057122314453125,0.3916243016719818,1.4419138431549072,-0.4845554530620575
1686425167952068400,1.067068359375,0.49377262592315674,1.3592983484268188,-0.720430850982666
1686425167962013200,1.07701318359375,0.5197821259498596,1.1247100830078125,-0.7856473922729492
1686425167971959300,1.086959228515625,0.3421860635280609,0.7450007200241089,-0.7584725618362427
1686425167981904400,1.096904296875,0.09475471079349518,0.418815940618515,-0.923569917678833
1686425167991850500,1.1068505859375,-0.06743887066841125,0.30575859546661377,-1.2574822902679443
1686425168001795300,1.11679541015625,-0.03566762059926987,0.2038404941558838,-1.5133228302001953
1686425168011741200,1.1267412109375,0.0650385394692421,0.2112143337726593,-1.1333962678909302
1686425168021686300,1.136686279296875,0.08545033633708954,0.0503799170255661,-0.5439748764038086
1686425168031632100,1.146632080078125,0.02966153994202614,-0.07443934679031372,-0.07440227270126343
1686425168041577200,1.1565771484375,-0.07668594270944595,0.039267782121896744,0.051739953458309174
1686425168051523300,1.1665234375,-0.11664923280477524,0.24110352993011475,-0.2829560339450836
1686425168061468400,1.176468505859375,-0.12159978598356247,0.4012623131275177,-0.7866916656494141
1686425168071414300,1.186414306640625,-0.09086057543754578,0.3179495930671692,-1.25632643699646
1686425168081359400,1.196359375,-0.06762076914310455,0.10362692177295685,-1.6147669553756714
1686425168091305200,1.20630517578125,-0.06538306176662445,-0.15370717644691467,-1.9544436931610107
1686425168101250000,1.21625,-0.1333906203508377,-0.3982625901699066,-2.310854196548462
1686425168111196200,1.226196044921875,-0.3848572075366974,-0.38406383991241455,-2.5657455921173096
1686425168121142300,1.236142333984375,-0.7393561601638794,-0.21163907647132874,-2.5201828479766846
1686425168131087400,1.24608740234375,-1.1239584684371948,-0.19481278955936432,-2.1933698654174805
1686425168141033200,1.256033203125,-1.528458833694458,-0.37920475006103516,-1.751564383506775
1686425168150978300,1.265978271484375,-1.8694945573806763,-0.6644958257675171,-1.3636972904205322
1686425168160924200,1.275924072265625,-2.1903910636901855,-0.7527649402618408,-1.1039930582046509
1686425168170869200,1.285869140625,-2.5277767181396484,-0.641517162322998,-1.0289944410324097
1686425168180815000,1.295815185546875,-2.894636869430542,-0.2752419710159302,-1.146348476409912
1686425168190760400,1.305760498046875,-3.2371885776519775,-0.07776754349470139,-1.3528647422790527
1686425168200706300,1.315706298828125,-3.6178765296936035,-0.38563376665115356,-1.542759656906128
1686425168210651100,1.325651123046875,-4.319310188293457,-0.18895350396633148,-1.5854393243789673
1686425168220597200,1.33559716796875,-5.284618854522705,0.05731566250324249,-1.5831239223480225
1686425168230542000,1.3455419921875,-6.064039707183838,0.3156570792198181,-1.4811275005340576
1686425168240488200,1.35548828125,-6.039000511169434,0.24926874041557312,-1.2820236682891846
1686425168250433300,1.365433349609375,-5.383357048034668,-0.3097136914730072,-0.9986301064491272
1686425168260379400,1.37537939453125,-4.586266994476318,-0.5864877700805664,-0.682059109210968
1686425168270324200,1.38532421875,-3.93709397315979,-0.5375369191169739,-0.4062034785747528
1686425168280270300,1.395270263671875,-3.422470808029175,-0.4271145462989807,-0.2289450764656067
1686425168290215200,1.405215087890625,-3.0392794609069824,-0.30913859605789185,-0.19721254706382751
1686425168300161300,1.415161376953125,-2.700855255126953,-0.2813202738761902,-0.20441773533821106
1686425168310106400,1.4251064453125,-2.3924760818481445,-0.3424205482006073,-0.25111135840415955
1686425168320052500,1.435052490234375,-2.2020654678344727,-0.29543012380599976,-0.27569711208343506
1686425168329997300,1.444997314453125,-2.0908584594726562,-0.16713306307792664,-0.24678510427474976
1686425168339943200,1.454943115234375,-1.9853140115737915,-0.018450651317834854,-0.17137183248996735
1686425168349888300,1.46488818359375,-1.8461793661117554,0.2319680005311966,-0.02386079728603363
1686425168359834000,1.474834228515625,-1.6830785274505615,0.5109383463859558,0.2711798846721649
1686425168369779500,1.484779541015625,-1.5345804691314697,0.8667684197425842,0.6407864689826965
1686425168379725300,1.494725341796875,-1.4718784093856812,1.1616312265396118,1.0080339908599854
1686425168389670400,1.50467041015625,-1.4441132545471191,1.2672003507614136,1.3133788108825684
1686425168399616300,1.5146162109375,-1.364010214805603,1.2460566759109497,1.5437580347061157
1686425168409561000,1.52456103515625,-1.2679723501205444,1.1718244552612305,1.6653887033462524
1686425168419507200,1.534507080078125,-1.1899135112762451,1.2761343717575073,1.7170989513397217
1686425168429452300,1.544452392578125,-1.162334680557251,1.4802868366241455,1.699965238571167
1686425168439398400,1.5543984375,-1.1584376096725464,1.6339576244354248,1.7146581411361694
1686425168449343200,1.56434326171875,-1.2130614519119263,1.6765642166137695,1.7372541427612305
1686425168459289300,1.574289306640625,-1.3810806274414062,1.5939977169036865,1.7555484771728516
1686425168469234200,1.584234130859375,-1.6819860935211182,1.2977477312088013,1.7318297624588013
1686425168479180300,1.59418017578125,-2.08939790725708,0.9273781776428223,1.6836836338043213
1686425168489125400,1.60412548828125,-2.5996992588043213,0.557776927947998,1.6689449548721313
1686425168499071200,1.6140712890625,-3.106334686279297,0.2133292406797409,1.6379204988479614
1686425168509016300,1.624016357421875,-3.5990991592407227,-0.11553753167390823,1.6127231121063232
1686425168518962400,1.63396240234375,-4.077020168304443,-0.41518551111221313,1.5670278072357178
1686425168528907300,1.6439072265625,-4.503522872924805,-0.6489865779876709,1.481153130531311
1686425168538853000,1.65385302734375,-4.872971057891846,-0.7101923823356628,1.358853816986084
1686425168548798200,1.663798095703125,-5.102802276611328,-0.634975790977478,1.261820912361145
1686425168558744300,1.673744384765625,-4.7915425300598145,-0.1840650737285614,1.046713948249817
1686425168568689400,1.683689453125,-4.650083065032959,0.7682127356529236,0.8840673565864563
1686425168578635300,1.69363525390625,-4.507011413574219,1.3218506574630737,0.8416075110435486
1686425168588580400,1.703580322265625,-3.908874988555908,1.3891197443008423,0.8749690651893616
1686425168598526200,1.713526123046875,-2.6149113178253174,1.5326210260391235,0.8116947412490845
1686425168608471000,1.723470947265625,-1.0922305583953857,1.487924575805664,0.8330769538879395
1686425168618417200,1.733417236328125,-0.04425427317619324,1.0269545316696167,0.808364987373352
1686425168628362200,1.7433623046875,0.44873717427253723,0.415632039308548,0.8436110019683838
1686425168638308400,1.753308349609375,0.5977040529251099,-0.01759287901222706,0.8771854639053345
1686425168648253200,1.763253173828125,0.5475897192955017,-0.36324697732925415,0.9267444014549255
1686425168658199300,1.77319921875,0.3402376174926758,-0.8049266338348389,0.9499735236167908
1686425168668144000,1.78314404296875,0.1046554297208786,-0.9998724460601807,0.9409409165382385
1686425168678090200,1.79309033203125,0.09213882684707642,-1.1539943218231201,0.7621147036552429
1686425168688035300,1.803035400390625,0.3018505573272705,-1.1948695182800293,0.45058730244636536
1686425168697981400,1.8129814453125,0.6221473813056946,-1.1874510049819946,0.07117872685194016
1686425168707926300,1.82292626953125,0.8959122896194458,-1.2871079444885254,-0.3495618402957916
1686425168717872400,1.832872314453125,1.0952982902526855,-1.3777192831039429,-0.7738886475563049
1686425168727817200,1.842817138671875,1.1666669845581055,-1.2702655792236328,-1.185437560081482
1686425168737763000,1.85276318359375,1.11232590675354,-1.0319408178329468,-1.5721921920776367
1686425168747708400,1.86270849609375,0.9994134902954102,-0.9761179685592651,-1.9568862915039062
1686425168757654300,1.872654296875,0.8419767022132874,-0.9193763732910156,-2.2539188861846924
1686425168767599400,1.882599365234375,0.6373290419578552,-0.7938248515129089,-2.4239070415496826
1686425168777545200,1.892545166015625,0.4279837906360626,-0.8265556693077087,-2.5159318447113037
1686425168787490300,1.902490234375,0.21452274918556213,-1.0361014604568481,-2.5211904048919678
1686425168797436200,1.912436279296875,0.02952573448419571,-1.3937649726867676,-2.4346158504486084
1686425168807381500,1.922381591796875,-0.12102381885051727,-1.8630809783935547,-2.280207872390747
1686425168817327400,1.932327392578125,-0.22371503710746765,-2.447787046432495,-2.0914883613586426
1686425168827272200,1.942272216796875,-0.3147597312927246,-3.1625821590423584,-1.8758858442306519
1686425168837218300,1.95221826171875,-0.40807265043258667,-4.028720855712891,-1.6192266941070557
1686425168847163100,1.9621630859375,-0.4863490164279938,-4.956407070159912,-1.3119972944259644
1686425168857109200,1.972109130859375,-0.4553159773349762,-5.882543087005615,-0.9496364593505859
1686425168867054300,1.982054443359375,-0.4764128029346466,-6.771941184997559,-0.5334727764129639
1686425168877000400,1.99200048828125,-0.7878863215446472,-7.602995872497559,-0.1308470368385315
1686425168886945000,2.001945068359375,-1.1103750467300415,-8.158682823181152,0.2099432647228241
1686425168896891100,2.01189111328125,-1.2811799049377441,-8.348105430603027,0.4928357005119324
1686425168906836000,2.0218359375,-1.2164700031280518,-8.048177719116211,0.7007157802581787
1686425168916782000,2.031781982421875,-1.0260413885116577,-7.192454814910889,0.8340783715248108
1686425168926728000,2.04172802734375,-0.7342577576637268,-5.894074440002441,0.9341033101081848
1686425168936673000,2.051673095703125,-0.42593666911125183,-4.455326557159424,0.9809941053390503
1686425168946619100,2.061619140625,-0.2494858205318451,-3.2717700004577637,0.8991096615791321
1686425168956564000,2.07156396484375,-0.17234523594379425,-2.4024627208709717,0.7230893969535828
1686425168966510000,2.081510009765625,-0.087506502866745,-1.7313209772109985,0.5130780935287476
1686425168976455000,2.091454833984375,0.07205385714769363,-1.1482641696929932,0.30739739537239075
1686425168986401000,2.101401123046875,0.2593820095062256,-0.4938933849334717,0.07850425690412521
1686425168996346000,2.11134619140625,0.4452360272407532,0.15010236203670502,-0.1319935917854309
1686425169006292200,2.121292236328125,0.6003917455673218,0.7490313053131104,-0.3084948658943176
1686425169016237000,2.131237060546875,0.7269270420074463,1.2796448469161987,-0.46586984395980835
1686425169026183200,2.14118310546875,0.8623804450035095,1.703843355178833,-0.5664553046226501
1686425169036128000,2.1511279296875,0.9097825884819031,2.080033540725708,-0.6742249131202698
1686425169046073900,2.161073974609375,0.827712893486023,2.4020462036132812,-0.8014625310897827
1686425169056019000,2.17101904296875,0.6252694725990295,2.683990955352783,-0.9256792664527893
1686425169065965000,2.180965087890625,0.34006378054618835,2.876305341720581,-1.0122582912445068
1686425169075910100,2.19091015625,0.06956357508897781,2.9551923274993896,-1.0411837100982666
1686425169085856000,2.20085595703125,-0.1248665302991867,2.933868885040283,-1.054787278175354
1686425169095801000,2.210801025390625,-0.3011893630027771,2.860198974609375,-1.0656356811523438
1686425169105747000,2.220746826171875,-0.459198921918869,2.7562477588653564,-1.053617238998413
1686425169115692000,2.230692138671875,-0.5497279763221741,2.589195728302002,-1.012842059135437
1686425169125638000,2.240637939453125,-0.48290446400642395,2.3568689823150635,-0.9189664721488953
1686425169135583000,2.2505830078125,-0.27323299646377563,2.018183946609497,-0.769553005695343
1686425169145529000,2.260529052734375,-0.012309512123465538,1.60989511013031,-0.5670897960662842
1686425169155474000,2.270473876953125,0.20156176388263702,1.224305272102356,-0.3664269745349884
1686425169165420000,2.280419921875,0.3435326814651489,0.9168004989624023,-0.17309808731079102
1686425169175364900,2.29036474609375,0.4054490327835083,0.8475586175918579,0.011968172155320644
1686425169185311000,2.30031103515625,0.3237614929676056,1.6054778099060059,0.24394236505031586
1686425169195256000,2.310256103515625,0.04391064867377281,4.836435317993164,0.24563932418823242
1686425169205202200,2.3202021484375,-0.10119974613189697,7.626763343811035,0.2635093331336975
1686425169215147000,2.33014697265625,0.11664310097694397,8.675344467163086,0.16768665611743927
1686425169225093000,2.340093017578125,0.5889151692390442,8.65997314453125,-0.030001062899827957
1686425169235038000,2.350037841796875,1.0634931325912476,7.844279766082764,-0.1717374175786972
1686425169244983800,2.35998388671875,1.4891338348388672,6.6321821212768555,-0.2301582396030426
1686425169254929200,2.36992919921875,1.963316559791565,5.3523430824279785,-0.6020497679710388
1686425169264875000,2.379875,2.1694867610931396,3.7937958240509033,-1.035408854484558
1686425169274820000,2.389820068359375,1.838104248046875,2.44397234916687,-0.5968999266624451
1686425169284766000,2.399765869140625,1.1723511219024658,1.3450958728790283,0.37580475211143494
1686425169294711000,2.4097109375,0.5858418941497803,0.05675573647022247,0.9746351838111877
1686425169304657000,2.419656982421875,0.17107906937599182,-1.10482656955719,1.2190752029418945
1686425169314602200,2.429602294921875,-0.22186581790447235,-1.9629333019256592,1.280375599861145
1686425169324548000,2.439548095703125,-0.5515651106834412,-2.5076792240142822,1.1847220659255981
1686425169334493000,2.449492919921875,-0.8545423150062561,-2.532853603363037,0.9136357307434082
1686425169344439000,2.45943896484375,-1.1761451959609985,-2.0284993648529053,0.4934940040111542
1686425169354384000,2.4693837890625,-1.3506994247436523,-1.702912449836731,0.1865556389093399
1686425169364330000,2.479330078125,-1.1872479915618896,-1.7770432233810425,0.05187986046075821
1686425169374275000,2.489275146484375,-0.7748801112174988,-2.128783702850342,-0.021193014457821846
1686425169384221200,2.49922119140625,-0.34075266122817993,-2.71812105178833,-0.04426318407058716
1686425169394166000,2.509166015625,-0.122430719435215,-3.3342998027801514,-0.05894891917705536
1686425169404112100,2.519112060546875,-0.19709645211696625,-3.8160696029663086,-0.11566703766584396
1686425169414057000,2.529056884765625,-0.3585743308067322,-4.120182037353516,-0.2626309394836426
1686425169424003000,2.539003173828125,-0.43447092175483704,-4.260002613067627,-0.46171632409095764
1686425169433948200,2.5489482421875,-0.41234031319618225,-4.250344276428223,-0.7079154253005981
1686425169443894000,2.55889404296875,-0.3217396140098572,-4.105134010314941,-0.96353679895401
1686425169453839000,2.568839111328125,-0.22577926516532898,-3.893203020095825,-1.2022780179977417
1686425169463785000,2.578784912109375,-0.190242737531662,-3.654783010482788,-1.412614107131958
1686425169473730000,2.58872998046875,-0.2185465395450592,-3.3319389820098877,-1.5202428102493286
1686425169483676000,2.598676025390625,-0.32318052649497986,-2.8755016326904297,-1.5522913932800293
1686425169493621000,2.60862109375,-0.4084163308143616,-2.3351056575775146,-1.5204579830169678
1686425169503567000,2.618567138671875,-0.45796874165534973,-1.751903772354126,-1.442981481552124
1686425169513512200,2.62851220703125,-0.45376306772232056,-1.1895685195922852,-1.3161793947219849
1686425169523458000,2.6384580078125,-0.4199552536010742,-0.6883575320243835,-1.136529564857483
1686425169533403000,2.64840283203125,-0.3757270574569702,-0.2524068355560303,-0.9272640943527222
1686425169543349000,2.658348876953125,-0.33659476041793823,0.1040947437286377,-0.7193684577941895
1686425169553293800,2.6682939453125,-0.3365481495857239,0.3228074014186859,-0.5092945694923401
1686425169563240000,2.678239990234375,-0.34783878922462463,0.4827766418457031,-0.35510653257369995
1686425169573186000,2.68818603515625,-0.3782323896884918,0.5858031511306763,-0.262526273727417
1686425169583131100,2.698131103515625,-0.4343681335449219,0.6291477680206299,-0.1979689747095108
1686425169593077000,2.708076904296875,-0.48157399892807007,0.6464647054672241,-0.14672283828258514
1686425169603022000,2.71802197265625,-0.5188799500465393,0.6123489737510681,-0.09879248589277267
1686425169612968000,2.727968017578125,-0.5297533869743347,0.5436098575592041,-0.06191995367407799
1686425169622913000,2.7379130859375,-0.5237249135971069,0.46290773153305054,-0.041352175176143646
1686425169632859000,2.74785888671875,-0.516545832157135,0.4039751887321472,-0.04054496809840202
1686425169642804000,2.757803955078125,-0.5207493901252747,0.3776417374610901,-0.04560748115181923
1686425169652750000,2.76775,-0.5540120601654053,0.39499861001968384,-0.008900065906345844
1686425169662695000,2.77769482421875,-0.5894213914871216,0.47098293900489807,0.08709220588207245
1686425169672641000,2.78764111328125,-0.6197129487991333,0.5876451134681702,0.2411116063594818
1686425169682585900,2.7975859375,-0.6194179654121399,0.6893758177757263,0.42947661876678467
1686425169692532000,2.807531982421875,-0.5834400057792664,0.7551702260971069,0.6247054934501648
1686425169702477000,2.81747705078125,-0.5180115699768066,0.7735187411308289,0.7891029119491577
1686425169712423200,2.827423095703125,-0.42601051926612854,0.7758979797363281,0.880619466304779
1686425169722368000,2.837367919921875,-0.3254750072956085,0.8166481256484985,0.9116598963737488
1686425169732314000,2.847314208984375,-0.22161680459976196,0.9155022501945496,0.8731048107147217
1686425169742259000,2.857259033203125,-0.1650814414024353,1.0874487161636353,0.8264433145523071
1686425169752205000,2.867205078125,-0.14328399300575256,1.2950488328933716,0.7921138405799866
1686425169762150100,2.877150146484375,-0.12282150238752365,1.4641913175582886,0.7459211349487305
1686425169772096000,2.887095947265625,-0.098354771733284,1.608587384223938,0.6968510746955872
1686425169782041000,2.897041015625,-0.059873469173908234,1.7923102378845215,0.687719464302063
1686425169791987000,2.906987060546875,-0.0030384170822799206,2.0849971771240234,0.7888405323028564
1686425169801932000,2.91693212890625,0.016810772940516472,2.3764772415161133,1.0271285772323608
1686425169811878000,2.9268779296875,-0.062480054795742035,2.5118796825408936,1.3384054899215698
1686425169821823200,2.9368232421875,-0.12603101134300232,2.4472169876098633,1.6676031351089478
1686425169831769000,2.94676904296875,-0.07978947460651398,2.0853309631347656,1.9120509624481201
1686425169841714000,2.9567138671875,0.06531462073326111,1.5497255325317383,1.979097843170166
1686425169851660000,2.966659912109375,0.239117830991745,1.0767852067947388,1.9064114093780518
1686425169861604900,2.97660498046875,0.37284398078918457,0.7629079818725586,1.7068188190460205
1686425169871551000,2.986551025390625,0.4235724210739136,0.5776576995849609,1.3857492208480835
1686425169881496000,2.99649609375,0.3992691934108734,0.5076181292533875,0.9628699421882629
1686425169891442200,3.006442138671875,0.3487232029438019,0.4890764653682709,0.5146258473396301
1686425169901387300,3.01638720703125,0.34441959857940674,0.4776684045791626,0.07778068631887436
1686425169911333400,3.02633349609375,0.4121754765510559,0.445252388715744,-0.3342936933040619
1686425169921278200,3.0362783203125,0.5589752793312073,0.3623780608177185,-0.7014465928077698
1686425169931224300,3.046224365234375,0.7535820603370667,0.25295010209083557,-1.0020509958267212
1686425169941169200,3.056169189453125,0.9834960103034973,0.13276585936546326,-1.2170002460479736
1686425169951115300,3.066115234375,1.235787272453308,-0.05122474581003189,-1.3383357524871826
1686425169961060400,3.076060302734375,1.4696754217147827,-0.28779906034469604,-1.380812168121338
1686425169971006200,3.086006103515625,1.6619149446487427,-0.5357630848884583,-1.329695701599121
1686425169980951300,3.095951416015625,1.7942602634429932,-0.7112917304039001,-1.1758016347885132
1686425169990897200,3.105897216796875,1.8119630813598633,-0.6408314108848572,-0.8851529359817505
1686425170000842200,3.11584228515625,1.6810493469238281,-0.31739822030067444,-0.5170972943305969
1686425170010788000,3.1257880859375,1.5028090476989746,-0.06374970078468323,-0.20105516910552979
1686425170020733400,3.1357333984375,1.166408896446228,-0.21703295409679413,0.021959565579891205
1686425170030679300,3.14567919921875,0.726459264755249,-0.8972703218460083,0.21882867813110352
1686425170040624400,3.155624267578125,-0.20812411606311798,-2.1116302013397217,0.6475220322608948
1686425170050570200,3.1655703125,-0.9072055220603943,-2.9881443977355957,0.8557447195053101
1686425170060516400,3.175516357421875,-1.3178648948669434,-3.4470767974853516,0.8765604496002197
1686425170070461200,3.185461181640625,-1.3824751377105713,-3.589305877685547,0.8122739195823669
1686425170080407300,3.1954072265625,-0.9938147664070129,-3.250638246536255,0.7623704075813293
1686425170090352400,3.205352294921875,-0.3804091513156891,-2.3924195766448975,0.6580895781517029
1686425170100298200,3.21529833984375,0.16731612384319305,-1.1130149364471436,0.39602595567703247
1686425170110243300,3.225243408203125,0.5277296900749207,0.33239659667015076,-0.04796986281871796
1686425170120189200,3.235189208984375,0.6971870064735413,1.4763550758361816,-0.5487545728683472
1686425170130134300,3.24513427734375,0.7545293569564819,2.256718635559082,-1.0322070121765137
1686425170140080000,3.255080078125,0.6994495987892151,2.718616247177124,-1.4338687658309937
1686425170150025500,3.265025390625,0.5821371078491211,2.9488461017608643,-1.7137364149093628
1686425170159971300,3.274971435546875,0.44034266471862793,3.054586887359619,-1.8699685335159302
1686425170169916400,3.28491650390625,0.3079864978790283,3.0559637546539307,-1.9321938753128052
1686425170179862300,3.2948623046875,0.2298159897327423,2.951392412185669,-1.8764299154281616
1686425170189807000,3.30480712890625,0.20249062776565552,2.754129409790039,-1.7198091745376587
1686425170199753200,3.314753173828125,0.23773638904094696,2.47013783454895,-1.5040403604507446
1686425170209698300,3.3246982421875,0.30566641688346863,2.1646323204040527,-1.2427908182144165
1686425170219644400,3.33464453125,0.37809017300605774,1.9151188135147095,-0.9281359910964966
1686425170229589200,3.34458935546875,0.44855502247810364,1.7591995000839233,-0.5274850130081177
1686425170239535400,3.354535400390625,0.5184933543205261,1.7485820055007935,-0.03216124325990677
1686425170249480200,3.364480224609375,0.5590250492095947,1.9259588718414307,0.5227325558662415
1686425170259426300,3.37442626953125,0.5562416315078735,2.2586588859558105,1.0755010843276978
1686425170269371400,3.384371337890625,0.4945366680622101,2.905540704727173,1.6208622455596924
1686425170279317500,3.3943173828125,0.4515247642993927,3.6721043586730957,2.017007827758789
1686425170289262300,3.404262451171875,0.5171959400177002,4.21703577041626,2.01987886428833
1686425170299208200,3.414208251953125,0.636326014995575,4.408416271209717,1.574931263923645
1686425170309153300,3.4241533203125,0.6091692447662354,4.32720947265625,0.732799768447876
1686425170319099100,3.43409912109375,0.37752556800842285,4.315553188323975,-0.40064042806625366
1686425170329044200,3.444044189453125,0.07848719507455826,4.152740478515625,-1.397992491722107
1686425170338990300,3.453990234375,-0.20356453955173492,3.8144285678863525,-2.0269768238067627
1686425170348935400,3.463935302734375,-0.4040001630783081,3.509361505508423,-2.17505145072937
1686425170358881300,3.47388134765625,-0.42320677638053894,3.4179434776306152,-1.7565689086914062
1686425170368826400,3.483826416015625,-0.08268167078495026,2.4965474605560303,-0.8294406533241272
1686425170378772200,3.493772216796875,0.34868520498275757,0.6963486671447754,-0.6785222887992859
1686425170388717000,3.503717041015625,0.48256656527519226,-1.0158103704452515,-0.7986436486244202
1686425170398663200,3.5136630859375,0.42174282670021057,-2.168072462081909,-0.6954859495162964
1686425170408608300,3.523608154296875,0.24015198647975922,-2.7521300315856934,-0.31319233775138855
1686425170418554400,3.533554443359375,-0.09506659209728241,-3.150308609008789,0.24141457676887512
1686425170428499200,3.543499267578125,-0.5430817008018494,-3.590658664703369,0.7951568961143494
1686425170438445300,3.5534453125,-1.0208485126495361,-4.0717082023620605,1.1137791872024536
1686425170448390100,3.56339013671875,-1.4189798831939697,-4.482096195220947,1.1466569900512695
1686425170458336300,3.573336181640625,-1.6824891567230225,-4.673354148864746,0.9733326435089111
1686425170468281300,3.58328125,-1.7244112491607666,-4.4636030197143555,0.6675588488578796
1686425170478227500,3.5932275390625,-1.5560131072998047,-4.114180564880371,0.40230947732925415
1686425170488173300,3.60317333984375,-1.2383850812911987,-4.041322231292725,0.28046905994415283
1686425170498118100,3.6131181640625,-0.9145026206970215,-4.05653715133667,0.1837020069360733
1686425170508064300,3.623064208984375,-0.6655737161636353,-4.027298927307129,0.048568420112133026
1686425170518009000,3.633009033203125,-0.538688063621521,-3.9755609035491943,-0.1435517966747284
1686425170527955200,3.642955078125,-0.5155487060546875,-3.96846079826355,-0.369942307472229
1686425170537900300,3.652900390625,-0.5304967164993286,-3.997922658920288,-0.6500435471534729
1686425170547846400,3.662846435546875,-0.5306514501571655,-4.089783668518066,-0.9232164621353149
1686425170557791200,3.672791259765625,-0.5032058358192444,-4.259294509887695,-1.2032397985458374
1686425170567737300,3.6827373046875,-0.4251832067966461,-4.507628440856934,-1.4463727474212646
1686425170577682200,3.69268212890625,-0.35279640555381775,-4.715003490447998,-1.629588007926941
1686425170587628300,3.702628173828125,-0.3679734766483307,-4.743429660797119,-1.776921033859253
1686425170597573400,3.712573486328125,-0.48242101073265076,-4.493797779083252,-1.826307773590088
1686425170607519500,3.72251953125,-0.6385922431945801,-4.074233055114746,-1.770126461982727
1686425170617464300,3.73246435546875,-0.811237096786499,-3.6333882808685303,-1.6045002937316895
1686425170627410200,3.74241015625,-0.9580907225608826,-3.2108142375946045,-1.3914247751235962
1686425170637355300,3.752355224609375,-1.0627424716949463,-2.8623807430267334,-1.1738901138305664
1686425170647301000,3.762301025390625,-1.1047568321228027,-2.618333101272583,-0.9485323429107666
1686425170657246500,3.77224658203125,-1.1061292886734009,-2.488770008087158,-0.740967333316803
1686425170667192300,3.7821923828125,-1.0892237424850464,-2.430673360824585,-0.5394089221954346
1686425170677137400,3.792137451171875,-1.0637093782424927,-2.416036367416382,-0.36240723729133606
1686425170687083300,3.802083251953125,-1.034011960029602,-2.4022936820983887,-0.1906847506761551
1686425170697028000,3.812028076171875,-0.9998219609260559,-2.358511209487915,-0.03665900602936745
1686425170706974200,3.82197412109375,-0.9754500389099121,-2.2760865688323975,0.08147242665290833
1686425170716919300,3.831919189453125,-0.9743022322654724,-2.159289836883545,0.14969490468502045
1686425170726865400,3.841865478515625,-1.0074695348739624,-2.046989679336548,0.1499292552471161
1686425170736810200,3.851810302734375,-1.0720912218093872,-1.951181411743164,0.08198978751897812
1686425170746756400,3.86175634765625,-1.157488465309143,-1.8712047338485718,-0.028748977929353714
1686425170756701200,3.871701171875,-1.2528713941574097,-1.8178173303604126,-0.15719521045684814
1686425170766647300,3.881647216796875,-1.3561344146728516,-1.7636749744415283,-0.3055271506309509
1686425170776592100,3.891592041015625,-1.4471110105514526,-1.7256677150726318,-0.46266570687294006
1686425170786538200,3.901538330078125,-1.4932689666748047,-1.7262884378433228,-0.6130160093307495
1686425170796483300,3.9114833984375,-1.453883171081543,-1.7674943208694458,-0.7328008413314819
1686425170806429400,3.921429443359375,-1.3120964765548706,-1.8479255437850952,-0.8164861798286438
1686425170816374300,3.931374267578125,-1.1135780811309814,-1.9308139085769653,-0.8517639636993408
1686425170826320100,3.941320068359375,-0.9188538789749146,-1.9669109582901,-0.8427611589431763
1686425170836265200,3.95126513671875,-0.7767302989959717,-1.9037343263626099,-0.7943221926689148
1686425170846211000,3.961211181640625,-0.7137505412101746,-1.7214007377624512,-0.7167051434516907
1686425170856156400,3.971156494140625,-0.7050321698188782,-1.4249109029769897,-0.6459774374961853
1686425170866102300,3.981102294921875,-0.7668462991714478,-1.044577717781067,-0.6009237170219421
1686425170876048400,3.99104833984375,-0.9026069045066833,-0.6294429302215576,-0.5667789578437805
1686425170885993200,4.0009931640625,-1.025038480758667,-0.2280760556459427,-0.560912549495697
1686425170895939000,4.01093896484375,-0.9632803201675415,0.20791663229465485,-0.6166297197341919
1686425170905884000,4.0208837890625,-0.8630295991897583,0.850965142250061,-0.6805961728096008
1686425170915830000,4.030830078125,-0.996152400970459,1.732437252998352,-0.5769210457801819
1686425170925775000,4.040775146484375,-1.4465152025222778,2.6216816902160645,-0.28729239106178284
1686425170935721200,4.05072119140625,-2.0523059368133545,2.6950929164886475,-0.11933870613574982
1686425170945666000,4.060666015625,-2.3145666122436523,1.6602725982666016,-0.18816198408603668
1686425170955612200,4.070612060546875,-1.9982357025146484,0.25505363941192627,-0.16208229959011078
1686425170965557000,4.080556884765625,-0.8950532674789429,-1.0474225282669067,-0.08976175636053085
1686425170975503000,4.090503173828125,0.17165197432041168,-2.170121908187866,-0.2426324039697647
1686425170985448200,4.1004482421875,0.7312140464782715,-2.848705768585205,-0.5115219354629517
1686425170995394000,4.11039404296875,0.8279494047164917,-2.911806344985962,-0.7603482604026794
1686425171005339100,4.120339111328125,0.6511437296867371,-2.688110589981079,-0.969656229019165
1686425171015285000,4.130284912109375,0.40861448645591736,-2.3807151317596436,-1.1224117279052734
1686425171025230000,4.14022998046875,0.21263380348682404,-2.0010366439819336,-1.1409587860107422
1686425171035176000,4.150176025390625,-0.09356667101383209,-1.6860982179641724,-1.0066912174224854
1686425171045121300,4.160121337890625,-0.3590007424354553,-1.5434118509292603,-0.699082612991333
1686425171055067100,4.170067138671875,-0.6977422833442688,-1.5709296464920044,-0.18422794342041016
1686425171065012200,4.18001220703125,-1.1503175497055054,-1.7016685009002686,0.47410866618156433
1686425171074958000,4.1899580078125,-1.4027432203292847,-2.0967230796813965,1.1966862678527832
1686425171084903000,4.19990283203125,-1.1944140195846558,-2.7633056640625,1.8451482057571411
1686425171094849000,4.20984912109375,-0.6196781396865845,-3.27754545211792,2.3673501014709473
1686425171104794000,4.219794189453125,0.023432910442352295,-2.8553383350372314,2.832426071166992
1686425171114740200,4.229740234375,0.6040483117103577,-1.3099887371063232,3.2621920108795166
1686425171124685000,4.23968505859375,1.1081202030181885,1.205046534538269,3.568924903869629
1686425171134631200,4.249631103515625,1.4846924543380737,3.8329195976257324,3.5822174549102783
1686425171144576000,4.259575927734375,1.7113234996795654,5.5019001960754395,3.12734055519104
1686425171154522000,4.269522216796875,1.7616163492202759,6.587372779846191,2.4811348915100098
1686425171164468000,4.279468017578125,1.8945504426956177,7.404155254364014,1.849997639656067
1686425171174413300,4.289413330078125,2.2481513023376465,7.765681743621826,1.225294589996338
1686425171184359200,4.299359130859375,2.703165054321289,7.630867004394531,0.6035190224647522
1686425171194304000,4.309303955078125,3.116589307785034,7.263589859008789,0.07992778718471527
1686425171204250000,4.31925,3.414459705352783,6.873556137084961,-0.25819724798202515
1686425171214195000,4.32919482421875,3.4964866638183594,6.576295375823975,-0.3768121302127838
1686425171224141000,4.33914111328125,3.352992534637451,6.316874980926514,-0.3760310113430023
1686425171234086100,4.349086181640625,3.136496067047119,6.0082526206970215,-0.2585129737854004
1686425171244032300,4.3590322265625,2.9001331329345703,5.651831150054932,-0.08835934847593307
1686425171253977000,4.36897705078125,2.639127254486084,5.382323265075684,0.1054534837603569
1686425171263923200,4.378923095703125,2.3479981422424316,5.251430988311768,0.3084297478199005
1686425171273868000,4.388867919921875,2.148838758468628,5.125779151916504,0.4558659493923187
1686425171283814100,4.398814208984375,2.0259056091308594,4.831334114074707,0.5666812062263489
1686425171293759200,4.40875927734375,1.8448796272277832,4.285154819488525,0.6769130825996399
1686425171303705000,4.418705078125,1.6664012670516968,3.5614709854125977,0.7581360340118408
1686425171313650200,4.428650146484375,1.4565653800964355,2.7487218379974365,0.8209670186042786
1686425171323596000,4.438595947265625,1.1469563245773315,2.1972546577453613,1.039488673210144
1686425171333541000,4.448541015625,0.8039746880531311,2.0998096466064453,1.4691450595855713
1686425171343487000,4.458487060546875,0.5500100255012512,2.5428314208984375,1.9631931781768799
1686425171353432000,4.46843212890625,0.4103683829307556,3.116663694381714,2.399515390396118
1686425171363378000,4.4783779296875,0.3801705241203308,3.505702495574951,2.653059482574463
1686425171373323300,4.4883232421875,0.44107961654663086,3.6376376152038574,2.6627111434936523
1686425171383269000,4.49826904296875,0.4993751645088196,3.61848783493042,2.4484729766845703
1686425171393214000,4.5082138671875,0.41124531626701355,3.911658763885498,1.9045443534851074
1686425171403160000,4.51816015625,-0.07670541852712631,5.387846946716309,0.525225043296814
1686425171413105000,4.52810498046875,-0.6678224205970764,6.257923603057861,-0.8072527050971985
1686425171423051000,4.538051025390625,-0.7894729375839233,5.832056045532227,-1.3864662647247314
1686425171432996000,4.54799609375,-0.5761176347732544,4.437658309936523,-1.5019649267196655
1686425171442942200,4.557942138671875,0.09198585152626038,2.0262186527252197,-1.2812634706497192
1686425171452887000,4.567886962890625,0.5007620453834534,-0.5930124521255493,-0.8435166478157043
1686425171462833200,4.577833251953125,0.5803338289260864,-2.4541239738464355,-0.49290698766708374
1686425171472778000,4.587778076171875,0.567427396774292,-3.5518672466278076,-0.37642714381217957
1686425171482724000,4.59772412109375,0.5727182626724243,-3.9058609008789062,-0.33864009380340576
1686425171492669200,4.607669189453125,0.4135487377643585,-3.7968313694000244,-0.22958052158355713
1686425171502615300,4.617615234375,0.1629711240530014,-3.535665512084961,-0.009981309995055199
1686425171512561200,4.62756103515625,-0.1621217578649521,-3.1856439113616943,0.2217964082956314
1686425171522506000,4.637506103515625,-0.5410802364349365,-2.7186691761016846,0.38364148139953613
1686425171532452000,4.6474521484375,-0.8499872088432312,-2.5370750427246094,0.3411283493041992
1686425171542397000,4.65739697265625,-1.0263755321502686,-2.6460087299346924,0.10237223654985428
1686425171552343000,4.667343017578125,-1.1226125955581665,-2.936753511428833,-0.24445639550685883
1686425171562288000,4.6772880859375,-1.0984982252120972,-3.223068952560425,-0.5778825283050537
1686425171572234200,4.687234130859375,-1.0023702383041382,-3.2926089763641357,-0.8438363075256348
1686425171582179000,4.697178955078125,-0.9624898433685303,-3.138697624206543,-0.9989555478096008
1686425171592125200,4.707125244140625,-1.0302399396896362,-2.961311101913452,-1.0498994588851929
1686425171602070000,4.717070068359375,-1.1334240436553955,-2.9406192302703857,-1.0338484048843384
1686425171612016000,4.72701611328125,-1.2042803764343262,-3.036451578140259,-0.9799045324325562
1686425171621961200,4.736961181640625,-1.1519901752471924,-3.2128076553344727,-0.9751308560371399
1686425171631907300,4.7469072265625,-1.002835750579834,-3.362001895904541,-1.0167148113250732
1686425171641852200,4.75685205078125,-0.8670361042022705,-3.4807844161987305,-1.0760383605957031
1686425171651798000,4.766798095703125,-0.7746085524559021,-3.5824365615844727,-1.1172484159469604
1686425171661743000,4.7767431640625,-0.7341383099555969,-3.658048391342163,-1.1549075841903687
1686425171671689000,4.78668896484375,-0.712469220161438,-3.6945557594299316,-1.1917531490325928
1686425171681634300,4.79663427734375,-0.7157065272331238,-3.6491785049438477,-1.1872879266738892
1686425171691580200,4.806580078125,-0.762431800365448,-3.487581491470337,-1.1227227449417114
1686425171701525200,4.816525146484375,-0.8545466065406799,-3.245150089263916,-1.0145241022109985
1686425171711471000,4.82647119140625,-0.9678662419319153,-2.9415595531463623,-0.8798960447311401
1686425171721416000,4.836416015625,-1.0930191278457642,-2.6496713161468506,-0.7219223976135254
1686425171731362000,4.846362060546875,-1.2124981880187988,-2.4096617698669434,-0.5643802285194397
1686425171741307100,4.85630712890625,-1.2982401847839355,-2.2457082271575928,-0.42218494415283203
1686425171751253200,4.866253173828125,-1.316257357597351,-2.138507127761841,-0.28523004055023193
1686425171761198000,4.876197998046875,-1.2917850017547607,-2.060004711151123,-0.15640120208263397
1686425171771144200,4.886144287109375,-1.2518911361694336,-2.001762866973877,-0.045959390699863434
1686425171781089000,4.896089111328125,-1.1844425201416016,-1.959646224975586,0.04553883150219917
1686425171791035100,4.90603515625,-1.0879448652267456,-1.8540302515029907,0.17368827760219574
1686425171800980000,4.91597998046875,-1.0040830373764038,-1.7204852104187012,0.28916823863983154
1686425171810926000,4.925926025390625,-1.001840353012085,-1.5855238437652588,0.3252417743206024
1686425171820872200,4.9358720703125,-1.062754511833191,-1.4118369817733765,0.2616356313228607
1686425171830817300,4.9458173828125,-1.1461094617843628,-1.2005482912063599,0.13050290942192078
1686425171840763100,4.95576318359375,-1.2274999618530273,-1.0273501873016357,-0.043911248445510864
1686425171850708000,4.9657080078125,-1.272641658782959,-0.9072902798652649,-0.21157307922840118
1686425171860654000,4.975654052734375,-1.2772190570831299,-0.8257056474685669,-0.37231162190437317
1686425171870599000,4.985598876953125,-1.2380200624465942,-0.7739668488502502,-0.5103033185005188
1686425171880545000,4.995544921875,-1.148449420928955,-0.7270938754081726,-0.629615068435669
1686425171890490000,5.005489990234375,-1.0305790901184082,-0.6717001795768738,-0.7364394664764404
1686425171900436200,5.015436279296875,-0.91786128282547,-0.5954248309135437,-0.8278833627700806
1686425171910381000,5.025381103515625,-0.8379560708999634,-0.5011085867881775,-0.8733924031257629
1686425171920327200,5.0353271484375,-0.8126911520957947,-0.25008252263069153,-0.8073606491088867
1686425171930272000,5.04527197265625,-0.8618772029876709,0.2136744111776352,-0.5980264544487
1686425171940218000,5.055218017578125,-0.9020959734916687,0.7362539768218994,-0.30550748109817505
1686425171950163200,5.0651630859375,-0.8404701352119446,1.296120047569275,0.009880412369966507
1686425171960109300,5.075109375,-0.6790034770965576,1.8148123025894165,0.24489825963974
1686425171970054100,5.08505419921875,-0.4472590982913971,2.2138614654541016,0.3854416012763977
1686425171980000300,5.095000244140625,-0.10457499325275421,2.433473587036133,0.4198531210422516
1686425171989945000,5.104945068359375,0.2310391366481781,2.347012519836426,0.27733302116394043
1686425171999891000,5.114890869140625,0.5168024301528931,2.254931926727295,0.07584812492132187
1686425172009836300,5.124836181640625,0.6987043619155884,2.2918431758880615,-0.0589202344417572
1686425172019782100,5.1347822265625,0.8019021153450012,2.4285380840301514,-0.105633944272995
1686425172029727200,5.144727294921875,0.8069875240325928,2.602829694747925,-0.11494999378919601
1686425172039673000,5.154673095703125,0.6582577228546143,2.856559991836548,-0.02470211870968342
1686425172049618200,5.1646181640625,0.34305909276008606,3.118739604949951,0.20471784472465515
1686425172059564000,5.17456396484375,0.2872445583343506,2.823322057723999,0.27766209840774536
1686425172069510100,5.18451025390625,0.44822895526885986,1.9456689357757568,0.12566949427127838
1686425172079455200,5.194455322265625,0.57045978307724,1.2375397682189941,0.009322905912995338
1686425172089401300,5.2044013671875,0.6208027601242065,0.78910231590271,-0.0266954954713583
1686425172099346200,5.21434619140625,0.652525782585144,0.40284278988838196,0.015467938035726547
1686425172109292000,5.2242919921875,0.6858789920806885,-0.02441534586250782,0.11155011504888535
1686425172119237000,5.234237060546875,0.732010006904602,-0.5196709036827087,0.2646869421005249
1686425172129183000,5.244182861328125,0.8011531829833984,-1.0320682525634766,0.41571488976478577
1686425172139128300,5.25412841796875,0.8925158381462097,-1.4442873001098633,0.5343419313430786
1686425172149074200,5.26407421875,0.9599835872650146,-1.8100911378860474,0.624984622001648
1686425172159019300,5.274019287109375,1.01626718044281,-2.1450095176696777,0.7019768357276917
1686425172168965000,5.283965087890625,1.0511550903320312,-2.3460049629211426,0.7883799076080322
1686425172178910200,5.29391015625,1.077552080154419,-2.354403257369995,0.8886314034461975
1686425172188856000,5.30385595703125,1.0873254537582397,-2.182046890258789,1.0025551319122314
1686425172198801200,5.31380126953125,1.0685739517211914,-1.8843241930007935,1.1162878274917603
1686425172208747300,5.323747314453125,1.032060980796814,-1.5165616273880005,1.1986230611801147
1686425172218692000,5.333692138671875,0.9996345639228821,-1.1238175630569458,1.2271308898925781
1686425172228638200,5.34363818359375,0.9315459728240967,-0.7926169633865356,1.1881355047225952
1686425172238583000,5.3535830078125,0.8402349352836609,-0.479718416929245,1.087734341621399
1686425172248529200,5.363529052734375,0.7415270805358887,-0.16011860966682434,0.9879611134529114
1686425172258474000,5.373473876953125,0.6034693121910095,0.17847782373428345,0.921413779258728
1686425172268420000,5.383420166015625,0.3898928463459015,0.5254701375961304,0.877371072769165
1686425172278365200,5.393365234375,0.07602360844612122,0.8297725319862366,0.8401411771774292
1686425172288311300,5.403311279296875,0.11299548298120499,1.138943076133728,0.8365686535835266
1686425172298256100,5.413256103515625,0.2563188076019287,1.4267996549606323,0.8349965810775757
1686425172308202200,5.4232021484375,0.3629477620124817,1.7377475500106812,0.7541964650154114
1686425172318147000,5.43314697265625,0.40099579095840454,2.0926103591918945,0.5885508060455322
1686425172328093000,5.443093017578125,0.4263608455657959,2.4219868183135986,0.40256354212760925
1686425172338038300,5.453038330078125,0.44179174304008484,2.631739616394043,0.23224401473999023
1686425172347984100,5.462984130859375,0.4030379056930542,2.791801691055298,0.07916354387998581
1686425172357930200,5.47293017578125,0.3237699866294861,2.943732976913452,-0.06317202746868134
1686425172367875000,5.482875,0.23826900124549866,3.0758755207061768,-0.17824071645736694
1686425172377821200,5.4928212890625,0.1550753116607666,3.167607307434082,-0.3034425675868988
1686425172387766000,5.50276611328125,0.1131928414106369,3.1826024055480957,-0.4167720675468445
1686425172397712100,5.512712158203125,0.13535381853580475,3.077540636062622,-0.49999478459358215
1686425172407657200,5.5226572265625,0.21500682830810547,2.8787665367126465,-0.5221548676490784
1686425172417603300,5.532603271484375,0.3565833866596222,2.626134157180786,-0.48516592383384705
1686425172427548200,5.542548095703125,0.542042076587677,2.3752968311309814,-0.41156885027885437
1686425172437494000,5.552493896484375,0.7303760051727295,2.138535261154175,-0.30706268548965454
1686425172447439000,5.562439208984375,0.8598034977912903,2.039158344268799,-0.17924195528030396
1686425172457385000,5.572385009765625,0.8823766708374023,2.312248706817627,0.022487698122859
1686425172467330300,5.582330322265625,0.7970583438873291,3.2714946269989014,0.3494575321674347
1686425172477276200,5.592276123046875,0.556096613407135,5.1780805587768555,0.8248166441917419
1686425172487221200,5.60222119140625,0.22521817684173584,7.381419658660889,1.2553801536560059
1686425172497167000,5.6121669921875,0.14788557589054108,8.090353012084961,1.117284893989563
1686425172507112200,5.6221123046875,-0.021394100040197372,7.803097248077393,0.49649566411972046
1686425172517058000,5.63205810546875,-0.3031352460384369,7.069200038909912,-0.1508103907108307
1686425172527003100,5.642003173828125,-0.43109244108200073,6.475006580352783,-0.6167226433753967
1686425172536949200,5.65194921875,-0.3986380994319916,6.136940002441406,-0.6969178915023804
1686425172546894000,5.66189404296875,-0.3387492597103119,5.100359916687012,0.04989510029554367
1686425172556840200,5.671840087890625,-0.23081427812576294,3.031856060028076,0.4948435425758362
1686425172566785000,5.681784912109375,-0.043645042926073074,0.7958337068557739,-0.0558074526488781
1686425172576731100,5.691731201171875,0.14856834709644318,-1.1399964094161987,-0.880579948425293
1686425172586676200,5.70167626953125,0.17011666297912598,-2.7066097259521484,-1.362945318222046
1686425172596622300,5.711622314453125,0.07522957772016525,-3.9412405490875244,-1.2940077781677246
1686425172606568200,5.721568115234375,-0.13356545567512512,-4.957242965698242,-0.9328594207763672
1686425172616513300,5.73151318359375,-0.47093522548675537,-5.8674774169921875,-0.5598581433296204
1686425172626459100,5.741459228515625,-0.9282039999961853,-6.493572235107422,-0.3880625367164612
1686425172636404000,5.751404052734375,-1.4238576889038086,-6.6043009757995605,-0.40868738293647766
1686425172646350000,5.76135009765625,-1.840318202972412,-6.325148105621338,-0.49744874238967896
1686425172656295200,5.771295166015625,-2.0465493202209473,-5.81767463684082,-0.5355119705200195
1686425172666241300,5.7812412109375,-1.9810667037963867,-5.467201232910156,-0.4263503849506378
1686425172676186000,5.79118603515625,-1.7899556159973145,-5.316234588623047,-0.27900275588035583
1686425172686132200,5.80113232421875,-1.5568944215774536,-5.102426052093506,-0.20568855106830597
1686425172696077000,5.8110771484375,-1.34153151512146,-4.861286640167236,-0.2312525063753128
1686425172706023200,5.821023193359375,-1.1643048524856567,-4.533560276031494,-0.32665199041366577
1686425172715968300,5.83096826171875,-1.0053505897521973,-4.352089881896973,-0.4884986877441406
1686425172725914000,5.8409140625,-0.8711522221565247,-4.387094020843506,-0.671596884727478
1686425172735859200,5.850859130859375,-0.7610675692558289,-4.571189880371094,-0.8700172901153564
1686425172745805300,5.860805419921875,-0.698241114616394,-4.810644626617432,-1.0714048147201538
1686425172755750100,5.870750244140625,-0.619046688079834,-5.090210437774658,-1.2058749198913574
1686425172765696000,5.880696044921875,-0.5574784278869629,-5.201627731323242,-1.270047664642334
1686425172775641000,5.89064111328125,-0.4990942180156708,-5.080722332000732,-1.2616302967071533
1686425172785587200,5.900587158203125,-0.5004454255104065,-4.77821683883667,-1.171973466873169
1686425172795532300,5.9105322265625,-0.5795974731445312,-4.372406959533691,-1.0272479057312012
1686425172805478100,5.92047802734375,-0.7467135787010193,-3.9340896606445312,-0.9019129872322083
1686425172815423200,5.93042333984375,-0.9506776332855225,-3.508124828338623,-0.8104099631309509
1686425172825369000,5.940369140625,-1.1189676523208618,-3.156846284866333,-0.7447457909584045
1686425172835314000,5.95031396484375,-1.2298132181167603,-2.8244030475616455,-0.6892353892326355
1686425172845260000,5.960260009765625,-1.283774971961975,-2.524348497390747,-0.6331697106361389
1686425172855205000,5.970205078125,-1.2792390584945679,-2.217350721359253,-0.5517094731330872
1686425172865151200,5.980151123046875,-1.205067753791809,-1.8850317001342773,-0.42452576756477356
1686425172875097000,5.99009716796875,-1.1236882209777832,-1.521493911743164,-0.24764499068260193
1686425172885042200,6.000042236328125,-1.0686712265014648,-1.202683687210083,-0.10649857670068741
1686425172894988300,6.00998828125,-1.054830551147461,-0.9781866669654846,-0.05459277331829071
1686425172904933000,6.01993310546875,-1.1082954406738281,-0.8098289370536804,-0.11992587149143219
1686425172914879200,6.029879150390625,-1.1871527433395386,-0.7127388715744019,-0.2508407533168793
1686425172924824300,6.03982421875,-1.2762248516082764,-0.7048474550247192,-0.41173431277275085
1686425172934770400,6.0497705078125,-1.3633701801300049,-0.7665422558784485,-0.5867519378662109
1686425172944715300,6.05971533203125,-1.4267841577529907,-0.8729376196861267,-0.7818448543548584
1686425172954661000,6.0696611328125,-1.4059257507324219,-1.029227375984192,-0.98414546251297
1686425172964606200,6.079606201171875,-1.298511028289795,-1.2190947532653809,-1.1736478805541992
1686425172974552000,6.089552001953125,-1.1218289136886597,-1.424986481666565,-1.3246259689331055
1686425172984497400,6.099497314453125,-0.8999494314193726,-1.5714142322540283,-1.4261263608932495
1686425172994443300,6.109443359375,-0.6869229078292847,-1.5761277675628662,-1.481547474861145
1686425173004388400,6.119388427734375,-0.5309348702430725,-1.3997442722320557,-1.5012208223342896
1686425173014334200,6.129334228515625,-0.47027522325515747,-1.0414793491363525,-1.4957267045974731
1686425173024279000,6.139279052734375,-0.5372071266174316,-0.528790295124054,-1.4479434490203857
1686425173034225200,6.14922509765625,-0.7009902000427246,0.06951573491096497,-1.3481955528259277
1686425173044170200,6.159170166015625,-0.9061108827590942,0.6759317517280579,-1.1848689317703247
1686425173054116400,6.169116455078125,-1.0885651111602783,1.1682851314544678,-0.9704064726829529
1686425173064061200,6.179061279296875,-1.202393889427185,1.3805172443389893,-0.7472929358482361
1686425173074007300,6.18900732421875,-1.2351661920547485,1.3803657293319702,-0.5232545137405396
1686425173083952000,6.1989521484375,-1.2013331651687622,1.2554924488067627,-0.3195590078830719
1686425173093898200,6.208898193359375,-1.1394413709640503,1.0906199216842651,-0.15906119346618652
1686425173103843300,6.21884326171875,-1.18195641040802,1.0160480737686157,-0.01617390476167202
1686425173113789400,6.22878955078125,-2.412879467010498,1.342458724975586,0.547608494758606
1686425173123735300,6.2387353515625,-2.8402211666107178,2.409825325012207,1.7770837545394897
1686425173133680400,6.248680419921875,-2.1513123512268066,2.2012104988098145,2.4122438430786133
1686425173143626200,6.258626220703125,-1.0878175497055054,0.8271520137786865,2.2549800872802734
1686425173153571000,6.268571044921875,-0.31316426396369934,-0.5943629145622253,1.6956363916397095
1686425173163517200,6.27851708984375,0.12426728010177612,-1.1851409673690796,1.193314552307129
1686425173173462300,6.288462158203125,0.2868439257144928,-1.1601005792617798,0.7910643219947815
1686425173183408400,6.298408447265625,0.36339929699897766,-0.6661797165870667,0.599620521068573
1686425173193353200,6.308353271484375,0.41428616642951965,0.21585044264793396,0.6429325938224792
1686425173203299300,6.31829931640625,0.5791320204734802,1.3314058780670166,0.8601312637329102
1686425173213244200,6.328244140625,0.934051513671875,2.213165044784546,1.0828344821929932
1686425173223190300,6.338190185546875,1.3758423328399658,2.7215044498443604,1.1999701261520386
1686425173233135000,6.348135009765625,1.7901535034179688,3.0859692096710205,1.2231793403625488
1686425173243081200,6.358081298828125,2.1367948055267334,3.437072515487671,1.1674071550369263
1686425173253026300,6.3680263671875,2.417398452758789,3.8208048343658447,1.0881706476211548
1686425173262972200,6.37797216796875,2.622861862182617,4.374197006225586,1.094860553741455
1686425173272917200,6.387917236328125,2.817683219909668,5.136231422424316,1.24542236328125
1686425173282863000,6.397863037109375,3.0043537616729736,5.946735382080078,1.3976125717163086
1686425173292808200,6.40780810546875,3.1333718299865723,6.380707263946533,1.299727201461792
1686425173302754000,6.417754150390625,3.1601431369781494,6.390130519866943,0.9371414184570312
1686425173312699400,6.427699462890625,3.1361336708068848,6.279555320739746,0.5275379419326782
1686425173322645200,6.437645263671875,3.0637166500091553,6.1913886070251465,0.1611267328262329
1686425173332590300,6.44759033203125,2.9519686698913574,6.081523895263672,-0.14613600075244904
1686425173342536200,6.4575361328125,2.8137903213500977,5.974791526794434,-0.40108048915863037
1686425173352482300,6.467482421875,2.715059518814087,5.825333595275879,-0.6075628399848938
1686425173362427100,6.47742724609375,2.67573881149292,5.575010299682617,-0.7693992257118225
1686425173372373200,6.487373291015625,2.670742988586426,5.21145486831665,-0.8719362616539001
1686425173382318300,6.497318359375,2.670292615890503,4.800060272216797,-0.9268069863319397
1686425173392264200,6.50726416015625,2.6419997215270996,4.388487815856934,-0.9342233538627625
1686425173402209300,6.517209228515625,2.5871894359588623,3.9962515830993652,-0.8888981938362122
1686425173412155100,6.527155029296875,2.515852212905884,3.6064605712890625,-0.801716685295105
1686425173422100200,6.537100341796875,2.4219448566436768,3.206926107406616,-0.6660664677619934
1686425173432046000,6.547046142578125,2.2138113975524902,2.702854633331299,-0.4598925709724426
1686425173441991400,6.556991455078125,1.9630204439163208,2.1054961681365967,-0.21518442034721375
1686425173451937300,6.566937255859375,1.6216181516647339,1.459762692451477,0.05620875209569931
1686425173461882000,6.576882080078125,1.2072231769561768,0.7866639494895935,0.3240106999874115
1686425173471828200,6.586828125,0.6668563485145569,0.04388699308037758,0.5893997550010681
1686425173481773000,6.59677294921875,-0.05247407406568527,-0.5320284366607666,0.7766597270965576
1686425173491719200,6.60671923828125,-0.6489401459693909,-0.7039876580238342,0.7662276029586792
1686425173501664300,6.616664306640625,-0.9097285866737366,-0.5995299220085144,0.6139730215072632
1686425173511610400,6.6266103515625,-0.8723703026771545,-0.2559534013271332,0.500946581363678
1686425173521555200,6.63655517578125,-0.6784326434135437,0.47385263442993164,0.6567406058311462
1686425173531501300,6.646501220703125,-0.4965803027153015,1.5231250524520874,1.0826493501663208
1686425173541446100,6.656446044921875,-0.47957566380500793,2.419769287109375,1.5050289630889893
1686425173551392300,6.666392333984375,-0.4505922198295593,2.645673990249634,1.638108491897583
1686425173561337300,6.67633740234375,-0.4004151523113251,2.5793185234069824,1.3732564449310303
1686425173571283500,6.686283447265625,-0.5390901565551758,3.604907274246216,0.2261575162410736
1686425173581229300,6.696229248046875,-0.6752004623413086,4.406919479370117,-1.0655065774917603
1686425173591174100,6.706174072265625,-0.47320234775543213,4.278759956359863,-1.8614360094070435
1686425173601120300,6.716120361328125,-0.11890698224306107,3.609891176223755,-2.1057469844818115
1686425173611065000,6.726065185546875,0.21131274104118347,2.754594326019287,-1.5104128122329712
1686425173621011200,6.73601123046875,0.5731295943260193,1.2918400764465332,-0.5807797908782959
1686425173630956300,6.745956298828125,0.9466592073440552,-0.887359082698822,-0.10097003728151321
1686425173640902400,6.75590234375,1.0358836650848389,-3.027466058731079,0.013006297871470451
1686425173650847200,6.76584716796875,0.9166539907455444,-4.321560859680176,0.07922286540269852
1686425173660793300,6.77579345703125,0.6779630780220032,-4.828044891357422,0.3723289668560028
1686425173670738200,6.78573828125,0.22389435768127441,-4.848718643188477,0.7402156591415405
1686425173680684300,6.795684326171875,-0.3846683204174042,-4.576521873474121,0.8760460615158081
1686425173690629000,6.805629150390625,-0.9955993294715881,-4.173698425292969,0.7025583982467651
1686425173700575200,6.8155751953125,-1.455078363418579,-3.8125336170196533,0.33690524101257324
1686425173710520300,6.825520263671875,-1.7075982093811035,-3.658233165740967,-0.19684919714927673
1686425173720466200,6.835466064453125,-1.6613508462905884,-3.560487985610962,-0.6928918361663818
1686425173730411300,6.845411376953125,-1.417704463005066,-3.4437615871429443,-1.0775622129440308
1686425173740357000,6.855357177734375,-1.1580232381820679,-3.240877628326416,-1.359243392944336
1686425173750302200,6.86530224609375,-0.9607555866241455,-3.0175235271453857,-1.51024329662323
1686425173760248000,6.875248046875,-0.7882755994796753,-2.872199058532715,-1.5349513292312622
1686425173770193400,6.885193359375,-0.6158910989761353,-2.7907848358154297,-1.5132676362991333
1686425173780139300,6.89513916015625,-0.48632141947746277,-2.7127461433410645,-1.4980041980743408
1686425173790084000,6.905083984375,-0.44040346145629883,-2.6512091159820557,-1.5067921876907349
1686425173800030200,6.9150302734375,-0.4382053017616272,-2.6793510913848877,-1.539400577545166
1686425173809976300,6.924976318359375,-0.4454997181892395,-2.7593631744384766,-1.5704309940338135
1686425173819921200,6.934921142578125,-0.44152599573135376,-2.7970643043518066,-1.5506490468978882
1686425173829867000,6.944866943359375,-0.4547707140445709,-2.7634387016296387,-1.4459519386291504
1686425173839812400,6.954812255859375,-0.5053755044937134,-2.6779396533966064,-1.2531007528305054
1686425173849758200,6.96475830078125,-0.5807728171348572,-2.54667067527771,-0.9959468841552734
1686425173859703300,6.974703369140625,-0.6785260438919067,-2.363391876220703,-0.731814980506897
1686425173869649200,6.984649169921875,-0.8049814701080322,-2.1480069160461426,-0.5032395720481873
1686425173879594200,6.99459423828125,-0.923370361328125,-1.9472413063049316,-0.3060494661331177
1686425173889540000,7.0045400390625,-1.0013501644134521,-1.8102748394012451,-0.1371869146823883
1686425173899485400,7.0144853515625,-1.0356553792953491,-1.7516536712646484,0.00361420726403594
1686425173909431600,7.024431640625,-1.0361984968185425,-1.7348414659500122,0.12573425471782684
1686425173919376400,7.03437646484375,-1.0332870483398438,-1.74151611328125,0.22802920639514923
1686425173929322500,7.044322509765625,-1.0187650918960571,-1.7583979368209839,0.31442612409591675
1686425173939267300,7.054267333984375,-0.9867966771125793,-1.7695868015289307,0.38294851779937744
1686425173949213400,7.06421337890625,-0.9500394463539124,-1.7995306253433228,0.43060311675071716
1686425173959158500,7.074158447265625,-0.9608784914016724,-1.843828797340393,0.4270561933517456
1686425173969104400,7.0841044921875,-1.02207612991333,-1.8620333671569824,0.36775317788124084
1686425173979049500,7.094049560546875,-1.1211756467819214,-1.8198603391647339,0.24635572731494904
1686425173988995300,7.103995361328125,-1.2095199823379517,-1.7330000400543213,0.09903153032064438
1686425173998941400,7.11394140625,-1.2632166147232056,-1.6353639364242554,-0.032941725105047226
1686425174008886300,7.12388623046875,-1.2767531871795654,-1.5253667831420898,-0.1562306433916092
1686425174018832400,7.133832275390625,-1.2537920475006104,-1.4140772819519043,-0.29745233058929443
1686425174028777500,7.143777587890625,-1.2965205907821655,-1.3340727090835571,-0.4025702178478241
1686425174038723600,7.1537236328125,-1.3721473217010498,-1.2310545444488525,-0.4688785672187805
1686425174048668400,7.16366845703125,-1.4356276988983154,-1.097179889678955,-0.5019537210464478
1686425174058614500,7.173614501953125,-1.3737709522247314,-0.926091194152832,-0.5192773342132568
1686425174068559400,7.183559326171875,-1.1939096450805664,-0.7506890296936035,-0.523679256439209
1686425174078505500,7.19350537109375,-0.9831688404083252,-0.6401146054267883,-0.5025575160980225
1686425174088450300,7.2034501953125,-0.7725436687469482,-0.5557187795639038,-0.46142256259918213
1686425174098396400,7.213396484375,-0.5936862826347351,-0.43051332235336304,-0.40088680386543274
1686425174108341500,7.223341552734375,-0.5523609519004822,-0.06846696138381958,-0.2624836564064026
1686425174118287400,7.233287353515625,-0.6012415289878845,0.6211397647857666,-0.027847018092870712
1686425174128232400,7.243232421875,-0.5671839714050293,1.585642695426941,0.24260017275810242
1686425174138178300,7.25317822265625,-0.4126257598400116,2.6449007987976074,0.41586464643478394
1686425174148123400,7.263123291015625,-0.22609318792819977,3.4012250900268555,0.42298728227615356
1686425174158069200,7.2730693359375,0.05611796677112579,3.7014975547790527,0.1898120939731598
1686425174168014300,7.283014404296875,0.25056442618370056,3.71982741355896,-0.05713111162185669
1686425174177960400,7.29296044921875,0.2760891914367676,4.04241418838501,0.06503502279520035
1686425174187905300,7.3029052734375,0.6849866509437561,3.96160888671875,0.014677844010293484
1686425174197851400,7.312851318359375,1.1713860034942627,3.4060423374176025,-0.3126225769519806
1686425174207797200,7.32279736328125,1.4560651779174805,2.9187941551208496,-0.6319323778152466
1686425174217742300,7.332742431640625,1.438982367515564,2.882495880126953,-0.7742735147476196
1686425174227688200,7.342688232421875,1.1555190086364746,3.0044260025024414,-0.7566215395927429
1686425174237633500,7.352633544921875,0.7810271382331848,2.9436609745025635,-0.6040710806846619
1686425174247579400,7.362579345703125,0.5392765998840332,2.5319676399230957,-0.3678183853626251
1686425174257524500,7.3725244140625,0.5060164332389832,1.9435803890228271,-0.11349025368690491
1686425174267470300,7.38247021484375,0.6255249977111816,1.3156967163085938,0.11511389166116714
1686425174277415400,7.39241552734375,0.7907354831695557,0.6745911240577698,0.33311864733695984
1686425174287361300,7.402361328125,0.9303282499313354,0.0508500300347805,0.5232539772987366
1686425174297306400,7.412306396484375,1.0343626737594604,-0.5244380235671997,0.693434476852417
1686425174307252500,7.42225244140625,1.115434169769287,-1.0095572471618652,0.8710465431213379
1686425174317197300,7.432197265625,1.1709634065628052,-1.373667597770691,1.0539865493774414
1686425174327143400,7.442143310546875,1.1841630935668945,-1.641496181488037,1.2309768199920654
1686425174337088300,7.452088134765625,1.12815523147583,-1.8077962398529053,1.369051218032837
1686425174347034400,7.462034423828125,1.0138622522354126,-1.79416823387146,1.4354374408721924
1686425174356979500,7.4719794921875,0.916584849357605,-1.5035312175750732,1.4149521589279175
1686425174366925600,7.481925537109375,0.8930584788322449,-0.9093751907348633,1.4262886047363281
1686425174376870400,7.491870361328125,0.9702199101448059,-0.0583789199590683,1.5791375637054443
1686425174386816500,7.50181640625,1.141747236251831,0.7736743688583374,1.761292815208435
1686425174396762400,7.511762451171875,1.2984273433685303,1.3658305406570435,1.752557396888733
1686425174406707200,7.521707275390625,1.3636068105697632,1.572532296180725,1.5332300662994385
1686425174416653300,7.5316533203125,1.3473374843597412,1.5590037107467651,1.2726598978042603
1686425174426598400,7.541598388671875,1.309834599494934,1.498138189315796,1.062638282775879
1686425174436544500,7.55154443359375,1.0755759477615356,1.618737816810608,0.8807370066642761
1686425174446489300,7.5614892578125,0.7882981896400452,1.970847487449646,0.7057942152023315
1686425174456435500,7.571435546875,0.5734072923660278,2.4042294025421143,0.5218979716300964
1686425174466380300,7.58138037109375,0.4027918875217438,3.0408427715301514,0.2145654559135437
1686425174476326400,7.591326416015625,0.2667728066444397,4.174018859863281,-0.29452386498451233
1686425174486271500,7.601271484375,0.22808398306369781,4.885788440704346,-0.7250683307647705
1686425174496217600,7.611217529296875,0.23922935128211975,5.084335803985596,-1.0036652088165283
1686425174506162400,7.621162353515625,0.29234743118286133,4.927011013031006,-1.1294209957122803
1686425174516108500,7.631108642578125,0.35394611954689026,4.520918369293213,-1.1162272691726685
1686425174526053400,7.641053466796875,0.41047754883766174,3.913698673248291,-0.9837546348571777
1686425174535999200,7.650999267578125,0.4738752841949463,3.2264981269836426,-0.7705867886543274
1686425174545944600,7.660944580078125,0.5360696911811829,2.5085859298706055,-0.508296549320221
1686425174555890400,7.670890380859375,0.568346381187439,1.9039860963821411,-0.26953616738319397
1686425174565835500,7.68083544921875,0.6363627314567566,1.6315820217132568,0.015421266667544842
1686425174575781400,7.690781494140625,0.6845608353614807,1.9431558847427368,0.46662437915802
1686425174585727500,7.7007275390625,0.6621018648147583,2.6948444843292236,1.034800410270691
1686425174595672300,7.71067236328125,0.5876060128211975,3.512918472290039,1.6299617290496826
1686425174605618400,7.720618408203125,0.5452494621276855,3.8642122745513916,1.9401299953460693
1686425174615563500,7.7305634765625,0.5106332898139954,3.770601272583008,1.8160539865493774
1686425174625509400,7.74050927734375,0.3708604574203491,3.6404051780700684,1.179850697517395
1686425174635454500,7.750454345703125,0.03521345183253288,4.0232391357421875,-0.07955331355333328
1686425174645400300,7.760400390625,-0.35362908244132996,4.124142646789551,-1.3367488384246826
1686425174655345400,7.770345458984375,-0.4708012640476227,3.645759105682373,-1.930709958076477
1686425174665291300,7.780291259765625,-0.3152391016483307,2.9993209838867188,-1.9397947788238525
1686425174675236400,7.790236328125,-0.07845162600278854,2.353480339050293,-1.4301786422729492
1686425174685182200,7.80018212890625,0.23474811017513275,1.3555353879928589,-0.632590651512146
1686425174695127600,7.81012744140625,0.5681461691856384,-0.254940003156662,-0.2797951102256775
1686425174705073400,7.820073486328125,0.7135244011878967,-1.9590264558792114,-0.2742951512336731
1686425174715018500,7.8300185546875,0.6911329627037048,-3.34185528755188,-0.20063938200473785
1686425174724964400,7.83996435546875,0.4965914189815521,-4.026320457458496,0.13202990591526031
1686425174734909200,7.8499091796875,0.14643128216266632,-4.1835832595825195,0.5674872994422913
1686425174744855300,7.859855224609375,-0.2708178758621216,-4.161850929260254,0.8958745002746582
1686425174754800400,7.86980029296875,-0.6729051470756531,-4.296959400177002,0.9307703971862793
1686425174764746500,7.87974658203125,-1.0491198301315308,-4.523792743682861,0.7125541567802429
1686425174774692400,7.8896923828125,-1.3568735122680664,-4.608788013458252,0.25818708539009094
1686425174784637400,7.899637451171875,-1.443886160850525,-4.3804802894592285,-0.22107775509357452
1686425174794583300,7.909583251953125,-1.339078664779663,-3.9341628551483154,-0.5362749099731445
1686425174804528400,7.9195283203125,-1.153622031211853,-3.396963119506836,-0.706899106502533
1686425174814474200,7.92947412109375,-0.9521361589431763,-2.966193914413452,-0.7937023639678955
1686425174824419600,7.939419677734375,-0.7835801243782043,-2.7377114295959473,-0.8396027684211731
1686425174834365400,7.949365478515625,-0.6398917436599731,-2.6603429317474365,-0.8896390795707703
1686425174844310300,7.959310302734375,-0.5486353635787964,-2.6979451179504395,-0.9756115078926086
1686425174854256400,7.96925634765625,-0.49953845143318176,-2.8409976959228516,-1.1003363132476807
1686425174864201200,7.979201171875,-0.45785945653915405,-3.025594711303711,-1.2416795492172241
1686425174874147300,7.989147216796875,-0.40885594487190247,-3.220612049102783,-1.3845866918563843
1686425174884092400,7.999092529296875,-0.31699714064598083,-3.4116897583007812,-1.5135648250579834
1686425174894038800,8.009038818359375,-0.26140978932380676,-3.579629421234131,-1.6217845678329468
1686425174903983900,8.01898388671875,-0.2627464234828949,-3.66560697555542,-1.6838717460632324
1686425174913929700,8.0289296875,-0.30867210030555725,-3.649994373321533,-1.6448984146118164
1686425174923874600,8.03887451171875,-0.3720332384109497,-3.540677547454834,-1.5113434791564941
1686425174933820700,8.048820556640624,-0.4580870568752289,-3.281602382659912,-1.303939700126648
1686425174943765800,8.058765869140625,-0.5649362802505493,-2.8694372177124023,-1.0057377815246582
1686425174953711900,8.0687119140625,-0.7003509402275085,-2.4214611053466797,-0.6662355065345764
1686425174963657700,8.07865771484375,-0.8452538251876831,-2.0445425510406494,-0.3588995337486267
1686425174973602800,8.088602783203125,-0.9855868816375732,-1.7984963655471802,-0.10202915966510773
1686425174983548700,8.098548583984375,-1.1128628253936768,-1.6670719385147095,0.09775665402412415
1686425174993493800,8.10849365234375,-1.212371587753296,-1.5872284173965454,0.2503833472728729
1686425175003439600,8.118439697265625,-1.2721030712127686,-1.5448428392410278,0.35815107822418213
1686425175013384700,8.128384765625,-1.2709345817565918,-1.462573766708374,0.46552789211273193
1686425175023330800,8.138330810546876,-1.2086472511291504,-1.3732081651687622,0.5733832716941833
1686425175033276000,8.14827587890625,-1.1327240467071533,-1.3496854305267334,0.6150522232055664
1686425175043221800,8.1582216796875,-1.092850685119629,-1.3695323467254639,0.5649347305297852
1686425175053166600,8.16816650390625,-1.1159371137619019,-1.3725847005844116,0.42695024609565735
1686425175063112700,8.17811279296875,-1.1650007963180542,-1.3567473888397217,0.23273445665836334
1686425175073057500,8.1880576171875,-1.2198238372802734,-1.311597228050232,0.04581489786505699
1686425175083003600,8.198003662109375,-1.2749848365783691,-1.2404298782348633,-0.12487748265266418
1686425175092948700,8.20794873046875,-1.3339704275131226,-1.1631739139556885,-0.29965969920158386
1686425175102894800,8.217894775390626,-1.352094054222107,-1.0856107473373413,-0.466383159160614
1686425175112839700,8.227839599609375,-1.324589490890503,-0.9916393756866455,-0.612116813659668
1686425175122785800,8.237785888671874,-1.2357312440872192,-0.8879505395889282,-0.7427884936332703
1686425175132730600,8.247730712890625,-1.1051993370056152,-0.7793157696723938,-0.8353900909423828
1686425175142676700,8.2576767578125,-0.9502446055412292,-0.6176605820655823,-0.8615447282791138
1686425175152622600,8.26762255859375,-0.8180147409439087,-0.4567389488220215,-0.8467177152633667
1686425175162567700,8.277567626953125,-0.735198974609375,-0.26506057381629944,-0.7757817506790161
1686425175172513800,8.287513671875,-0.7415415048599243,0.045819804072380066,-0.6345432996749878
1686425175182458600,8.297458740234376,-0.892573356628418,0.613243043422699,-0.3698599636554718
1686425175192404700,8.30740478515625,-1.0509661436080933,1.3059583902359009,-0.02855858951807022
1686425175202349600,8.317349609375,-1.0273563861846924,1.9952789545059204,0.27184784412384033
1686425175212295700,8.327295654296876,-0.8185597658157349,2.492814302444458,0.4005873203277588
1686425175222240800,8.33724072265625,-0.48526570200920105,2.5663259029388428,0.23960989713668823
1686425175232187000,8.347186767578124,-0.19523531198501587,2.5206522941589355,0.008332783356308937
1686425175242131700,8.357131591796875,-0.1811344027519226,2.6754329204559326,0.01736808940768242
1686425175252077800,8.367077880859375,-0.1498439460992813,2.953075408935547,0.2631952166557312
1686425175262022700,8.377022705078126,0.41061243414878845,2.5303194522857666,0.09242135286331177
1686425175271968800,8.38696875,0.9510625004768372,1.762927770614624,-0.3554551601409912
1686425175281913900,8.396913818359375,1.222235918045044,1.2971783876419067,-0.7463678121566772
1686425175291859700,8.406859619140626,1.2251611948013306,1.1450276374816895,-1.007920265197754
1686425175301805800,8.416805908203125,1.0560270547866821,1.1330839395523071,-1.0707496404647827
1686425175311750700,8.426750732421874,0.8349399566650391,1.1517256498336792,-0.9278103113174438
1686425175321696800,8.43669677734375,0.6830372214317322,0.9652566909790039,-0.6347749829292297
1686425175331641600,8.4466416015625,0.6550955772399902,0.47767412662506104,-0.2711125910282135
1686425175341587700,8.456587646484374,0.7391891479492188,-0.0926455557346344,0.11950521916151047
1686425175351532800,8.46653271484375,0.9020637273788452,-0.5974772572517395,0.5168299674987793
1686425175361479000,8.47647900390625,1.0534337759017944,-1.108712077140808,0.9063242077827454
1686425175371423700,8.486423828125,1.183464765548706,-1.6246861219406128,1.2387149333953857
1686425175381369900,8.496369873046875,1.3006047010421753,-1.943723201751709,1.5445771217346191
1686425175391314700,8.506314697265625,1.3793280124664307,-2.0397372245788574,1.7871757745742798
1686425175401260500,8.516260498046876,1.4001331329345703,-1.9279828071594238,1.9535809755325317
1686425175411206000,8.526205810546875,1.3579823970794678,-1.6035019159317017,2.0222251415252686
1686425175421151700,8.53615185546875,1.2439215183258057,-1.0852763652801514,1.992161750793457
1686425175431096800,8.546096923828125,1.0759605169296265,-0.3570592701435089,1.9015370607376099
1686425175441042700,8.556042724609375,0.9135077595710754,0.4023139476776123,1.76398766040802
1686425175450987800,8.56598779296875,0.8049706816673279,0.8779991865158081,1.5296046733856201
1686425175460933600,8.57593359375,0.8281087875366211,1.1297951936721802,1.2904770374298096
1686425175470879700,8.585879638671875,0.9074857831001282,1.3539966344833374,1.1254757642745972
1686425175480824800,8.595824951171876,0.8287203907966614,1.5380370616912842,1.0519157648086548
1686425175490771000,8.60577099609375,0.7143534421920776,1.8083826303482056,0.9585524201393127
1686425175500715800,8.6157158203125,0.7530965805053711,2.125521659851074,0.8815561532974243
1686425175510662000,8.625661865234376,0.7913324236869812,2.4822804927825928,0.7717625498771667
1686425175520606700,8.635606689453125,0.7929830551147461,2.8909618854522705,0.5947850942611694
1686425175530552600,8.645552490234374,0.7601149678230286,3.307624578475952,0.3654325604438782
1686425175540497700,8.65549755859375,0.7234703898429871,3.73564076423645,0.10971637070178986
1686425175550443800,8.66544384765625,0.6838424801826477,4.175902843475342,-0.15278008580207825
1686425175560388900,8.675388916015624,0.5928292274475098,4.532103538513184,-0.40531593561172485
1686425175570334700,8.685334716796875,0.5101331472396851,4.755674362182617,-0.6001716256141663
1686425175580279800,8.69527978515625,0.4597269594669342,4.80424165725708,-0.7273442149162292
1686425175590225700,8.7052255859375,0.4602892994880676,4.638319492340088,-0.798954427242279
1686425175600170500,8.71517041015625,0.47384798526763916,4.289885520935059,-0.8403183221817017
1686425175610116600,8.72511669921875,0.5267714262008667,3.8089728355407715,-0.8226592540740967
1686425175620061700,8.735061767578125,0.6060739755630493,3.3104255199432373,-0.7265068888664246
1686425175630007800,8.7450078125,0.701987087726593,3.1160964965820312,-0.4426073729991913
1686425175639953700,8.75495361328125,0.7751185894012451,3.540912389755249,0.13953354954719543
1686425175649898800,8.764898681640625,0.7322418689727783,4.634449481964111,0.9545943140983582
1686425175659844600,8.7748447265625,0.6262198090553284,5.852652549743652,1.7894344329833984
1686425175669789700,8.784789794921876,0.6531856656074524,6.139967918395996,2.136960744857788
1686425175679735600,8.794735595703125,0.707907497882843,5.665761470794678,1.8244366645812988
1686425175689681000,8.804680908203125,0.5917817950248718,4.924113750457764,0.9015246033668518
1686425175699626800,8.814626708984376,0.17447806894779205,4.572393417358398,-0.5299979448318481
1686425175709571800,8.82457177734375,-0.2901857793331146,3.980468273162842,-1.6126219034194946
1686425175719517700,8.834517578125,-0.4541741907596588,3.09112286567688,-1.9230985641479492
1686425175729462500,8.844462646484375,-0.2163567990064621,2.0576510429382324,-1.5846678018569946
1686425175739408600,8.85440869140625,0.07976406812667847,0.6634941101074219,-0.7811681032180786
1686425175749353700,8.864353759765624,0.3150824010372162,-0.722044825553894,-0.5993456244468689
1686425175759299800,8.8742998046875,0.3660039007663727,-1.7589107751846313,-0.7421352863311768
1686425175769244700,8.88424462890625,0.34497886896133423,-2.5290348529815674,-0.7757213115692139
1686425175779190800,8.894190673828126,0.258328378200531,-3.0718259811401367,-0.6114231944084167
1686425175789135600,8.904135498046875,0.1025613322854042,-3.500223159790039,-0.28884047269821167
1686425175799081700,8.914081787109374,-0.1586684137582779,-3.9553425312042236,0.09366533905267715
1686425175809027600,8.924027587890626,-0.46385136246681213,-4.417165756225586,0.42024192214012146
1686425175818973000,8.933972900390625,-0.7341297268867493,-4.825083255767822,0.5981221795082092
1686425175828918800,8.943918701171874,-0.9516357183456421,-5.167544364929199,0.5529477000236511
1686425175838864000,8.95386376953125,-1.0837615728378296,-5.248849868774414,0.32406893372535706
1686425175848809700,8.963809814453125,-1.1117901802062988,-4.978089809417725,0.04941073805093765
1686425175858754600,8.973754638671876,-1.030648946762085,-4.478817462921143,-0.17163535952568054
1686425175868700700,8.98370068359375,-0.903926432132721,-3.9599170684814453,-0.3300020098686218
1686425175878645800,8.993645751953125,-0.8069679141044617,-3.5496134757995605,-0.4762740135192871
1686425175888592000,9.003591796875,-0.7577956318855286,-3.3128626346588135,-0.6055874824523926
1686425175898537000,9.013536865234375,-0.7638969421386719,-3.306107759475708,-0.747378408908844
1686425175908483000,9.023483154296875,-0.7848227620124817,-3.3831872940063477,-0.9069676399230957
1686425175918428000,9.033427978515626,-0.8110695481300354,-3.4857115745544434,-1.0887411832809448
1686425175928374000,9.0433740234375,-0.8120526671409607,-3.598649263381958,-1.2553820610046387
1686425175938318800,9.05331884765625,-0.7914016842842102,-3.729645013809204,-1.416902780532837
1686425175948265000,9.063264892578125,-0.7588276267051697,-3.872265100479126,-1.5723567008972168
1686425175958211000,9.073211181640625,-0.6868586540222168,-4.061260223388672,-1.6879175901412964
1686425175968156200,9.08315625,-0.5738510489463806,-4.289329528808594,-1.7100847959518433
1686425175978102000,9.09310205078125,-0.5302159190177917,-4.395944118499756,-1.67283034324646
1686425175988047000,9.103047119140625,-0.5790073871612549,-4.273527145385742,-1.5877721309661865
1686425175997993000,9.112992919921876,-0.6460229158401489,-4.009582042694092,-1.41317880153656
1686425176007937800,9.122937744140625,-0.73610520362854,-3.636505126953125,-1.1653263568878174
1686425176017884000,9.1328837890625,-0.884207546710968,-3.1980178356170654,-0.860334038734436
1686425176027829000,9.1428291015625,-1.0594267845153809,-2.765519142150879,-0.537747859954834
1686425176037775000,9.152775146484375,-1.222833514213562,-2.414198875427246,-0.2631021738052368
1686425176047720000,9.162719970703124,-1.338080644607544,-2.1697123050689697,-0.051158081740140915
1686425176057666000,9.172666015625,-1.392194390296936,-2.012834072113037,0.090589739382267
1686425176067611000,9.18261083984375,-1.3770047426223755,-1.9039934873580933,0.19096863269805908
1686425176077557000,9.192556884765626,-1.3117055892944336,-1.8093593120574951,0.25003886222839355
1686425176087502000,9.202502197265625,-1.2123661041259766,-1.640437364578247,0.3140762448310852
1686425176097448200,9.2124482421875,-1.1075081825256348,-1.4660195112228394,0.3324187695980072
1686425176107394000,9.22239404296875,-1.056990146636963,-1.3558801412582397,0.2449328452348709
1686425176117339100,9.232339111328125,-1.0835448503494263,-1.230006456375122,0.08913791924715042
1686425176127285000,9.242284912109374,-1.1799558401107788,-1.0751460790634155,-0.10363927483558655
1686425176137229800,9.252229736328125,-1.2713185548782349,-0.9261538982391357,-0.3080507516860962
1686425176147176000,9.262176025390625,-1.3304482698440552,-0.765191376209259,-0.49326092004776
1686425176157121000,9.27212109375,-1.337011694908142,-0.5930286645889282,-0.660411536693573
1686425176167067100,9.282067138671875,-1.3085989952087402,-0.4480237662792206,-0.821721613407135
1686425176177012000,9.292011962890625,-1.244810938835144,-0.35216808319091797,-0.9651264548301697
1686425176186958000,9.3019580078125,-1.1592227220535278,-0.2803063988685608,-1.070969820022583
1686425176196903000,9.31190283203125,-1.055808186531067,-0.20019319653511047,-1.126373052597046
1686425176206849000,9.32184912109375,-0.9423603415489197,-0.10646586865186691,-1.1067179441452026
1686425176216794000,9.331794189453126,-0.853123128414154,0.0006997326854616404,-1.0240073204040527
1686425176226740200,9.341740234375,-0.7873190641403198,0.11341095715761185,-0.8935726881027222
1686425176236685000,9.35168505859375,-0.7347142100334167,0.24867556989192963,-0.735856294631958
1686425176246631000,9.361630859375,-0.7323078513145447,0.41003602743148804,-0.5696192383766174
1686425176256576000,9.371575927734375,-0.7871673703193665,0.5882563591003418,-0.4106367230415344
1686425176266521900,9.38152197265625,-0.9323225617408752,0.8628185987472534,-0.2252531200647354
1686425176276468000,9.391468017578125,-1.1963627338409424,1.3136405944824219,0.0268531646579504
1686425176286413000,9.4014130859375,-1.659578800201416,1.9924243688583374,0.5389769077301025
1686425176296359200,9.411359130859376,-1.9797451496124268,2.4608535766601562,1.2482922077178955
1686425176306304000,9.421303955078125,-1.6026698350906372,2.1250851154327393,1.634178876876831
1686425176316250000,9.43125,-0.9244314432144165,0.9312469959259033,1.3698481321334839
1686425176326195000,9.44119482421875,-0.3526270091533661,-0.19839058816432953,0.8699194192886353
1686425176336141000,9.45114111328125,-0.10726864635944366,-0.742689311504364,0.4535278379917145
1686425176346086100,9.461086181640624,-0.2090574949979782,-0.6922507286071777,0.16057099401950836
1686425176356032300,9.4710322265625,-0.5457617044448853,-0.25773361325263977,0.03901872783899307
1686425176365977000,9.48097705078125,-0.8945932388305664,0.14694581925868988,0.08064805716276169
1686425176375923000,9.4909228515625,-1.0193381309509277,0.3660150468349457,0.2850795090198517
1686425176385868000,9.500867919921875,-0.8251211047172546,0.4843672513961792,0.6091806888580322
1686425176395814000,9.51081396484375,-0.3676488995552063,0.4204585552215576,0.8574349880218506
1686425176405760000,9.520760009765626,0.18305808305740356,0.2905392050743103,1.0270798206329346
1686425176415705000,9.530705078125,0.7246832251548767,0.2536690831184387,1.150252103805542
1686425176425651200,9.540651123046874,1.1920528411865234,0.4924694299697876,1.3083925247192383
1686425176435596000,9.550595947265625,1.564194679260254,1.111725926399231,1.5166884660720825
1686425176445542100,9.560542236328125,1.807859182357788,1.8373299837112427,1.6821660995483398
1686425176455487000,9.570487060546874,1.9427669048309326,2.4953582286834717,1.762560486793518
1686425176465433000,9.58043310546875,2.0082948207855225,3.244133949279785,1.8855029344558716
1686425176475378000,9.5903779296875,2.067131519317627,4.089820384979248,2.0483040809631348
1686425176485324000,9.600323974609376,2.1244659423828125,4.862510681152344,2.1145598888397217
1686425176495269000,9.61026904296875,2.1406090259552,5.329893112182617,1.992397427558899
1686425176505215000,9.620215087890625,2.105652093887329,5.581820487976074,1.6627707481384277
1686425176515160000,9.63016015625,2.0206167697906494,5.654460430145264,1.2823424339294434
1686425176525106000,9.64010595703125,1.8961604833602905,5.638605117797852,0.9696502089500427
1686425176535051000,9.650051025390624,1.7553759813308716,5.66880464553833,0.7881512641906738
1686425176544996900,9.659996826171875,1.6021367311477661,5.704572677612305,0.6783730983734131
1686425176554943000,9.66994287109375,1.3015530109405518,5.381621360778809,-0.12764188647270203
1686425176564888000,9.67988818359375,1.0482200384140015,4.365068435668945,-1.3233850002288818
1686425176574834200,9.689834228515625,0.8778728246688843,3.3314428329467773,-1.9275736808776855
1686425176584779000,9.699779052734375,0.6780362129211426,2.31459379196167,-2.1766021251678467
1686425176594725000,9.70972509765625,0.43811342120170593,1.4368946552276611,-2.2053403854370117
1686425176604670000,9.719669921875,0.2078947126865387,0.8766613006591797,-2.058547019958496
1686425176614615800,9.72961572265625,0.0374436117708683,0.4983978569507599,-1.7929824590682983
1686425176624561200,9.73956103515625,-0.054690200835466385,0.18727165460586548,-1.4484840631484985
1686425176634507000,9.749507080078125,-0.10078179836273193,-0.12012370675802231,-1.085326910018921
1686425176644452000,9.7594521484375,-0.0865495502948761,-0.4005643129348755,-0.6963457465171814
1686425176654398000,9.76939794921875,-0.03364052623510361,-0.7210075855255127,-0.3423232436180115
1686425176664343000,9.779343017578125,0.04194386303424835,-1.0893338918685913,-0.019942590966820717
1686425176674289000,9.789288818359376,0.1088629812002182,-1.4247957468032837,0.24169035255908966
1686425176684234000,9.79923388671875,0.14543701708316803,-1.6384204626083374,0.4815962314605713
1686425176694180000,9.80918017578125,0.1289949268102646,-1.7437121868133545,0.7237577438354492
1686425176704126200,9.819126220703126,0.045708734542131424,-1.797351598739624,0.9743993282318115
1686425176714071000,9.829071044921875,-0.06572484970092773,-1.9308116436004639,1.1835187673568726
1686425176724017000,9.839016845703124,-0.21280796825885773,-2.1099910736083984,1.3152592182159424
1686425176733962000,9.8489619140625,-0.38144251704216003,-2.187069892883301,1.4205074310302734
1686425176743907800,9.858907958984375,-0.5480338931083679,-1.9979201555252075,1.605877161026001
1686425176753853200,9.868853271484374,-0.6116605401039124,-1.5283955335617065,1.7387641668319702
1686425176763799000,9.878799072265625,-0.560681164264679,-0.4917754530906677,1.4283254146575928
1686425176773744000,9.888744140625,-0.39549994468688965,0.08316908031702042,0.9152213335037231
1686425176783690000,9.89868994140625,-0.1713458150625229,0.07841353863477707,0.368137389421463
1686425176793635000,9.908635009765625,0.02198023349046707,-0.0692286491394043,-0.11458879709243774
1686425176803581000,9.918580810546874,0.15403389930725098,-0.18474914133548737,-0.4827059805393219
1686425176813526000,9.928526123046876,0.2519164979457855,-0.3074500262737274,-0.7088022232055664
1686425176823472000,9.93847216796875,0.34059908986091614,-0.43633854389190674,-0.8177418112754822
1686425176833418200,9.948418212890624,0.43699461221694946,-0.6148902177810669,-0.7986775636672974
1686425176843363000,9.958363037109375,0.4772588610649109,-0.5773254632949829,-0.5465176105499268
1686425176853309000,9.968308837890625,0.3592081069946289,-0.21270595490932465,-0.08063484728336334
1686425176863254000,9.97825390625,0.25169339776039124,0.0694560781121254,0.19899092614650726
1686425176873199900,9.988199951171875,0.34392955899238586,0.097251757979393,0.12418272346258163
1686425176883145200,9.998145263671875,0.35718587040901184,-0.25569668412208557,-0.2414705753326416
1686425176893091000,10.008091064453126,0.2661544978618622,-0.6005749702453613,-0.6476987600326538
1686425176903035100,10.01803515625,0.1307041049003601,-0.817829430103302,-0.9826456904411316
1686425176912981200,10.027981201171874,0.010432032868266106,-0.926396906375885,-1.2333905696868896
1686425176922926000,10.037926025390625,-0.07624489068984985,-0.9972361326217651,-1.401099443435669
1686425176932872200,10.0478720703125,-0.13099601864814758,-1.0875873565673828,-1.467223882675171
1686425176942817300,10.0578173828125,-0.11734909564256668,-1.096693515777588,-1.4218579530715942
1686425176952763400,10.067763427734375,-0.07047213613986969,-1.0093439817428589,-1.2666805982589722
1686425176962708200,10.077708251953124,-0.03450843319296837,-0.802432119846344,-1.0159035921096802
1686425176972654300,10.087654296875,-0.05966225638985634,-0.6539209485054016,-0.8050819635391235
1686425176982600200,10.09760009765625,-0.14181767404079437,-0.6747955679893494,-0.7418281435966492
1686425176992545000,10.107544921875,-0.2092827409505844,-0.7391937375068665,-0.8423054814338684
1686425177002491100,10.1174912109375,-0.2864171266555786,-0.882330060005188,-0.9709922671318054
1686425177012436200,10.127436279296875,-0.3303869664669037,-1.0297040939331055,-1.085935354232788
1686425177022382300,10.13738232421875,-0.340814471244812,-1.1353332996368408,-1.1682552099227905
1686425177032327200,10.1473271484375,-0.3304569125175476,-1.2291090488433838,-1.1770654916763306
1686425177042273300,10.157273193359375,-0.2348015159368515,-1.2494038343429565,-1.1188021898269653
1686425177052218000,10.167218017578126,-0.09265583008527756,-1.2409517765045166,-0.9043086767196655
1686425177062164200,10.177164306640625,0.26158350706100464,-1.4066978693008423,-0.42438140511512756
1686425177072109300,10.187109375,1.1315869092941284,-1.3789714574813843,0.1092364564538002
1686425177082055400,10.197055419921876,2.2137176990509033,-1.6359196901321411,0.9720989465713501
1686425177092000300,10.207000244140625,2.1613779067993164,-1.4704750776290894,1.5306328535079956
1686425177101946000,10.216946044921874,1.4672960042953491,-0.41363388299942017,1.4987910985946655
1686425177111892200,10.226892333984376,0.6015539765357971,0.5415521860122681,1.2571518421173096
1686425177121837000,10.236837158203125,-0.028846774250268936,1.1836403608322144,0.9519948363304138
1686425177131783200,10.246783203125,-0.3738529086112976,1.6614699363708496,0.7182446718215942
1686425177141728300,10.256728271484375,-0.5194764733314514,1.9461084604263306,0.5451497435569763
1686425177151674400,10.26667431640625,-0.6280732750892639,1.9609787464141846,0.4311677813529968
1686425177161619200,10.276619140625,-0.7227322459220886,1.8327463865280151,0.3994123339653015
1686425177171565300,10.2865654296875,-0.8459553718566895,1.5374675989151,0.4644075632095337
1686425177181510100,10.29651025390625,-1.065508246421814,1.1652796268463135,0.5368476510047913
1686425177191456300,10.306456298828126,-1.5008494853973389,0.7517338991165161,0.6001864075660706
1686425177201401300,10.3164013671875,-2.157046318054199,0.16310523450374603,0.675089955329895
1686425177211347500,10.326347412109374,-2.833388328552246,-0.8102489709854126,0.8801277875900269
1686425177221292300,10.336292236328125,-3.034355401992798,-1.5451436042785645,0.9436433911323547
1686425177231238100,10.346238037109375,-2.5054566860198975,-1.8815962076187134,0.7467295527458191
1686425177241184300,10.356184326171874,-1.6824625730514526,-2.1351382732391357,0.4096258580684662
1686425177251129000,10.366129150390625,-0.8610990047454834,-2.462116241455078,0.14784803986549377
1686425177261075200,10.3760751953125,-0.24807025492191315,-2.478269577026367,0.2423412799835205
1686425177271020300,10.386020263671876,-0.31110385060310364,-0.7603888511657715,0.978782594203949
1686425177280966400,10.39596630859375,-0.9921146035194397,2.266418218612671,2.2229344844818115
1686425177290911200,10.4059111328125,-1.0814374685287476,4.094517707824707,2.892394542694092
1686425177300857300,10.415857421875,-0.3477039039134979,4.570682048797607,2.7856569290161133
1686425177310802200,10.42580224609375,0.5817171931266785,4.518758773803711,2.170492172241211
1686425177320748300,10.435748291015624,1.268049716949463,4.5788350105285645,1.4276628494262695
1686425177330693000,10.445693115234375,1.5713869333267212,4.853626251220703,0.761211633682251
1686425177340639200,10.45563916015625,1.607613444328308,5.1832356452941895,0.1089005395770073
1686425177350584300,10.465584228515626,1.474027156829834,5.601326942443848,-0.4521515965461731
1686425177360530200,10.4755302734375,1.2377058267593384,5.996651649475098,-0.6999990940093994
1686425177370476300,10.485476318359375,0.9454136490821838,6.252061367034912,-0.4884825348854065
1686425177380421000,10.495421142578126,0.6856412887573242,5.830629825592041,0.09828873723745346
1686425177390367200,10.5053671875,0.6482318639755249,4.578523635864258,0.61993408203125
1686425177400312000,10.51531201171875,0.6959800720214844,2.9249348640441895,0.7236751317977905
1686425177410258200,10.525258056640626,0.7008059620857239,1.5102441310882568,0.45196855068206787
1686425177420203300,10.535203369140625,0.6706462502479553,0.7230064272880554,0.07843773812055588
1686425177430149400,10.5451494140625,0.6596692204475403,0.3427525758743286,-0.31322965025901794
1686425177440094200,10.55509423828125,0.6955702304840088,0.1369621455669403,-0.743565559387207
1686425177450040300,10.565040283203125,0.7629745602607727,0.006987904664129019,-1.189245581626892
1686425177459985200,10.574985107421876,0.8391830921173096,-0.09752494096755981,-1.5775127410888672
1686425177469931000,10.584930908203125,0.9181423783302307,-0.24297721683979034,-1.8715845346450806
1686425177479876400,10.59487646484375,0.9924802184104919,-0.44495683908462524,-2.0626132488250732
1686425177489822200,10.604822265625,1.026283621788025,-0.7301204204559326,-2.1424200534820557
1686425177499768300,10.614768310546875,0.953507661819458,-1.199846863746643,-2.011476516723633
1686425177509713200,10.624713134765624,0.7840645909309387,-1.9679185152053833,-1.7360188961029053
1686425177519659300,10.6346591796875,0.5442506074905396,-2.845377206802368,-1.3881357908248901
1686425177529604000,10.64460400390625,0.2840752601623535,-3.7124152183532715,-0.9954901933670044
1686425177539550200,10.65455029296875,-0.015677645802497864,-4.520434379577637,-0.6046300530433655
1686425177549495300,10.664495361328125,-0.49220505356788635,-5.287239074707031,-0.21449370682239532
1686425177559441400,10.67444140625,-0.9972057938575745,-5.711781024932861,0.01588394120335579
1686425177569386200,10.68438623046875,-1.2427023649215698,-5.767370223999023,0.04628552496433258
1686425177579332000,10.69433203125,-1.2991582155227661,-5.601208209991455,-0.011129168793559074
1686425177589277200,10.704277099609374,-1.2207329273223877,-5.2815117835998535,-0.06846942007541656
1686425177599223000,10.71422314453125,-0.9843957424163818,-4.791881084442139,-0.07857398688793182
1686425177609168400,10.72416845703125,-0.6229687929153442,-4.077764511108398,-0.032787859439849854
1686425177619114200,10.7341142578125,-0.21426339447498322,-3.054579019546509,-0.004566843621432781
1686425177629060400,10.744060302734376,0.2153116762638092,-1.5413326025009155,-0.26830366253852844
1686425177639005200,10.754005126953125,0.5820018649101257,-0.32482972741127014,-0.5789394974708557
1686425177648951300,10.763951416015624,0.8286462426185608,0.5843358635902405,-0.8789445757865906
1686425177658896100,10.773896240234375,0.9297037124633789,1.168808937072754,-1.0713084936141968
1686425177668842200,10.78384228515625,0.9150009751319885,1.65409517288208,-1.1824579238891602
1686425177678787300,10.793787353515626,0.8160297870635986,2.0239291191101074,-1.2202900648117065
1686425177688733400,10.8037333984375,0.6593378782272339,2.295396566390991,-1.1737420558929443
1686425177698678300,10.81367822265625,0.4738338589668274,2.4519927501678467,-1.0479435920715332
1686425177708624100,10.8236240234375,0.2785692811012268,2.5750744342803955,-0.8617010116577148
1686425177718569200,10.8335693359375,0.09838211536407471,2.6552019119262695,-0.6607618927955627
1686425177728515000,10.84351513671875,-0.04471990838646889,2.673936605453491,-0.45726147294044495
1686425177738460400,10.85346044921875,-0.13599319756031036,2.547487735748291,-0.25089573860168457
1686425177748406300,10.86340625,-0.18015745282173157,2.2665464878082275,-0.014939403161406517
1686425177758352400,10.873352294921874,-0.19134055078029633,1.8673640489578247,0.21742947399616241
1686425177768297200,10.883297119140625,-0.19506897032260895,1.4546488523483276,0.4684624969959259
1686425177778243300,10.893243408203125,-0.21852587163448334,1.0840027332305908,0.7423303127288818
1686425177788188200,10.903188232421876,-0.3036192059516907,0.9099256992340088,1.0273228883743286
1686425177798134300,10.91313427734375,-0.5049024224281311,1.1586639881134033,1.3436963558197021
1686425177808079400,10.923079345703124,-0.8821597099304199,2.137230157852173,1.753132700920105
1686425177818025200,10.933025146484376,-0.8621616959571838,4.43224573135376,1.484068751335144
1686425177827970300,10.94297021484375,-0.4519907236099243,6.544214248657227,0.6282264590263367
1686425177837916200,10.952916259765624,-0.03989062458276749,7.206131935119629,-0.2096998542547226
1686425177847861200,10.962861328125,0.3392130136489868,7.422179222106934,-0.8587428331375122
1686425177857807000,10.97280712890625,0.7147569060325623,7.381343364715576,-1.3173747062683105
1686425177867752200,10.982752197265626,1.118871808052063,7.029846668243408,-1.397369623184204
1686425177877698300,10.9926982421875,1.5775855779647827,6.8668951988220215,-1.2138389348983765
1686425177887644400,11.00264453125,2.0737662315368652,6.083141803741455,-1.3683390617370605
1686425177897589200,11.01258935546875,2.08499813079834,4.052731513977051,-0.9361221790313721
1686425177907535400,11.022535400390625,1.6246566772460938,1.4471148252487183,0.1772344410419464
1686425177917480200,11.032480224609374,1.0855802297592163,-1.0717142820358276,1.0534104108810425
1686425177927426300,11.04242626953125,0.7495591044425964,-2.9456472396850586,1.2675410509109497
1686425177937371100,11.05237109375,0.5720553398132324,-4.003409385681152,1.106364369392395
1686425177947317200,11.062317138671874,0.33119210600852966,-4.381085395812988,0.7944901585578918
1686425177957262300,11.072262451171875,0.03428202494978905,-4.302471160888672,0.45585042238235474
1686425177967208200,11.082208251953125,-0.3471343219280243,-4.022973537445068,0.13999204337596893
1686425177977153300,11.0921533203125,-0.8002653121948242,-3.6989712715148926,-0.13382871448993683
1686425177987099100,11.10209912109375,-1.2131149768829346,-3.4389216899871826,-0.3733515739440918
1686425177997045200,11.112045166015625,-1.5038807392120361,-3.276055097579956,-0.5759380459785461
1686425178006990000,11.121989990234376,-1.5924630165100098,-3.273300886154175,-0.7868438959121704
1686425178016936200,11.131936279296875,-1.3929297924041748,-3.384324073791504,-0.996207058429718
1686425178026881300,11.14188134765625,-0.9524147510528564,-3.5525927543640137,-1.2083134651184082
1686425178036827400,11.151827392578125,-0.4572297930717468,-3.676462173461914,-1.3906750679016113
1686425178046772200,11.161772216796875,-0.12014629691839218,-3.689493417739868,-1.4942373037338257
1686425178056718300,11.17171826171875,0.05505301058292389,-3.6438069343566895,-1.5613024234771729
1686425178066663200,11.1816630859375,0.06729849427938461,-3.6460375785827637,-1.6231926679611206
1686425178076609000,11.191609130859375,-0.06780647486448288,-3.6885082721710205,-1.663401484489441
1686425178086554400,11.201554443359376,-0.2827240824699402,-3.727858543395996,-1.6161140203475952
1686425178096500200,11.211500244140625,-0.4937511384487152,-3.6267502307891846,-1.4215084314346313
1686425178106445300,11.2214453125,-0.6268048286437988,-3.3022022247314453,-1.1277105808258057
1686425178116391200,11.23139111328125,-0.6865396499633789,-2.8264596462249756,-0.824870765209198
1686425178126337300,11.241337158203125,-0.7455965876579285,-2.3642163276672363,-0.5471342206001282
1686425178136282000,11.2512822265625,-0.7971323132514954,-1.9630175828933716,-0.32573360204696655
1686425178146228200,11.261228271484375,-0.8213326930999756,-1.6827830076217651,-0.15652941167354584
1686425178156173300,11.27117333984375,-0.8262252807617188,-1.500178575515747,-0.03808023780584335
1686425178166119400,11.281119384765624,-0.8004445433616638,-1.3443762063980103,0.05083179101347923
1686425178176064300,11.291064208984375,-0.748652994632721,-1.2162624597549438,0.1270384043455124
1686425178186010000,11.301010009765625,-0.7050564885139465,-1.171351671218872,0.18272164463996887
1686425178195955200,11.310955078125,-0.6811308860778809,-1.2108725309371948,0.24599289894104004
1686425178205901000,11.320901123046875,-0.7043179869651794,-1.2576470375061035,0.29830482602119446
1686425178215846400,11.330846435546874,-0.8224638104438782,-1.19268000125885,0.3133416771888733
1686425178225792300,11.340792236328125,-1.0701384544372559,-1.0489885807037354,0.25295290350914
1686425178235738400,11.35073828125,-1.2866017818450928,-0.9110339283943176,0.15714921057224274
1686425178245683200,11.36068310546875,-1.4371979236602783,-0.8741752505302429,0.04785468056797981
1686425178255629300,11.37062939453125,-1.5101968050003052,-0.9302201867103577,-0.0710267499089241
1686425178265574100,11.38057421875,-1.4872456789016724,-0.9862470030784607,-0.20696622133255005
1686425178275520300,11.390520263671876,-1.407217025756836,-1.0308808088302612,-0.3428680896759033
1686425178285465300,11.40046533203125,-1.2974828481674194,-1.047964096069336,-0.45827004313468933
1686425178295411500,11.410411376953125,-1.1553179025650024,-1.0085111856460571,-0.5475702881813049
1686425178305356300,11.420356201171876,-1.023019790649414,-0.7921527624130249,-0.5386481881141663
1686425178315302100,11.43030224609375,-0.9812299609184265,-0.3668981194496155,-0.3591959476470947
1686425178325247200,11.440247314453124,-1.0673781633377075,0.259268581867218,0.0047889044508337975
1686425178335193000,11.450193115234375,-1.1883922815322876,0.817755937576294,0.4712427258491516
1686425178345138400,11.460138427734375,-1.192014217376709,1.141672968864441,0.8900991082191467
1686425178355084300,11.470084228515624,-0.9348121881484985,1.2512054443359375,1.1158716678619385
1686425178365030400,11.480030517578125,-0.4039962589740753,1.3783308267593384,1.0752185583114624
1686425178374975200,11.489975341796875,0.23984959721565247,1.698893427848816,0.7707874178886414
1686425178384921300,11.49992138671875,0.6375271677970886,2.139117956161499,0.24102316796779633
1686425178394866200,11.5098662109375,0.8595306873321533,2.5551109313964844,-0.38524991273880005
1686425178404812300,11.519812255859375,0.9603670239448547,3.011929750442505,-0.828783392906189
1686425178414757400,11.52975732421875,0.8511468172073364,3.6153080463409424,-0.9052494168281555
1686425178424703200,11.539703125,0.5611850619316101,4.397245407104492,-0.5083449482917786
1686425178434648300,11.5496484375,0.4774976968765259,4.313320159912109,-0.2836061716079712
1686425178444594200,11.55959423828125,0.5645217895507812,3.540088653564453,-0.21281588077545166
1686425178454539300,11.569539306640625,0.6650662422180176,2.5615971088409424,-0.15504366159439087
1686425178464485000,11.579485107421876,0.7448790073394775,1.7268216609954834,-0.12958784401416779
1686425178474431200,11.58943115234375,0.7259028553962708,1.1405251026153564,-0.14071409404277802
1686425178484376300,11.599376220703125,0.6487952470779419,0.6501570343971252,-0.14427420496940613
1686425178494322200,11.609322265625,0.5824647545814514,0.21202319860458374,-0.12939152121543884
1686425178504267300,11.619267333984375,0.5696219801902771,-0.17468510568141937,-0.08870800584554672
1686425178514213400,11.62921337890625,0.6218065023422241,-0.6029988527297974,-0.04187428578734398
1686425178524158200,11.639158203125,0.7487220764160156,-1.053627848625183,0.003805585205554962
1686425178534104300,11.649104248046875,0.9230337142944336,-1.4957382678985596,0.07785902917385101
1686425178544049200,11.659049072265624,1.0862330198287964,-1.7842981815338135,0.1873551607131958
1686425178553995000,11.6689951171875,1.1863116025924683,-1.940002679824829,0.32041072845458984
1686425178563940400,11.6789404296875,1.2241146564483643,-1.9805681705474854,0.4833858013153076
1686425178573886200,11.68888623046875,1.182710886001587,-1.8830291032791138,0.6777501702308655
1686425178583832300,11.698832275390625,1.0710978507995605,-1.6944857835769653,0.8741734623908997
1686425178593777200,11.708777099609375,0.8197885155677795,-1.476771593093872,1.0449864864349365
1686425178603723300,11.71872314453125,0.5311508774757385,-1.1460679769515991,1.1265732049942017
1686425178613668000,11.728668212890625,0.3387551009654999,-0.6844492554664612,1.1991159915924072
1686425178623614200,11.7386142578125,0.3269024193286896,-0.1702711582183838,1.2788209915161133
1686425178633559300,11.748559326171875,0.4010331332683563,0.2041860669851303,1.3032221794128418
1686425178643505400,11.75850537109375,0.45279166102409363,0.330275297164917,1.2589197158813477
1686425178653450200,11.7684501953125,0.4703204929828644,0.3513568043708801,1.1782647371292114
1686425178663396000,11.77839599609375,0.49607035517692566,0.3927156925201416,1.0689687728881836
1686425178673341200,11.788341064453125,0.4568840563297272,0.6038852334022522,0.9471248388290405
1686425178683287000,11.798287109375,0.45684224367141724,0.9709817171096802,0.81492018699646
1686425178693233200,11.808233154296875,0.4510885179042816,1.4506077766418457,0.6538434028625488
1686425178703178200,11.81817822265625,0.4057583212852478,1.9807029962539673,0.4580531418323517
1686425178713124400,11.828124267578126,0.32554590702056885,2.661036968231201,0.1905895173549652
1686425178723069200,11.838069091796875,0.23206496238708496,3.816002368927002,-0.2946844696998596
1686425178733015300,11.848015380859374,0.17959463596343994,4.712267875671387,-0.7453663945198059
1686425178742960000,11.857960205078125,0.16429930925369263,5.272590637207031,-1.0795994997024536
1686425178752906200,11.86790625,0.16712051630020142,5.545172214508057,-1.31072199344635
1686425178762851300,11.877851318359374,0.1543024480342865,5.531104564666748,-1.4514907598495483
1686425178772797400,11.88779736328125,0.1470107138156891,5.228649616241455,-1.4857032299041748
1686425178782742300,11.8977421875,0.1712377518415451,4.667836666107178,-1.3910472393035889
1686425178792688000,11.907688232421876,0.24645276367664337,4.080016136169434,-1.0860941410064697
1686425178802634200,11.91763427734375,0.37336087226867676,3.7570841312408447,-0.48955053091049194
1686425178812579000,11.9275791015625,0.5087075233459473,3.7575602531433105,0.32588037848472595
1686425178822525200,11.937525146484376,0.6180792450904846,4.114616394042969,1.1634418964385986
1686425178832470300,11.94747021484375,0.7058010697364807,4.656729698181152,1.842725157737732
1686425178842416400,11.95741650390625,0.8391790986061096,4.9385294914245605,2.054743766784668
1686425178852361200,11.967361328125,0.9713689088821411,4.752880573272705,1.677399754524231
1686425178862307300,11.977307373046875,0.8854113817214966,4.051911354064941,0.8789165019989014
1686425178872252200,11.987252197265626,0.4319130778312683,3.011507034301758,-0.13396498560905457
1686425178882198300,11.9971982421875,-0.10000008344650269,1.9839894771575928,-1.1229548454284668
1686425178892143400,12.007143310546875,-0.4090452492237091,1.0255882740020752,-1.4833260774612427
1686425178902089500,12.01708935546875,-0.47367164492607117,0.5141350626945496,-1.3013091087341309
1686425178912035600,12.02703564453125,-0.28118714690208435,0.40738174319267273,-1.010482668876648
1686425178921980400,12.03698046875,0.023267287760972977,0.08033224195241928,-0.744110643863678
1686425178931926300,12.04692626953125,0.20644569396972656,-0.576735258102417,-0.6669794917106628
1686425178941871400,12.056871337890625,0.3037852942943573,-1.3733898401260376,-0.7613469958305359
1686425178951817200,12.066817138671874,0.32606449723243713,-2.0138299465179443,-0.7359457612037659
1686425178961762300,12.07676220703125,0.1983635425567627,-2.309713125228882,-0.5059717297554016
1686425178971708400,12.08670849609375,-0.07882793992757797,-2.4980151653289795,-0.09457920491695404
1686425178981653500,12.096653564453124,-0.48090800642967224,-2.7337758541107178,0.35417088866233826
1686425178991599400,12.106599365234375,-0.8422998785972595,-3.1559321880340576,0.6474534273147583
1686425179001544200,12.116544189453125,-1.0694336891174316,-3.7499895095825195,0.7337555289268494
1686425179011490300,12.126490234375,-1.1164486408233643,-4.2590837478637695,0.6214620471000671
1686425179021435100,12.13643505859375,-1.0405727624893188,-4.476228713989258,0.40951409935951233
1686425179031381200,12.14638134765625,-0.935336172580719,-4.342504024505615,0.1562926471233368
1686425179041327400,12.156327392578126,-0.8468992710113525,-4.113644123077393,-0.08090844750404358
1686425179051272400,12.1662724609375,-0.7838169932365417,-3.8712549209594727,-0.32390445470809937
1686425179061218300,12.17621826171875,-0.7161548137664795,-3.6856658458709717,-0.5833807587623596
1686425179071163400,12.186163330078125,-0.6465662717819214,-3.565707206726074,-0.8677001595497131
1686425179081109200,12.196109130859375,-0.6432964205741882,-3.6206021308898926,-1.1571877002716064
1686425179091054300,12.206054443359376,-0.6707204580307007,-3.7868199348449707,-1.4111084938049316
1686425179101000200,12.216000244140625,-0.6546986103057861,-3.943669319152832,-1.6273913383483887
1686425179110945500,12.225945556640625,-0.5737876296043396,-4.093927383422852,-1.8203330039978027
1686425179120891400,12.235891357421876,-0.5136987566947937,-4.376879692077637,-1.9147075414657593
1686425179130836200,12.245836181640625,-0.5397001504898071,-4.678781509399414,-1.8644241094589233
1686425179140782300,12.2557822265625,-0.6151725649833679,-4.752257347106934,-1.7606127262115479
1686425179150728400,12.265728515625,-0.721743106842041,-4.685884952545166,-1.5420951843261719
1686425179160673300,12.27567333984375,-0.8283750414848328,-4.466094970703125,-1.244992733001709
1686425179170619100,12.285619140625,-0.920265257358551,-4.055638790130615,-0.9151780605316162
1686425179180564500,12.295564453125,-1.0304054021835327,-3.6411218643188477,-0.517254650592804
1686425179190510300,12.30551025390625,-1.2780280113220215,-3.201556921005249,-0.17443400621414185
1686425179200455400,12.315455322265626,-1.5005159378051758,-2.7612979412078857,0.044854674488306046
1686425179210401300,12.3254013671875,-1.5234678983688354,-2.465731620788574,0.19165076315402985
1686425179220346400,12.335346435546874,-1.4448822736740112,-2.3230140209198,0.30858322978019714
1686425179230292200,12.345292236328126,-1.376586675643921,-2.283057451248169,0.3917575776576996
1686425179240237600,12.355237548828125,-1.3267101049423218,-2.2502832412719727,0.4567592144012451
1686425179250183400,12.365183349609374,-1.2049992084503174,-2.122272253036499,0.5062444806098938
1686425179260129500,12.375129638671876,-1.1021268367767334,-1.927655577659607,0.5346521735191345
1686425179270074400,12.385074462890625,-1.0519670248031616,-1.7540615797042847,0.45940032601356506
1686425179280020200,12.395020263671874,-1.0555100440979004,-1.6132628917694092,0.3038744032382965
1686425179289965300,12.40496533203125,-1.0785934925079346,-1.4005552530288696,0.098499596118927
1686425179299911200,12.4149111328125,-1.1021523475646973,-1.1479520797729492,-0.14022403955459595
1686425179309856500,12.4248564453125,-1.1605195999145508,-0.8954986333847046,-0.3564850986003876
1686425179319802400,12.43480224609375,-1.2439684867858887,-0.6713968515396118,-0.5646428465843201
1686425179329747500,12.44474755859375,-1.283760666847229,-0.4773296117782593,-0.766552209854126
1686425179339693300,12.454693359375,-1.254219889640808,-0.3151034116744995,-0.9623345136642456
1686425179349639400,12.464639404296875,-1.1771308183670044,-0.21444863080978394,-1.1199097633361816
1686425179359584300,12.474584228515624,-0.9696691632270813,-0.2109345942735672,-1.272599697113037
1686425179369530400,12.4845302734375,-0.7191394567489624,-0.039986733347177505,-1.282852053642273
1686425179379475500,12.494475341796875,-0.4862135052680969,0.221994549036026,-1.1599074602127075
1686425179389421600,12.504421630859374,-0.2744322121143341,0.4620504081249237,-0.9914750456809998
1686425179399366400,12.514366455078125,-0.16762906312942505,0.7104055881500244,-0.7768810391426086
1686425179409312300,12.524312255859375,-0.17196670174598694,1.0427331924438477,-0.5010803937911987
1686425179419257300,12.53425732421875,-0.23387400805950165,1.5192147493362427,-0.22807016968727112
1686425179429203200,12.544203125,-0.31461766362190247,1.9919791221618652,-0.004247523844242096
1686425179439148500,12.5541484375,-0.47306349873542786,2.5597071647644043,0.23925353586673737
