time,seconds_elapsed,z,y,x
1686425166987355000,0.10235498046875,-28.631439208984375,-37.0575065612793,-1.238311767578125
1686425166997299700,0.1122998046875,-29.086349487304688,-36.99760818481445,-1.1601486206054688
1686425167007245800,0.122245849609375,-28.691604614257812,-37.40615463256836,-0.81878662109375
1686425167017190700,0.132190673828125,-28.725990295410156,-37.44350051879883,-0.46750640869140625
1686425167027136800,0.14213671875,-28.24048614501953,-37.58488845825195,-0.1873016357421875
1686425167037081600,0.15208154296875,-27.90454864501953,-37.4831657409668,0.08730316162109375
1686425167047027700,0.16202783203125,-27.83422088623047,-37.5454216003418,0.3260650634765625
1686425167056972800,0.171972900390625,-27.952491760253906,-37.42564010620117,0.8080902099609375
1686425167066919000,0.1819189453125,-27.743148803710938,-37.61542892456055,1.404144287109375
1686425167076863700,0.19186376953125,-27.998428344726562,-37.652584075927734,2.053802490234375
1686425167086809600,0.2018095703125,-27.95092010498047,-37.7547492980957,2.4586029052734375
1686425167096754700,0.211754638671875,-27.85448455810547,-37.7337760925293,2.730133056640625
1686425167106700500,0.221700439453125,-28.099456787109375,-37.73433303833008,3.1273040771484375
1686425167116646000,0.23164599609375,-28.20294189453125,-37.49247360229492,3.5307846069335938
1686425167126591700,0.241591796875,-28.268783569335938,-37.548091888427734,3.9571075439453125
1686425167136536800,0.251536865234375,-28.25714874267578,-37.3913459777832,4.2806549072265625
1686425167146482700,0.261482666015625,-28.2470703125,-37.203304290771484,4.583961486816406
1686425167156427500,0.271427490234375,-28.474571228027344,-37.4510612487793,4.960868835449219
1686425167166373600,0.28137353515625,-28.464096069335938,-37.28037643432617,5.483650207519531
1686425167176318700,0.291318603515625,-28.508445739746094,-37.38727951049805,5.903617858886719
1686425167186264800,0.301264892578125,-28.484619140625,-37.22004318237305,6.387809753417969
1686425167196209700,0.311209716796875,-28.620208740234375,-37.12711715698242,6.8099822998046875
1686425167206155800,0.32115576171875,-28.190383911132812,-37.08112716674805,7.078422546386719
1686425167216101600,0.3311015625,-27.945877075195312,-37.10679244995117,7.745063781738281
1686425167226046700,0.341046630859375,-27.825843811035156,-37.08218765258789,8.429672241210938
1686425167235992600,0.35099267578125,-27.65288543701172,-36.97392654418945,8.726158142089844
1686425167245938000,0.36093798828125,-27.852859497070312,-36.939884185791016,9.306541442871094
1686425167255883800,0.3708837890625,-27.849609375,-36.6387825012207,9.874107360839844
1686425167265828900,0.380828857421875,-27.515708923339844,-36.44307327270508,10.601524353027344
1686425167275774700,0.390774658203125,-27.458358764648438,-36.53988265991211,11.205154418945312
1686425167285719600,0.400719482421875,-27.001861572265625,-36.70132827758789,11.958091735839844
1686425167295665700,0.410665771484375,-26.63079071044922,-36.52712631225586,12.80059814453125
1686425167305610800,0.42061083984375,-26.25384521484375,-36.67343521118164,13.742698669433594
1686425167315556900,0.430556884765625,-25.849822998046875,-36.68003463745117,14.551246643066406
1686425167325501700,0.440501708984375,-25.53649139404297,-36.639217376708984,15.252426147460938
1686425167335447800,0.45044775390625,-24.633773803710938,-36.762149810791016,15.889938354492188
1686425167345392600,0.460392578125,-23.960769653320312,-36.67509841918945,16.897621154785156
1686425167355338800,0.4703388671875,-23.065933227539062,-36.770389556884766,17.888107299804688
1686425167365283800,0.480283935546875,-22.0360107421875,-36.94417953491211,18.86438751220703
1686425167375230000,0.49022998046875,-20.648193359375,-37.2529411315918,19.851043701171875
1686425167385174800,0.5001748046875,-19.114761352539062,-37.40620040893555,20.93883514404297
1686425167395120600,0.51012060546875,-17.853744506835938,-37.5155143737793,21.955291748046875
1686425167405065700,0.520065673828125,-15.955162048339844,-37.438175201416016,23.088409423828125
1686425167415011600,0.530011474609375,-14.047378540039062,-37.30234146118164,23.915626525878906
1686425167424956700,0.539956787109375,-12.471107482910156,-37.3858757019043,25.20508575439453
1686425167434902800,0.54990283203125,-10.352638244628906,-37.217952728271484,26.514144897460938
1686425167444847900,0.559847900390625,-7.898284912109375,-36.761600494384766,27.397552490234375
1686425167454793700,0.569793701171875,-6.088165283203125,-36.31303787231445,27.975173950195312
1686425167464738800,0.57973876953125,-4.2722930908203125,-35.587093353271484,29.058822631835938
1686425167474684700,0.5896845703125,-2.41180419921875,-35.05690383911133,29.920806884765625
1686425167484629500,0.59962939453125,-0.2011871337890625,-34.2090950012207,31.090835571289062
1686425167494575600,0.60957568359375,1.310150146484375,-33.1943244934082,32.31462097167969
1686425167504520700,0.619520751953125,3.0163726806640625,-31.66104507446289,33.30805969238281
1686425167514466800,0.629466796875,4.458518981933594,-30.45119857788086,34.46614074707031
1686425167524411600,0.63941162109375,6.290214538574219,-28.405658721923828,35.52891540527344
1686425167534357800,0.649357666015625,7.3314971923828125,-26.871875762939453,36.72925567626953
1686425167544302600,0.659302490234375,8.018989562988281,-24.770244598388672,37.918495178222656
1686425167554248700,0.669248779296875,8.792129516601562,-22.91665267944336,39.088157653808594
1686425167564193800,0.67919384765625,9.345474243164062,-20.900638580322266,39.92893981933594
1686425167574140000,0.689139892578125,9.732879638671875,-18.764270782470703,40.972557067871094
1686425167584084700,0.699084716796875,9.907371520996094,-16.81015396118164,41.81507873535156
1686425167594030600,0.709030517578125,10.194019317626953,-14.92434310913086,42.22944641113281
1686425167603975700,0.7189755859375,10.264175415039062,-12.80972671508789,43.14696502685547
1686425167613921500,0.728921630859375,10.130935668945312,-10.868091583251953,43.805397033691406
1686425167623867000,0.738866943359375,10.548099517822266,-9.056865692138672,44.068824768066406
1686425167633812700,0.748812744140625,10.517333984375,-7.188335418701172,44.29645538330078
1686425167643757800,0.7587578125,10.790679931640625,-5.395660400390625,44.60852813720703
1686425167653703700,0.76870361328125,11.11349868774414,-3.5824203491210938,44.659828186035156
1686425167663648800,0.778648681640625,11.294132232666016,-2.131561279296875,44.931419372558594
1686425167673594600,0.7885947265625,11.194869995117188,-0.5194244384765625,44.81627655029297
1686425167683539700,0.798539794921875,11.457660675048828,1.1231231689453125,44.729957580566406
1686425167693485800,0.80848583984375,11.768314361572266,2.2161941528320312,44.76177215576172
1686425167703430700,0.8184306640625,11.629035949707031,3.5214996337890625,44.69336700439453
1686425167713376800,0.828376708984375,11.629035949707031,3.5214996337890625,44.69336700439453
1686425167723321600,0.838321533203125,11.614151000976562,4.091190338134766,44.64727020263672
1686425167733267700,0.848267822265625,11.581371307373047,4.851001739501953,44.577781677246094
1686425167743212800,0.858212890625,11.35915756225586,5.3515472412109375,44.53356170654297
1686425167753159000,0.868158935546875,11.074657440185547,5.55780029296875,44.58472442626953
1686425167763103700,0.878103759765625,10.981502532958984,5.6349639892578125,44.33911895751953
1686425167773049900,0.8880498046875,11.067611694335938,5.7123870849609375,44.36675262451172
1686425167782994700,0.89799462890625,11.002933502197266,5.6625213623046875,44.686912536621094
1686425167792940500,0.9079404296875,11.172859191894531,5.442626953125,44.39904022216797
1686425167802886000,0.917885986328125,11.159832000732422,5.092132568359375,44.57463836669922
1686425167812831700,0.927831787109375,11.582195281982422,4.4777984619140625,44.382347106933594
1686425167822776800,0.93777685546875,12.166805267333984,3.9737930297851562,44.58226776123047
1686425167832722700,0.94772265625,12.52621841430664,3.6444931030273438,44.52440643310547
1686425167842667800,0.957667724609375,13.1317138671875,3.383899688720703,44.36766815185547
1686425167852613600,0.967613525390625,13.915756225585938,3.3298263549804688,44.114280700683594
1686425167862558700,0.977558837890625,14.784320831298828,3.0958213806152344,43.69158172607422
1686425167872504800,0.9875048828125,15.820877075195312,2.8335304260253906,43.30653381347656
1686425167882449700,0.99744970703125,16.975353240966797,2.674610137939453,42.85736083984375
1686425167892395300,1.007395263671875,17.46733856201172,2.912616729736328,42.59031677246094
1686425167902340000,1.017340087890625,18.25025177001953,2.9900169372558594,42.29615020751953
1686425167912286200,1.0272861328125,19.060672760009766,2.9802703857421875,41.96776580810547
1686425167922231300,1.037231201171875,19.567062377929688,3.1701087951660156,41.560760498046875
1686425167932177400,1.047177490234375,20.182952880859375,3.1728858947753906,41.093177795410156
1686425167942122200,1.057122314453125,20.80331802368164,3.01788330078125,40.998260498046875
1686425167952068400,1.067068359375,21.456504821777344,2.8669776916503906,40.86351013183594
1686425167962013200,1.07701318359375,22.09693145751953,2.5852508544921875,40.34967041015625
1686425167971959300,1.086959228515625,22.446598052978516,2.3794593811035156,39.965545654296875
1686425167981904400,1.096904296875,22.958751678466797,1.9181861877441406,39.759361267089844
1686425167991850500,1.1068505859375,23.17385482788086,1.511505126953125,39.762535095214844
1686425168001795300,1.11679541015625,22.743602752685547,1.3676948547363281,39.75267028808594
1686425168011741200,1.1267412109375,23.01534652709961,0.8777046203613281,39.603553771972656
1686425168021686300,1.136686279296875,23.350482940673828,0.399566650390625,39.54978942871094
1686425168031632100,1.146632080078125,23.43640899658203,0.3825798034667969,39.62367248535156
1686425168041577200,1.1565771484375,23.373092651367188,0.33074951171875,39.878631591796875
1686425168051523300,1.1665234375,23.402206420898438,0.4254875183105469,39.65301513671875
1686425168061468400,1.176468505859375,23.245464324951172,0.365570068359375,39.676231384277344
1686425168071414300,1.186414306640625,23.343524932861328,0.069580078125,39.65460968017578
1686425168081359400,1.196359375,23.47369384765625,-0.18102264404296875,39.513648986816406
1686425168091305200,1.20630517578125,23.81702423095703,-0.5883064270019531,39.69129943847656
1686425168101250000,1.21625,23.44143295288086,-0.8398857116699219,39.606346130371094
1686425168111196200,1.226196044921875,23.623676300048828,-1.6099586486816406,39.73662567138672
1686425168121142300,1.236142333984375,23.33484649658203,-1.9727096557617188,39.63543701171875
1686425168131087400,1.24608740234375,23.298992156982422,-2.1566848754882812,39.581024169921875
1686425168141033200,1.256033203125,23.247516632080078,-1.9467887878417969,39.46759796142578
1686425168150978300,1.265978271484375,22.762123107910156,-1.7887306213378906,39.902374267578125
1686425168160924200,1.275924072265625,22.592418670654297,-1.1910247802734375,40.21733093261719
1686425168170869200,1.285869140625,22.155258178710938,-0.7161483764648438,40.60369873046875
1686425168180815000,1.295815185546875,22.108352661132812,-0.06507110595703125,40.60284423828125
1686425168190760400,1.305760498046875,22.013973236083984,0.7749290466308594,40.51606750488281
1686425168200706300,1.315706298828125,21.88516616821289,1.8278312683105469,40.63726043701172
1686425168210651100,1.325651123046875,21.830345153808594,3.066162109375,40.535743713378906
1686425168220597200,1.33559716796875,21.743404388427734,4.516426086425781,40.38170623779297
1686425168230542000,1.3455419921875,21.90673065185547,6.534751892089844,40.116363525390625
1686425168240488200,1.35548828125,22.370304107666016,8.37563705444336,39.690765380859375
1686425168250433300,1.365433349609375,22.22606658935547,10.237838745117188,39.34998321533203
1686425168260379400,1.37537939453125,22.116771697998047,12.01324462890625,38.685386657714844
1686425168270324200,1.38532421875,21.90915298461914,13.65130615234375,38.40314483642578
1686425168280270300,1.395270263671875,21.540111541748047,15.093795776367188,37.998497009277344
1686425168290215200,1.405215087890625,21.80434799194336,16.14297103881836,37.468528747558594
1686425168300161300,1.415161376953125,21.578773498535156,17.313854217529297,36.84521484375
1686425168310106400,1.4251064453125,21.691333770751953,18.117347717285156,36.595367431640625
1686425168320052500,1.435052490234375,21.44321060180664,19.046092987060547,36.36676025390625
1686425168329997300,1.444997314453125,21.359111785888672,19.803085327148438,36.0159912109375
1686425168339943200,1.454943115234375,21.49850082397461,20.417598724365234,35.52643585205078
1686425168349888300,1.46488818359375,21.516590118408203,21.15057373046875,34.97962951660156
1686425168359834000,1.474834228515625,21.57988739013672,21.825027465820312,34.486175537109375
1686425168369779500,1.484779541015625,21.87631607055664,22.61948013305664,34.11262512207031
1686425168379725300,1.494725341796875,22.280094146728516,23.151344299316406,33.52574157714844
1686425168389670400,1.50467041015625,22.37389373779297,23.766921997070312,32.77839660644531
1686425168399616300,1.5146162109375,22.340484619140625,24.496620178222656,32.17450714111328
1686425168409561000,1.52456103515625,21.925338745117188,25.274879455566406,31.615272521972656
1686425168419507200,1.534507080078125,21.892799377441406,26.383378982543945,31.01507568359375
1686425168429452300,1.544452392578125,21.981956481933594,27.142484664916992,30.342689514160156
1686425168439398400,1.5543984375,21.875202178955078,27.91460418701172,29.74633026123047
1686425168449343200,1.56434326171875,21.990581512451172,28.39546775817871,28.91838836669922
1686425168459289300,1.574289306640625,21.90898895263672,29.250652313232422,28.37731170654297
1686425168469234200,1.584234130859375,22.030357360839844,30.108856201171875,27.3564453125
1686425168479180300,1.59418017578125,22.200042724609375,31.207067489624023,26.548240661621094
1686425168489125400,1.60412548828125,22.200042724609375,31.207067489624023,26.548240661621094
1686425168499071200,1.6140712890625,21.78234100341797,32.147090911865234,25.740814208984375
1686425168509016300,1.624016357421875,21.39669418334961,33.36769485473633,24.73174285888672
1686425168518962400,1.63396240234375,20.36953353881836,34.506500244140625,23.655494689941406
1686425168528907300,1.6439072265625,20.064193725585938,35.80348205566406,22.50072479248047
1686425168538853000,1.65385302734375,19.348072052001953,36.762840270996094,20.82172393798828
1686425168548798200,1.663798095703125,18.476512908935547,37.68284606933594,18.969696044921875
1686425168558744300,1.673744384765625,18.23682403564453,39.02412414550781,17.20063018798828
1686425168568689400,1.683689453125,17.615764617919922,40.19329071044922,15.142684936523438
1686425168578635300,1.69363525390625,16.995216369628906,41.09046936035156,13.3134765625
1686425168588580400,1.703580322265625,17.378623962402344,41.88544464111328,11.011543273925781
1686425168598526200,1.713526123046875,17.040363311767578,42.5024528503418,9.321952819824219
1686425168608471000,1.723470947265625,16.87860870361328,43.136070251464844,7.661262512207031
1686425168618417200,1.733417236328125,16.449264526367188,43.19993209838867,6.864906311035156
1686425168628362200,1.7433623046875,16.199756622314453,43.51197814941406,6.544807434082031
1686425168638308400,1.753308349609375,15.886444091796875,43.36967468261719,6.593994140625
1686425168648253200,1.763253173828125,15.399295806884766,43.54179382324219,6.531501770019531
1686425168658199300,1.77319921875,15.08749008178711,43.56346893310547,7.1309967041015625
1686425168668144000,1.78314404296875,14.740680694580078,43.81218338012695,7.298431396484375
1686425168678090200,1.79309033203125,14.068153381347656,43.82330322265625,7.51556396484375
1686425168688035300,1.803035400390625,13.69748306274414,44.01519012451172,7.498268127441406
1686425168697981400,1.8129814453125,13.472740173339844,44.14850997924805,7.708488464355469
1686425168707926300,1.82292626953125,13.230388641357422,44.158958435058594,8.0933837890625
1686425168717872400,1.832872314453125,13.050243377685547,43.96839141845703,8.305694580078125
1686425168727817200,1.842817138671875,13.498817443847656,43.742637634277344,9.172393798828125
1686425168737763000,1.85276318359375,13.763275146484375,43.28718185424805,10.098945617675781
1686425168747708400,1.86270849609375,14.443504333496094,43.15769577026367,10.537506103515625
1686425168757654300,1.872654296875,15.045417785644531,42.727210998535156,11.371261596679688
1686425168767599400,1.882599365234375,15.702751159667969,42.26725769042969,11.728828430175781
1686425168777545200,1.892545166015625,16.795700073242188,41.72672653198242,12.174430847167969
1686425168787490300,1.902490234375,17.47469711303711,41.25586700439453,12.445571899414062
1686425168797436200,1.912436279296875,18.394699096679688,40.66673278808594,12.784736633300781
1686425168807381500,1.922381591796875,19.489604949951172,40.29530334472656,13.000869750976562
1686425168817327400,1.932327392578125,20.108379364013672,39.736663818359375,13.35235595703125
1686425168827272200,1.942272216796875,20.686111450195312,39.33184051513672,13.760749816894531
1686425168837218300,1.95221826171875,20.738605499267578,38.83576583862305,14.381782531738281
1686425168847163100,1.9621630859375,20.998939514160156,38.61333084106445,15.005096435546875
1686425168857109200,1.972109130859375,20.56942367553711,38.572654724121094,16.135215759277344
1686425168867054300,1.982054443359375,19.774154663085938,38.468658447265625,17.239356994628906
1686425168877000400,1.99200048828125,18.895790100097656,38.34471893310547,18.368362426757812
1686425168886945000,2.001945068359375,17.014991760253906,38.47494888305664,19.325973510742188
1686425168896891100,2.01189111328125,15.417877197265625,38.52350616455078,20.29918670654297
1686425168906836000,2.0218359375,13.620613098144531,39.21306228637695,21.209854125976562
1686425168916782000,2.031781982421875,11.560531616210938,39.30447769165039,21.89209747314453
1686425168926728000,2.04172802734375,10.001945495605469,39.762386322021484,22.201988220214844
1686425168936673000,2.051673095703125,8.034912109375,39.96735382080078,22.393592834472656
1686425168946619100,2.061619140625,6.727294921875,40.321502685546875,22.78112030029297
1686425168956564000,2.07156396484375,5.674690246582031,40.255130767822266,22.638107299804688
1686425168966510000,2.081510009765625,4.315971374511719,40.28007888793945,22.73590087890625
1686425168976455000,2.091454833984375,3.738555908203125,40.59039306640625,22.79814910888672
1686425168986401000,2.101401123046875,3.43084716796875,40.319541931152344,22.945823669433594
1686425168996346000,2.11134619140625,3.5237503051757812,40.08235168457031,22.727020263671875
1686425169006292200,2.121292236328125,3.5760116577148438,40.30278778076172,23.03343963623047
1686425169016237000,2.131237060546875,4.102210998535156,40.09748077392578,23.1319580078125
1686425169026183200,2.14118310546875,4.581245422363281,39.85178756713867,23.541030883789062
1686425169036128000,2.1511279296875,5.4420623779296875,39.421478271484375,23.987640380859375
1686425169046073900,2.161073974609375,6.045005798339844,39.218875885009766,24.242469787597656
1686425169056019000,2.17101904296875,7.157470703125,39.098915100097656,24.280029296875
1686425169065965000,2.180965087890625,8.108154296875,38.94811248779297,24.068710327148438
1686425169075910100,2.19091015625,9.105636596679688,38.450531005859375,23.721458435058594
1686425169085856000,2.20085595703125,10.370594024658203,38.47041702270508,23.735198974609375
1686425169095801000,2.210801025390625,11.40951919555664,38.28886795043945,23.211692810058594
1686425169105747000,2.220746826171875,12.270233154296875,38.40642547607422,22.639892578125
1686425169115692000,2.230692138671875,13.540973663330078,38.44873046875,22.202987670898438
1686425169125638000,2.240637939453125,14.627777099609375,38.59522247314453,21.83928680419922
1686425169135583000,2.2505830078125,15.58706283569336,38.651214599609375,21.4542236328125
1686425169145529000,2.260529052734375,16.06093978881836,38.57325744628906,21.014686584472656
1686425169155474000,2.270473876953125,16.506153106689453,38.355186462402344,20.85137176513672
1686425169165420000,2.280419921875,17.044822692871094,38.0103759765625,20.85358428955078
1686425169175364900,2.29036474609375,16.78656768798828,38.158077239990234,20.58000946044922
1686425169185311000,2.30031103515625,16.972854614257812,38.02442169189453,20.638832092285156
1686425169195256000,2.310256103515625,17.744548797607422,37.97454071044922,19.903915405273438
1686425169205202200,2.3202021484375,18.48785400390625,37.9451789855957,18.83850860595703
1686425169215147000,2.33014697265625,20.246856689453125,38.00225067138672,17.24675750732422
1686425169225093000,2.340093017578125,21.94705581665039,37.71634292602539,15.532936096191406
1686425169235038000,2.350037841796875,22.978099822998047,37.65587615966797,13.889198303222656
1686425169244983800,2.35998388671875,24.014686584472656,37.595314025878906,12.738128662109375
1686425169254929200,2.36992919921875,24.960506439208984,37.26017379760742,11.712242126464844
1686425169264875000,2.379875,24.960506439208984,37.26017379760742,11.712242126464844
1686425169274820000,2.389820068359375,25.68072509765625,36.816123962402344,11.14117431640625
1686425169284766000,2.399765869140625,26.392414093017578,36.436073303222656,11.207427978515625
1686425169294711000,2.4097109375,26.461193084716797,36.40151596069336,11.471992492675781
1686425169304657000,2.419656982421875,26.614456176757812,36.3824462890625,11.403831481933594
1686425169314602200,2.429602294921875,25.89511489868164,36.68943405151367,11.628463745117188
1686425169324548000,2.439548095703125,25.78321075439453,37.07136535644531,12.192314147949219
1686425169334493000,2.449492919921875,24.780101776123047,37.13971710205078,12.580757141113281
1686425169344439000,2.45943896484375,23.885875701904297,37.72049331665039,13.072586059570312
1686425169354384000,2.4693837890625,23.38167953491211,37.8330078125,13.148796081542969
1686425169364330000,2.479330078125,23.10999298095703,38.0145263671875,13.063880920410156
1686425169374275000,2.489275146484375,22.944446563720703,38.184059143066406,12.732810974121094
1686425169384221200,2.49922119140625,22.677165985107422,38.33671188354492,13.220108032226562
1686425169394166000,2.509166015625,22.339733123779297,38.59847640991211,13.456687927246094
1686425169404112100,2.519112060546875,21.909427642822266,38.46626281738281,14.142868041992188
1686425169414057000,2.529056884765625,21.10836410522461,38.540283203125,14.6435546875
1686425169424003000,2.539003173828125,20.68389892578125,38.61396026611328,15.498970031738281
1686425169433948200,2.5489482421875,20.395160675048828,38.165130615234375,16.046058654785156
1686425169443894000,2.55889404296875,19.944351196289062,38.161197662353516,16.773345947265625
1686425169453839000,2.568839111328125,19.374919891357422,38.24656677246094,17.723609924316406
1686425169463785000,2.578784912109375,18.905338287353516,37.90443420410156,18.572479248046875
1686425169473730000,2.58872998046875,18.650436401367188,37.7160758972168,19.224395751953125
1686425169483676000,2.598676025390625,18.938827514648438,37.62245178222656,19.894989013671875
1686425169493621000,2.60862109375,18.91580581665039,37.417327880859375,20.165504455566406
1686425169503567000,2.618567138671875,18.65996551513672,37.081153869628906,20.29071044921875
1686425169513512200,2.62851220703125,18.954078674316406,37.199554443359375,20.562217712402344
1686425169523458000,2.6384580078125,19.133716583251953,37.14318084716797,20.607315063476562
1686425169533403000,2.64840283203125,19.437854766845703,36.780052185058594,20.573097229003906
1686425169543349000,2.658348876953125,19.84754180908203,36.76911926269531,20.45378875732422
1686425169553293800,2.6682939453125,19.998779296875,36.654457092285156,20.46148681640625
1686425169563240000,2.678239990234375,20.11832046508789,36.41149139404297,20.249801635742188
1686425169573186000,2.68818603515625,20.46328353881836,36.50856018066406,20.265655517578125
1686425169583131100,2.698131103515625,21.0885009765625,36.522422790527344,19.895706176757812
1686425169593077000,2.708076904296875,20.83697509765625,36.47259521484375,19.3636474609375
1686425169603022000,2.71802197265625,21.212181091308594,36.47732925415039,18.950965881347656
1686425169612968000,2.727968017578125,21.12131118774414,36.42560577392578,18.69548797607422
1686425169622913000,2.7379130859375,21.279075622558594,36.746124267578125,18.4781494140625
1686425169632859000,2.74785888671875,21.766677856445312,36.56322479248047,18.216964721679688
1686425169642804000,2.757803955078125,21.72846221923828,36.698150634765625,17.767982482910156
1686425169652750000,2.76775,21.6011962890625,36.853797912597656,17.427871704101562
1686425169662695000,2.77769482421875,21.68022918701172,36.93183898925781,17.349609375
1686425169672641000,2.78764111328125,21.827983856201172,37.26063537597656,16.813812255859375
1686425169682585900,2.7975859375,22.032913208007812,37.27458190917969,16.809112548828125
1686425169692532000,2.807531982421875,21.980789184570312,37.449790954589844,16.409210205078125
1686425169702477000,2.81747705078125,21.676681518554688,37.87241744995117,15.797462463378906
1686425169712423200,2.827423095703125,21.581451416015625,37.92724609375,15.477363586425781
1686425169722368000,2.837367919921875,21.354782104492188,38.31757736206055,15.12176513671875
1686425169732314000,2.847314208984375,21.093616485595703,38.473304748535156,14.831398010253906
1686425169742259000,2.857259033203125,20.88123321533203,38.70044708251953,14.510307312011719
1686425169752205000,2.867205078125,20.492202758789062,38.814544677734375,14.574188232421875
1686425169762150100,2.877150146484375,20.583404541015625,39.09466552734375,13.861457824707031
1686425169772096000,2.887095947265625,20.55603790283203,39.21037292480469,13.455581665039062
1686425169782041000,2.897041015625,20.675487518310547,39.43537139892578,13.005180358886719
1686425169791987000,2.906987060546875,20.863399505615234,39.5706672668457,12.559761047363281
1686425169801932000,2.91693212890625,20.205856323242188,39.63717269897461,11.926132202148438
1686425169811878000,2.9268779296875,20.182090759277344,39.80624008178711,11.717803955078125
1686425169821823200,2.9368232421875,19.923702239990234,40.332618713378906,10.848709106445312
1686425169831769000,2.94676904296875,19.82275390625,40.51708984375,10.464645385742188
1686425169841714000,2.9567138671875,19.36385726928711,41.152069091796875,10.141120910644531
1686425169851660000,2.966659912109375,18.58301544189453,41.286869049072266,9.878372192382812
1686425169861604900,2.97660498046875,17.687232971191406,41.92858123779297,9.73919677734375
1686425169871551000,2.986551025390625,17.471603393554688,42.23509216308594,9.7418212890625
1686425169881496000,2.99649609375,16.786842346191406,42.18773651123047,9.94073486328125
1686425169891442200,3.006442138671875,16.66583251953125,42.40781784057617,9.8076171875
1686425169901387300,3.01638720703125,16.685588836669922,42.52368927001953,9.748588562011719
1686425169911333400,3.02633349609375,16.564807891845703,42.32331848144531,9.953208923339844
1686425169921278200,3.0362783203125,16.703960418701172,42.277252197265625,10.316764831542969
1686425169931224300,3.046224365234375,17.16033935546875,41.89777755737305,10.4246826171875
1686425169941169200,3.056169189453125,17.400218963623047,41.50337219238281,10.778923034667969
1686425169951115300,3.066115234375,17.850505828857422,41.2652473449707,11.238105773925781
1686425169961060400,3.076060302734375,18.73111343383789,40.878326416015625,11.662300109863281
1686425169971006200,3.086006103515625,19.310619354248047,40.354530334472656,12.438667297363281
1686425169980951300,3.095951416015625,19.41878890991211,40.112701416015625,12.935478210449219
1686425169990897200,3.105897216796875,19.241886138916016,39.324520111083984,13.899063110351562
1686425170000842200,3.11584228515625,19.807987213134766,39.00347900390625,14.599395751953125
1686425170010788000,3.1257880859375,20.33612060546875,38.684906005859375,15.472770690917969
1686425170020733400,3.1357333984375,20.17416000366211,38.53900909423828,16.179649353027344
1686425170030679300,3.14567919921875,19.85715103149414,38.173282623291016,16.661666870117188
1686425170040624400,3.155624267578125,19.85715103149414,38.173282623291016,16.661666870117188
1686425170050570200,3.1655703125,19.266483306884766,38.468894958496094,17.03156280517578
1686425170060516400,3.175516357421875,18.641887664794922,38.604278564453125,17.270896911621094
1686425170070461200,3.185461181640625,17.719707489013672,39.04669952392578,17.50318145751953
1686425170080407300,3.1954072265625,16.58995819091797,39.53020477294922,17.340293884277344
1686425170090352400,3.205352294921875,15.812549591064453,39.785675048828125,17.363853454589844
1686425170100298200,3.21529833984375,14.513687133789062,39.86705017089844,17.775169372558594
1686425170110243300,3.225243408203125,14.708351135253906,40.11654281616211,17.877967834472656
1686425170120189200,3.235189208984375,14.361152648925781,39.960357666015625,18.21051025390625
1686425170130134300,3.24513427734375,15.03268814086914,39.762664794921875,18.35240936279297
1686425170140080000,3.255080078125,15.68558120727539,39.722991943359375,18.434249877929688
1686425170150025500,3.265025390625,16.311969757080078,39.369529724121094,18.35601806640625
1686425170159971300,3.274971435546875,17.41317367553711,38.78343200683594,17.807464599609375
1686425170169916400,3.28491650390625,18.82095718383789,38.61212158203125,17.83160400390625
1686425170179862300,3.2948623046875,19.771846771240234,37.905601501464844,17.578842163085938
1686425170189807000,3.30480712890625,20.98206329345703,37.34592056274414,16.895416259765625
1686425170199753200,3.314753173828125,22.590167999267578,37.03643798828125,16.35718536376953
1686425170209698300,3.3246982421875,23.847030639648438,36.85988998413086,15.663688659667969
1686425170219644400,3.33464453125,24.137779235839844,36.184410095214844,15.227561950683594
1686425170229589200,3.34458935546875,24.99105453491211,35.729705810546875,14.987091064453125
1686425170239535400,3.354535400390625,25.44794464111328,35.57939910888672,14.682212829589844
1686425170249480200,3.364480224609375,25.647624969482422,35.434547424316406,14.083274841308594
1686425170259426300,3.37442626953125,25.696880340576172,35.47538757324219,14.157470703125
1686425170269371400,3.384371337890625,25.623275756835938,35.749813079833984,13.507484436035156
1686425170279317500,3.3943173828125,25.67314910888672,35.786041259765625,13.061027526855469
1686425170289262300,3.404262451171875,25.484962463378906,36.37256622314453,11.941055297851562
1686425170299208200,3.414208251953125,25.023536682128906,36.84264373779297,11.20111083984375
1686425170309153300,3.4241533203125,25.134132385253906,37.19731903076172,10.512588500976562
1686425170319099100,3.43409912109375,25.080738067626953,37.31303024291992,9.637252807617188
1686425170329044200,3.444044189453125,25.920185089111328,37.31325912475586,8.331375122070312
1686425170338990300,3.453990234375,26.510540008544922,36.98268127441406,7.308326721191406
1686425170348935400,3.463935302734375,27.738536834716797,36.366363525390625,6.314979553222656
1686425170358881300,3.47388134765625,28.840606689453125,35.606224060058594,5.151359558105469
1686425170368826400,3.483826416015625,29.79944610595703,34.933387756347656,3.8258514404296875
1686425170378772200,3.493772216796875,29.98712921142578,34.79886245727539,3.3225936889648438
1686425170388717000,3.503717041015625,29.92774200439453,34.661556243896484,3.2073898315429688
1686425170398663200,3.5136630859375,30.362247467041016,34.646034240722656,3.5819091796875
1686425170408608300,3.523608154296875,30.54821014404297,34.39717483520508,4.746063232421875
1686425170418554400,3.533554443359375,30.435420989990234,34.25067901611328,5.471351623535156
1686425170428499200,3.543499267578125,30.275558471679688,34.24193572998047,6.1717071533203125
1686425170438445300,3.5534453125,29.90430450439453,34.532630920410156,7.103874206542969
1686425170448390100,3.56339013671875,29.025680541992188,35.00904083251953,7.8206939697265625
1686425170458336300,3.573336181640625,28.199417114257812,35.605777740478516,8.499557495117188
1686425170468281300,3.58328125,27.537342071533203,35.81549072265625,9.348213195800781
1686425170478227500,3.5932275390625,26.811283111572266,36.38468933105469,9.930503845214844
1686425170488173300,3.60317333984375,26.077167510986328,36.39646530151367,10.624771118164062
1686425170498118100,3.6131181640625,25.19681167602539,36.71841049194336,11.045608520507812
1686425170508064300,3.623064208984375,24.677513122558594,36.76732635498047,11.8685302734375
1686425170518009000,3.633009033203125,24.023998260498047,36.99687957763672,12.455924987792969
1686425170527955200,3.642955078125,23.741310119628906,37.03330993652344,13.503250122070312
1686425170537900300,3.652900390625,23.372520446777344,36.841163635253906,14.063728332519531
1686425170547846400,3.662846435546875,22.719497680664062,36.70655059814453,14.844100952148438
1686425170557791200,3.672791259765625,22.498668670654297,36.80801773071289,15.728218078613281
1686425170567737300,3.6827373046875,21.926803588867188,36.506229400634766,16.769386291503906
1686425170577682200,3.69268212890625,21.67562484741211,36.233802795410156,17.813873291015625
1686425170587628300,3.702628173828125,21.713035583496094,35.876800537109375,18.701950073242188
1686425170597573400,3.712573486328125,21.92083740234375,35.53999328613281,19.56096649169922
1686425170607519500,3.72251953125,21.22684097290039,35.050289154052734,20.448265075683594
1686425170617464300,3.73246435546875,21.250667572021484,34.786659240722656,20.912673950195312
1686425170627410200,3.74241015625,21.40658187866211,34.69711685180664,21.287673950195312
1686425170637355300,3.752355224609375,20.566226959228516,34.72145462036133,21.97039031982422
1686425170647301000,3.762301025390625,20.387290954589844,34.66007995605469,22.059097290039062
1686425170657246500,3.77224658203125,20.52597427368164,34.662574768066406,22.39202117919922
1686425170667192300,3.7821923828125,20.351707458496094,34.83158874511719,22.310569763183594
1686425170677137400,3.792137451171875,19.97304916381836,34.910247802734375,22.56604766845703
1686425170687083300,3.802083251953125,19.453929901123047,35.13579177856445,22.636215209960938
1686425170697028000,3.812028076171875,18.551651000976562,35.06945037841797,22.734947204589844
1686425170706974200,3.82197412109375,17.730377197265625,35.44679641723633,22.975860595703125
1686425170716919300,3.831919189453125,17.308834075927734,35.47751998901367,22.993186950683594
1686425170726865400,3.841865478515625,16.847919464111328,35.831756591796875,23.028175354003906
1686425170736810200,3.851810302734375,16.238616943359375,36.33479309082031,22.876312255859375
1686425170746756400,3.86175634765625,15.724407196044922,36.69953918457031,22.930282592773438
1686425170756701200,3.871701171875,15.736244201660156,36.87373352050781,22.638397216796875
1686425170766647300,3.881647216796875,15.287078857421875,37.31617736816406,22.442703247070312
1686425170776592100,3.891592041015625,15.046829223632812,37.372413635253906,22.494873046875
1686425170786538200,3.901538330078125,14.893558502197266,37.60683822631836,22.02558135986328
1686425170796483300,3.9114833984375,14.781330108642578,37.865089416503906,21.77978515625
1686425170806429400,3.921429443359375,14.85858154296875,38.193729400634766,21.47374725341797
1686425170816374300,3.931374267578125,14.85858154296875,38.193729400634766,21.47374725341797
1686425170826320100,3.941320068359375,14.574722290039062,38.22662353515625,21.52832794189453
1686425170836265200,3.95126513671875,14.378047943115234,38.487548828125,21.463455200195312
1686425170846211000,3.961211181640625,14.356853485107422,38.62920379638672,21.17279052734375
1686425170856156400,3.971156494140625,14.329532623291016,38.55760955810547,20.974754333496094
1686425170866102300,3.981102294921875,14.111732482910156,38.60006332397461,21.10089874267578
1686425170876048400,3.99104833984375,14.136333465576172,38.36304473876953,20.96820068359375
1686425170885993200,4.0009931640625,13.725883483886719,38.50792694091797,20.990570068359375
1686425170895939000,4.01093896484375,13.704265594482422,38.65434265136719,20.67047119140625
1686425170905884000,4.0208837890625,14.296211242675781,38.677886962890625,20.22119903564453
1686425170915830000,4.030830078125,14.944343566894531,38.678504943847656,19.800704956054688
1686425170925775000,4.040775146484375,15.370803833007812,38.926048278808594,19.140579223632812
1686425170935721200,4.05072119140625,15.88968276977539,39.2370491027832,18.295326232910156
1686425170945666000,4.060666015625,16.439178466796875,39.40837860107422,17.042922973632812
1686425170955612200,4.070612060546875,16.77794647216797,39.825286865234375,16.256431579589844
1686425170965557000,4.080556884765625,17.105880737304688,39.82931137084961,15.069381713867188
1686425170975503000,4.090503173828125,17.14373779296875,40.1070556640625,14.776611328125
1686425170985448200,4.1004482421875,17.029895782470703,40.05411148071289,15.003929138183594
1686425170995394000,4.11039404296875,16.51156997680664,39.70230484008789,15.635475158691406
1686425171005339100,4.120339111328125,16.457775115966797,39.49177551269531,16.440078735351562
1686425171015285000,4.130284912109375,16.351947784423828,39.15786361694336,17.34252166748047
1686425171025230000,4.14022998046875,16.392704010009766,38.90168762207031,17.77220916748047
1686425171035176000,4.150176025390625,16.224201202392578,38.42604064941406,18.375205993652344
1686425171045121300,4.160121337890625,16.63470458984375,38.15837860107422,18.5433349609375
1686425171055067100,4.170067138671875,16.229843139648438,38.35356140136719,18.592025756835938
1686425171065012200,4.18001220703125,16.08940887451172,38.53239440917969,18.423873901367188
1686425171074958000,4.1899580078125,15.364429473876953,38.628562927246094,18.424461364746094
1686425171084903000,4.19990283203125,14.684185028076172,39.27973556518555,18.094703674316406
1686425171094849000,4.20984912109375,13.309188842773438,39.616058349609375,18.172134399414062
1686425171104794000,4.219794189453125,11.954231262207031,40.016422271728516,18.240638732910156
1686425171114740200,4.229740234375,10.341869354248047,40.46222686767578,18.74749755859375
1686425171124685000,4.23968505859375,8.847648620605469,40.644264221191406,18.91779327392578
1686425171134631200,4.249631103515625,7.523612976074219,40.74919128417969,19.26030731201172
1686425171144576000,4.259575927734375,7.127288818359375,41.023353576660156,19.68756103515625
1686425171154522000,4.269522216796875,6.700408935546875,40.85200881958008,19.684677124023438
1686425171164468000,4.279468017578125,7.268989562988281,40.77302551269531,19.86700439453125
1686425171174413300,4.289413330078125,7.846138000488281,40.687660217285156,19.837570190429688
1686425171184359200,4.299359130859375,9.051490783691406,40.23351287841797,20.23217010498047
1686425171194304000,4.309303955078125,10.078857421875,39.357967376708984,20.277023315429688
1686425171204250000,4.31925,11.629714965820312,38.772552490234375,20.858612060546875
1686425171214195000,4.32919482421875,13.22314453125,38.14419174194336,20.91759490966797
1686425171224141000,4.33914111328125,14.853141784667969,37.51007080078125,21.50975799560547
1686425171234086100,4.349086181640625,16.546249389648438,36.77163314819336,21.914085388183594
1686425171244032300,4.3590322265625,18.117290496826172,35.912841796875,21.849029541015625
1686425171253977000,4.36897705078125,19.299976348876953,35.175254821777344,21.834449768066406
1686425171263923200,4.378923095703125,20.355701446533203,34.757667541503906,21.816329956054688
1686425171273868000,4.388867919921875,21.231239318847656,34.202186584472656,21.399429321289062
1686425171283814100,4.398814208984375,22.422080993652344,33.76583480834961,20.747055053710938
1686425171293759200,4.40875927734375,23.274822235107422,33.42665100097656,20.38488006591797
1686425171303705000,4.418705078125,23.614269256591797,33.280540466308594,20.082290649414062
1686425171313650200,4.428650146484375,24.178180694580078,33.189239501953125,19.74170684814453
1686425171323596000,4.438595947265625,24.645427703857422,33.177589416503906,19.31110382080078
1686425171333541000,4.448541015625,24.40395736694336,33.23198699951172,19.336830139160156
1686425171343487000,4.458487060546875,24.553192138671875,33.50857925415039,19.05535888671875
1686425171353432000,4.46843212890625,24.25189971923828,33.92436218261719,18.39136505126953
1686425171363378000,4.4783779296875,23.983558654785156,34.45494079589844,17.98670196533203
1686425171373323300,4.4883232421875,23.63943862915039,34.99006271362305,17.210037231445312
1686425171383269000,4.49826904296875,23.29507064819336,35.49313735961914,16.48511505126953
1686425171393214000,4.5082138671875,22.992603302001953,36.11280059814453,15.800308227539062
1686425171403160000,4.51816015625,23.256561279296875,36.375946044921875,14.533935546875
1686425171413105000,4.52810498046875,24.04409408569336,36.33162307739258,13.006988525390625
1686425171423051000,4.538051025390625,25.600772857666016,36.30511474609375,11.143524169921875
1686425171432996000,4.54799609375,26.03140640258789,35.98456573486328,9.695907592773438
1686425171442942200,4.557942138671875,26.630931854248047,35.364463806152344,8.647880554199219
1686425171452887000,4.567886962890625,27.290512084960938,35.074188232421875,8.488334655761719
1686425171462833200,4.577833251953125,27.493122100830078,34.90629577636719,8.798263549804688
1686425171472778000,4.587778076171875,27.547164916992188,34.74224853515625,9.967979431152344
1686425171482724000,4.59772412109375,27.482158660888672,34.59031677246094,11.036941528320312
1686425171492669200,4.607669189453125,27.21044158935547,34.29376983642578,12.159027099609375
1686425171502615300,4.617615234375,26.587787628173828,34.23827362060547,13.279769897460938
1686425171512561200,4.62756103515625,25.926254272460938,34.31517791748047,14.221878051757812
1686425171522506000,4.637506103515625,25.1663818359375,34.59675979614258,15.011512756347656
1686425171532452000,4.6474521484375,24.777477264404297,34.619503021240234,15.464340209960938
1686425171542397000,4.65739697265625,24.340469360351562,34.99011993408203,16.155044555664062
1686425171552343000,4.667343017578125,23.554931640625,35.02256774902344,16.347305297851562
1686425171562288000,4.6772880859375,23.488235473632812,35.063087463378906,16.571495056152344
1686425171572234200,4.687234130859375,23.311473846435547,34.9355354309082,16.979995727539062
1686425171582179000,4.697178955078125,22.875076293945312,34.89946365356445,17.385330200195312
1686425171592125200,4.707125244140625,22.875076293945312,34.89946365356445,17.385330200195312
1686425171602070000,4.717070068359375,22.849445343017578,34.88526916503906,17.47650909423828
1686425171612016000,4.72701611328125,22.45793914794922,35.00013732910156,18.09992218017578
1686425171621961200,4.736961181640625,21.875389099121094,34.87941360473633,18.47290802001953
1686425171631907300,4.7469072265625,21.78561019897461,34.89373016357422,18.689102172851562
1686425171641852200,4.75685205078125,21.534347534179688,34.974082946777344,18.982696533203125
1686425171651798000,4.766798095703125,21.342891693115234,34.950355529785156,19.746360778808594
1686425171661743000,4.7767431640625,20.945213317871094,34.871673583984375,20.074241638183594
1686425171671689000,4.78668896484375,20.757694244384766,34.612918853759766,20.560028076171875
1686425171681634300,4.79663427734375,20.31456756591797,34.69480514526367,21.14488983154297
1686425171691580200,4.806580078125,19.495044708251953,34.38350296020508,21.876792907714844
1686425171701525200,4.816525146484375,19.049766540527344,34.5584716796875,22.27593994140625
1686425171711471000,4.82647119140625,18.837085723876953,34.63578796386719,22.705398559570312
1686425171721416000,4.836416015625,18.61518096923828,34.51061248779297,22.89154052734375
1686425171731362000,4.846362060546875,18.439571380615234,34.697364807128906,22.99944305419922
1686425171741307100,4.85630712890625,18.203678131103516,34.59248733520508,23.203277587890625
1686425171751253200,4.866253173828125,17.84001922607422,34.89448547363281,23.07281494140625
1686425171761198000,4.876197998046875,17.539134979248047,34.86271667480469,22.984214782714844
1686425171771144200,4.886144287109375,17.151042938232422,35.253562927246094,22.86798858642578
1686425171781089000,4.896089111328125,16.716197967529297,35.40349578857422,22.896224975585938
1686425171791035100,4.90603515625,15.96645736694336,35.645450592041016,22.756912231445312
1686425171800980000,4.91597998046875,15.405956268310547,35.759803771972656,22.54247283935547
1686425171810926000,4.925926025390625,15.056953430175781,36.00407409667969,22.636642456054688
1686425171820872200,4.9358720703125,14.60073471069336,36.54108428955078,22.48590087890625
1686425171830817300,4.9458173828125,13.991779327392578,36.638694763183594,22.10125732421875
1686425171840763100,4.95576318359375,13.621200561523438,36.94947814941406,21.888633728027344
1686425171850708000,4.9657080078125,13.403064727783203,37.10059356689453,21.508132934570312
1686425171860654000,4.975654052734375,13.372356414794922,37.30586242675781,21.194137573242188
1686425171870599000,4.985598876953125,13.20501708984375,37.475929260253906,21.015830993652344
1686425171880545000,4.995544921875,13.327102661132812,37.69734191894531,20.47675323486328
1686425171890490000,5.005489990234375,13.473495483398438,37.88532257080078,20.19457244873047
1686425171900436200,5.015436279296875,13.433467864990234,37.927589416503906,19.88433074951172
1686425171910381000,5.025381103515625,13.950691223144531,38.22473907470703,19.877593994140625
1686425171920327200,5.0353271484375,14.011871337890625,38.26685333251953,19.331558227539062
1686425171930272000,5.04527197265625,14.1746826171875,38.27533721923828,19.050430297851562
1686425171940218000,5.055218017578125,14.738178253173828,38.23590087890625,18.581634521484375
1686425171950163200,5.0651630859375,15.036083221435547,38.44782257080078,18.14459991455078
1686425171960109300,5.075109375,15.027103424072266,38.72261047363281,17.818626403808594
1686425171970054100,5.08505419921875,15.345901489257812,38.756980895996094,17.224990844726562
1686425171980000300,5.095000244140625,15.588584899902344,38.7779655456543,16.701171875
1686425171989945000,5.104945068359375,15.699943542480469,38.794898986816406,16.35071563720703
1686425171999891000,5.114890869140625,16.262100219726562,38.830718994140625,15.915023803710938
1686425172009836300,5.124836181640625,16.457836151123047,38.7762565612793,15.777305603027344
1686425172019782100,5.1347822265625,16.859481811523438,38.675872802734375,15.718109130859375
1686425172029727200,5.144727294921875,17.386493682861328,38.25209045410156,15.569168090820312
1686425172039673000,5.154673095703125,17.91363525390625,38.27381896972656,15.340888977050781
1686425172049618200,5.1646181640625,18.175270080566406,38.17414093017578,15.070152282714844
1686425172059564000,5.17456396484375,18.467247009277344,38.268218994140625,14.61541748046875
1686425172069510100,5.18451025390625,19.11540985107422,38.194862365722656,14.431083679199219
1686425172079455200,5.194455322265625,19.393783569335938,38.26783752441406,14.026168823242188
1686425172089401300,5.2044013671875,19.89767837524414,37.94847869873047,13.857994079589844
1686425172099346200,5.21434619140625,19.94599151611328,37.98438262939453,14.147911071777344
1686425172109292000,5.2242919921875,19.739574432373047,37.90140151977539,14.404121398925781
1686425172119237000,5.234237060546875,19.464069366455078,37.596435546875,14.560523986816406
1686425172129183000,5.244182861328125,19.16596221923828,37.41983413696289,15.153701782226562
1686425172139128300,5.25412841796875,19.171470642089844,37.333648681640625,15.626312255859375
1686425172149074200,5.26407421875,18.909381866455078,37.45033645629883,16.017112731933594
1686425172159019300,5.274019287109375,18.171142578125,37.538795471191406,16.8951416015625
1686425172168965000,5.283965087890625,17.698959350585938,37.235694885253906,17.80205535888672
1686425172178910200,5.29391015625,16.826923370361328,37.23363494873047,18.50904083251953
1686425172188856000,5.30385595703125,15.761051177978516,37.036964416503906,19.391632080078125
1686425172198801200,5.31380126953125,15.00750732421875,37.292903900146484,20.196182250976562
1686425172208747300,5.323747314453125,14.22031021118164,37.012001037597656,20.67894744873047
1686425172218692000,5.333692138671875,13.475543975830078,37.103416442871094,21.248924255371094
1686425172228638200,5.34363818359375,12.507915496826172,37.015316009521484,21.80010223388672
1686425172238583000,5.3535830078125,11.872608184814453,37.13196563720703,22.36650848388672
1686425172248529200,5.363529052734375,11.622455596923828,36.844669342041016,22.770965576171875
1686425172258474000,5.373473876953125,11.380512237548828,36.76519775390625,22.75176239013672
1686425172268420000,5.383420166015625,11.04874038696289,36.57756805419922,23.092147827148438
1686425172278365200,5.393365234375,11.03082275390625,36.65272521972656,22.972335815429688
1686425172288311300,5.403311279296875,10.642410278320312,37.01466369628906,23.060462951660156
1686425172298256100,5.413256103515625,10.910572052001953,36.95323944091797,22.776153564453125
1686425172308202200,5.4232021484375,11.067802429199219,37.18268585205078,22.89312744140625
1686425172318147000,5.43314697265625,11.041305541992188,37.2972297668457,22.603736877441406
1686425172328093000,5.443093017578125,11.246208190917969,37.153438568115234,22.415557861328125
1686425172338038300,5.453038330078125,11.644920349121094,37.139366149902344,22.256301879882812
1686425172347984100,5.462984130859375,11.664115905761719,36.96073913574219,22.06468963623047
1686425172357930200,5.47293017578125,12.89987564086914,37.0755729675293,22.038787841796875
1686425172367875000,5.482875,12.89987564086914,37.0755729675293,22.038787841796875
1686425172377821200,5.4928212890625,13.438095092773438,36.72745132446289,21.571510314941406
1686425172387766000,5.50276611328125,14.220378875732422,37.079463958740234,21.23168182373047
1686425172397712100,5.512712158203125,15.30044174194336,36.75267028808594,20.772445678710938
1686425172407657200,5.5226572265625,16.32528305053711,36.64707946777344,20.244781494140625
1686425172417603300,5.532603271484375,16.904499053955078,36.44002151489258,19.852935791015625
1686425172427548200,5.542548095703125,17.285083770751953,36.08501434326172,19.508102416992188
1686425172437494000,5.552493896484375,18.325462341308594,36.031463623046875,19.31513214111328
1686425172447439000,5.562439208984375,19.029659271240234,35.6151123046875,19.204925537109375
1686425172457385000,5.572385009765625,19.51876449584961,35.58088684082031,18.964889526367188
1686425172467330300,5.582330322265625,20.36508560180664,35.376731872558594,18.620407104492188
1686425172477276200,5.592276123046875,20.349853515625,35.23158264160156,18.286537170410156
1686425172487221200,5.60222119140625,21.031787872314453,35.34734344482422,17.68683624267578
1686425172497167000,5.6121669921875,21.506378173828125,35.469276428222656,16.452110290527344
1686425172507112200,5.6221123046875,22.180496215820312,35.82257843017578,14.822113037109375
1686425172517058000,5.63205810546875,23.589282989501953,35.81549835205078,13.030845642089844
1686425172527003100,5.642003173828125,24.64527130126953,35.594078063964844,11.303314208984375
1686425172536949200,5.65194921875,25.21221160888672,35.551116943359375,9.385818481445312
1686425172546894000,5.66189404296875,26.004566192626953,35.45204162597656,7.574333190917969
1686425172556840200,5.671840087890625,26.49688720703125,35.40166091918945,6.0289306640625
1686425172566785000,5.681784912109375,26.54879379272461,35.62210464477539,4.810546875
1686425172576731100,5.691731201171875,26.792301177978516,35.52848434448242,4.6438140869140625
1686425172586676200,5.70167626953125,26.957347869873047,35.21729278564453,4.6639251708984375
1686425172596622300,5.711622314453125,27.16421890258789,34.87530517578125,5.4230804443359375
1686425172606568200,5.721568115234375,27.315109252929688,34.7412109375,6.709022521972656
1686425172616513300,5.73151318359375,27.381072998046875,34.24742126464844,7.937629699707031
1686425172626459100,5.741459228515625,27.218284606933594,34.27825927734375,9.031349182128906
1686425172636404000,5.751404052734375,26.88473129272461,34.14332580566406,10.673561096191406
1686425172646350000,5.76135009765625,25.65317153930664,34.34877014160156,12.008140563964844
1686425172656295200,5.771295166015625,25.121734619140625,34.35784149169922,13.012916564941406
1686425172666241300,5.7812412109375,24.594886779785156,34.342201232910156,13.76666259765625
1686425172676186000,5.79118603515625,23.76129150390625,34.39213562011719,14.48529052734375
1686425172686132200,5.80113232421875,23.05290985107422,34.54473876953125,15.037925720214844
1686425172696077000,5.8110771484375,22.41356658935547,34.705081939697266,15.875244140625
1686425172706023200,5.821023193359375,21.60077667236328,34.85566329956055,16.729095458984375
1686425172715968300,5.83096826171875,20.84640884399414,34.96804428100586,16.935684204101562
1686425172725914000,5.8409140625,20.370948791503906,35.137481689453125,17.52342987060547
1686425172735859200,5.850859130859375,20.026554107666016,35.08416748046875,17.977088928222656
1686425172745805300,5.860805419921875,19.08635711669922,35.02571105957031,19.121856689453125
1686425172755750100,5.870750244140625,18.41832733154297,34.87604904174805,19.69001007080078
1686425172765696000,5.880696044921875,17.510746002197266,34.816810607910156,20.23284912109375
1686425172775641000,5.89064111328125,17.152828216552734,34.64889144897461,21.201934814453125
1686425172785587200,5.900587158203125,16.731201171875,34.56470489501953,21.7357177734375
1686425172795532300,5.9105322265625,16.12012481689453,34.43109893798828,22.309173583984375
1686425172805478100,5.92047802734375,15.328022003173828,34.435401916503906,22.7080078125
1686425172815423200,5.93042333984375,14.648967742919922,34.419158935546875,23.252609252929688
1686425172825369000,5.940369140625,14.271724700927734,34.447025299072266,23.152976989746094
1686425172835314000,5.95031396484375,13.546371459960938,34.593589782714844,23.215087890625
1686425172845260000,5.960260009765625,12.975944519042969,34.77107620239258,23.09955596923828
1686425172855205000,5.970205078125,12.805213928222656,34.9432373046875,22.95484161376953
1686425172865151200,5.980151123046875,12.319522857666016,35.19840621948242,23.18480682373047
1686425172875097000,5.99009716796875,11.886089324951172,35.455970764160156,23.000457763671875
1686425172885042200,6.000042236328125,11.791099548339844,35.72947311401367,22.51665496826172
1686425172894988300,6.00998828125,11.440353393554688,35.83884048461914,22.422821044921875
1686425172904933000,6.01993310546875,11.3529052734375,35.787803649902344,22.040878295898438
1686425172914879200,6.029879150390625,11.19622802734375,36.10487365722656,21.570350646972656
1686425172924824300,6.03982421875,11.465099334716797,36.1328125,21.12408447265625
1686425172934770400,6.0497705078125,11.545772552490234,36.53559875488281,20.993995666503906
1686425172944715300,6.05971533203125,11.727394104003906,36.701385498046875,20.621498107910156
1686425172954661000,6.0696611328125,12.085346221923828,36.80725860595703,20.299392700195312
1686425172964606200,6.079606201171875,12.208389282226562,36.993682861328125,19.832130432128906
1686425172974552000,6.089552001953125,11.959964752197266,37.01806640625,19.850051879882812
1686425172984497400,6.099497314453125,12.132041931152344,37.024208068847656,19.547561645507812
1686425172994443300,6.109443359375,12.492626190185547,36.93162155151367,19.35993194580078
1686425173004388400,6.119388427734375,12.60079574584961,36.89207458496094,19.288116455078125
1686425173014334200,6.129334228515625,12.543205261230469,37.142852783203125,19.446273803710938
1686425173024279000,6.139279052734375,12.967658996582031,36.79719543457031,19.16901397705078
1686425173034225200,6.14922509765625,13.74041748046875,36.487003326416016,19.026519775390625
1686425173044170200,6.159170166015625,14.281543731689453,36.44558334350586,18.563751220703125
1686425173054116400,6.169116455078125,15.174983978271484,36.42296600341797,17.915969848632812
1686425173064061200,6.179061279296875,15.43020248413086,36.36342239379883,17.389923095703125
1686425173074007300,6.18900732421875,15.96590805053711,36.3721923828125,17.05498504638672
1686425173083952000,6.1989521484375,16.685657501220703,36.53159713745117,16.261566162109375
1686425173093898200,6.208898193359375,16.594703674316406,36.52558135986328,15.833358764648438
1686425173103843300,6.21884326171875,16.86880874633789,36.857879638671875,15.096542358398438
1686425173113789400,6.22878955078125,16.846099853515625,37.17633819580078,13.968070983886719
1686425173123735300,6.2387353515625,16.769054412841797,37.82964324951172,12.847618103027344
1686425173133680400,6.248680419921875,16.623676300048828,38.44813537597656,11.543998718261719
1686425173143626200,6.258626220703125,16.623676300048828,38.44813537597656,11.543998718261719
1686425173153571000,6.268571044921875,15.782039642333984,39.02504348754883,10.538322448730469
1686425173163517200,6.27851708984375,14.933357238769531,39.39065933227539,10.306632995605469
1686425173173462300,6.288462158203125,13.837886810302734,39.580657958984375,10.162925720214844
1686425173183408400,6.298408447265625,13.459659576416016,39.75998306274414,10.351966857910156
1686425173193353200,6.308353271484375,13.430335998535156,39.63144302368164,10.490280151367188
1686425173203299300,6.31829931640625,13.106266021728516,40.001216888427734,10.89404296875
1686425173213244200,6.328244140625,12.55215835571289,39.85309600830078,10.955711364746094
1686425173223190300,6.338190185546875,12.508655548095703,40.04420471191406,11.309516906738281
1686425173233135000,6.348135009765625,12.507965087890625,40.05915832519531,11.295280456542969
1686425173243081200,6.358081298828125,12.214324951171875,40.18400192260742,11.657089233398438
1686425173253026300,6.3680263671875,12.3206787109375,40.05405807495117,12.008949279785156
1686425173262972200,6.37797216796875,11.876014709472656,40.24162673950195,12.173431396484375
1686425173272917200,6.387917236328125,11.999862670898438,40.292327880859375,12.767814636230469
1686425173282863000,6.397863037109375,12.42690658569336,39.75473403930664,13.0113525390625
1686425173292808200,6.40780810546875,12.625274658203125,39.419456481933594,13.2724609375
1686425173302754000,6.417754150390625,13.1436767578125,39.38211441040039,13.907646179199219
1686425173312699400,6.427699462890625,13.241069793701172,38.90594482421875,14.278671264648438
1686425173322645200,6.437645263671875,13.842247009277344,38.594703674316406,14.352035522460938
1686425173332590300,6.44759033203125,14.795490264892578,38.19742965698242,14.419197082519531
1686425173342536200,6.4575361328125,15.266109466552734,37.78900909423828,14.577552795410156
1686425173352482300,6.467482421875,16.374771118164062,37.51195526123047,14.713119506835938
1686425173362427100,6.47742724609375,17.615440368652344,36.86577606201172,14.512893676757812
1686425173372373200,6.487373291015625,18.77178955078125,36.339725494384766,14.633857727050781
1686425173382318300,6.497318359375,20.083126068115234,35.753204345703125,14.491096496582031
1686425173392264200,6.50726416015625,21.098533630371094,35.077457427978516,14.412925720214844
1686425173402209300,6.517209228515625,21.890613555908203,34.74809265136719,14.462715148925781
1686425173412155100,6.527155029296875,22.66275405883789,34.07539367675781,14.0860595703125
1686425173422100200,6.537100341796875,22.98318862915039,33.663421630859375,14.14422607421875
1686425173432046000,6.547046142578125,24.066730499267578,33.128623962402344,14.341361999511719
1686425173441991400,6.556991455078125,24.865047454833984,32.513267517089844,14.304794311523438
1686425173451937300,6.566937255859375,24.867637634277344,32.4136848449707,14.373703002929688
1686425173461882000,6.576882080078125,25.226932525634766,32.33287048339844,14.338996887207031
1686425173471828200,6.586828125,25.52627944946289,32.315162658691406,14.684814453125
1686425173481773000,6.59677294921875,25.3231201171875,32.345458984375,15.078033447265625
1686425173491719200,6.60671923828125,25.031543731689453,32.410743713378906,15.139968872070312
1686425173501664300,6.616664306640625,24.544097900390625,32.63633728027344,15.181724548339844
1686425173511610400,6.6266103515625,24.36386489868164,32.771812438964844,14.851699829101562
1686425173521555200,6.63655517578125,23.73968505859375,33.0610237121582,14.580429077148438
1686425173531501300,6.646501220703125,23.42914581298828,33.38927459716797,14.265037536621094
1686425173541446100,6.656446044921875,23.579105377197266,33.9501953125,13.590072631835938
1686425173551392300,6.666392333984375,23.444496154785156,34.61332702636719,12.898231506347656
1686425173561337300,6.67633740234375,23.11355209350586,35.138973236083984,12.182884216308594
1686425173571283500,6.686283447265625,23.17324447631836,35.18315124511719,11.456314086914062
1686425173581229300,6.696229248046875,23.88083267211914,35.30482864379883,10.332794189453125
1686425173591174100,6.706174072265625,24.41360855102539,35.083412170410156,9.102668762207031
1686425173601120300,6.716120361328125,25.509212493896484,34.857139587402344,7.8998565673828125
1686425173611065000,6.726065185546875,26.12552261352539,34.29144287109375,6.830390930175781
1686425173621011200,6.73601123046875,26.595890045166016,34.16553497314453,6.626640319824219
1686425173630956300,6.745956298828125,27.008991241455078,33.839805603027344,6.817901611328125
1686425173640902400,6.75590234375,27.175884246826172,33.53546905517578,7.140342712402344
1686425173650847200,6.76584716796875,26.747455596923828,33.40256881713867,8.593086242675781
1686425173660793300,6.77579345703125,26.30651092529297,33.792999267578125,9.960426330566406
1686425173670738200,6.78573828125,25.492095947265625,33.86127471923828,11.222686767578125
1686425173680684300,6.795684326171875,24.435306549072266,33.96651840209961,12.165328979492188
1686425173690629000,6.805629150390625,23.554515838623047,34.113033294677734,13.083900451660156
1686425173700575200,6.8155751953125,23.087783813476562,34.45624542236328,13.9058837890625
1686425173710520300,6.825520263671875,22.046855926513672,34.770912170410156,14.415077209472656
1686425173720466200,6.835466064453125,21.67296600341797,34.982357025146484,14.576370239257812
1686425173730411300,6.845411376953125,21.315963745117188,34.914581298828125,15.102241516113281
1686425173740357000,6.855357177734375,21.45196533203125,34.852935791015625,15.120643615722656
1686425173750302200,6.86530224609375,21.576461791992188,34.732791900634766,15.592453002929688
1686425173760248000,6.875248046875,21.477157592773438,34.54114532470703,15.933967590332031
1686425173770193400,6.885193359375,21.229080200195312,34.2691650390625,16.293594360351562
1686425173780139300,6.89513916015625,21.311309814453125,34.15690231323242,16.6661376953125
1686425173790084000,6.905083984375,21.161434173583984,33.76759338378906,17.11791229248047
1686425173800030200,6.9150302734375,21.42025375366211,33.584495544433594,17.682769775390625
1686425173809976300,6.924976318359375,21.22980499267578,33.203704833984375,18.16375732421875
1686425173819921200,6.934921142578125,21.249916076660156,33.404972076416016,18.650833129882812
1686425173829867000,6.944866943359375,21.568058013916016,32.96046829223633,19.036643981933594
1686425173839812400,6.954812255859375,21.002365112304688,32.84654235839844,19.33667755126953
1686425173849758200,6.96475830078125,20.912078857421875,32.660621643066406,19.839599609375
1686425173859703300,6.974703369140625,20.63353729248047,32.726600646972656,20.16741943359375
1686425173869649200,6.984649169921875,20.506481170654297,32.77245330810547,20.431785583496094
1686425173879594200,6.99459423828125,20.161712646484375,33.019508361816406,20.522125244140625
1686425173889540000,7.0045400390625,19.789302825927734,33.149322509765625,20.64313507080078
1686425173899485400,7.0144853515625,19.181045532226562,33.45381164550781,20.821121215820312
1686425173909431600,7.024431640625,18.916790008544922,33.66411590576172,20.84356689453125
1686425173919376400,7.03437646484375,18.916790008544922,33.66411590576172,20.84356689453125
1686425173929322500,7.044322509765625,18.486778259277344,34.00033187866211,20.901336669921875
1686425173939267300,7.054267333984375,17.831134796142578,34.14943313598633,20.885711669921875
1686425173949213400,7.06421337890625,17.435951232910156,34.412132263183594,21.00916290283203
1686425173959158500,7.074158447265625,16.950260162353516,34.901588439941406,21.099700927734375
1686425173969104400,7.0841044921875,16.608718872070312,35.2183837890625,20.94110870361328
1686425173979049500,7.094049560546875,15.725330352783203,35.51026153564453,20.704917907714844
1686425173988995300,7.103995361328125,15.39453125,35.548004150390625,20.647750854492188
1686425173998941400,7.11394140625,14.442459106445312,35.990272521972656,20.530410766601562
1686425174008886300,7.12388623046875,14.552417755126953,36.227928161621094,20.4383544921875
1686425174018832400,7.133832275390625,14.161567687988281,36.519126892089844,20.000259399414062
1686425174028777500,7.143777587890625,14.009872436523438,36.848968505859375,19.96202850341797
1686425174038723600,7.1537236328125,13.854995727539062,36.95970916748047,19.790863037109375
1686425174048668400,7.16366845703125,14.098358154296875,37.201171875,19.35693359375
1686425174058614500,7.173614501953125,13.824302673339844,37.39958953857422,19.19178009033203
1686425174068559400,7.183559326171875,13.903450012207031,37.40056610107422,18.92180633544922
1686425174078505500,7.19350537109375,13.880062103271484,37.84406280517578,18.519744873046875
1686425174088450300,7.2034501953125,14.145889282226562,37.82123947143555,18.12104034423828
1686425174098396400,7.213396484375,13.837783813476562,37.917259216308594,17.994766235351562
1686425174108341500,7.223341552734375,14.101184844970703,37.805763244628906,17.649627685546875
1686425174118287400,7.233287353515625,14.178108215332031,37.94639587402344,17.474281311035156
1686425174128232400,7.243232421875,14.280845642089844,38.161197662353516,17.140342712402344
1686425174138178300,7.25317822265625,13.947715759277344,38.099037170410156,16.906509399414062
1686425174148123400,7.263123291015625,14.795806884765625,38.261436462402344,16.172142028808594
1686425174158069200,7.2730693359375,14.989490509033203,38.36066436767578,15.671348571777344
1686425174168014300,7.283014404296875,15.327774047851562,38.387325286865234,15.150199890136719
1686425174177960400,7.29296044921875,15.920295715332031,38.3509521484375,14.50421142578125
1686425174187905300,7.3029052734375,16.638473510742188,38.46564483642578,14.065696716308594
1686425174197851400,7.312851318359375,17.199424743652344,38.35920715332031,13.732772827148438
1686425174207797200,7.32279736328125,18.188079833984375,38.13543701171875,13.5054931640625
1686425174217742300,7.332742431640625,18.776615142822266,37.93284606933594,13.587539672851562
1686425174227688200,7.342688232421875,19.050899505615234,37.428504943847656,13.3248291015625
1686425174237633500,7.352633544921875,19.752384185791016,37.26083755493164,13.294326782226562
1686425174247579400,7.362579345703125,20.268325805664062,37.084320068359375,13.072723388671875
1686425174257524500,7.3725244140625,20.640472412109375,37.0922966003418,12.58038330078125
1686425174267470300,7.38247021484375,20.89691162109375,36.84526824951172,12.393180847167969
1686425174277415400,7.39241552734375,21.206565856933594,36.919410705566406,12.699974060058594
1686425174287361300,7.402361328125,21.23190689086914,36.79510498046875,12.687843322753906
1686425174297306400,7.412306396484375,21.308032989501953,36.819190979003906,12.940155029296875
1686425174307252500,7.42225244140625,20.832637786865234,36.81412887573242,13.597328186035156
1686425174317197300,7.432197265625,20.11771011352539,36.83792495727539,14.154144287109375
1686425174327143400,7.442143310546875,19.63071060180664,36.71037673950195,15.033256530761719
1686425174337088300,7.452088134765625,18.88043975830078,37.164093017578125,15.538284301757812
1686425174347034400,7.462034423828125,18.528621673583984,37.28993225097656,16.522476196289062
1686425174356979500,7.4719794921875,17.849563598632812,37.25788116455078,17.09930419921875
1686425174366925600,7.481925537109375,17.040546417236328,37.29973602294922,17.961227416992188
1686425174376870400,7.491870361328125,16.017902374267578,37.541221618652344,18.29924774169922
1686425174386816500,7.50181640625,15.37841796875,37.73780059814453,18.703857421875
1686425174396762400,7.511762451171875,15.088020324707031,37.728153228759766,19.013351440429688
1686425174406707200,7.521707275390625,14.983734130859375,37.679473876953125,19.342117309570312
1686425174416653300,7.5316533203125,14.37060546875,37.76097869873047,19.65331268310547
1686425174426598400,7.541598388671875,14.274784088134766,37.70477294921875,19.904022216796875
1686425174436544500,7.55154443359375,14.162334442138672,37.57549285888672,19.86009979248047
1686425174446489300,7.5614892578125,14.164749145507812,37.69483184814453,20.225181579589844
1686425174456435500,7.571435546875,14.399856567382812,37.521453857421875,20.144088745117188
1686425174466380300,7.58138037109375,14.745063781738281,37.33918762207031,19.97723388671875
1686425174476326400,7.591326416015625,15.459030151367188,37.389442443847656,19.710487365722656
1686425174486271500,7.601271484375,16.56927490234375,37.0785026550293,19.03228759765625
1686425174496217600,7.611217529296875,17.72931671142578,36.90978240966797,18.48040008544922
1686425174506162400,7.621162353515625,18.986671447753906,36.62287139892578,17.730941772460938
1686425174516108500,7.631108642578125,19.96945571899414,36.2811164855957,16.74315643310547
1686425174526053400,7.641053466796875,21.034503936767578,36.105812072753906,15.933334350585938
1686425174535999200,7.650999267578125,21.73644256591797,35.731178283691406,15.281089782714844
1686425174545944600,7.660944580078125,22.678245544433594,35.49249267578125,14.579399108886719
1686425174555890400,7.670890380859375,23.42003631591797,35.330474853515625,14.326766967773438
1686425174565835500,7.68083544921875,23.805191040039062,35.08243942260742,14.148063659667969
1686425174575781400,7.690781494140625,23.787670135498047,35.09856414794922,14.021774291992188
1686425174585727500,7.7007275390625,23.839557647705078,35.3679084777832,13.695137023925781
1686425174595672300,7.71067236328125,23.803695678710938,35.508872985839844,13.123725891113281
1686425174605618400,7.720618408203125,23.91002655029297,36.13489532470703,12.44384765625
1686425174615563500,7.7305634765625,23.996158599853516,36.25355529785156,11.557716369628906
1686425174625509400,7.74050927734375,23.410907745361328,36.55725860595703,10.928245544433594
1686425174635454500,7.750454345703125,23.57339859008789,36.556488037109375,10.105361938476562
1686425174645400300,7.760400390625,24.467403411865234,36.6927490234375,9.271743774414062
1686425174655345400,7.770345458984375,25.382144927978516,36.031158447265625,8.235206604003906
1686425174665291300,7.780291259765625,26.522884368896484,35.677490234375,7.0438690185546875
1686425174675236400,7.790236328125,27.255611419677734,35.06621551513672,6.316856384277344
1686425174685182200,7.80018212890625,27.741374969482422,34.82875061035156,5.644584655761719
1686425174695127600,7.81012744140625,27.741374969482422,34.82875061035156,5.644584655761719
1686425174705073400,7.820073486328125,28.141395568847656,34.528602600097656,5.8523406982421875
1686425174715018500,7.8300185546875,28.361217498779297,34.58186340332031,6.621650695800781
1686425174724964400,7.83996435546875,28.01305389404297,34.482295989990234,7.355033874511719
1686425174734909200,7.8499091796875,27.619583129882812,34.468563079833984,8.459266662597656
1686425174744855300,7.859855224609375,27.01165008544922,34.67617416381836,9.849037170410156
1686425174754800400,7.86980029296875,26.68016815185547,35.047176361083984,11.056892395019531
1686425174764746500,7.87974658203125,25.648807525634766,35.125518798828125,11.816734313964844
1686425174774692400,7.8896923828125,24.988563537597656,35.4404296875,12.641372680664062
1686425174784637400,7.899637451171875,24.115726470947266,35.84619903564453,13.600227355957031
1686425174794583300,7.909583251953125,23.698711395263672,35.77734375,13.875808715820312
1686425174804528400,7.9195283203125,23.012828826904297,36.17919158935547,14.367805480957031
1686425174814474200,7.92947412109375,22.52487564086914,36.398345947265625,14.850296020507812
1686425174824419600,7.939419677734375,22.694068908691406,36.432838439941406,15.181320190429688
1686425174834365400,7.949365478515625,22.478561401367188,36.33856201171875,15.687576293945312
1686425174844310300,7.959310302734375,22.244556427001953,36.17683792114258,15.701499938964844
1686425174854256400,7.96925634765625,22.230484008789062,36.039608001708984,16.25555419921875
1686425174864201200,7.979201171875,22.410541534423828,35.632286071777344,16.823211669921875
1686425174874147300,7.989147216796875,22.175594329833984,35.54072570800781,17.42327880859375
1686425174884092400,7.999092529296875,22.312057495117188,35.18827819824219,18.14330291748047
1686425174894038800,8.009038818359375,22.17572784423828,34.963809967041016,18.72405242919922
1686425174903983900,8.01898388671875,21.473800659179688,34.857852935791016,19.286651611328125
1686425174913929700,8.0289296875,21.634647369384766,34.607303619384766,19.92431640625
1686425174923874600,8.03887451171875,21.65161895751953,33.8942756652832,20.716400146484375
1686425174933820700,8.048820556640624,21.46078109741211,33.76800537109375,21.356552124023438
1686425174943765800,8.058765869140625,20.990455627441406,33.674888610839844,21.877662658691406
1686425174953711900,8.0687119140625,20.188560485839844,33.466590881347656,22.479087829589844
1686425174963657700,8.07865771484375,19.998355865478516,33.510990142822266,22.592605590820312
1686425174973602800,8.088602783203125,19.910369873046875,33.543418884277344,22.770095825195312
1686425174983548700,8.098548583984375,19.676471710205078,33.879512786865234,22.944541931152344
1686425174993493800,8.10849365234375,18.95861053466797,34.33716583251953,22.7686767578125
1686425175003439600,8.118439697265625,18.794700622558594,34.38340759277344,22.944793701171875
1686425175013384700,8.128384765625,18.212566375732422,34.77845764160156,22.942596435546875
1686425175023330800,8.138330810546876,17.69205093383789,35.15803527832031,22.407196044921875
1686425175033276000,8.14827587890625,17.043354034423828,35.51173400878906,22.280609130859375
1686425175043221800,8.1582216796875,16.613513946533203,35.90564727783203,22.15863037109375
1686425175053166600,8.16816650390625,16.05095672607422,36.308189392089844,21.911270141601562
1686425175063112700,8.17811279296875,15.582534790039062,36.642024993896484,21.86914825439453
1686425175073057500,8.1880576171875,14.977035522460938,36.98845672607422,21.4521484375
1686425175083003600,8.198003662109375,14.718009948730469,37.38935852050781,21.36334228515625
1686425175092948700,8.20794873046875,14.622119903564453,37.482139587402344,21.08154296875
1686425175102894800,8.217894775390626,14.347602844238281,37.735145568847656,20.633827209472656
1686425175112839700,8.227839599609375,14.760452270507812,37.99301528930664,20.334007263183594
1686425175122785800,8.237785888671874,14.697566986083984,38.08203887939453,20.064788818359375
1686425175132730600,8.247730712890625,14.72885513305664,38.272483825683594,19.835479736328125
1686425175142676700,8.2576767578125,14.463516235351562,38.25533676147461,19.53009796142578
1686425175152622600,8.26762255859375,14.630508422851562,38.11028289794922,19.271347045898438
1686425175162567700,8.277567626953125,15.235954284667969,38.203575134277344,18.967430114746094
1686425175172513800,8.287513671875,15.76315689086914,38.22529983520508,18.6763916015625
1686425175182458600,8.297458740234376,15.993209838867188,38.5946044921875,18.561569213867188
1686425175192404700,8.30740478515625,16.228134155273438,38.5723762512207,17.955352783203125
1686425175202349600,8.317349609375,16.404983520507812,38.590919494628906,17.301795959472656
1686425175212295700,8.327295654296876,16.518890380859375,38.833953857421875,16.503936767578125
1686425175222240800,8.33724072265625,16.718040466308594,38.98915481567383,15.782249450683594
1686425175232187000,8.347186767578124,17.03680419921875,39.27128601074219,15.140609741210938
1686425175242131700,8.357131591796875,17.66667938232422,39.03069305419922,14.65460205078125
1686425175252077800,8.367077880859375,18.122722625732422,38.94440460205078,14.11029052734375
1686425175262022700,8.377022705078126,18.361446380615234,39.00995635986328,13.685600280761719
1686425175271968800,8.38696875,18.486339569091797,38.92256546020508,13.566146850585938
1686425175281913900,8.396913818359375,19.255416870117188,38.76249694824219,13.906509399414062
1686425175291859700,8.406859619140626,20.139469146728516,38.389408111572266,13.932975769042969
1686425175301805800,8.416805908203125,20.345550537109375,38.05968475341797,14.247932434082031
1686425175311750700,8.426750732421874,20.680988311767578,37.65509796142578,14.248497009277344
1686425175321696800,8.43669677734375,21.212387084960938,37.309425354003906,14.016082763671875
1686425175331641600,8.4466416015625,21.56200408935547,37.097938537597656,14.105857849121094
1686425175341587700,8.456587646484374,21.64916229248047,37.11884307861328,14.29791259765625
1686425175351532800,8.46653271484375,21.714488983154297,36.974647521972656,14.777000427246094
1686425175361479000,8.47647900390625,21.16973876953125,36.91808319091797,15.279388427734375
1686425175371423700,8.486423828125,20.28990936279297,37.10498809814453,16.010696411132812
1686425175381369900,8.496369873046875,19.460037231445312,37.129783630371094,16.85186767578125
1686425175391314700,8.506314697265625,18.51070785522461,37.01184844970703,17.79424285888672
1686425175401260500,8.516260498046876,17.709259033203125,37.077186584472656,18.536331176757812
1686425175411206000,8.526205810546875,16.16168975830078,36.91168975830078,19.33728790283203
1686425175421151700,8.53615185546875,15.571281433105469,37.31979751586914,19.94799041748047
1686425175431096800,8.546096923828125,14.636505126953125,37.311767578125,20.40729522705078
1686425175441042700,8.556042724609375,14.090377807617188,37.511863708496094,20.780166625976562
1686425175450987800,8.56598779296875,13.460678100585938,37.586151123046875,21.33636474609375
1686425175460933600,8.57593359375,13.085529327392578,37.761383056640625,21.357025146484375
1686425175470879700,8.585879638671875,13.085529327392578,37.761383056640625,21.357025146484375
1686425175480824800,8.595824951171876,13.141242980957031,37.60711669921875,21.39679718017578
1686425175490771000,8.60577099609375,13.01565933227539,37.68035888671875,21.492996215820312
1686425175500715800,8.6157158203125,12.733226776123047,37.42906951904297,21.780899047851562
1686425175510662000,8.625661865234376,12.781192779541016,37.73551940917969,21.771820068359375
1686425175520606700,8.635606689453125,13.284961700439453,37.63355255126953,21.499252319335938
1686425175530552600,8.645552490234374,13.185493469238281,37.506351470947266,21.546142578125
1686425175540497700,8.65549755859375,13.736255645751953,37.42073059082031,21.31238555908203
1686425175550443800,8.66544384765625,14.748077392578125,37.33647918701172,21.020248413085938
1686425175560388900,8.675388916015624,15.563556671142578,36.9869384765625,20.77869415283203
1686425175570334700,8.685334716796875,16.610057830810547,37.068172454833984,20.246627807617188
1686425175580279800,8.69527978515625,17.712509155273438,36.71710205078125,19.30774688720703
1686425175590225700,8.7052255859375,19.149227142333984,36.45093536376953,18.5799560546875
1686425175600170500,8.71517041015625,20.45391082763672,36.14375305175781,17.8221435546875
1686425175610116600,8.72511669921875,21.733192443847656,36.04814910888672,17.073768615722656
1686425175620061700,8.735061767578125,22.195598602294922,35.89207458496094,16.318008422851562
1686425175630007800,8.7450078125,23.469924926757812,35.44115447998047,15.759857177734375
1686425175639953700,8.75495361328125,24.26883316040039,35.204891204833984,15.28143310546875
1686425175649898800,8.764898681640625,24.55270004272461,35.176727294921875,14.726341247558594
1686425175659844600,8.7748447265625,24.73340606689453,35.108741760253906,13.872756958007812
1686425175669789700,8.784789794921876,24.981609344482422,35.220008850097656,12.656021118164062
1686425175679735600,8.794735595703125,24.700645446777344,35.66765594482422,11.476844787597656
1686425175689681000,8.804680908203125,24.893199920654297,36.00072479248047,10.26171875
1686425175699626800,8.814626708984376,24.80677032470703,36.29074478149414,8.909317016601562
1686425175709571800,8.82457177734375,25.679595947265625,36.43537902832031,7.6701202392578125
1686425175719517700,8.834517578125,26.59282684326172,35.75813674926758,6.429542541503906
1686425175729462500,8.844462646484375,27.146522521972656,35.24187088012695,5.71337890625
1686425175739408600,8.85440869140625,27.82740020751953,34.93279266357422,5.0963897705078125
1686425175749353700,8.864353759765624,28.35110092163086,34.64869689941406,4.83367919921875
1686425175759299800,8.8742998046875,28.520172119140625,34.39944839477539,4.8943328857421875
1686425175769244700,8.88424462890625,28.53479766845703,34.26206588745117,5.56439208984375
1686425175779190800,8.894190673828126,28.623123168945312,34.101112365722656,6.2578277587890625
1686425175789135600,8.904135498046875,28.611236572265625,33.649169921875,7.180397033691406
1686425175799081700,8.914081787109374,28.589763641357422,33.61188888549805,8.631591796875
1686425175809027600,8.924027587890626,28.261741638183594,33.62890625,9.595977783203125
1686425175818973000,8.933972900390625,27.61821746826172,33.89429473876953,10.408798217773438
1686425175828918800,8.943918701171874,26.711692810058594,34.204856872558594,11.67926025390625
1686425175838864000,8.95386376953125,25.835102081298828,34.493064880371094,12.796585083007812
1686425175848809700,8.963809814453125,25.157817840576172,34.64822769165039,13.721458435058594
1686425175858754600,8.973754638671876,24.487045288085938,34.957427978515625,14.486297607421875
1686425175868700700,8.98370068359375,23.828113555908203,34.98189926147461,15.468177795410156
1686425175878645800,8.993645751953125,22.96402359008789,35.14642333984375,16.165328979492188
1686425175888592000,9.003591796875,22.532108306884766,35.09070587158203,16.764556884765625
1686425175898537000,9.013536865234375,22.200260162353516,35.00682067871094,17.24359130859375
1686425175908483000,9.023483154296875,21.818363189697266,34.85968017578125,17.613601684570312
1686425175918428000,9.033427978515626,21.70816421508789,34.849266052246094,18.283584594726562
1686425175928374000,9.0433740234375,21.509544372558594,34.86838150024414,19.18085479736328
1686425175938318800,9.05331884765625,21.344566345214844,34.61637878417969,19.463294982910156
1686425175948265000,9.063264892578125,20.773731231689453,34.45332336425781,20.060989379882812
1686425175958211000,9.073211181640625,20.6962890625,34.31965637207031,20.391632080078125
1686425175968156200,9.08315625,20.628032684326172,34.157997131347656,21.10595703125
1686425175978102000,9.09310205078125,19.986305236816406,33.77445602416992,21.818252563476562
1686425175988047000,9.103047119140625,19.53247833251953,33.65190124511719,22.569374084472656
1686425175997993000,9.112992919921876,18.92481231689453,33.62468719482422,23.216934204101562
1686425176007937800,9.122937744140625,18.475746154785156,33.37938690185547,23.262283325195312
1686425176017884000,9.1328837890625,18.119998931884766,33.223106384277344,23.946578979492188
1686425176027829000,9.1428291015625,17.53647232055664,33.345149993896484,24.298240661621094
1686425176037775000,9.152775146484375,16.960662841796875,33.730133056640625,24.63738250732422
1686425176047720000,9.162719970703124,16.317142486572266,33.738800048828125,24.382286071777344
1686425176057666000,9.172666015625,15.903411865234375,34.055076599121094,24.18321990966797
1686425176067611000,9.18261083984375,15.05301284790039,34.45997619628906,24.053855895996094
1686425176077557000,9.192556884765626,14.438133239746094,34.776153564453125,23.947067260742188
1686425176087502000,9.202502197265625,13.829551696777344,35.38850402832031,23.725379943847656
1686425176097448200,9.2124482421875,13.388660430908203,35.64432907104492,23.75438690185547
1686425176107394000,9.22239404296875,12.800743103027344,35.92953109741211,23.28143310546875
1686425176117339100,9.232339111328125,12.701522827148438,35.95774841308594,22.908546447753906
1686425176127285000,9.242284912109374,12.546340942382812,36.133567810058594,22.6357421875
1686425176137229800,9.252229736328125,12.171943664550781,36.70364761352539,22.503860473632812
1686425176147176000,9.262176025390625,11.707027435302734,36.96098709106445,22.103500366210938
1686425176157121000,9.27212109375,12.153419494628906,37.16767501831055,21.830177307128906
1686425176167067100,9.282067138671875,12.40399169921875,37.389129638671875,21.28778076171875
1686425176177012000,9.292011962890625,12.323169708251953,37.47582244873047,20.84685516357422
1686425176186958000,9.3019580078125,13.24544906616211,37.66688537597656,20.445350646972656
1686425176196903000,9.31190283203125,13.334056854248047,37.35993576049805,20.054580688476562
1686425176206849000,9.32184912109375,13.766792297363281,37.3911018371582,19.811019897460938
1686425176216794000,9.331794189453126,14.05154037475586,37.53302764892578,19.67473602294922
1686425176226740200,9.341740234375,14.69552230834961,37.385772705078125,19.287025451660156
1686425176236685000,9.35168505859375,14.675437927246094,37.35997772216797,18.85498046875
1686425176246631000,9.361630859375,14.675437927246094,37.35997772216797,18.85498046875
1686425176256576000,9.371575927734375,15.112476348876953,37.59650802612305,18.59180450439453
1686425176266521900,9.38152197265625,15.352363586425781,37.64451599121094,18.390174865722656
1686425176276468000,9.391468017578125,15.596878051757812,37.45051574707031,17.90826416015625
1686425176286413000,9.4014130859375,15.971843719482422,37.963226318359375,17.409515380859375
1686425176296359200,9.411359130859376,15.76724624633789,38.26445007324219,16.685340881347656
1686425176306304000,9.421303955078125,16.087203979492188,38.811317443847656,15.275070190429688
1686425176316250000,9.43125,15.697952270507812,39.475067138671875,14.460624694824219
1686425176326195000,9.44119482421875,15.608081817626953,39.66798400878906,13.948097229003906
1686425176336141000,9.45114111328125,14.86328125,39.67637634277344,13.490753173828125
1686425176346086100,9.461086181640624,14.497550964355469,40.06224060058594,13.575981140136719
1686425176356032300,9.4710322265625,14.57742691040039,40.15386962890625,13.549392700195312
1686425176365977000,9.48097705078125,14.54702377319336,40.13665008544922,13.507675170898438
1686425176375923000,9.4909228515625,14.663555145263672,40.3873176574707,13.094215393066406
1686425176385868000,9.500867919921875,14.20461654663086,40.7476921081543,12.361534118652344
1686425176395814000,9.51081396484375,14.47320556640625,40.805076599121094,11.943519592285156
1686425176405760000,9.520760009765626,13.980281829833984,40.99880599975586,11.577659606933594
1686425176415705000,9.530705078125,13.590091705322266,41.12751770019531,11.729171752929688
1686425176425651200,9.540651123046874,13.403194427490234,41.2429084777832,11.678276062011719
1686425176435596000,9.550595947265625,12.752059936523438,41.288795471191406,12.14697265625
1686425176445542100,9.560542236328125,12.173412322998047,41.31767272949219,12.831718444824219
1686425176455487000,9.570487060546874,11.85287857055664,41.1658821105957,13.213790893554688
1686425176465433000,9.58043310546875,11.18658447265625,41.03485107421875,13.824317932128906
1686425176475378000,9.5903779296875,10.935626983642578,41.004852294921875,14.242660522460938
1686425176485324000,9.600323974609376,10.922111511230469,40.99565887451172,14.428031921386719
1686425176495269000,9.61026904296875,10.544258117675781,40.98685073852539,14.727684020996094
1686425176505215000,9.620215087890625,10.261058807373047,40.956050872802734,14.92169189453125
1686425176515160000,9.63016015625,10.837512969970703,41.078277587890625,15.080863952636719
1686425176525106000,9.64010595703125,10.902950286865234,40.909873962402344,15.333915710449219
1686425176535051000,9.650051025390624,11.495384216308594,40.750457763671875,15.462486267089844
1686425176544996900,9.659996826171875,12.265045166015625,40.70097351074219,15.581222534179688
1686425176554943000,9.66994287109375,13.03988265991211,40.58116912841797,15.395973205566406
1686425176564888000,9.67988818359375,13.921756744384766,40.21221160888672,15.059814453125
1686425176574834200,9.689834228515625,14.77376937866211,39.75945281982422,14.717384338378906
1686425176584779000,9.699779052734375,16.204345703125,39.124755859375,14.509300231933594
1686425176594725000,9.70972509765625,17.248252868652344,38.74732208251953,14.343521118164062
1686425176604670000,9.719669921875,18.220600128173828,38.276790618896484,14.113670349121094
1686425176614615800,9.72961572265625,19.16196060180664,37.66318130493164,14.046035766601562
1686425176624561200,9.73956103515625,20.119388580322266,37.16716384887695,14.174522399902344
1686425176634507000,9.749507080078125,20.734207153320312,37.09089660644531,14.092475891113281
1686425176644452000,9.7594521484375,21.221179962158203,36.977718353271484,14.043266296386719
1686425176654398000,9.76939794921875,21.364612579345703,36.87980270385742,14.226829528808594
1686425176664343000,9.779343017578125,21.360233306884766,36.82079315185547,14.301887512207031
1686425176674289000,9.789288818359376,21.157203674316406,36.737518310546875,14.665542602539062
1686425176684234000,9.79923388671875,20.75875473022461,36.781494140625,15.060173034667969
1686425176694180000,9.80918017578125,20.239986419677734,36.94609451293945,15.335845947265625
1686425176704126200,9.819126220703126,19.64504623413086,37.233123779296875,15.704505920410156
1686425176714071000,9.829071044921875,19.116844177246094,37.371395111083984,16.097930908203125
1686425176724017000,9.839016845703124,18.138896942138672,37.53684997558594,16.71710205078125
1686425176733962000,9.8489619140625,17.429534912109375,37.603675842285156,16.913925170898438
1686425176743907800,9.858907958984375,16.804210662841797,38.20859909057617,16.9295654296875
1686425176753853200,9.868853271484374,15.840755462646484,38.72157287597656,16.714271545410156
1686425176763799000,9.878799072265625,15.229354858398438,38.93771743774414,16.742393493652344
1686425176773744000,9.888744140625,14.384990692138672,39.02680969238281,16.67041015625
1686425176783690000,9.89868994140625,13.61465072631836,39.0513916015625,16.466087341308594
1686425176793635000,9.908635009765625,13.661373138427734,39.02641296386719,16.548927307128906
1686425176803581000,9.918580810546874,13.961566925048828,39.18897247314453,16.9090576171875
1686425176813526000,9.928526123046876,13.960887908935547,38.96834182739258,16.77851104736328
1686425176823472000,9.93847216796875,14.04092788696289,38.86384582519531,17.052658081054688
1686425176833418200,9.948418212890624,14.536380767822266,38.635154724121094,17.169647216796875
1686425176843363000,9.958363037109375,14.38394546508789,38.502540588378906,17.13097381591797
1686425176853309000,9.968308837890625,14.514976501464844,38.31291961669922,17.437240600585938
1686425176863254000,9.97825390625,14.630744934082031,38.186485290527344,17.527076721191406
1686425176873199900,9.988199951171875,14.477882385253906,38.20615768432617,17.81627655029297
1686425176883145200,9.998145263671875,14.409683227539062,38.38323974609375,18.216957092285156
1686425176893091000,10.008091064453126,14.59298324584961,38.118316650390625,18.521942138671875
1686425176903035100,10.01803515625,15.227401733398438,37.944618225097656,18.74059295654297
1686425176912981200,10.027981201171874,15.147159576416016,37.54563903808594,19.111106872558594
1686425176922926000,10.037926025390625,15.241241455078125,37.50519561767578,18.87146759033203
1686425176932872200,10.0478720703125,16.161949157714844,37.41520690917969,19.207382202148438
1686425176942817300,10.0578173828125,16.08846664428711,37.26044845581055,19.307762145996094
1686425176952763400,10.067763427734375,16.030494689941406,37.175071716308594,19.375892639160156
1686425176962708200,10.077708251953124,16.306129455566406,36.90605163574219,19.60962677001953
1686425176972654300,10.087654296875,16.74645233154297,36.683841705322266,19.67626953125
1686425176982600200,10.09760009765625,16.931278228759766,36.59423828125,19.590225219726562
1686425176992545000,10.107544921875,17.522048950195312,36.448486328125,19.907310485839844
1686425177002491100,10.1174912109375,17.431926727294922,36.489715576171875,19.76799774169922
1686425177012436200,10.127436279296875,17.469501495361328,36.45964050292969,19.86028289794922
1686425177022382300,10.13738232421875,17.469501495361328,36.45964050292969,19.86028289794922
1686425177032327200,10.1473271484375,17.340145111083984,36.372650146484375,19.920562744140625
1686425177042273300,10.157273193359375,17.74813461303711,36.063133239746094,20.050796508789062
1686425177052218000,10.167218017578126,18.032127380371094,36.00365447998047,20.325088500976562
1686425177062164200,10.177164306640625,18.07571029663086,35.97530746459961,20.678016662597656
1686425177072109300,10.187109375,18.211585998535156,35.63075256347656,20.892242431640625
1686425177082055400,10.197055419921876,17.88641357421875,35.5353889465332,21.456985473632812
1686425177092000300,10.207000244140625,17.194503784179688,35.37073516845703,22.41503143310547
1686425177101946000,10.216946044921874,16.4476318359375,35.06523132324219,23.549217224121094
1686425177111892200,10.226892333984376,15.990493774414062,34.986175537109375,24.152427673339844
1686425177121837000,10.236837158203125,15.430557250976562,35.053436279296875,24.389389038085938
1686425177131783200,10.246783203125,15.349231719970703,35.05146789550781,24.551116943359375
1686425177141728300,10.256728271484375,15.4332275390625,35.38011169433594,24.057220458984375
1686425177151674400,10.26667431640625,15.608013153076172,35.839454650878906,23.450180053710938
1686425177161619200,10.276619140625,15.837963104248047,36.00598907470703,23.06000518798828
1686425177171565300,10.2865654296875,16.136661529541016,36.081661224365234,22.50257110595703
1686425177181510100,10.29651025390625,16.178794860839844,36.35853576660156,21.78203582763672
1686425177191456300,10.306456298828126,16.426952362060547,36.4361457824707,21.3309326171875
1686425177201401300,10.3164013671875,16.433155059814453,37.11363983154297,20.760894775390625
1686425177211347500,10.326347412109374,16.23617172241211,37.597572326660156,19.825881958007812
1686425177221292300,10.336292236328125,15.870738983154297,38.267356872558594,19.04778289794922
1686425177231238100,10.346238037109375,15.307968139648438,38.75035095214844,18.226760864257812
1686425177241184300,10.356184326171874,14.48488998413086,39.35755157470703,17.338409423828125
1686425177251129000,10.366129150390625,14.14162826538086,39.76063537597656,16.994461059570312
1686425177261075200,10.3760751953125,13.606704711914062,39.925758361816406,16.81475830078125
1686425177271020300,10.386020263671876,12.970104217529297,39.955604553222656,16.999351501464844
1686425177280966400,10.39596630859375,12.592914581298828,40.26294708251953,17.026893615722656
1686425177290911200,10.4059111328125,12.127769470214844,40.751277923583984,16.442169189453125
1686425177300857300,10.415857421875,11.515735626220703,41.35126495361328,15.502067565917969
1686425177310802200,10.42580224609375,10.952423095703125,41.726318359375,14.628013610839844
1686425177320748300,10.435748291015624,11.15829849243164,42.08366394042969,14.519660949707031
1686425177330693000,10.445693115234375,11.031494140625,41.94184112548828,14.583564758300781
1686425177340639200,10.45563916015625,11.600837707519531,41.58823013305664,14.378486633300781
1686425177350584300,10.465584228515626,12.057655334472656,41.538021087646484,14.335769653320312
1686425177360530200,10.4755302734375,12.923561096191406,41.4024658203125,14.310470581054688
1686425177370476300,10.485476318359375,14.122962951660156,40.814998626708984,13.8116455078125
1686425177380421000,10.495421142578126,15.369071960449219,40.619285583496094,13.296867370605469
1686425177390367200,10.5053671875,15.938312530517578,40.631065368652344,12.707893371582031
1686425177400312000,10.51531201171875,16.498519897460938,40.65003967285156,12.07525634765625
1686425177410258200,10.525258056640626,16.944950103759766,40.501625061035156,11.872344970703125
1686425177420203300,10.535203369140625,16.983306884765625,40.8555908203125,11.764007568359375
1686425177430149400,10.5451494140625,16.823081970214844,40.68679428100586,12.028663635253906
1686425177440094200,10.55509423828125,16.72882843017578,40.55624008178711,12.222061157226562
1686425177450040300,10.565040283203125,16.974300384521484,40.40362548828125,12.707901000976562
1686425177459985200,10.574985107421876,17.574050903320312,39.89552688598633,13.0692138671875
1686425177469931000,10.584930908203125,18.33587646484375,39.54279327392578,13.293685913085938
1686425177479876400,10.59487646484375,18.638500213623047,39.29840850830078,13.820442199707031
1686425177489822200,10.604822265625,19.874378204345703,38.47535705566406,14.125663757324219
1686425177499768300,10.614768310546875,20.175941467285156,38.018890380859375,14.723411560058594
1686425177509713200,10.624713134765624,20.460613250732422,37.150726318359375,15.322242736816406
1686425177519659300,10.6346591796875,21.290077209472656,36.749977111816406,16.206298828125
1686425177529604000,10.64460400390625,20.987667083740234,36.61571502685547,17.03832244873047
1686425177539550200,10.65455029296875,20.749088287353516,36.26161193847656,17.821678161621094
1686425177549495300,10.664495361328125,19.51862335205078,35.99602508544922,18.67822265625
1686425177559441400,10.67444140625,18.81204605102539,36.28553009033203,19.703285217285156
1686425177569386200,10.68438623046875,17.608413696289062,36.655364990234375,20.391067504882812
1686425177579332000,10.69433203125,16.669048309326172,36.847496032714844,21.14464569091797
1686425177589277200,10.704277099609374,15.77109146118164,37.24637985229492,21.495094299316406
1686425177599223000,10.71422314453125,14.588691711425781,37.409812927246094,21.94145965576172
1686425177609168400,10.72416845703125,13.76291275024414,37.487571716308594,22.24170684814453
1686425177619114200,10.7341142578125,12.89383316040039,37.631797790527344,22.818092346191406
1686425177629060400,10.744060302734376,11.976470947265625,37.51240158081055,23.01531219482422
1686425177639005200,10.754005126953125,12.07684326171875,37.531044006347656,23.24903106689453
1686425177648951300,10.763951416015624,12.468475341796875,37.27253723144531,23.780921936035156
1686425177658896100,10.773896240234375,12.619575500488281,37.25524139404297,24.311233520507812
1686425177668842200,10.78384228515625,13.539909362792969,36.76026153564453,24.08348846435547
1686425177678787300,10.793787353515626,14.450298309326172,36.333984375,24.027992248535156
1686425177688733400,10.8037333984375,15.413124084472656,35.87505340576172,24.059158325195312
1686425177698678300,10.81367822265625,16.415294647216797,35.63794708251953,23.689559936523438
1686425177708624100,10.8236240234375,17.399547576904297,35.28098678588867,23.45935821533203
1686425177718569200,10.8335693359375,18.35350799560547,35.07950973510742,23.10662078857422
1686425177728515000,10.84351513671875,19.4398193359375,35.078941345214844,22.75328826904297
1686425177738460400,10.85346044921875,20.409912109375,34.85845184326172,22.123001098632812
1686425177748406300,10.86340625,20.479076385498047,34.81195068359375,21.25110626220703
1686425177758352400,10.873352294921874,20.703720092773438,35.04745101928711,20.8682861328125
1686425177768297200,10.883297119140625,20.932815551757812,35.04979705810547,20.625625610351562
1686425177778243300,10.893243408203125,21.09894561767578,35.25107955932617,20.128639221191406
1686425177788188200,10.903188232421876,21.368927001953125,35.54685974121094,20.010208129882812
1686425177798134300,10.91313427734375,21.368927001953125,35.54685974121094,20.010208129882812
1686425177808079400,10.923079345703124,21.078964233398438,35.655189514160156,19.418357849121094
1686425177818025200,10.933025146484376,21.116458892822266,35.936180114746094,18.81446075439453
1686425177827970300,10.94297021484375,21.28049087524414,36.69185256958008,17.72900390625
1686425177837916200,10.952916259765624,21.78683853149414,37.05970764160156,16.22063446044922
1686425177847861200,10.962861328125,22.780200958251953,37.163818359375,14.561019897460938
1686425177857807000,10.97280712890625,23.519515991210938,37.132530212402344,12.77093505859375
1686425177867752200,10.982752197265626,25.28857421875,36.67416000366211,11.208099365234375
1686425177877698300,10.9926982421875,26.323455810546875,36.090187072753906,9.606185913085938
1686425177887644400,11.00264453125,27.521465301513672,35.572017669677734,8.418594360351562
1686425177897589200,11.01258935546875,28.658161163330078,34.932403564453125,7.2176361083984375
1686425177907535400,11.022535400390625,29.372215270996094,34.391841888427734,6.60552978515625
1686425177917480200,11.032480224609374,29.46108627319336,34.405094146728516,6.3459625244140625
1686425177927426300,11.04242626953125,29.301376342773438,34.39841842651367,6.8160858154296875
1686425177937371100,11.05237109375,28.710582733154297,34.76518249511719,7.628074645996094
1686425177947317200,11.062317138671874,28.294479370117188,35.046016693115234,9.256980895996094
1686425177957262300,11.072262451171875,27.363399505615234,35.28285217285156,10.468101501464844
1686425177967208200,11.082208251953125,26.659889221191406,35.536590576171875,11.605720520019531
1686425177977153300,11.0921533203125,26.10498046875,35.518455505371094,12.801979064941406
1686425177987099100,11.10209912109375,25.768756866455078,35.572853088378906,13.350685119628906
1686425177997045200,11.112045166015625,25.351295471191406,35.75160598754883,13.850700378417969
1686425178006990000,11.121989990234376,24.790042877197266,36.042327880859375,14.19122314453125
1686425178016936200,11.131936279296875,24.54700469970703,35.85757064819336,14.588623046875
1686425178026881300,11.14188134765625,24.670547485351562,35.74525451660156,15.177940368652344
1686425178036827400,11.151827392578125,24.472576141357422,35.49427032470703,15.271957397460938
1686425178046772200,11.161772216796875,24.34981918334961,35.43894958496094,16.088775634765625
1686425178056718300,11.17171826171875,24.03289794921875,35.001991271972656,17.06409454345703
1686425178066663200,11.1816630859375,23.691883087158203,34.71544647216797,17.943260192871094
1686425178076609000,11.191609130859375,23.48436737060547,34.331729888916016,18.883148193359375
1686425178086554400,11.201554443359376,23.519184112548828,34.26033401489258,19.664901733398438
1686425178096500200,11.211500244140625,23.675270080566406,33.73936462402344,20.48912811279297
1686425178106445300,11.2214453125,23.202098846435547,33.38654327392578,21.412368774414062
1686425178116391200,11.23139111328125,22.802261352539062,32.99323272705078,21.881858825683594
1686425178126337300,11.241337158203125,22.511219024658203,32.93048095703125,22.298545837402344
1686425178136282000,11.2512822265625,22.232051849365234,33.18175506591797,22.73725128173828
1686425178146228200,11.261228271484375,21.763038635253906,33.13747024536133,22.970069885253906
1686425178156173300,11.27117333984375,21.378616333007812,33.26898193359375,23.23908233642578
1686425178166119400,11.281119384765624,20.888259887695312,33.712158203125,23.227073669433594
1686425178176064300,11.291064208984375,20.694576263427734,33.96855163574219,23.07757568359375
1686425178186010000,11.301010009765625,20.484054565429688,34.22510528564453,22.76849365234375
1686425178195955200,11.310955078125,20.016109466552734,34.18067932128906,23.047271728515625
1686425178205901000,11.320901123046875,19.744686126708984,34.27298355102539,23.000762939453125
1686425178215846400,11.330846435546874,19.47604751586914,34.636810302734375,22.918846130371094
1686425178225792300,11.340792236328125,18.947254180908203,34.836883544921875,22.84156036376953
1686425178235738400,11.35073828125,18.69821548461914,35.3046760559082,22.771324157714844
1686425178245683200,11.36068310546875,18.546894073486328,35.53948211669922,22.470748901367188
1686425178255629300,11.37062939453125,18.368206024169922,35.9370231628418,21.952552795410156
1686425178265574100,11.38057421875,17.856849670410156,36.42359161376953,21.799118041992188
1686425178275520300,11.390520263671876,17.577560424804688,36.53839874267578,21.47039031982422
1686425178285465300,11.40046533203125,17.706031799316406,36.836822509765625,21.08020782470703
1686425178295411500,11.410411376953125,17.949005126953125,36.835269927978516,20.809799194335938
1686425178305356300,11.420356201171876,17.902393341064453,36.98627471923828,20.485816955566406
1686425178315302100,11.43030224609375,17.507068634033203,37.11204147338867,20.37518310546875
1686425178325247200,11.440247314453124,17.746715545654297,37.38267135620117,19.997657775878906
1686425178335193000,11.450193115234375,17.96255874633789,37.671749114990234,19.604408264160156
1686425178345138400,11.460138427734375,18.196693420410156,37.83662414550781,18.9873046875
1686425178355084300,11.470084228515624,17.997940063476562,38.18193817138672,18.290878295898438
1686425178365030400,11.480030517578125,17.51809310913086,38.637718200683594,18.01904296875
1686425178374975200,11.489975341796875,17.793964385986328,38.99687957763672,17.803733825683594
1686425178384921300,11.49992138671875,18.190887451171875,38.95539093017578,17.598487854003906
1686425178394866200,11.5098662109375,18.39892578125,38.824161529541016,17.25879669189453
1686425178404812300,11.519812255859375,19.053382873535156,38.52094268798828,16.98796844482422
1686425178414757400,11.52975732421875,19.552444458007812,38.37391662597656,16.35094451904297
1686425178424703200,11.539703125,20.500904083251953,37.91426467895508,15.953140258789062
1686425178434648300,11.5496484375,21.454959869384766,37.786956787109375,15.097640991210938
1686425178444594200,11.55959423828125,22.374500274658203,37.661376953125,14.259475708007812
1686425178454539300,11.569539306640625,23.12902069091797,37.558502197265625,13.740364074707031
1686425178464485000,11.579485107421876,23.293575286865234,37.42253112792969,13.583770751953125
1686425178474431200,11.58943115234375,23.407344818115234,37.25385284423828,13.761131286621094
1686425178484376300,11.599376220703125,23.82500457763672,37.24729537963867,13.435401916503906
1686425178494322200,11.609322265625,23.976348876953125,37.2781867980957,13.341773986816406
1686425178504267300,11.619267333984375,24.352054595947266,36.91856384277344,13.746627807617188
1686425178514213400,11.62921337890625,23.872337341308594,36.90349578857422,14.061233520507812
1686425178524158200,11.639158203125,23.496253967285156,36.520652770996094,14.633575439453125
1686425178534104300,11.649104248046875,23.263900756835938,36.430259704589844,15.189498901367188
1686425178544049200,11.659049072265624,23.202465057373047,36.29398727416992,16.093460083007812
1686425178553995000,11.6689951171875,22.955123901367188,36.12317657470703,16.85486602783203
1686425178563940400,11.6789404296875,22.08099365234375,35.90874481201172,17.777244567871094
1686425178573886200,11.68888623046875,22.08099365234375,35.90874481201172,17.777244567871094
1686425178583832300,11.698832275390625,21.5400390625,36.065460205078125,18.50994873046875
1686425178593777200,11.708777099609375,20.96367645263672,36.265995025634766,19.298751831054688
1686425178603723300,11.71872314453125,20.302173614501953,36.11444091796875,19.729217529296875
1686425178613668000,11.728668212890625,19.487850189208984,36.133399963378906,20.635215759277344
1686425178623614200,11.7386142578125,19.27767562866211,36.35395812988281,21.029129028320312
1686425178633559300,11.748559326171875,18.476707458496094,36.67032241821289,20.98230743408203
1686425178643505400,11.75850537109375,18.21811294555664,36.93986511230469,21.255653381347656
1686425178653450200,11.7684501953125,17.80324935913086,36.923301696777344,21.350746154785156
1686425178663396000,11.77839599609375,17.401477813720703,37.186683654785156,21.336639404296875
1686425178673341200,11.788341064453125,17.283485412597656,37.149070739746094,21.658782958984375
1686425178683287000,11.798287109375,16.66860580444336,36.98811721801758,21.783119201660156
1686425178693233200,11.808233154296875,16.539810180664062,37.19116973876953,21.463409423828125
1686425178703178200,11.81817822265625,16.715492248535156,37.13882064819336,21.425949096679688
1686425178713124400,11.828124267578126,16.741981506347656,37.088531494140625,20.835464477539062
1686425178723069200,11.838069091796875,17.42831802368164,37.23458480834961,20.64435577392578
1686425178733015300,11.848015380859374,18.29283905029297,36.988059997558594,20.117393493652344
1686425178742960000,11.857960205078125,19.287487030029297,36.75267028808594,19.256088256835938
1686425178752906200,11.86790625,20.353271484375,36.555274963378906,18.461029052734375
1686425178762851300,11.877851318359374,22.002307891845703,36.363365173339844,17.45263671875
1686425178772797400,11.88779736328125,23.346324920654297,35.83064270019531,16.381813049316406
1686425178782742300,11.8977421875,24.61457061767578,35.552772521972656,14.99835205078125
1686425178792688000,11.907688232421876,25.68511962890625,35.2011833190918,13.895294189453125
1686425178802634200,11.91763427734375,26.84972381591797,35.039615631103516,12.894050598144531
1686425178812579000,11.9275791015625,27.274349212646484,34.717041015625,11.861854553222656
1686425178822525200,11.937525146484376,27.928428649902344,34.78412628173828,10.695144653320312
1686425178832470300,11.94747021484375,27.682071685791016,34.7557487487793,9.623580932617188
1686425178842416400,11.95741650390625,27.858448028564453,35.17088317871094,8.6513671875
1686425178852361200,11.967361328125,27.742450714111328,35.72338104248047,7.524162292480469
1686425178862307300,11.977307373046875,27.320499420166016,36.17913818359375,6.238731384277344
1686425178872252200,11.987252197265626,27.54120635986328,36.08295440673828,5.5742340087890625
1686425178882198300,11.9971982421875,27.560523986816406,36.246498107910156,4.830322265625
1686425178892143400,12.007143310546875,28.270122528076172,35.867156982421875,4.352783203125
1686425178902089500,12.01708935546875,28.669387817382812,35.60285949707031,3.8416671752929688
1686425178912035600,12.02703564453125,29.21066665649414,35.20350646972656,3.7425689697265625
1686425178921980400,12.03698046875,29.841781616210938,34.812644958496094,3.306640625
1686425178931926300,12.04692626953125,30.192096710205078,34.64936828613281,3.30780029296875
1686425178941871400,12.056871337890625,30.472702026367188,34.454002380371094,3.4069900512695312
1686425178951817200,12.066817138671874,30.523014068603516,34.08734893798828,4.067230224609375
1686425178961762300,12.07676220703125,30.66199493408203,33.81959533691406,4.497688293457031
1686425178971708400,12.08670849609375,30.52635955810547,33.510093688964844,5.368324279785156
1686425178981653500,12.096653564453124,30.576622009277344,33.80329895019531,5.865478515625
1686425178991599400,12.106599365234375,30.18708038330078,33.89197540283203,6.727424621582031
1686425179001544200,12.116544189453125,29.73016357421875,34.10167694091797,7.5515899658203125
1686425179011490300,12.126490234375,29.152423858642578,34.359375,8.04974365234375
1686425179021435100,12.13643505859375,28.687007904052734,34.47926330566406,8.746826171875
1686425179031381200,12.14638134765625,28.154712677001953,34.77496337890625,9.746978759765625
1686425179041327400,12.156327392578126,27.60000228881836,35.03814697265625,10.914154052734375
1686425179051272400,12.1662724609375,27.241336822509766,35.11930465698242,11.8154296875
1686425179061218300,12.17621826171875,27.11832046508789,35.036277770996094,12.710113525390625
1686425179071163400,12.186163330078125,26.738059997558594,34.91526794433594,13.491058349609375
1686425179081109200,12.196109130859375,26.358646392822266,34.89994812011719,14.29986572265625
1686425179091054300,12.206054443359376,26.248653411865234,34.56645965576172,15.016853332519531
1686425179101000200,12.216000244140625,25.99059295654297,34.60033416748047,15.427001953125
1686425179110945500,12.225945556640625,26.103797912597656,33.98505783081055,16.15503692626953
1686425179120891400,12.235891357421876,26.15892791748047,33.697105407714844,17.786651611328125
1686425179130836200,12.245836181640625,25.70382308959961,33.280311584472656,18.498153686523438
1686425179140782300,12.2557822265625,25.332386016845703,32.8519287109375,19.34778594970703
1686425179150728400,12.265728515625,25.08907699584961,32.54081726074219,20.358352661132812
1686425179160673300,12.27567333984375,24.664405822753906,32.48583984375,21.418609619140625
1686425179170619100,12.285619140625,23.956104278564453,32.504600524902344,22.187789916992188
1686425179180564500,12.295564453125,23.35086441040039,32.41590118408203,22.815887451171875
1686425179190510300,12.30551025390625,22.92331314086914,32.719573974609375,23.19629669189453
1686425179200455400,12.315455322265626,22.08708953857422,32.842201232910156,23.51610565185547
1686425179210401300,12.3254013671875,21.335834503173828,33.12964630126953,23.741539001464844
1686425179220346400,12.335346435546874,20.714374542236328,33.687957763671875,23.618698120117188
1686425179230292200,12.345292236328126,19.994525909423828,33.75543975830078,23.656715393066406
1686425179240237600,12.355237548828125,19.414764404296875,34.22502517700195,23.800628662109375
1686425179250183400,12.365183349609374,18.627906799316406,34.799766540527344,23.55821990966797
1686425179260129500,12.375129638671876,18.196239471435547,34.8197021484375,23.61060333251953
1686425179270074400,12.385074462890625,17.36937713623047,35.30580139160156,23.464332580566406
1686425179280020200,12.395020263671874,16.60324478149414,35.57545471191406,23.383949279785156
1686425179289965300,12.40496533203125,16.774173736572266,36.062217712402344,23.126243591308594
1686425179299911200,12.4149111328125,16.606796264648438,36.27369689941406,23.138282775878906
1686425179309856500,12.4248564453125,15.896232604980469,36.80156707763672,22.829238891601562
1686425179319802400,12.43480224609375,15.905517578125,36.62083435058594,22.500877380371094
1686425179329747500,12.44474755859375,16.180587768554688,36.91522216796875,22.10832977294922
1686425179339693300,12.454693359375,16.45752716064453,37.06843566894531,21.86602020263672
1686425179349639400,12.464639404296875,16.45752716064453,37.06843566894531,21.86602020263672
1686425179359584300,12.474584228515624,16.82904815673828,37.26893615722656,21.814476013183594
1686425179369530400,12.4845302734375,17.238849639892578,37.11274719238281,21.447433471679688
1686425179379475500,12.494475341796875,17.563880920410156,37.113399505615234,20.777374267578125
1686425179389421600,12.504421630859374,18.188446044921875,36.95338439941406,20.480735778808594
1686425179399366400,12.514366455078125,18.67487335205078,37.05485534667969,20.278099060058594
1686425179409312300,12.524312255859375,18.94388198852539,36.797977447509766,19.9620361328125
1686425179419257300,12.53425732421875,19.273216247558594,36.66314697265625,19.72760009765625
1686425179429203200,12.544203125,19.67829132080078,36.4762077331543,19.170333862304688
1686425179439148500,12.5541484375,20.263973236083984,36.71234130859375,18.76342010498047
1686425179449094400,12.564094482421876,20.615066528320312,36.972740173339844,18.354209899902344
1686425179459040500,12.57404052734375,21.15127182006836,36.96037292480469,17.411460876464844
1686425179468985300,12.5839853515625,21.38597869873047,37.243934631347656,16.742286682128906
1686425179478931500,12.593931396484376,21.524452209472656,37.615257263183594,15.410537719726562
1686425179488876300,12.603876220703125,21.913776397705078,37.70438766479492,14.336288452148438
1686425179498822400,12.613822509765624,22.424041748046875,38.16294860839844,12.867446899414062
1686425179508767500,12.623767578125,22.354026794433594,38.019203186035156,12.112152099609375
1686425179518713600,12.633713623046875,23.083362579345703,38.00807189941406,11.878562927246094
1686425179528658400,12.643658447265626,23.204059600830078,37.841896057128906,11.705940246582031
1686425179538604300,12.653604248046875,23.604530334472656,37.69966125488281,11.72491455078125
1686425179548550400,12.66355029296875,23.897071838378906,37.76325607299805,11.625053405761719
1686425179558495200,12.6734951171875,23.897567749023438,37.43757629394531,11.340896606445312
1686425179568441300,12.68344140625,24.020275115966797,37.6237907409668,11.14227294921875
1686425179578386400,12.693386474609374,24.158714294433594,37.82235336303711,10.941879272460938
1686425179588332300,12.703332275390625,24.332271575927734,37.66789245605469,11.185050964355469
1686425179598277400,12.71327734375,23.911014556884766,37.74933624267578,11.612594604492188
1686425179608223500,12.723223388671874,23.396976470947266,37.658721923828125,12.189949035644531
1686425179618168300,12.733168212890625,22.890350341796875,37.442832946777344,13.081161499023438
1686425179628114400,12.743114501953125,22.74929428100586,37.39582061767578,13.84600830078125
1686425179638059300,12.753059326171876,22.568191528320312,37.55083084106445,14.389884948730469
1686425179648005000,12.763005126953125,22.07624053955078,37.236793518066406,15.55609130859375
1686425179657950500,12.772950439453124,21.440181732177734,37.213478088378906,16.260284423828125
1686425179667896300,12.782896240234376,21.079792022705078,37.1895751953125,16.83733367919922
1686425179677842400,12.792842529296875,20.85830307006836,37.04812240600586,17.49005889892578
1686425179687787300,12.802787353515624,20.183380126953125,36.98594665527344,17.842369079589844
1686425179697733400,12.8127333984375,19.70623016357422,37.29485321044922,18.129226684570312
1686425179707678200,12.82267822265625,19.125350952148438,37.42217254638672,18.492156982421875
1686425179717624300,12.832624267578124,19.24432373046875,37.33727264404297,18.360328674316406
1686425179727569400,12.8425693359375,19.069122314453125,37.515869140625,18.808738708496094
1686425179737515500,12.852515625,19.022335052490234,37.63555908203125,18.70043182373047
1686425179747460400,12.86246044921875,19.055675506591797,37.66081619262695,18.308746337890625
1686425179757406500,12.872406494140625,19.331199645996094,37.4234619140625,18.23981475830078
1686425179767352300,12.882352294921875,19.923778533935547,37.19890594482422,17.923614501953125
1686425179777297200,12.892297119140625,20.536617279052734,37.076133728027344,17.24798583984375
1686425179787243300,12.9022431640625,22.27416229248047,36.93977355957031,16.2979736328125
1686425179797188400,12.912188232421874,23.451751708984375,36.63037872314453,15.381912231445312
1686425179807134500,12.922134521484375,24.555553436279297,36.32890319824219,14.228523254394531
1686425179817079300,12.932079345703125,25.672874450683594,36.094635009765625,13.116050720214844
1686425179827025400,12.942025390625,26.594745635986328,35.527488708496094,12.274261474609375
1686425179836970200,12.95197021484375,27.53109359741211,35.29144287109375,11.760047912597656
1686425179846916400,12.961916259765625,27.65668487548828,35.08839416503906,10.991462707519531
