time,seconds_elapsed,z,y,x
1687351457843945700,0.45594580078125,-3.047013521194458,2.3330771923065186,2.167635917663574
1687351457853962800,0.465962646484375,-3.163559913635254,1.869339108467102,1.9898041486740112
1687351457863979800,0.475979736328125,-3.1943199634552,1.5348542928695679,1.796213150024414
1687351457873997600,0.48599755859375,-3.1471848487854004,1.3584859371185303,1.5420175790786743
1687351457884014800,0.496014892578125,-3.038996696472168,1.2630380392074585,1.2305593490600586
1687351457894032600,0.50603271484375,-2.8677566051483154,1.2399042844772339,0.9164673089981079
1687351457904049700,0.516049560546875,-2.7880687713623047,1.0848995447158813,0.6235557794570923
1687351457914066700,0.526066650390625,-2.9768781661987305,1.1399569511413574,0.4185299277305603
1687351457924084700,0.536084716796875,-3.1903295516967773,1.1971197128295898,0.33762088418006897
1687351457934101800,0.546101806640625,-3.157550573348999,0.9652217626571655,0.2707965672016144
1687351457944118800,0.556118896484375,-3.068002939224243,0.4132232069969177,0.04738481715321541
1687351457954136800,0.56613671875,-3.0489602088928223,-0.6119824647903442,-0.6708734631538391
1687351457964153900,0.57615380859375,-2.8564341068267822,-1.3588095903396606,-1.587224006652832
1687351457974170600,0.586170654296875,-2.6041715145111084,-1.504234790802002,-2.4231815338134766
1687351457984188700,0.596188720703125,-2.384167194366455,-1.3663148880004883,-2.8195888996124268
1687351457994205700,0.606205810546875,-2.512415885925293,-1.2856881618499756,-2.6704585552215576
1687351458004222700,0.61622265625,-3.0328941345214844,-1.0201530456542969,-2.459796190261841
1687351458014240800,0.62624072265625,-3.1981139183044434,-1.0762178897857666,-1.9546527862548828
1687351458024257500,0.636257568359375,-2.8921172618865967,-1.5480259656906128,-1.2193217277526855
1687351458034275800,0.64627587890625,-2.424926519393921,-1.6696027517318726,-0.5299776196479797
1687351458044292600,0.656292724609375,-2.0179195404052734,-1.2739615440368652,-0.10963775962591171
1687351458054310000,0.666309814453125,-1.6831583976745605,-0.7975133061408997,0.1465892195701599
1687351458064327700,0.67632763671875,-1.4544817209243774,-0.6529964804649353,0.3220725655555725
1687351458074344700,0.6863447265625,-1.2406005859375,-0.8154754042625427,0.3847322165966034
1687351458084361700,0.69636181640625,-0.9833375215530396,-1.3687723875045776,0.35729849338531494
1687351458094379800,0.7063798828125,-0.8116054534912109,-1.8601034879684448,0.44083333015441895
1687351458104396800,0.716396728515625,-0.9224812984466553,-2.0445375442504883,0.5035672187805176
1687351458114413800,0.726413818359375,-1.152051329612732,-1.982651710510254,0.4077208340167999
1687351458124432000,0.736431884765625,-1.4447243213653564,-1.8365992307662964,0.25745531916618347
1687351458134448600,0.74644873046875,-1.7723746299743652,-1.679478645324707,-0.05615987256169319
1687351458144466700,0.756466796875,-1.960468053817749,-1.8048380613327026,-0.4905320107936859
1687351458154483700,0.766483642578125,-1.9521907567977905,-1.8489246368408203,-0.8736032247543335
1687351458164500700,0.776500732421875,-1.8871687650680542,-1.8718382120132446,-1.0738381147384644
1687351458174518800,0.786518798828125,-1.7958711385726929,-2.0416245460510254,-1.190260887145996
1687351458184535800,0.796535888671875,-1.6870559453964233,-2.11030912399292,-1.265978217124939
1687351458194552600,0.806552490234375,-1.6477842330932617,-1.9019066095352173,-1.3612117767333984
1687351458204571000,0.81657080078125,-1.6154491901397705,-1.518545389175415,-1.4256494045257568
1687351458214587600,0.826587646484375,-1.675997018814087,-1.1831519603729248,-1.4096081256866455
1687351458224605000,0.83660498046875,-1.8206689357757568,-1.033044695854187,-1.2899476289749146
1687351458234622700,0.846622802734375,-1.9586364030838013,-1.0179696083068848,-1.0286964178085327
1687351458244639700,0.8566396484375,-2.01886248588562,-1.0073411464691162,-0.6867880821228027
1687351458254656800,0.86665673828125,-2.0065994262695312,-1.1758440732955933,-0.37812456488609314
1687351458264674600,0.876674560546875,-1.9612828493118286,-1.4782768487930298,-0.18494997918605804
1687351458274691800,0.88669189453125,-1.9494123458862305,-1.4920432567596436,-0.08430805057287216
1687351458284709600,0.896709716796875,-1.9205892086029053,-1.2714667320251465,-0.09896928817033768
1687351458294727000,0.906726806640625,-1.8755693435668945,-1.0804808139801025,-0.20500518381595612
1687351458304743700,0.91674365234375,-1.8361122608184814,-0.9798540472984314,-0.2913934290409088
1687351458314761700,0.92676171875,-1.7570313215255737,-0.7787070870399475,-0.2832399010658264
1687351458324778800,0.93677880859375,-1.6274462938308716,-0.561654806137085,-0.19440992176532745
1687351458334795800,0.946795654296875,-1.4800156354904175,-0.3679082691669464,-0.02559240721166134
1687351458344813800,0.956813720703125,-1.3141196966171265,-0.2904384136199951,0.16984134912490845
1687351458354830800,0.966830810546875,-1.0831663608551025,-0.27091026306152344,0.37531405687332153
1687351458364847600,0.97684765625,-0.8160258531570435,-0.3895978629589081,0.5640328526496887
1687351458374865700,0.98686572265625,-0.5414028167724609,-0.609992265701294,0.6729977130889893
1687351458384882700,0.996882568359375,-0.24511831998825073,-0.7171873450279236,0.8019973635673523
1687351458394900000,1.00689990234375,0.04343198612332344,-0.6175689101219177,1.084915041923523
1687351458404917800,1.016917724609375,0.3938680589199066,-0.5581267476081848,1.3843967914581299
1687351458414934500,1.0269345703125,0.7610602378845215,-0.976015567779541,1.3618285655975342
1687351458424952800,1.036952880859375,1.208031415939331,-1.7568949460983276,1.3693842887878418
1687351458434969600,1.046969482421875,1.6576038599014282,-2.1590209007263184,1.1163331270217896
1687351458444987000,1.05698681640625,1.917490005493164,-2.1853950023651123,0.6640744805335999
1687351458455004700,1.067004638671875,1.8674638271331787,-1.74912428855896,0.03789180517196655
1687351458465022000,1.07702197265625,1.7257004976272583,-1.0661972761154175,-0.4248965382575989
1687351458475038700,1.087038818359375,1.8553160429000854,-0.9324359893798828,-0.6238530278205872
1687351458485056500,1.097056396484375,2.000993251800537,-1.0048153400421143,-0.6303053498268127
1687351458495073800,1.10707373046875,2.0744152069091797,-0.9636721611022949,-0.39900070428848267
1687351458505090800,1.1170908203125,2.1128101348876953,-0.7584584355354309,0.042072542011737823
1687351458515108900,1.12710888671875,2.1539359092712402,-0.4773558974266052,0.6253578066825867
1687351458525125600,1.137125732421875,2.190135955810547,-0.14930392801761627,1.085012435913086
1687351458535144000,1.14714404296875,2.116975784301758,0.2699143588542938,1.3157676458358765
1687351458545160700,1.15716064453125,2.12294864654541,0.5495662689208984,1.069817066192627
1687351458555177700,1.167177734375,2.0649521350860596,0.8249629139900208,0.1732335239648819
1687351458565195800,1.17719580078125,2.0634419918060303,1.257670283317566,-0.3841826617717743
1687351458575212800,1.187212890625,2.0333292484283447,1.9497368335723877,-0.5300237536430359
1687351458585229600,1.1972294921875,1.9758790731430054,2.767634153366089,-0.6166730523109436
1687351458595247900,1.207247802734375,2.0772206783294678,3.1389880180358887,-0.6006283164024353
1687351458605264600,1.2172646484375,2.4501986503601074,3.0823566913604736,-0.18754176795482635
1687351458615282000,1.227281982421875,3.050597667694092,2.806123733520508,0.25592195987701416
1687351458625299700,1.2372998046875,3.7201881408691406,2.7415552139282227,0.7918704152107239
1687351458635316700,1.247316650390625,4.46168851852417,3.116543769836426,1.1840144395828247
1687351458645333800,1.257333740234375,5.081501007080078,3.5604779720306396,1.81309175491333
1687351458655351600,1.2673515625,4.8443145751953125,3.244900941848755,2.123789072036743
1687351458665368800,1.277368896484375,4.275514602661133,2.8413703441619873,1.8422213792800903
1687351458675386600,1.28738671875,3.6886181831359863,2.26706600189209,1.3657687902450562
1687351458685404000,1.29740380859375,2.9206626415252686,1.3767483234405518,0.7859408259391785
1687351458695420700,1.307420654296875,1.7736064195632935,0.8898603916168213,0.2482566088438034
1687351458705439000,1.31743896484375,0.7135614156723022,0.7618192434310913,-0.17052865028381348
1687351458715455700,1.327455810546875,-0.010727843269705772,0.9956485033035278,-0.37474384903907776
1687351458725472800,1.33747265625,-0.4707392156124115,1.1752510070800781,-0.45400699973106384
1687351458735490800,1.34749072265625,-0.5108895301818848,1.3164036273956299,-0.344084769487381
1687351458745507800,1.3575078125,-0.43975189328193665,1.4836781024932861,-0.1385577917098999
1687351458755524900,1.36752490234375,-0.36285313963890076,2.09287691116333,0.13591504096984863
1687351458765542700,1.377542724609375,-0.3245371878147125,2.3690695762634277,0.4171031415462494
1687351458775559700,1.3875595703125,-0.3509141802787781,2.271026372909546,0.5794590711593628
1687351458785576700,1.39757666015625,-0.40481871366500854,1.9640567302703857,0.619490385055542
1687351458795594800,1.4075947265625,-0.3848993182182312,1.403660535812378,0.5286436080932617
1687351458805611800,1.41761181640625,-0.31455379724502563,0.934435248374939,0.33954763412475586
1687351458815629800,1.4276298828125,-0.19319592416286469,0.7652983665466309,0.09507719427347183
1687351458825646800,1.437646728515625,-0.03486376255750656,0.563957691192627,-0.15762518346309662
1687351458835664000,1.447663818359375,0.035646092146635056,0.40869489312171936,-0.37298545241355896
1687351458845681700,1.457681640625,0.026422610506415367,0.22639836370944977,-0.5494821071624756
1687351458855699000,1.467698974609375,-0.054208848625421524,0.14630380272865295,-0.7382632493972778
1687351458865715700,1.4777158203125,-0.3009742498397827,0.11510027199983597,-0.9118312001228333
1687351458875733800,1.487733642578125,-0.6403506994247437,0.03792212903499603,-1.0319315195083618
1687351458885750800,1.497750732421875,-0.9047752022743225,-0.1203887090086937,-1.0803169012069702
1687351458895767800,1.507767822265625,-1.0729316473007202,-0.2723449468612671,-1.0285778045654297
1687351458905785900,1.517785888671875,-1.203357458114624,-0.39864709973335266,-0.9843649864196777
1687351458915802600,1.527802734375,-1.368915319442749,-0.4495947062969208,-1.0471363067626953
1687351458925820000,1.53781982421875,-1.6499378681182861,-0.4084503650665283,-1.195110559463501
1687351458935837700,1.547837646484375,-1.9512896537780762,-0.3561440408229828,-1.281191110610962
1687351458945854700,1.557854736328125,-2.2215144634246826,-0.27096739411354065,-1.1664626598358154
1687351458955872800,1.567872802734375,-2.315718412399292,-0.2631227970123291,-0.863315999507904
1687351458965889800,1.577889892578125,-2.3982174396514893,-0.2326042354106903,-0.3750936985015869
1687351458975906800,1.58790673828125,-2.569430112838745,-0.18081186711788177,0.11837301403284073
1687351458985924600,1.597924560546875,-2.717343330383301,-0.12618063390254974,0.4484097361564636
1687351458995942000,1.60794189453125,-2.7928342819213867,-0.03760842606425285,0.6197923421859741
1687351459005959000,1.617958984375,-2.806907892227173,0.04122746363282204,0.7673435807228088
1687351459015976700,1.627976806640625,-2.7431604862213135,0.1302982121706009,0.9465892314910889
1687351459025993700,1.63799365234375,-2.4322285652160645,0.20876368880271912,1.0630362033843994
1687351459036010800,1.6480107421875,-2.076730489730835,0.28963351249694824,1.0195387601852417
1687351459046028800,1.65802880859375,-1.8550108671188354,0.46719369292259216,0.86020827293396
1687351459056045800,1.6680458984375,-1.952691912651062,0.6822361946105957,1.0155956745147705
1687351459066062600,1.6780625,-1.9140456914901733,0.6321825981140137,1.0212812423706055
1687351459076081000,1.688080810546875,-1.8877227306365967,0.5419214367866516,0.9959748983383179
1687351459086097700,1.69809765625,-1.6650837659835815,0.2657676339149475,0.93017578125
1687351459096115000,1.708114990234375,-1.5058767795562744,0.007902826182544231,0.8155720233917236
1687351459106132700,1.7181328125,-1.3392945528030396,-0.17247776687145233,0.6691529750823975
1687351459116149800,1.728149658203125,-1.1517529487609863,-0.11049161851406097,0.5545539855957031
1687351459126166800,1.738166748046875,-0.9318209886550903,0.15710002183914185,0.5429531931877136
1687351459136184600,1.7481845703125,-0.7443475127220154,0.46808478236198425,0.6135022044181824
1687351459146201900,1.758201904296875,-0.5679571628570557,0.6464710235595703,0.7662549018859863
1687351459156219600,1.7682197265625,-0.3817473351955414,0.7392070889472961,0.9162592887878418
1687351459166237000,1.77823681640625,-0.19097384810447693,0.7509251236915588,0.9732761383056641
1687351459176253700,1.788253662109375,-0.032854773104190826,0.693533718585968,0.8560653328895569
1687351459186271700,1.798271728515625,0.11540937423706055,0.5760515928268433,0.7001058459281921
1687351459196288800,1.808288818359375,0.3628378212451935,0.5969750285148621,0.6674136519432068
1687351459206305800,1.818305908203125,0.6897262930870056,0.7732627987861633,0.7639714479446411
1687351459216323800,1.82832373046875,0.9728682637214661,1.0040216445922852,0.9781918525695801
1687351459226340900,1.8383408203125,1.2109469175338745,1.2268348932266235,1.2478572130203247
1687351459236357600,1.848357666015625,1.462033748626709,1.3735040426254272,1.4633195400238037
1687351459246375700,1.858375732421875,1.6687418222427368,1.4168014526367188,1.533758282661438
1687351459256392700,1.868392822265625,1.8656975030899048,1.4570481777191162,1.4869087934494019
1687351459266410000,1.878409912109375,1.9753646850585938,1.3001599311828613,1.3465189933776855
1687351459276427800,1.888427734375,2.017573595046997,1.118177056312561,1.2172666788101196
1687351459286444500,1.898444580078125,2.016761302947998,1.0205421447753906,1.120513916015625
1687351459296461800,1.9084619140625,1.8615318536758423,0.9519708156585693,1.0774540901184082
1687351459306479600,1.918479736328125,1.940511703491211,0.7223265171051025,1.177234411239624
1687351459316497000,1.928496826171875,1.6939195394515991,0.46147045493125916,1.2250059843063354
1687351459326514700,1.9385146484375,1.4901843070983887,0.37805435061454773,1.1111305952072144
1687351459336532000,1.948531982421875,1.2388538122177124,0.2937072515487671,0.9637004137039185
1687351459346548700,1.958548828125,0.9973071813583374,0.2005494236946106,0.7771797776222229
1687351459356566800,1.96856689453125,0.7711067795753479,0.1770177185535431,0.6113218069076538
1687351459366583800,1.978583740234375,0.5206401944160461,0.2421528548002243,0.5329752564430237
1687351459376600800,1.988600830078125,0.48069220781326294,0.2475484162569046,0.623198390007019
1687351459386619000,1.998618896484375,0.5094916224479675,0.22493185102939606,0.7763367295265198
1687351459396635600,2.0086357421875,0.5668254494667053,0.27709174156188965,0.7756078243255615
1687351459406652700,2.018652587890625,0.5640537142753601,0.3182089626789093,0.6859131455421448
1687351459416670700,2.028670654296875,0.4854811429977417,0.30822449922561646,0.6738160252571106
1687351459426687700,2.038687744140625,0.4120214879512787,0.2517246603965759,0.7333562970161438
1687351459436704800,2.048704833984375,0.2128007858991623,0.26429426670074463,0.7812748551368713
1687351459446722800,2.058722900390625,0.006153956521302462,0.35296908020973206,0.7755182385444641
1687351459456739600,2.068739501953125,-0.3131428062915802,0.40021276473999023,0.6736190319061279
1687351459466756900,2.0787568359375,-0.6006382703781128,0.39527666568756104,0.5145001411437988
1687351459476774700,2.088774658203125,-0.77598637342453,0.3318638801574707,0.283798485994339
1687351459486792000,2.0987919921875,-0.8887941837310791,0.2505214214324951,0.038112156093120575
1687351459496808700,2.10880859375,-1.0241951942443848,0.1576186567544937,-0.21078741550445557
1687351459506826800,2.11882666015625,-1.2606570720672607,0.07094831764698029,-0.4445248246192932
1687351459516843800,2.12884375,-1.4879287481307983,-0.04200432449579239,-0.6524319648742676
1687351459526861600,2.138861572265625,-1.8357014656066895,0.014131153002381325,-0.7652479410171509
1687351459536878800,2.14887890625,-2.343184471130371,0.01674770936369896,-0.7325264811515808
1687351459546895600,2.1588955078125,-2.7271313667297363,-0.006356559693813324,-0.6586254835128784
1687351459556914000,2.168913818359375,-2.9243640899658203,-0.1115301176905632,-0.5541129112243652
1687351459566930700,2.1789306640625,-2.9252448081970215,-0.2045503556728363,-0.46511292457580566
1687351459576947700,2.18894775390625,-2.634019374847412,-0.19472728669643402,-0.39598309993743896
1687351459586965800,2.1989658203125,-2.4641458988189697,-0.3874741792678833,-0.27824774384498596
1687351459596982800,2.208982666015625,-2.37555193901062,-0.49815142154693604,-0.10493241995573044
1687351459606999800,2.218999755859375,-2.39182186126709,-0.6414621472358704,0.155206099152565
1687351459617017900,2.229017822265625,-2.2557926177978516,-0.8581966161727905,0.603649377822876
1687351459627034600,2.23903466796875,-1.9540590047836304,-0.7982940077781677,1.0540993213653564
1687351459637052000,2.249052001953125,-1.7373652458190918,-0.634212076663971,1.2375437021255493
1687351459647069700,2.259069580078125,-1.693441390991211,-0.5831189155578613,1.1198335886001587
1687351459657087000,2.2690869140625,-1.6295167207717896,-0.5448991060256958,0.8622649908065796
1687351459667103700,2.279103759765625,-1.4501502513885498,-0.4625571370124817,0.6420270800590515
1687351459677121800,2.289121826171875,-1.0224263668060303,-0.2656254470348358,0.581699013710022
1687351459687138800,2.299138916015625,-0.3812905550003052,0.02179032191634178,0.6076671481132507
1687351459697156000,2.309156005859375,0.13914917409420013,0.28380435705184937,0.634996771812439
1687351459707174400,2.31917431640625,0.4769371449947357,0.3884193003177643,0.6271899342536926
1687351459717191200,2.329191162109375,0.7818893790245056,0.5213491320610046,0.5901203751564026
1687351459727209200,2.339209228515625,1.0291777849197388,0.6757211685180664,0.5385295748710632
1687351459737226200,2.349226318359375,1.066461443901062,0.6591778993606567,0.5169390439987183
1687351459747243300,2.3592431640625,0.9460391402244568,0.5993136763572693,0.5028650760650635
1687351459757261300,2.36926123046875,0.80817711353302,0.4963894188404083,0.45108655095100403
1687351459767278000,2.379278076171875,0.8190211057662964,0.3612300157546997,0.3593047559261322
1687351459777295400,2.38929541015625,0.9145164489746094,0.22018447518348694,0.18155816197395325
1687351459787313200,2.399313232421875,1.0028107166290283,0.021520018577575684,-0.0853162631392479
1687351459797330200,2.409330078125,1.0233234167099,-0.1662384271621704,-0.2615986168384552
1687351459807347200,2.41934716796875,1.1004455089569092,-0.29363563656806946,-0.402208149433136
1687351459817365200,2.429365234375,1.3895667791366577,-0.4325866103172302,-0.5414517521858215
1687351459827382300,2.43938232421875,1.8614529371261597,-0.5300236344337463,-0.7407513856887817
1687351459837399300,2.4493994140625,2.3753652572631836,-0.6177827715873718,-1.028991460800171
1687351459847417300,2.459417236328125,2.985504150390625,-0.7876061797142029,-1.285668134689331
1687351459857434400,2.469434326171875,3.7565157413482666,-1.032832145690918,-1.4542384147644043
1687351459867451100,2.479451171875,4.784797191619873,-1.5456475019454956,-1.247189998626709
1687351459877469200,2.48946923828125,4.89647912979126,-1.6222842931747437,-1.1578457355499268
1687351459887486200,2.499486328125,4.723307132720947,-1.2781805992126465,-1.31093168258667
1687351459897503200,2.509503173828125,4.592215061187744,-0.8649325966835022,-1.0678207874298096
1687351459907521300,2.519521240234375,4.334855556488037,-0.6458806991577148,0.027873411774635315
1687351459917538000,2.5295380859375,4.382208347320557,-1.0564535856246948,0.8615666627883911
1687351459927555300,2.539555419921875,3.417393445968628,-2.912102699279785,1.6151906251907349
1687351459937573000,2.549572998046875,2.246572732925415,-2.7251040935516357,1.1707361936569214
1687351459947590400,2.55959033203125,1.475273609161377,-1.8339647054672241,0.035739727318286896
1687351459957608200,2.569608154296875,1.1952906847000122,-0.7860177755355835,-1.2407187223434448
1687351459967625200,2.579625244140625,1.2139092683792114,-0.4212631285190582,-2.1296374797821045
1687351459977642200,2.589642333984375,1.1225175857543945,0.05274171009659767,-1.7994019985198975
1687351459987660300,2.599660400390625,1.2043201923370361,0.04002254456281662,-1.0851248502731323
1687351459997677300,2.60967724609375,1.5232646465301514,-0.04686122387647629,-0.5288105607032776
1687351460007694300,2.6196943359375,1.4525130987167358,0.4206370413303375,0.26652032136917114
1687351460017712400,2.62971240234375,1.0630204677581787,0.951818585395813,0.5015480518341064
1687351460027729200,2.639729248046875,0.4330863654613495,1.2732243537902832,0.544979989528656
1687351460037746200,2.64974609375,-0.2031230926513672,1.183876633644104,0.3939816653728485
1687351460047764200,2.65976416015625,-0.6768873929977417,0.8672027587890625,0.05477931722998619
1687351460057781200,2.66978125,-1.0189433097839355,0.46782824397087097,-0.4525986909866333
1687351460067798000,2.679798095703125,-1.3077335357666016,0.02477124333381653,-0.991619348526001
1687351460077816300,2.68981640625,-1.5710676908493042,-0.5124881863594055,-1.4734156131744385
1687351460087833000,2.6998330078125,-1.7650375366210938,-0.9758641123771667,-1.919548749923706
1687351460097850400,2.709850341796875,-1.9207344055175781,-1.3256723880767822,-2.3259077072143555
1687351460107868200,2.7198681640625,-2.027188301086426,-1.6030418872833252,-2.688124179840088
1687351460117885400,2.729885498046875,-2.078876495361328,-1.7876365184783936,-3.0631120204925537
1687351460127902200,2.739902099609375,-2.1445531845092773,-1.8858445882797241,-3.461168050765991
1687351460137920300,2.749920166015625,-2.160163402557373,-2.000837564468384,-3.8662033081054688
1687351460147937300,2.759937255859375,-2.124652862548828,-1.9506800174713135,-4.1730637550354
1687351460157954300,2.769954345703125,-2.036129951477051,-1.7075666189193726,-4.379127502441406
1687351460167972400,2.779972412109375,-1.922135353088379,-1.3341431617736816,-4.459399223327637
1687351460177989000,2.789989013671875,-1.7664417028427124,-0.9208980798721313,-4.372209072113037
1687351460188007400,2.80000732421875,-1.5808351039886475,-0.5536245703697205,-4.105993747711182
1687351460198024200,2.810024169921875,-1.4566020965576172,-0.11185890436172485,-3.803205966949463
1687351460208041200,2.820041259765625,-1.339983344078064,0.27937376499176025,-3.433100938796997
1687351460218059300,2.830059326171875,-1.1981277465820312,0.7076444029808044,-2.9405312538146973
1687351460228076300,2.840076171875,-1.0354793071746826,1.2505991458892822,-2.3670401573181152
1687351460238093000,2.850093017578125,-0.8261886835098267,1.721250057220459,-1.7390090227127075
1687351460248111400,2.860111328125,-0.5171501636505127,2.0823330879211426,-1.0841710567474365
1687351460258128100,2.870128173828125,-0.3253839313983917,2.44110107421875,-0.40025216341018677
1687351460268145400,2.8801455078125,-0.15112055838108063,2.7768561840057373,0.3110025227069855
1687351460278163200,2.8901630859375,0.05210685729980469,2.9555585384368896,1.083795189857483
1687351460288180200,2.90018017578125,0.22618119418621063,2.997812271118164,1.9186385869979858
1687351460298197200,2.910197265625,0.37058019638061523,2.542283296585083,2.6626336574554443
1687351460308215000,2.920215087890625,0.521124005317688,0.5566978454589844,2.910264730453491
1687351460318232300,2.930232421875,0.6324840784072876,-2.343111276626587,2.9739651679992676
1687351460328249300,2.940249267578125,0.6973450779914856,-4.751941204071045,2.6196250915527344
1687351460338267400,2.950267333984375,0.44956937432289124,-5.725062370300293,1.4525262117385864
1687351460348284200,2.9602841796875,0.1338280439376831,-5.263781547546387,-0.41116052865982056
1687351460358301200,2.97030126953125,0.2812801003456116,-4.179133892059326,-2.1166703701019287
1687351460368319200,2.9803193359375,0.5813085436820984,-3.0468268394470215,-2.8619565963745117
1687351460378336300,2.990336181640625,0.9918212294578552,-2.2098276615142822,-2.605010986328125
1687351460388353300,3.000353271484375,1.4922734498977661,-1.5696147680282593,-1.8747552633285522
1687351460398371300,3.010371337890625,1.967696189880371,-0.8920029997825623,-0.8901693224906921
1687351460408388000,3.02038818359375,2.42891526222229,0.15341153740882874,0.05558330565690994
1687351460418406100,3.03040625,2.710355758666992,1.0347203016281128,0.8398312330245972
1687351460428423200,3.040423095703125,2.758211374282837,1.369030475616455,1.6340210437774658
1687351460438440400,3.0504404296875,2.682533025741577,1.4213241338729858,2.412917375564575
1687351460448458200,3.060458251953125,2.670581102371216,1.4648951292037964,2.956908702850342
1687351460458475300,3.070475341796875,2.885000228881836,1.6084917783737183,3.0789830684661865
1687351460468492300,3.0804921875,3.6619818210601807,1.4811557531356812,3.1881227493286133
1687351460478510000,3.090510009765625,4.92193078994751,0.8341827988624573,3.5872325897216797
1687351460488527400,3.10052734375,6.350175380706787,0.0047395857982337475,5.242729663848877
1687351460498544000,3.110544189453125,5.368919372558594,0.6005352735519409,3.4517505168914795
1687351460508562400,3.1205625,3.6460561752319336,1.5803648233413696,1.256779432296753
1687351460518579200,3.1305791015625,3.168490409851074,2.6039035320281982,1.3702714443206787
1687351460528596200,3.14059619140625,2.890864849090576,2.502363681793213,2.2232770919799805
1687351460538614300,3.1506142578125,1.8172646760940552,1.615342378616333,3.072598695755005
1687351460548631300,3.16063134765625,0.20480963587760925,2.1119892597198486,4.1382551193237305
1687351460558648300,3.1706484375,-0.9062001705169678,3.4681577682495117,3.8544561862945557
1687351460568666000,3.180666015625,-0.7590920925140381,2.744492292404175,3.566370725631714
1687351460578683100,3.19068310546875,-0.257341593503952,2.0162510871887207,3.648066520690918
1687351460588700400,3.200700439453125,0.2651076018810272,1.1635096073150635,3.4697022438049316
1687351460598718200,3.21071826171875,0.5117714405059814,0.5885794758796692,3.164368152618408
1687351460608735200,3.2207353515625,0.5490196943283081,0.08800844848155975,2.702697992324829
1687351460618752300,3.230752197265625,0.4219714403152466,-0.28082817792892456,2.0554566383361816
1687351460628770300,3.240770263671875,0.21223263442516327,-0.4645320177078247,1.2910377979278564
1687351460638787300,3.250787353515625,-0.049310289323329926,-0.5247340798377991,0.40814608335494995
1687351460648804000,3.26080419921875,-0.24081216752529144,-0.5296967625617981,-0.5116658210754395
1687351460658822400,3.270822509765625,-0.31722092628479004,-0.6104493737220764,-1.3325461149215698
1687351460668839200,3.280839111328125,-0.4130283296108246,-0.7381848692893982,-2.009810209274292
1687351460678856200,3.290856201171875,-0.5218464732170105,-0.899060070514679,-2.716350555419922
1687351460688873700,3.300873779296875,-0.6993404030799866,-0.6857377886772156,-3.437678813934326
1687351460698890800,3.310890869140625,-0.9655404090881348,-0.16966348886489868,-3.782311201095581
1687351460708908800,3.32090869140625,-1.1697531938552856,0.08068342506885529,-3.947610378265381
1687351460718925800,3.33092578125,-1.333434820175171,0.2443559765815735,-3.755739212036133
1687351460728942600,3.340942626953125,-1.4803787469863892,0.5055623054504395,-3.2354559898376465
1687351460738960600,3.350960693359375,-1.5245542526245117,0.8191860318183899,-2.4085190296173096
1687351460748977700,3.360977783203125,-1.4023493528366089,0.8395320773124695,-1.4202680587768555
1687351460758995000,3.370994873046875,-1.1982121467590332,0.49798277020454407,-0.46235811710357666
1687351460769012700,3.3810126953125,-0.7045382261276245,-0.05924727022647858,0.2888164520263672
1687351460779029800,3.39102978515625,-0.29327428340911865,-0.7002946734428406,0.6836745738983154
1687351460789046800,3.401046875,-0.1603187471628189,-1.1280406713485718,0.6498141884803772
1687351460799064600,3.411064697265625,-0.1641012281179428,-1.1943504810333252,0.4005865156650543
1687351460809081900,3.421081787109375,-0.1556696891784668,-1.0533866882324219,0.35300615429878235
1687351460819098600,3.4310986328125,-0.055738043040037155,-0.7321857213973999,0.5234748125076294
1687351460829117000,3.441116943359375,0.1856149286031723,-0.8465596437454224,0.6893869042396545
1687351460839133700,3.4511337890625,0.6163343787193298,-1.2254910469055176,0.7919961214065552
1687351460849150700,3.461150634765625,0.9174785017967224,-1.3978677988052368,0.7922285199165344
1687351460859168800,3.471168701171875,1.152052640914917,-1.3894340991973877,0.7773851752281189
1687351460869185800,3.481185791015625,1.3168967962265015,-1.5986579656600952,0.8420588374137878
1687351460879202800,3.491202880859375,1.3874447345733643,-1.9307540655136108,0.8085943460464478
1687351460889220600,3.501220703125,1.734679102897644,-2.3593015670776367,0.8442724943161011
1687351460899237600,3.511237548828125,2.293557643890381,-2.7869739532470703,0.8629218339920044
1687351460909255000,3.5212548828125,2.729268789291382,-3.663851261138916,1.0239558219909668
1687351460919272700,3.531272705078125,2.725297689437866,-3.682811737060547,0.6910680532455444
1687351460929289700,3.541289794921875,2.659475088119507,-3.27199649810791,0.29925236105918884
1687351460939307800,3.551307861328125,2.6800196170806885,-3.0306203365325928,-0.04351430758833885
1687351460949324800,3.56132470703125,2.949110984802246,-2.7071855068206787,-0.3386877179145813
1687351460959341800,3.571341796875,3.47525954246521,-2.2652647495269775,-0.45639491081237793
1687351460969359600,3.581359619140625,3.9368534088134766,-2.0539190769195557,-0.29864373803138733
1687351460979377000,3.591376953125,3.9394123554229736,-2.0385959148406982,0.10643959045410156
1687351460989393700,3.6013935546875,3.3742547035217285,-1.1061350107192993,0.2633613049983978
1687351460999411700,3.61141162109375,2.264209270477295,0.3459749221801758,0.1686885803937912
1687351461009428700,3.6214287109375,0.897977352142334,1.545212984085083,-0.006554362829774618
1687351461019445800,3.63144580078125,-0.32205724716186523,2.8847415447235107,-0.47411519289016724
1687351461029463800,3.6414638671875,-1.244543433189392,3.378359317779541,-0.6422937512397766
1687351461039480600,3.65148046875,-1.944573163986206,2.8327479362487793,-0.7548757195472717
1687351461049497900,3.661497802734375,-2.0882420539855957,2.767425298690796,-0.8166433572769165
1687351461059515600,3.671515625,-1.9327296018600464,3.3498237133026123,-0.8176162242889404
1687351461069532700,3.68153271484375,-2.185718059539795,3.8657541275024414,-0.7174980044364929
1687351461079549700,3.6915498046875,-2.7896857261657715,4.026541709899902,-0.4648170471191406
1687351461089567700,3.701567626953125,-3.2805848121643066,4.322652816772461,-0.0755598396062851
1687351461099584800,3.711584716796875,-3.41280198097229,4.810079574584961,0.2213682383298874
1687351461109601800,3.721601806640625,-3.323359727859497,5.154118537902832,0.42391374707221985
1687351461119619800,3.731619873046875,-3.334254026412964,5.0704779624938965,0.7693682909011841
1687351461129636900,3.741636962890625,-3.246338129043579,4.93475866317749,1.2777045965194702
1687351461139654700,3.751654541015625,-2.9427878856658936,4.834420680999756,1.8762537240982056
1687351461149671700,3.761671630859375,-2.5569679737091064,4.964221000671387,2.3410263061523438
1687351461159688700,3.771688720703125,-2.156672477722168,4.24945592880249,2.28780460357666
1687351461169706800,3.781706787109375,-2.124640941619873,2.315268039703369,1.8902426958084106
1687351461179723800,3.791723876953125,-2.1989641189575195,0.26208317279815674,1.2078726291656494
1687351461189740500,3.801740478515625,-2.0361413955688477,-0.06708285957574844,0.5905125141143799
1687351461199758800,3.8117587890625,-1.7545057535171509,0.879051685333252,0.2692095935344696
1687351461209775600,3.821775634765625,-1.4172003269195557,1.558385968208313,0.495186448097229
1687351461219793000,3.83179296875,-1.2372925281524658,1.2172260284423828,1.0472935438156128
1687351461229810700,3.841810791015625,-1.2632346153259277,0.494604229927063,1.4246349334716797
1687351461239827700,3.85182763671875,-1.3762098550796509,0.14548486471176147,1.5975933074951172
1687351461249844700,3.8618447265625,-1.4267603158950806,0.28706714510917664,1.495145559310913
1687351461259862800,3.87186279296875,-1.3953359127044678,0.4509831368923187,1.269188642501831
1687351461269879800,3.8818798828125,-1.596151351928711,0.5100374221801758,1.0307286977767944
1687351461279896800,3.891896728515625,-2.088703155517578,0.679478645324707,0.8382565379142761
1687351461289915000,3.901914794921875,-2.711358070373535,1.2013301849365234,0.7345595359802246
1687351461299931600,3.911931640625,-3.2888832092285156,2.2208409309387207,0.7601432204246521
1687351461309948700,3.92194873046875,-3.7093117237091064,2.0041120052337646,0.8558060526847839
1687351461319966700,3.931966796875,-4.0029616355896,1.194419264793396,0.8546339869499207
1687351461329983700,3.941983642578125,-4.236736297607422,0.35226020216941833,0.7991259098052979
1687351461340000500,3.95200048828125,-4.343962669372559,-0.15001223981380463,0.7937678694725037
1687351461350018800,3.962018798828125,-4.403650760650635,-0.17297938466072083,0.9891048669815063
1687351461360035600,3.97203564453125,-4.364540100097656,-0.06961705535650253,1.4891455173492432
1687351461370054000,3.982053955078125,-4.039419651031494,-0.7482394576072693,1.9268841743469238
1687351461380070700,3.992070556640625,-3.7880301475524902,-0.35115334391593933,2.209164619445801
1687351461390088000,4.002087890625,-3.670233726501465,0.9836496710777283,2.1708152294158936
1687351461400105700,4.012105712890625,-2.6731278896331787,2.698965072631836,1.252399206161499
1687351461410122800,4.022122802734375,-1.241451382637024,3.130476713180542,0.26697781682014465
1687351461420139800,4.032139892578125,-0.3165808320045471,2.635878562927246,-0.249303936958313
1687351461430157600,4.042157470703125,0.20412491261959076,1.6750397682189941,-0.4475831091403961
1687351461440174800,4.0521748046875,0.46197962760925293,0.5845837593078613,-0.7391100525856018
1687351461450191600,4.062191650390625,0.4010409414768219,-0.20661456882953644,-1.2461069822311401
1687351461460210000,4.0722099609375,0.12142235785722733,-0.7492973208427429,-1.7906523942947388
1687351461470226700,4.082226806640625,-0.2690558433532715,-1.1532167196273804,-2.1633200645446777
1687351461480243700,4.09224365234375,-0.715074360370636,-1.3616935014724731,-2.3371741771698
1687351461490261800,4.10226171875,-1.0166618824005127,-1.321867823600769,-2.3962013721466064
1687351461500278800,4.11227880859375,-1.0258500576019287,-0.9670346975326538,-2.37276554107666
1687351461510295600,4.122295654296875,-0.5936537981033325,0.14414571225643158,-2.1668972969055176
1687351461520313900,4.13231396484375,-0.21779599785804749,1.405715823173523,-1.850711703300476
1687351461530330600,4.14233056640625,0.1960449367761612,1.94364595413208,-1.2179397344589233
1687351461540348000,4.152347900390625,1.1744972467422485,1.682024359703064,-0.3020187020301819
1687351461550365700,4.16236572265625,1.8974223136901855,1.207720160484314,0.49944499135017395
1687351461560382700,4.1723828125,2.06961727142334,0.9952145218849182,1.0613960027694702
1687351461570400800,4.18240087890625,1.7065032720565796,1.128104567527771,1.3997578620910645
1687351461580417500,4.19241748046875,0.7607012987136841,1.770664095878601,1.3482295274734497
1687351461590434800,4.202434814453125,-0.40751317143440247,2.531297206878662,0.891166627407074
1687351461600452600,4.21245263671875,-1.2347184419631958,3.0210323333740234,0.4372484087944031
1687351461610470000,4.222469970703125,-1.6437708139419556,2.944600820541382,0.16617892682552338
1687351461620486700,4.232486572265625,-1.5808162689208984,2.283806800842285,0.023713387548923492
1687351461630505000,4.2425048828125,-0.8246802687644958,1.6230173110961914,-0.07083767652511597
1687351461640521700,4.252521728515625,0.159688800573349,1.5127779245376587,-0.24316364526748657
1687351461650538800,4.262538818359375,0.7827078700065613,1.7514666318893433,-0.5654327869415283
1687351461660556800,4.272556884765625,1.1235371828079224,2.089768171310425,-0.9245715141296387
1687351461670573800,4.28257373046875,1.2784039974212646,2.391331434249878,-1.1595019102096558
1687351461680590600,4.292590576171875,1.1540848016738892,2.82765531539917,-1.2313568592071533
1687351461690608600,4.302608642578125,0.8708416223526001,3.1409542560577393,-1.1695702075958252
1687351461700626000,4.3126259765625,0.5872759819030762,3.3103339672088623,-1.0553267002105713
1687351461710642700,4.322642578125,0.33974382281303406,3.5654799938201904,-0.8998178839683533
1687351461720660700,4.33266064453125,0.11977393180131912,4.065800189971924,-0.6965292096138
1687351461730677800,4.342677734375,-0.10460162162780762,4.667025566101074,-0.40232473611831665
1687351461740694800,4.35269482421875,-0.33630621433258057,5.062154293060303,-0.045384179800748825
1687351461750712800,4.362712890625,-0.585710883140564,5.084773540496826,0.35210973024368286
1687351461760729900,4.372729736328125,-0.860896646976471,4.895431041717529,0.7116987705230713
1687351461770748000,4.382747802734375,-1.138405680656433,4.601351261138916,1.0225623846054077
1687351461780765000,4.392764892578125,-1.3178963661193848,4.290337562561035,1.286016583442688
1687351461790781700,4.40278173828125,-1.3985378742218018,3.936211109161377,1.4389326572418213
1687351461800799700,4.4127998046875,-1.3796932697296143,3.6399378776550293,1.51248037815094
1687351461810816800,4.422816650390625,-1.303536057472229,3.4433882236480713,1.5618925094604492
1687351461820833800,4.432833740234375,-1.2017830610275269,3.3784608840942383,1.6332452297210693
1687351461830851800,4.442851806640625,-1.225250005722046,3.317939281463623,1.6662909984588623
1687351461840868600,4.45286865234375,-1.5121049880981445,3.012091875076294,1.8335554599761963
1687351461850886000,4.462885986328125,-3.0420076847076416,2.4965271949768066,1.928810954093933
1687351461860903700,4.472903564453125,-4.658051013946533,1.54562246799469,1.550574779510498
1687351461870921000,4.4829208984375,-4.048518180847168,-3.542548894882202,-0.053609397262334824
1687351461880937700,4.492937744140625,-1.7983925342559814,-6.723055362701416,-1.267760992050171
1687351461890955800,4.502955810546875,0.709911584854126,-7.418233871459961,-0.5315492749214172
1687351461900972800,4.512972900390625,1.7434190511703491,-6.198799133300781,0.7659478187561035
1687351461910989800,4.52298974609375,1.6213277578353882,-4.425412654876709,1.6971771717071533
1687351461921007900,4.5330078125,1.1484951972961426,-2.815009832382202,2.130291223526001
1687351461931025000,4.54302490234375,0.6170624494552612,-1.5299075841903687,2.088945150375366
1687351461941041700,4.553041748046875,0.11189008504152298,-0.46057119965553284,1.6385396718978882
1687351461951059700,4.563059814453125,-0.28378692269325256,0.47162115573883057,0.9497090578079224
1687351461961076700,4.57307666015625,-0.4075690507888794,1.2404043674468994,0.4351584017276764
1687351461971094800,4.5830947265625,-0.29192519187927246,1.8466111421585083,0.4064148962497711
1687351461981111800,4.59311181640625,-0.08219195157289505,2.3889005184173584,0.5195366740226746
1687351461991128600,4.603128662109375,-0.05582405626773834,2.8179891109466553,0.4769582152366638
1687351462001147000,4.61314697265625,-0.23826897144317627,2.974179267883301,0.33019620180130005
1687351462011163600,4.62316357421875,-0.38740336894989014,2.9277749061584473,-0.036119621247053146
1687351462021181000,4.633180908203125,-0.3952847421169281,3.0593924522399902,-0.38455483317375183
1687351462031198700,4.64319873046875,-0.5417042970657349,2.14506196975708,-1.716530203819275
1687351462041216000,4.653216064453125,-0.4024718105792999,1.3795768022537231,-1.9903793334960938
1687351462051232800,4.663232666015625,0.10982747375965118,1.4520838260650635,-1.655083179473877
1687351462061250600,4.67325048828125,0.514706015586853,1.4500582218170166,-1.1611781120300293
1687351462071267800,4.683267822265625,0.7062399387359619,1.545922875404358,-0.4237538278102875
1687351462081284900,4.693284912109375,0.7174236178398132,1.606644868850708,0.028547052294015884
1687351462091303000,4.703302978515625,0.5405983328819275,1.898287057876587,0.45733821392059326
1687351462101319700,4.713319580078125,0.3822622299194336,2.171363353729248,0.6874345541000366
1687351462111336700,4.723336669921875,0.3746384084224701,2.341174364089966,0.8839863538742065
1687351462121354800,4.733354736328125,0.4412296712398529,2.392425298690796,1.016038179397583
1687351462131371800,4.743371826171875,0.4864405691623688,2.558624029159546,1.1120970249176025
1687351462141388800,4.753388916015625,0.5732007622718811,3.279681921005249,1.3689770698547363
1687351462151406800,4.76340673828125,0.680450439453125,3.8790805339813232,1.4210635423660278
1687351462161423600,4.773423583984375,0.6738998889923096,4.171446323394775,1.2793266773223877
1687351462171442000,4.78344189453125,0.5475646257400513,4.1927947998046875,1.1559555530548096
1687351462181458700,4.793458740234375,0.417836457490921,3.9948723316192627,1.1990212202072144
1687351462191476000,4.80347607421875,0.38428038358688354,3.569121837615967,1.4013001918792725
1687351462201493800,4.81349365234375,0.34835487604141235,3.0615947246551514,1.5349218845367432
1687351462211510800,4.8235107421875,0.3332368731498718,2.6273534297943115,1.4210968017578125
1687351462221527800,4.83352783203125,0.24307769536972046,2.277719259262085,1.1096577644348145
1687351462231545600,4.843545654296875,0.1614433228969574,1.8608438968658447,0.8230016827583313
1687351462241563000,4.85356298828125,0.08972494304180145,1.3661603927612305,0.6235806941986084
1687351462251579600,4.86357958984375,0.03417237475514412,0.7745070457458496,0.5940666794776917
1687351462261598000,4.873597900390625,0.00577295757830143,0.17472991347312927,0.6826471090316772
1687351462271614700,4.88361474609375,-0.014463139697909355,-0.3495994806289673,0.7937354445457458
1687351462281631700,4.8936318359375,-0.05340388044714928,-0.7839168906211853,0.8709316849708557
1687351462291649800,4.90364990234375,-0.10755614191293716,-1.076899766921997,0.8688735961914062
1687351462301666800,4.913666748046875,-0.19241777062416077,-1.1891493797302246,0.8366618752479553
1687351462311683800,4.923683837890625,-0.2935689687728882,-1.1264804601669312,0.8505344390869141
1687351462321702000,4.933701904296875,-0.39504873752593994,-0.917779803276062,0.9322658181190491
1687351462331718700,4.94371875,-0.4850957989692688,-0.6003221869468689,1.041783332824707
1687351462341736000,4.95373583984375,-0.5606531500816345,-0.22541679441928864,1.1531625986099243
1687351462351753700,4.963753662109375,-0.6151878833770752,0.1520078182220459,1.264782428741455
1687351462361770800,4.973770751953125,-0.640751302242279,0.44993990659713745,1.3940658569335938
1687351462371788800,4.983788818359375,-0.6304447054862976,0.5810190439224243,1.433919906616211
1687351462381805800,4.993805908203125,-0.5803799629211426,0.5032994747161865,1.2660553455352783
1687351462391822800,5.00382275390625,-0.5088695883750916,0.22579391300678253,0.7944491505622864
1687351462401840600,5.013840576171875,-0.48803916573524475,-0.0901603177189827,0.06785467267036438
1687351462411858000,5.02385791015625,-0.5590713620185852,-0.20236839354038239,-0.7488237023353577
1687351462421874700,5.033874755859375,-0.6674290299415588,0.06304783374071121,-1.4519968032836914
1687351462431893000,5.04389306640625,-0.7532139420509338,0.6416709423065186,-1.76228928565979
1687351462441909800,5.05390966796875,-0.688042938709259,1.4314104318618774,-1.5192945003509521
1687351462451926800,5.0639267578125,-0.4662052392959595,2.054328441619873,-1.1138732433319092
1687351462461944800,5.07394482421875,-0.18562020361423492,2.4229071140289307,-0.7938389778137207
1687351462471961900,5.0839619140625,0.03646621108055115,2.3979132175445557,-0.6391865015029907
1687351462481979000,5.093978759765625,0.13670678436756134,1.9594378471374512,-0.635361909866333
1687351462491996700,5.10399658203125,0.183097705245018,1.317747712135315,-0.827398955821991
1687351462502013700,5.114013671875,0.3136056363582611,0.47317618131637573,-1.2265170812606812
1687351462512030700,5.12403076171875,0.5736397504806519,-0.5527002811431885,-1.8819063901901245
1687351462522048800,5.134048828125,0.8983685374259949,-1.4933732748031616,-2.852559804916382
1687351462532065800,5.144065673828125,1.1610352993011475,-1.6558973789215088,-3.5920302867889404
1687351462542082800,5.154082763671875,1.4368664026260376,-0.9012870192527771,-3.745426893234253
1687351462552100900,5.164100830078125,1.6566352844238281,0.44478267431259155,-3.3838508129119873
1687351462562118000,5.174117919921875,1.631287932395935,1.7015433311462402,-2.8636178970336914
1687351462572135700,5.1841357421875,1.451348900794983,2.415076732635498,-2.3938300609588623
1687351462582153000,5.194153076171875,1.2276300191879272,2.578681230545044,-1.9913451671600342
1687351462592169700,5.204169677734375,1.022393822669983,2.35711407661438,-1.6757959127426147
1687351462602187800,5.214187744140625,0.8491024971008301,1.9228320121765137,-1.4833310842514038
1687351462612204800,5.224204833984375,0.7439073324203491,1.3256458044052124,-1.4444855451583862
1687351462622221800,5.234221923828125,0.7565179467201233,0.4600265920162201,-1.6598862409591675
1687351462632239900,5.244239990234375,0.8342385292053223,-0.49670302867889404,-2.046065092086792
1687351462642256600,5.254256591796875,0.8860535025596619,-0.99110347032547,-2.229694366455078
1687351462652274000,5.26427392578125,0.9010971784591675,-0.9869669675827026,-2.0683352947235107
1687351462662291700,5.274291748046875,0.9037222862243652,-0.7559800744056702,-1.6595216989517212
1687351462672308700,5.284308837890625,0.9507489204406738,-0.5390886664390564,-1.1988976001739502
1687351462682325800,5.29432568359375,1.1261204481124878,-0.378092885017395,-0.7234484553337097
1687351462692344000,5.304343994140625,1.306889533996582,-0.16161784529685974,-0.19640986621379852
1687351462702361000,5.314361083984375,1.517521858215332,-0.22880540788173676,0.2578692138195038
1687351462712378000,5.324378173828125,1.7620140314102173,-0.7338528633117676,0.590451180934906
1687351462722396200,5.334396240234375,1.9468382596969604,-1.1997089385986328,0.8773463368415833
1687351462732413000,5.344412841796875,2.0454492568969727,-1.2313040494918823,1.1747010946273804
1687351462742430200,5.35443017578125,2.085840940475464,-0.8193972110748291,1.455214500427246
1687351462752448000,5.364447998046875,2.074084997177124,-0.01650836318731308,1.5692483186721802
1687351462762465000,5.374465087890625,1.8372514247894287,1.0530072450637817,1.4499412775039673
1687351462772483000,5.384483154296875,1.3316333293914795,1.9934896230697632,1.2742022275924683
1687351462782500000,5.3945,0.9070751070976257,2.4928324222564697,1.1750694513320923
1687351462792517000,5.40451708984375,0.5769590139389038,2.520735263824463,1.1537444591522217
1687351462802535200,5.41453515625,0.31589460372924805,2.3925938606262207,1.1221442222595215
1687351462812552200,5.42455224609375,0.05484949052333832,2.227724075317383,1.049263596534729
1687351462822569200,5.4345693359375,-0.1834307163953781,2.1077094078063965,0.9547514915466309
1687351462832587000,5.4445869140625,-0.3988974392414093,2.1316652297973633,0.8169601559638977
1687351462842604300,5.454604248046875,-0.6080695390701294,2.3117711544036865,0.7186479568481445
1687351462852621000,5.46462109375,-0.7952191233634949,2.5528664588928223,0.6972566843032837
1687351462862639000,5.47463916015625,-0.9445481300354004,2.805037498474121,0.6417419910430908
1687351462872656100,5.48465625,-1.0674253702163696,3.0192766189575195,0.465362012386322
1687351462882673200,5.494673095703125,-1.197105050086975,3.216362476348877,0.23383960127830505
1687351462892691200,5.504691162109375,-1.049847960472107,3.2961978912353516,-0.07472963631153107
1687351462902708000,5.5147080078125,-0.6583563685417175,2.8820552825927734,-0.48197513818740845
1687351462912725200,5.524725341796875,0.0007247701287269592,1.9012027978897095,-0.931965172290802
1687351462922743000,5.534742919921875,0.8955188989639282,0.5786715745925903,-1.0633668899536133
1687351462932760000,5.544760009765625,1.643663763999939,-0.49277958273887634,-0.38965803384780884
1687351462942778000,5.554778076171875,1.9761229753494263,-0.9641505479812622,0.5635051131248474
1687351462952795100,5.564795166015625,1.8990727663040161,-0.9764538407325745,1.0783361196517944
1687351462962812200,5.574812255859375,1.5627837181091309,-0.7608970403671265,1.0209039449691772
1687351462972830000,5.584829833984375,1.0244156122207642,-0.49252352118492126,0.6249382495880127
1687351462982847200,5.59484716796875,0.32447266578674316,-0.3153197169303894,0.16064351797103882
1687351462992864300,5.6048642578125,-0.22328583896160126,-0.4080902934074402,-0.09426958858966827
1687351463002882000,5.614882080078125,-0.507617175579071,-0.5781919956207275,-0.2331411987543106
1687351463012899000,5.624899169921875,-0.5999671816825867,-0.3687886595726013,-0.535854697227478
1687351463022916000,5.634916015625,-0.6438598036766052,0.42490363121032715,-0.8143819570541382
1687351463032934100,5.64493408203125,-0.6623460054397583,1.4823263883590698,-0.7638336420059204
1687351463042951200,5.654951171875,-0.5391218066215515,2.5007693767547607,-0.2237890660762787
1687351463052968000,5.664968017578125,-0.24716925621032715,2.395847797393799,0.7740799188613892
1687351463062986200,5.674986328125,0.06971069425344467,1.3282532691955566,0.7370611429214478
1687351463073003000,5.6850029296875,0.22733764350414276,1.1231319904327393,0.026539167389273643
1687351463083020300,5.695020263671875,0.0998489260673523,1.6194431781768799,-0.6952342391014099
1687351463093038000,5.7050380859375,-0.22292755544185638,1.98983895778656,-1.169481635093689
1687351463103055000,5.71505517578125,-0.5574658513069153,2.2269558906555176,-1.4014743566513062
1687351463113072000,5.725072021484375,-0.7685284614562988,2.528773307800293,-1.4727997779846191
1687351463123090000,5.73508984375,-0.9091556072235107,2.939600944519043,-1.4101191759109497
1687351463133107200,5.745107177734375,-0.9547272324562073,3.4131276607513428,-1.2048540115356445
1687351463143124200,5.755124267578125,-0.8415071964263916,3.870115041732788,-0.8278592824935913
1687351463153142300,5.765142333984375,-0.5587490797042847,4.183487892150879,-0.2575608193874359
1687351463163159000,5.775158935546875,-0.23122070729732513,4.118862628936768,0.5192723274230957
1687351463173177000,5.785177001953125,-0.051020193845033646,3.5008749961853027,1.3164664506912231
1687351463183194000,5.795194091796875,0.09385523945093155,2.5630478858947754,1.844115972518921
1687351463193211100,5.805211181640625,0.25729793310165405,1.5173629522323608,2.007444381713867
1687351463203229200,5.815229248046875,0.34987688064575195,0.4784156382083893,1.8866183757781982
1687351463213246200,5.82524609375,0.33917975425720215,-0.3801037073135376,1.5974241495132446
1687351463223263000,5.835262939453125,0.2558736801147461,-0.9726902842521667,1.274867057800293
1687351463233281000,5.845281005859375,0.15078598260879517,-1.2908508777618408,1.0808830261230469
1687351463243298000,5.855298095703125,0.048673734068870544,-1.3749756813049316,1.0997744798660278
1687351463253315300,5.8653154296875,-0.1036272719502449,-1.2680679559707642,1.3025168180465698
1687351463263333000,5.8753330078125,-0.24821454286575317,-1.081799864768982,1.5350879430770874
1687351463273350000,5.885349853515625,-0.31525835394859314,-0.7921631932258606,1.6620007753372192
1687351463283367200,5.8953671875,-0.33170202374458313,-0.3633452355861664,1.6483550071716309
1687351463293385000,5.905385009765625,-0.3608279824256897,0.10042641311883926,1.574630856513977
1687351463303402200,5.91540234375,-0.4398921728134155,0.5927021503448486,1.5381221771240234
1687351463313419000,5.9254189453125,-0.5198248028755188,1.0748692750930786,1.5582691431045532
1687351463323437300,5.935437255859375,-0.58832848072052,1.4438302516937256,1.618535041809082
1687351463333454000,5.9454541015625,-0.6193989515304565,1.561050295829773,1.676012396812439
1687351463343471000,5.95547119140625,-0.5774118304252625,1.277480125427246,1.7228797674179077
1687351463353489200,5.9654892578125,-0.4877718687057495,0.5246694684028625,1.7430849075317383
1687351463363506200,5.975506103515625,-0.4330119490623474,-0.49053096771240234,1.6242769956588745
1687351463373524200,5.985524169921875,-0.396939754486084,-1.4077343940734863,1.3463870286941528
1687351463383541000,5.995541015625,-0.39213141798973083,-2.0626087188720703,1.0952720642089844
1687351463393558000,6.00555810546875,-0.3804970979690552,-2.455920696258545,1.0653619766235352
1687351463403576000,6.015576171875,-0.2995889484882355,-2.4740707874298096,1.2091178894042969
1687351463413593000,6.025593017578125,-0.11370211839675903,-2.091810703277588,1.2625491619110107
1687351463423610000,6.035610107421875,0.11285006254911423,-1.603936791419983,1.0854166746139526
1687351463433628200,6.045628173828125,0.2668929398059845,-1.242769479751587,0.6911314725875854
1687351463443645000,6.05564501953125,0.3118920922279358,-0.8431714773178101,0.1175113245844841
1687351463453662200,6.065662109375,0.26759812235832214,-0.14282821118831635,-0.5082125067710876
1687351463463680000,6.075679931640625,0.21980127692222595,0.771658718585968,-0.9549604058265686
1687351463473697300,6.085697265625,0.244874969124794,1.4026131629943848,-1.2101914882659912
1687351463483714000,6.095714111328125,0.368588924407959,1.3186306953430176,-1.383109211921692
1687351463493732000,6.105732177734375,0.5956692695617676,0.6406358480453491,-1.6362402439117432
1687351463503749000,6.1157490234375,0.8251096606254578,-0.35419487953186035,-1.9084893465042114
1687351463513766100,6.12576611328125,1.0685230493545532,-1.487943172454834,-2.149639844894409
1687351463523784200,6.1357841796875,1.4059876203536987,-2.2824437618255615,-2.6172564029693604
1687351463533801000,6.145801025390625,1.6819255352020264,-2.4193906784057617,-3.442774772644043
1687351463543819300,6.1558193359375,1.801128625869751,-1.771189570426941,-4.129390716552734
1687351463553836000,6.1658359375,1.8258248567581177,-0.6562768816947937,-4.309845447540283
1687351463563853000,6.17585302734375,1.8018282651901245,0.20194141566753387,-4.1358232498168945
1687351463573871000,6.18587109375,1.7970436811447144,0.690010666847229,-3.7307770252227783
1687351463583888100,6.19588818359375,1.7558852434158325,0.7345759868621826,-3.2414498329162598
1687351463593905200,6.2059052734375,1.7353352308273315,0.46336159110069275,-2.777081251144409
1687351463603923200,6.215923095703125,1.7328436374664307,0.13197512924671173,-2.3815839290618896
1687351463613940000,6.22593994140625,1.6612818241119385,-0.31874823570251465,-2.0411252975463867
1687351463623957200,6.235957275390625,1.4806013107299805,-1.0613970756530762,-1.8086909055709839
1687351463633975000,6.24597509765625,1.2879366874694824,-1.7510854005813599,-1.756060242652893
1687351463643992000,6.255991943359375,1.1776936054229736,-2.3216381072998047,-1.7568930387496948
1687351463654009000,6.266009033203125,1.2787452936172485,-2.9891343116760254,-1.6318880319595337
1687351463664027100,6.276027099609375,1.6149874925613403,-3.3875908851623535,-1.3436858654022217
1687351463674044200,6.286044189453125,2.0113980770111084,-3.368626594543457,-0.6903790235519409
1687351463684061000,6.29606103515625,2.489809513092041,-2.590273857116699,0.006126594264060259
1687351463694079200,6.306079345703125,2.965698719024658,-1.3774935007095337,0.003916170448064804
1687351463704096300,6.31609619140625,3.2549476623535156,0.0912182629108429,-0.5218434929847717
1687351463714113300,6.32611328125,3.2925658226013184,1.4990257024765015,-1.0815041065216064
1687351463724131300,6.33613134765625,3.0820233821868896,2.298800230026245,-1.4039899110794067
1687351463734148400,6.3461484375,2.730933666229248,2.3343639373779297,-1.561073660850525
1687351463744166100,6.356166259765625,2.326535224914551,1.9897385835647583,-1.6105035543441772
1687351463754183200,6.36618310546875,1.9436531066894531,1.5692366361618042,-1.506966471672058
1687351463764200200,6.3762001953125,1.620885968208313,1.1653646230697632,-1.3222205638885498
1687351463774218200,6.38621826171875,1.2731515169143677,0.9325016140937805,-1.0848313570022583
1687351463784235300,6.3962353515625,1.1269959211349487,0.9214792847633362,-0.7756034731864929
1687351463794252000,6.406251953125,1.0696016550064087,0.8574428558349609,-0.5517082214355469
1687351463804270300,6.416270263671875,1.0907552242279053,0.6189349293708801,-0.4151362478733063
1687351463814287000,6.426287109375,1.1160249710083008,0.4646843373775482,-0.33087754249572754
1687351463824304400,6.436304443359375,1.0921140909194946,0.5446268320083618,-0.25905847549438477
1687351463834322200,6.446322265625,0.9930667877197266,0.7046859264373779,-0.13076122105121613
1687351463844339200,6.456339111328125,0.9124467968940735,0.8078091144561768,0.07553841918706894
1687351463854356200,6.466356201171875,0.8752385973930359,0.7532651424407959,0.31930044293403625
1687351463864374300,6.476374267578125,0.89561927318573,0.47525933384895325,0.5369989275932312
1687351463874391300,6.486391357421875,0.9548324942588806,0.0011272511910647154,0.7189050912857056
1687351463884408300,6.496408203125,1.2510508298873901,-0.5534736514091492,0.9108287692070007
1687351463894426400,6.50642626953125,1.504710078239441,-0.6466374397277832,1.0401841402053833
1687351463904443400,6.516443359375,1.4703211784362793,-0.10279596596956253,1.0129280090332031
1687351463914460200,6.526460205078125,1.2193421125411987,0.8313101530075073,0.9305627346038818
1687351463924478200,6.536478271484375,0.9144419431686401,1.6183029413223267,0.886015772819519
1687351463934495200,6.5464951171875,0.733383059501648,1.7908978462219238,0.792593240737915
1687351463944513300,6.55651318359375,0.5593979358673096,1.126504898071289,0.577709972858429
1687351463954530300,6.5665302734375,-0.06079564616084099,0.47919386625289917,0.39089444279670715
1687351463964547000,6.576547119140625,-1.271256923675537,0.6404067277908325,0.302518755197525
1687351463974565400,6.5865654296875,-2.3499717712402344,0.6849319934844971,0.3703736662864685
1687351463984582100,6.59658203125,-2.5222246646881104,0.552851140499115,0.3867182731628418
1687351463994599400,6.606599365234375,-2.236659049987793,0.951104998588562,0.6885483264923096
1687351464004617200,6.6166171875,-1.8961191177368164,0.43946439027786255,1.3209373950958252
1687351464014634200,6.62663427734375,-1.7112135887145996,-0.9513762593269348,2.033830404281616
1687351464024651300,6.6366513671875,-1.6885144710540771,-2.1225197315216064,2.529555082321167
1687351464034669000,6.6466689453125,-1.8769747018814087,-2.473278284072876,2.643434524536133
1687351464044686300,6.656686279296875,-2.2098002433776855,-1.9951508045196533,2.448955535888672
1687351464054703400,6.666703369140625,-2.4407846927642822,-1.3242907524108887,2.447528839111328
1687351464064721400,6.676721435546875,-2.6273107528686523,-0.8171626925468445,2.6839890480041504
1687351464074738200,6.68673828125,-2.672520399093628,-0.4147084653377533,2.645120143890381
1687351464084755200,6.696755126953125,-2.4802048206329346,-0.3034772574901581,2.1402764320373535
1687351464094773200,6.706773193359375,-1.990389108657837,-0.4527297019958496,1.466402530670166
1687351464104790300,6.716790283203125,-1.4784400463104248,-0.4963732957839966,1.027642011642456
1687351464114807000,6.72680712890625,-1.1399791240692139,-0.3555702865123749,0.8849729299545288
1687351464124825300,6.736825439453125,-1.023395299911499,-0.11018823832273483,0.9430103898048401
1687351464134842000,6.746842041015625,-1.0756518840789795,0.1933765858411789,1.0409120321273804
1687351464144859400,6.756859375,-1.2343389987945557,0.43191298842430115,1.0696154832839966
1687351464154877200,6.766877197265625,-1.345823884010315,0.5292545557022095,1.0165437459945679
1687351464164894500,6.77689453125,-1.3890999555587769,0.5068307518959045,0.8750523924827576
1687351464174912300,6.786912353515625,-1.3800402879714966,0.38303858041763306,0.7124655246734619
1687351464184929000,6.796928955078125,-1.3625179529190063,0.20409546792507172,0.586048424243927
1687351464194946300,6.8069462890625,-1.3543972969055176,0.03229842334985733,0.5076598525047302
1687351464204964000,6.816964111328125,-1.3593343496322632,-0.054377615451812744,0.4584991931915283
1687351464214981400,6.8269814453125,-1.341188907623291,0.014408107846975327,0.4165831506252289
1687351464224998100,6.836998046875,-1.3165096044540405,0.15760016441345215,0.35679492354393005
1687351464235016400,6.847016357421875,-1.2643952369689941,0.3178507089614868,0.30029547214508057
1687351464245033200,6.857033203125,-1.1820857524871826,0.5153161287307739,0.2620415687561035
1687351464255050200,6.86705029296875,-1.1251189708709717,0.6663869023323059,0.28216826915740967
1687351464265068300,6.877068359375,-1.0675115585327148,0.8303582072257996,0.35331568121910095
1687351464275085300,6.887085205078125,-1.0228279829025269,1.0319180488586426,0.473922461271286
1687351464285102000,6.89710205078125,-1.0454838275909424,1.0649186372756958,0.6471296548843384
1687351464295120100,6.9071201171875,-1.0091042518615723,0.9968948364257812,0.7611083984375
1687351464305137200,6.91713720703125,-0.875518798828125,1.0249357223510742,0.7769560813903809
1687351464315154400,6.927154541015625,-0.710408091545105,1.1034586429595947,0.7125679850578308
1687351464325172200,6.937172119140625,-0.571807861328125,1.2133002281188965,0.6274080872535706
1687351464335189200,6.947189208984375,-0.3999929428100586,1.2957240343093872,0.5051461458206177
1687351464345206300,6.957206298828125,-0.29633259773254395,1.2690210342407227,0.3152391016483307
1687351464355224000,6.96722412109375,-0.32083389163017273,1.1002031564712524,0.18093132972717285
1687351464365241300,6.977241455078125,-0.36443328857421875,0.9626835584640503,0.18216010928153992
1687351464375259100,6.987259033203125,-0.3136918842792511,0.9019277095794678,0.28575268387794495
1687351464385276400,6.9972763671875,-0.19165413081645966,0.9018906950950623,0.4340819716453552
1687351464395293200,7.007293212890625,-0.0762229785323143,0.8574672341346741,0.5467361211776733
1687351464405311200,7.017311279296875,-0.022449756041169167,0.6950215697288513,0.6130595207214355
1687351464415328300,7.027328369140625,-0.06025070697069168,0.41343098878860474,0.6505124568939209
1687351464425345300,7.03734521484375,-0.07223626971244812,0.08032174408435822,0.6974823474884033
1687351464435363300,7.04736328125,0.0017092626076191664,-0.3177168369293213,0.7923932671546936
1687351464445380000,7.057380126953125,0.07437467575073242,-0.6725215315818787,0.9561188220977783
1687351464455397000,7.067397216796875,0.0563589408993721,-0.9115126132965088,1.1595582962036133
1687351464465415200,7.077415283203125,-0.00791805237531662,-0.9428324103355408,1.2855758666992188
1687351464475432200,7.08743212890625,-0.061941761523485184,-0.812528669834137,1.3482608795166016
1687351464485449200,7.09744921875,-0.07953380048274994,-0.5118263363838196,1.3305975198745728
1687351464495467300,7.10746728515625,-0.05259079486131668,-0.12124761193990707,1.2254763841629028
1687351464505484300,7.117484375,-0.028896650299429893,0.2119458019733429,1.0020390748977661
1687351464515501300,7.127501220703125,-0.050931066274642944,0.4188975691795349,0.6391361355781555
1687351464525519000,7.13751904296875,-0.09486257284879684,0.5669541358947754,0.1785847544670105
1687351464535536400,7.147536376953125,-0.13480815291404724,0.7472310662269592,-0.20949116349220276
1687351464545554200,7.15755419921875,-0.1780080944299698,0.9861392378807068,-0.37062758207321167
1687351464555571200,7.1675712890625,-0.19606703519821167,1.2880147695541382,-0.31362706422805786
1687351464565588200,7.177588134765625,-0.10861494392156601,1.5531651973724365,-0.16834895312786102
1687351464575606300,7.187606201171875,0.09750766307115555,1.5691431760787964,-0.1596786081790924
1687351464585623300,7.197623291015625,0.26357385516166687,1.1748133897781372,-0.43235620856285095
1687351464595640000,7.20764013671875,0.32647183537483215,0.4114472270011902,-0.9144761562347412
1687351464605658400,7.217658447265625,0.3291086256504059,-0.49862655997276306,-1.4599522352218628
1687351464615675100,7.227675048828125,0.31810569763183594,-1.3453142642974854,-1.9281221628189087
1687351464625692200,7.237692138671875,0.35504481196403503,-2.0206851959228516,-2.220783233642578
1687351464635710200,7.247710205078125,0.4390890896320343,-2.431312084197998,-2.3442420959472656
1687351464645727200,7.257727294921875,0.5499268770217896,-2.6284546852111816,-2.379970073699951
1687351464655744300,7.267744140625,0.6829334497451782,-2.7406811714172363,-2.3400144577026367
1687351464665762300,7.27776220703125,0.8180955052375793,-2.868044376373291,-2.2407801151275635
1687351464675779300,7.287779296875,0.9507392644882202,-2.9807777404785156,-2.0780856609344482
1687351464685796400,7.29779638671875,1.0227463245391846,-3.092484474182129,-1.8743540048599243
1687351464695814100,7.307814208984375,1.057146430015564,-3.0490760803222656,-1.653489589691162
1687351464705831200,7.3178310546875,1.0684936046600342,-2.895514726638794,-1.4764013290405273
1687351464715848000,7.327847900390625,1.1280157566070557,-2.6037628650665283,-1.263832449913025
1687351464725866000,7.337865966796875,1.2309837341308594,-2.186553478240967,-1.1185088157653809
1687351464735883000,7.347883056640625,1.2782598733901978,-1.8057597875595093,-0.9699009656906128
1687351464745900000,7.357900146484375,1.2265660762786865,-1.5341559648513794,-0.8491681218147278
1687351464755918000,7.36791796875,1.2207372188568115,-1.1890008449554443,-0.7285259962081909
1687351464765934800,7.377934814453125,1.2667484283447266,-0.8687424063682556,-0.6594452261924744
1687351464775953200,7.387953125,1.3852667808532715,-0.8356064558029175,-0.6593539118766785
1687351464785970000,7.397969970703125,1.5688318014144897,-0.7833304405212402,-0.6080070734024048
1687351464795987200,7.4079873046875,1.7670010328292847,-0.46911385655403137,-0.5270015597343445
1687351464806005000,7.4180048828125,1.9610487222671509,0.10842005908489227,-0.5518859028816223
1687351464816022000,7.42802197265625,2.09228253364563,0.6959366798400879,-0.6505679488182068
1687351464826039000,7.4380390625,2.1125190258026123,1.0700985193252563,-0.7137887477874756
1687351464836056800,7.448056884765625,1.970840573310852,1.2078497409820557,-0.7361517548561096
1687351464846074000,7.45807421875,1.6427828073501587,0.9474815726280212,-0.7747750878334045
1687351464856091100,7.468091064453125,1.3472017049789429,0.5204681754112244,-0.8240360617637634
1687351464866109200,7.478109130859375,1.1271497011184692,0.14834709465503693,-0.7751116752624512
1687351464876126000,7.4881259765625,0.970629096031189,-0.0684652328491211,-0.6189885139465332
1687351464886143000,7.49814306640625,0.8794602751731873,-0.17508327960968018,-0.4303610622882843
1687351464896161000,7.5081611328125,0.7634819746017456,-0.08265264332294464,-0.2272879183292389
1687351464906178000,7.518177978515625,0.6575818657875061,0.18172840774059296,-0.04463182017207146
1687351464916194800,7.52819482421875,0.5515957474708557,0.4058431386947632,0.10959076136350632
1687351464926213000,7.538213134765625,0.4175282418727875,0.4842101037502289,0.2829982340335846
1687351464936230000,7.54822998046875,0.18582536280155182,0.493200421333313,0.48700568079948425
1687351464946247200,7.5582470703125,-0.08236081898212433,0.4336633086204529,0.6955500841140747
1687351464956265000,7.568264892578125,-0.4264580011367798,0.23244896531105042,0.9406682252883911
1687351464966282200,7.5782822265625,-0.7590929865837097,-0.10544119030237198,1.2723242044448853
1687351464976299000,7.588299072265625,-1.0231207609176636,-0.37377795577049255,1.6684987545013428
1687351464986316800,7.59831689453125,-1.2388392686843872,-0.5534448623657227,2.036336660385132
1687351464996334000,7.608333984375,-1.4128361940383911,-0.647087037563324,2.2561447620391846
1687351465006352000,7.618351806640625,-1.5204664468765259,-0.8830644488334656,1.9085849523544312
1687351465016369200,7.628369140625,-1.6157329082489014,-1.329938292503357,0.6861072182655334
1687351465026386000,7.638385986328125,-1.4648059606552124,-0.5011508464813232,0.9478916525840759
1687351465036404200,7.648404296875,-1.5290675163269043,0.7198265790939331,1.8395121097564697
1687351465046421000,7.6584208984375,-1.8882416486740112,1.7869243621826172,2.412868022918701
1687351465056438000,7.66843798828125,-2.2260475158691406,0.9409851431846619,2.034489631652832
1687351465066456000,7.6784560546875,-2.0192394256591797,-1.4082918167114258,0.5060458183288574
1687351465076473000,7.68847314453125,-0.8361706137657166,-1.3494127988815308,-0.26161694526672363
1687351465086489900,7.69848974609375,-0.1904725432395935,-0.48915281891822815,-0.07825563848018646
1687351465096508000,7.7085078125,-0.3038158118724823,0.4454682469367981,0.07270114123821259
1687351465106525000,7.71852490234375,-0.7983637452125549,0.6541738510131836,0.32001158595085144
1687351465116542200,7.728542236328125,-1.357039213180542,0.24982279539108276,0.5403932929039001
1687351465126560000,7.73856005859375,-1.6614371538162231,-0.1549563854932785,0.4433578550815582
1687351465136577000,7.748576904296875,-1.6136418581008911,-0.14055828750133514,0.07808515429496765
1687351465146594000,7.758593994140625,-1.4345672130584717,0.25461941957473755,-0.2994339168071747
1687351465156611800,7.76861181640625,-1.2693170309066772,0.7354190349578857,-0.490630179643631
1687351465166629000,7.778629150390625,-1.148231863975525,1.03066086769104,-0.4778302311897278
1687351465176647000,7.78864697265625,-1.0974806547164917,1.0820086002349854,-0.3058984577655792
1687351465186664200,7.798664306640625,-1.081620454788208,0.9452834725379944,-0.0774836540222168
1687351465196681000,7.808680908203125,-1.1122008562088013,0.6800062656402588,0.11971714347600937
1687351465206699000,7.818698974609375,-1.1628025770187378,0.27225419878959656,0.2847204804420471
1687351465216716000,7.828716064453125,-1.190335988998413,-0.13642802834510803,0.4116987884044647
1687351465226733000,7.838733154296875,-1.1671950817108154,-0.3195107579231262,0.4876103103160858
1687351465236751000,7.848751220703125,-1.122319221496582,-0.33884522318840027,0.5648367404937744
1687351465246767900,7.858767822265625,-1.0924185514450073,-0.3195921778678894,0.6417381763458252
1687351465256785000,7.868784912109375,-1.059112548828125,-0.35765540599823,0.6929978728294373
1687351465266803000,7.878802978515625,-0.9891989231109619,-0.3924275040626526,0.6921717524528503
1687351465276820000,7.888820068359375,-0.8951398134231567,-0.3972066044807434,0.6678785085678101
1687351465286837000,7.8988369140625,-0.8141387104988098,-0.3036345839500427,0.6600145101547241
1687351465296855000,7.90885498046875,-0.7785873413085938,-0.08774114400148392,0.692912220954895
1687351465306872000,7.9188720703125,-0.7542260885238647,0.21368208527565002,0.7363547682762146
1687351465316889000,7.92888916015625,-0.6820176243782043,0.5437731146812439,0.7619548439979553
1687351465326907000,7.938906982421875,-0.5689411759376526,0.7811513543128967,0.7394596934318542
1687351465336924200,7.948924072265625,-0.466982364654541,0.8591392040252686,0.6300787329673767
1687351465346941000,7.95894091796875,-0.41413459181785583,0.903276264667511,0.47977501153945923
1687351465356959200,7.968959228515625,-0.39050281047821045,0.9150590300559998,0.38205185532569885
1687351465366976000,7.97897607421875,-0.3460139036178589,0.8764567375183105,0.4149104654788971
1687351465376994000,7.988994140625,-0.2750594913959503,0.9229034185409546,0.497451514005661
1687351465387011000,7.999010986328125,-0.19555002450942993,0.9642085433006287,0.5327948927879333
1687351465397028000,8.009028076171875,-0.13851456344127655,0.9441331028938293,0.49969711899757385
1687351465407046100,8.019046142578125,-0.10540641844272614,0.8463658094406128,0.3787376582622528
1687351465417063000,8.02906298828125,-0.06522315740585327,0.5769352912902832,0.24449965357780457
1687351465427080000,8.039079833984376,-0.009832598268985748,0.26880788803100586,0.18620918691158295
1687351465437098000,8.049097900390626,0.07204535603523254,0.09203017503023148,0.25982508063316345
1687351465447115000,8.059114990234375,0.07828567922115326,0.030941255390644073,0.4319712817668915
1687351465457132000,8.069132080078125,0.03500429168343544,0.007876858115196228,0.5825463533401489
1687351465467150000,8.079150146484375,0.06009100377559662,0.002800873015075922,0.701495885848999
1687351465477167000,8.0891669921875,0.13672274351119995,-0.009034885093569756,0.7907153367996216
1687351465487184100,8.09918408203125,0.19718128442764282,-0.010424522683024406,0.7883928418159485
1687351465497202000,8.109201904296874,0.21557974815368652,-0.030542589724063873,0.6086620688438416
1687351465507219200,8.11921923828125,0.268337219953537,-0.027848802506923676,0.2816469073295593
1687351465517236000,8.129236083984376,0.4125078320503235,0.06694960594177246,-0.03487619012594223
1687351465527254000,8.13925390625,0.5756802558898926,0.23984521627426147,-0.22250360250473022
1687351465537271000,8.14927099609375,0.6708377599716187,0.41739532351493835,-0.31917133927345276
1687351465547288000,8.1592880859375,0.6770977973937988,0.48526063561439514,-0.4317479431629181
1687351465557306000,8.16930615234375,0.5378739237785339,0.3702852725982666,-0.6110948324203491
1687351465567323000,8.179322998046874,0.25831174850463867,-0.03853019326925278,-0.8981868028640747
1687351465577340200,8.189340087890624,0.0474642775952816,-0.7319391369819641,-1.3069854974746704
1687351465587358000,8.19935791015625,0.21856385469436646,-1.7381809949874878,-1.774603009223938
1687351465597375000,8.209375,0.589878261089325,-2.7256503105163574,-2.098741292953491
1687351465607393000,8.21939306640625,0.8588663339614868,-3.3769166469573975,-2.136781930923462
1687351465617410000,8.22941015625,0.9880598783493042,-3.6421875953674316,-1.9995609521865845
1687351465627427000,8.239427001953125,1.0203051567077637,-3.4144299030303955,-1.765557050704956
1687351465637444900,8.24944482421875,1.042209506034851,-2.7566378116607666,-1.4257304668426514
1687351465647462100,8.259462158203124,1.0778343677520752,-2.0163583755493164,-0.9240785837173462
1687351465657479200,8.269479248046874,1.156622052192688,-1.537563681602478,-0.3437020778656006
1687351465667497000,8.2794970703125,1.2078691720962524,-1.404941201210022,0.1534552425146103
1687351465677514000,8.289513916015625,1.184579849243164,-1.7603212594985962,0.339269757270813
1687351465687531000,8.299531005859375,1.0917651653289795,-2.6283743381500244,0.16611261665821075
1687351465697549300,8.30954931640625,0.9836301207542419,-3.089482307434082,-0.029404526576399803
1687351465707566300,8.31956640625,1.0443029403686523,-2.5574378967285156,-0.17667147517204285
1687351465717583400,8.329583251953125,1.348927617073059,-1.7846952676773071,-0.4796803891658783
1687351465727601400,8.339601318359374,1.6856653690338135,-0.9661053419113159,-0.8418013453483582
1687351465737618400,8.349618408203124,1.892830729484558,-0.3487296402454376,-1.0213860273361206
1687351465747635500,8.359635498046876,1.9630857706069946,-0.040235720574855804,-0.9826887249946594
1687351465757653500,8.369653564453126,2.017332077026367,-0.026789449155330658,-0.7999950647354126
1687351465767670300,8.379670166015625,1.9322471618652344,-0.13486532866954803,-0.7163816690444946
1687351465777687300,8.389687255859375,1.7741670608520508,-0.3642881512641907,-0.7378538250923157
1687351465787705300,8.399705322265625,1.5716594457626343,-0.4851767420768738,-0.856701135635376
1687351465797722400,8.409722412109375,1.4535690546035767,-0.6062935590744019,-0.9464923739433289
1687351465807740400,8.419740478515624,1.3918489217758179,-0.8284879922866821,-0.9515917897224426
1687351465817757400,8.42975732421875,1.3235584497451782,-0.835809051990509,-0.9134796857833862
1687351465827774200,8.439774169921876,1.2503862380981445,-0.5472608804702759,-0.8655728697776794
1687351465837792500,8.44979248046875,1.1217485666275024,-0.1460002213716507,-0.8047366142272949
1687351465847809300,8.459809326171875,0.8797203302383423,0.13641177117824554,-0.7189522385597229
1687351465857826600,8.46982666015625,0.6376115083694458,0.2147514522075653,-0.6193354725837708
1687351465867844400,8.47984423828125,0.3875206708908081,0.040289103984832764,-0.47224003076553345
1687351465877861400,8.489861328125,0.1151961088180542,-0.2980054020881653,-0.2839545011520386
1687351465887878400,8.49987841796875,-0.16518840193748474,-0.6197200417518616,-0.09309693425893784
1687351465897896200,8.509896240234376,-0.4618387520313263,-0.8479017615318298,0.0993717834353447
1687351465907913500,8.51991357421875,-0.7202975153923035,-0.999624490737915,0.3220368027687073
1687351465917930200,8.52993017578125,-0.9358078241348267,-1.0862574577331543,0.5937503576278687
1687351465927948500,8.539948486328125,-1.1774508953094482,-1.0930043458938599,0.8678399920463562
1687351465937965300,8.54996533203125,-1.4616429805755615,-1.0428316593170166,1.1166595220565796
1687351465947982300,8.559982421875,-1.7850420475006104,-1.0115892887115479,1.287743091583252
1687351465958000400,8.57000048828125,-2.1424124240875244,-1.0800576210021973,1.3262673616409302
1687351465968017400,8.580017333984374,-2.2581608295440674,-1.199251413345337,1.0911872386932373
1687351465978034200,8.5900341796875,-2.131213665008545,-1.3597124814987183,0.3905848264694214
1687351465988052500,8.600052490234376,-1.7221437692642212,-0.5132791996002197,0.7142603397369385
1687351465998069200,8.6100693359375,-1.6966886520385742,0.510373055934906,1.6708688735961914
1687351466008086500,8.62008642578125,-2.30360746383667,0.8142985701560974,2.282073974609375
1687351466018104300,8.630104248046875,-2.7222914695739746,0.30466002225875854,1.9466028213500977
1687351466028121300,8.640121337890625,-2.1416802406311035,-3.1141178607940674,0.38951677083969116
1687351466038139400,8.650139404296874,-0.7351903319358826,-4.943708896636963,-0.48581886291503906
1687351466048156200,8.66015625,-0.0012290030717849731,-3.901960849761963,0.21341006457805634
1687351466058173400,8.67017333984375,-0.1830703765153885,-1.9596489667892456,1.0778213739395142
1687351466068191200,8.680191162109375,-0.7207735776901245,-0.8365949988365173,1.365126371383667
1687351466078208500,8.69020849609375,-1.0979875326156616,-0.5416828989982605,1.1228277683258057
1687351466088225300,8.700225341796875,-1.2059582471847534,-0.6717857718467712,0.5911269783973694
1687351466098243600,8.71024365234375,-1.1957311630249023,-0.9789433479309082,-0.014588041231036186
1687351466108260400,8.72026025390625,-1.2340388298034668,-1.2031731605529785,-0.511057436466217
1687351466118277400,8.73027734375,-1.3474647998809814,-1.3852314949035645,-0.8355118632316589
1687351466128295400,8.74029541015625,-1.4720759391784668,-1.623739242553711,-0.9330349564552307
1687351466138312400,8.7503125,-1.496538758277893,-1.659767985343933,-0.6614512205123901
1687351466148329200,8.7603291015625,-1.4151557683944702,-1.2931950092315674,-0.2708459496498108
1687351466158347300,8.77034716796875,-1.2720730304718018,-0.901110053062439,-0.1812322437763214
1687351466168364300,8.7803642578125,-1.1877645254135132,-0.706011950969696,-0.3432382047176361
1687351466178381600,8.790381591796875,-1.2006494998931885,-0.7974485754966736,-0.5557878613471985
1687351466188399400,8.8003994140625,-1.335593819618225,-1.2192379236221313,-0.6283246874809265
1687351466198416400,8.81041650390625,-1.448869228363037,-1.7937078475952148,-0.5360110998153687
1687351466208434400,8.820434326171876,-1.4478998184204102,-2.0421969890594482,-0.36171576380729675
1687351466218451200,8.830451171875,-1.3594938516616821,-1.923729658126831,-0.15608617663383484
1687351466228468500,8.840468505859375,-1.2380305528640747,-1.6448264122009277,0.03128238767385483
1687351466238486300,8.850486328125,-1.1505860090255737,-1.4051731824874878,0.16095128655433655
1687351466248503600,8.860503662109375,-1.1204397678375244,-1.3360679149627686,0.24140271544456482
1687351466258520300,8.870520263671875,-1.124079942703247,-1.45120108127594,0.3029428720474243
1687351466268538400,8.880538330078124,-1.141958475112915,-1.609899640083313,0.3648880124092102
1687351466278555400,8.890555419921874,-1.153379201889038,-1.677081823348999,0.453529953956604
1687351466288572400,8.900572509765626,-1.1301939487457275,-1.6770389080047607,0.566490888595581
1687351466298590500,8.910590576171876,-1.0470069646835327,-1.6354986429214478,0.6724445223808289
1687351466308607200,8.920607177734375,-0.9078423380851746,-1.5853807926177979,0.705539882183075
1687351466318624300,8.930624267578125,-0.6827188730239868,-1.4311929941177368,0.6385950446128845
1687351466328642300,8.940642333984375,-0.3913504183292389,-1.1837533712387085,0.49485841393470764
1687351466338659300,8.950659423828125,-0.13923518359661102,-0.8533888459205627,0.3133280873298645
1687351466348676400,8.96067626953125,0.014454775489866734,-0.49718785285949707,0.08616579324007034
1687351466358694400,8.9706943359375,0.08213517814874649,-0.0498998649418354,-0.13893209397792816
1687351466368711400,8.98071142578125,0.13935984671115875,0.43403512239456177,-0.2699790596961975
1687351466378728400,8.990728515625,0.19917263090610504,0.9758639335632324,-0.35686156153678894
1687351466388746200,9.000746337890625,0.2942647933959961,1.256893515586853,-0.45115983486175537
1687351466398763500,9.010763427734375,0.4699283838272095,1.4373505115509033,-0.5125745534896851
1687351466408781300,9.02078125,0.6872524619102478,1.8192105293273926,-0.5284621715545654
1687351466418798300,9.03079833984375,0.8297271728515625,1.902135968208313,-0.3926316499710083
1687351466428815400,9.0408154296875,0.8494290113449097,1.6613901853561401,-0.2154821753501892
1687351466438833400,9.05083349609375,0.7832273244857788,1.2166085243225098,-0.06232878193259239
1687351466448850400,9.060850341796876,0.629296064376831,0.4619196057319641,0.1784827560186386
1687351466458867200,9.0708671875,0.43613100051879883,-0.49941393733024597,0.5342913269996643
1687351466468885500,9.080885498046875,0.2982993721961975,-1.1540324687957764,0.8765943050384521
1687351466478902300,9.09090234375,0.2629110515117645,-1.4027009010314941,1.135027527809143
1687351466488919300,9.100919189453125,0.21811668574810028,-1.1209685802459717,1.0422712564468384
1687351466498937300,9.110937255859374,0.003070160746574402,-0.4524898827075958,0.4892304241657257
1687351466508954400,9.120954345703124,-0.39039698243141174,0.22173647582530975,-0.2583540380001068
1687351466518971400,9.130971435546876,-0.8097053170204163,0.5553398728370667,-0.8243660926818848
1687351466528989400,9.140989501953126,-1.0598808526992798,0.6411764621734619,-1.0117719173431396
1687351466539006500,9.15100634765625,-1.1287074089050293,0.7031745910644531,-0.9656105637550354
1687351466549023500,9.1610234375,-1.1156946420669556,0.7769135236740112,-0.8301041722297668
1687351466559041300,9.171041259765625,-1.0783194303512573,0.7096469402313232,-0.5083191990852356
1687351466569058300,9.181058349609375,-0.9972298741340637,0.5392381548881531,-0.04335181042551994
1687351466579075300,9.191075439453124,-0.8618226647377014,0.34350281953811646,0.32060182094573975
1687351466589093400,9.20109326171875,-0.8268444538116455,-0.3434436023235321,0.3506801128387451
1687351466599110400,9.2111103515625,-0.673591136932373,-0.8527696132659912,0.15231089293956757
1687351466609128400,9.22112841796875,-0.5704674124717712,-0.8164206147193909,-0.0992070809006691
1687351466619145500,9.2311455078125,-0.6940645575523376,-0.474002480506897,-0.32702937722206116
1687351466629162200,9.241162353515625,-0.8539207577705383,-0.17659185826778412,-0.5168541669845581
1687351466639180500,9.2511806640625,-0.7866084575653076,0.016485873609781265,-0.7043002247810364
1687351466649197300,9.261197265625,-0.5327634215354919,0.041699618101119995,-0.7134777307510376
1687351466659214300,9.27121435546875,-0.2537556290626526,-0.10012548416852951,-0.6332834959030151
1687351466669232400,9.281232421875,-0.007335188332945108,-0.5245819687843323,-0.7879151105880737
1687351466679249400,9.29124951171875,0.2778809368610382,-1.1431375741958618,-1.2353726625442505
1687351466689266400,9.301266357421875,0.5243306756019592,-1.7190067768096924,-1.53145432472229
1687351466699284000,9.311283935546875,0.6679333448410034,-1.963774561882019,-1.3480409383773804
1687351466709301000,9.321301025390625,0.8145691156387329,-1.737144947052002,-0.7732325792312622
1687351466719318000,9.331318115234374,0.9601278305053711,-1.2836568355560303,-0.0432867594063282
1687351466729336000,9.341336181640624,1.0311940908432007,-0.8990567326545715,0.6036030650138855
1687351466739352800,9.351352783203126,1.0342683792114258,-0.631885826587677,1.1654678583145142
1687351466749370000,9.3613701171875,1.018648386001587,-1.0939011573791504,1.7498753070831299
1687351466759388000,9.371387939453125,1.1131268739700317,-2.976085901260376,1.796239972114563
1687351466769405000,9.381405029296875,1.1768105030059814,-2.9538698196411133,1.2735717296600342
1687351466779422000,9.391421875,1.1808792352676392,-1.117665410041809,0.3883875906467438
1687351466789440000,9.40143994140625,1.2645354270935059,0.4378485679626465,-0.31304243206977844
1687351466799457000,9.41145703125,1.2443948984146118,1.028115153312683,-0.7448774576187134
1687351466809475000,9.42147509765625,0.9139645099639893,1.2886950969696045,-1.061716914176941
1687351466819492000,9.4314921875,0.5043935179710388,1.5374780893325806,-1.2364494800567627
1687351466829509000,9.441509033203126,0.2842062711715698,1.776924967765808,-1.1931999921798706
1687351466839527000,9.45152685546875,0.3317579925060272,1.8586397171020508,-0.9589333534240723
1687351466849544000,9.4615439453125,0.5527516603469849,1.5190962553024292,-0.5668684244155884
1687351466859561000,9.47156103515625,0.8695694804191589,0.07673950493335724,-0.14073044061660767
1687351466869579000,9.4815791015625,1.0838596820831299,-1.8710302114486694,0.2959829568862915
1687351466879596000,9.491595947265624,1.183546543121338,-2.9133386611938477,0.7772670984268188
1687351466889612800,9.50161279296875,1.306815505027771,-2.881460428237915,1.1751500368118286
1687351466899631000,9.511631103515626,1.3634998798370361,-2.3159821033477783,1.235754370689392
1687351466909648000,9.52164794921875,1.230750322341919,-1.6358578205108643,0.944284975528717
1687351466919665200,9.5316650390625,1.0376900434494019,-1.0578540563583374,0.5769631862640381
1687351466929683000,9.541682861328125,0.9198017716407776,-0.700267493724823,0.3285413384437561
1687351466939700000,9.551699951171875,0.8777647614479065,-0.4694042205810547,0.23424042761325836
1687351466949717000,9.561717041015624,0.8515246510505676,-0.40426915884017944,0.2796848714351654
1687351466959735000,9.571735107421874,0.8251628279685974,-0.4677141308784485,0.4179707169532776
1687351466969752000,9.581751953125,0.774688720703125,-0.5660641193389893,0.5748404860496521
1687351466979769900,9.591769775390626,0.6720060110092163,-0.6731085777282715,0.6965007781982422
1687351466989787100,9.601787109375,0.5223629474639893,-0.7189103960990906,0.7532487511634827
1687351466999804000,9.611803955078125,0.3876953721046448,-0.6310538649559021,0.757659912109375
1687351467009822000,9.621822021484375,0.2655385732650757,-0.4387422204017639,0.7107430100440979
1687351467019839000,9.6318388671875,0.09731140732765198,-0.24290010333061218,0.6300439238548279
1687351467029856000,9.64185595703125,-0.08987978845834732,-0.1277008056640625,0.5425928831100464
1687351467039874000,9.6518740234375,-0.26761594414711,-0.06247071921825409,0.46791836619377136
1687351467049891000,9.66189111328125,-0.4336254298686981,-0.009274876676499844,0.3967035710811615
1687351467059907800,9.671907958984375,-0.5868924856185913,0.036935195326805115,0.3407418429851532
1687351467069926100,9.681926025390625,-0.7219150066375732,0.13210591673851013,0.30418941378593445
1687351467079943000,9.69194287109375,-0.8571742177009583,0.2678653299808502,0.3216135501861572
1687351467089960200,9.701960205078125,-0.9611427187919617,0.44243234395980835,0.38524580001831055
1687351467099978000,9.71197802734375,-0.9922460913658142,0.5888338088989258,0.4222293198108673
1687351467109995000,9.7219951171875,-0.9617263078689575,0.5953103303909302,0.30796054005622864
1687351467120012000,9.732011962890626,-0.8734104633331299,0.36273059248924255,0.037791959941387177
1687351467130029800,9.74202978515625,-0.6698070168495178,-0.03723837807774544,-0.17836830019950867
1687351467140047000,9.752047119140625,-0.30357515811920166,-0.37666964530944824,-0.1600797325372696
1687351467150063900,9.76206396484375,0.1228477954864502,-0.4835984706878662,0.05047723278403282
1687351467160082200,9.772082275390625,0.42483216524124146,-0.39761385321617126,0.3235170841217041
1687351467170099000,9.782098876953125,0.5211440920829773,-0.3374999165534973,0.5474186539649963
1687351467180117000,9.792116943359375,0.47989827394485474,-0.47861984372138977,0.6908484101295471
1687351467190134000,9.802134033203124,0.39066082239151,-0.8807539939880371,0.8311360478401184
1687351467200151000,9.812151123046876,0.28795644640922546,-1.3455151319503784,0.9944533109664917
1687351467210169000,9.822169189453126,0.26610973477363586,-1.6246072053909302,1.1344637870788574
1687351467220186000,9.83218603515625,0.346522718667984,-1.3245571851730347,1.193222165107727
1687351467230203000,9.842202880859375,0.31397542357444763,-0.6990439891815186,1.2168201208114624
1687351467240221000,9.852220947265625,0.26805707812309265,-0.39690759778022766,1.1306390762329102
1687351467250238000,9.862238037109375,0.3604471981525421,-0.5082623362541199,0.752581775188446
1687351467260255000,9.8722548828125,0.47459667921066284,-0.4643888771533966,0.11803024262189865
1687351467270273000,9.88227294921875,0.30102115869522095,-0.0734592080116272,-0.1714569628238678
1687351467280289800,9.892289794921876,0.021870912984013557,0.6004296541213989,-0.26405394077301025
1687351467290307000,9.90230712890625,-0.0892108678817749,1.4264532327651978,-0.4083453416824341
1687351467300324900,9.912324951171875,-0.19122815132141113,1.9996240139007568,-0.5527831315994263
1687351467310342100,9.922342041015625,-0.28704628348350525,2.2892348766326904,-0.6232995986938477
1687351467320360000,9.93235986328125,-0.3739684522151947,1.6466064453125,-0.4492674171924591
1687351467330377200,9.942377197265625,-0.35037949681282043,0.16908708214759827,-0.24686932563781738
1687351467340394000,9.95239404296875,-0.2500137686729431,-0.14518453180789948,-0.3932897448539734
1687351467350411800,9.962411865234374,-0.2592320442199707,0.21423062682151794,-0.6881653666496277
1687351467360429000,9.972428955078126,-0.4048198461532593,0.6876943707466125,-0.915507972240448
1687351467370446000,9.982446044921875,-0.6131706833839417,1.105201005935669,-0.9864495396614075
1687351467380464000,9.992464111328125,-0.800392210483551,1.4387402534484863,-0.8596401214599609
1687351467390481000,10.00248095703125,-0.9230675101280212,1.6850181818008423,-0.5699728727340698
1687351467400498000,10.012497802734375,-0.9738693237304688,1.8247333765029907,-0.20972460508346558
1687351467410516000,10.022515869140625,-0.9734376072883606,1.8094079494476318,0.08596350252628326
1687351467420533000,10.032532958984374,-0.9516798853874207,1.6009924411773682,0.23625437915325165
1687351467430550000,10.042550048828126,-0.9210410118103027,1.168328046798706,0.24338260293006897
1687351467440568000,10.052568115234376,-0.8918665647506714,0.6231626272201538,0.16369079053401947
1687351467450584800,10.062584716796875,-0.8806812763214111,0.14585410058498383,0.03927537053823471
1687351467460602000,10.07260205078125,-0.906979501247406,-0.2065032422542572,-0.06814838945865631
1687351467470620000,10.082619873046875,-0.9586514830589294,-0.4940263628959656,-0.12586228549480438
1687351467480637200,10.09263720703125,-1.0248594284057617,-0.7496636509895325,-0.1085536777973175
1687351467490654000,10.102654052734374,-1.0549849271774292,-0.9568237662315369,-0.028535276651382446
1687351467500672000,10.112672119140624,-1.0327130556106567,-1.084401249885559,0.06041315943002701
1687351467510689000,10.12268896484375,-0.987786054611206,-1.1047054529190063,0.11927355080842972
1687351467520706800,10.132706787109376,-0.9454673528671265,-1.0515472888946533,0.1422896832227707
1687351467530724000,10.14272412109375,-0.923539936542511,-0.9903553128242493,0.18168343603610992
1687351467540740900,10.152740966796875,-0.9215640425682068,-0.9493894577026367,0.26480352878570557
1687351467550759200,10.16275927734375,-0.9134741425514221,-0.9377405047416687,0.39310452342033386
1687351467560776000,10.17277587890625,-0.8846436738967896,-0.9574466347694397,0.5458174347877502
1687351467570793000,10.18279296875,-0.8341647982597351,-0.9821197390556335,0.6999385952949524
1687351467580811000,10.19281103515625,-0.7636162638664246,-0.9909934997558594,0.8322388529777527
1687351467590828000,10.202828125,-0.6877015233039856,-1.0073250532150269,0.9137867093086243
1687351467600845000,10.212844970703125,-0.6291670799255371,-1.0451074838638306,0.9316809177398682
1687351467610862800,10.22286279296875,-0.5979804396629333,-1.1359832286834717,0.9091894626617432
1687351467620880000,10.2328798828125,-0.5769351720809937,-1.2813291549682617,0.8922241926193237
1687351467630897200,10.242897216796875,-0.5541893839836121,-1.4655816555023193,0.8738353252410889
1687351467640915000,10.2529150390625,-0.480729877948761,-1.6300150156021118,0.8357643485069275
1687351467650932000,10.262931884765624,-0.3774721920490265,-1.7398113012313843,0.7467119693756104
1687351467660949000,10.272948974609376,-0.2918323874473572,-1.8125133514404297,0.6457841992378235
1687351467670967000,10.282967041015626,-0.2543744742870331,-1.8584904670715332,0.564910352230072
1687351467680984000,10.292984130859375,-0.24878866970539093,-1.870106816291809,0.5231472849845886
1687351467691001900,10.303001953125,-0.27610549330711365,-1.8316140174865723,0.5206572413444519
1687351467701019100,10.31301904296875,-0.3017355799674988,-1.7333526611328125,0.5387653112411499
1687351467711036000,10.323035888671875,-0.31429770588874817,-1.6179975271224976,0.6239462494850159
1687351467721054000,10.333053955078125,-0.2821933329105377,-1.475892186164856,0.7489148378372192
1687351467731071000,10.343071044921874,-0.17994098365306854,-1.3058578968048096,0.9333517551422119
1687351467741088000,10.353087890625,-0.0032801241613924503,-1.163124442100525,1.1660314798355103
1687351467751106000,10.36310595703125,0.21886879205703735,-1.0861138105392456,1.3613152503967285
1687351467761122800,10.373122802734375,0.46231135725975037,-1.4021896123886108,1.4314476251602173
1687351467771140000,10.38314013671875,0.7370063066482544,-2.6333725452423096,1.1177599430084229
1687351467781158000,10.393157958984375,0.9916830658912659,-4.058887004852295,0.4286825954914093
1687351467791175200,10.403175048828125,1.2066975831985474,-4.769617557525635,-0.08867506682872772
1687351467801192000,10.41319189453125,1.3823878765106201,-4.374312877655029,-0.0553649440407753
1687351467811210000,10.4232099609375,1.435684084892273,-3.1866567134857178,-0.01774486154317856
1687351467821227000,10.43322705078125,1.3482139110565186,-2.2939774990081787,-0.4497806429862976
1687351467831244000,10.443244140625,1.2352930307388306,-1.9263255596160889,-1.204163908958435
1687351467841262000,10.453261962890625,1.2417683601379395,-1.755780577659607,-1.857069969177246
1687351467851279000,10.463279052734375,1.3751707077026367,-1.6284228563308716,-2.068300724029541
1687351467861295900,10.4732958984375,1.5142375230789185,-1.752345323562622,-1.8826719522476196
1687351467871314200,10.483314208984375,1.4627354145050049,-1.9751001596450806,-1.5389840602874756
1687351467881331000,10.4933310546875,1.2885011434555054,-2.0835044384002686,-1.1629225015640259
1687351467891349000,10.503348876953124,1.1179842948913574,-2.03031325340271,-0.8565969467163086
1687351467901366000,10.513365966796876,0.9796620011329651,-1.8257538080215454,-0.6220276355743408
1687351467911383000,10.523383056640625,0.8548425436019897,-1.5577715635299683,-0.4600192904472351
1687351467921401000,10.533401123046875,0.7257846593856812,-1.4685311317443848,-0.3809417188167572
1687351467931417900,10.54341796875,0.6412588357925415,-1.5962812900543213,-0.3463065028190613
1687351467941435100,10.55343505859375,0.6153600215911865,-1.8381932973861694,-0.276864230632782
1687351467951453000,10.563452880859375,0.6257317066192627,-2.076780319213867,-0.2002411186695099
1687351467961470200,10.57347021484375,0.6161705851554871,-2.084808588027954,-0.18861901760101318
1687351467971487000,10.583487060546876,0.6144629716873169,-1.6918418407440186,-0.27459171414375305
1687351467981505000,10.593505126953126,0.6410306692123413,-1.1391240358352661,-0.42730024456977844
1687351467991522000,10.60352197265625,0.6494454741477966,-0.6722052097320557,-0.5514280200004578
1687351468001539000,10.6135390625,0.6606560349464417,-0.39954227209091187,-0.5708039402961731
1687351468011557000,10.62355712890625,0.6365501284599304,-0.31760507822036743,-0.4786173403263092
1687351468021574100,10.63357421875,0.5801962018013,-0.3935522437095642,-0.3080042600631714
1687351468031591000,10.6435908203125,0.5053398013114929,-0.5755215287208557,-0.09286186099052429
1687351468041609000,10.65360888671875,0.412960946559906,-0.8409607410430908,0.1305210292339325
1687351468051626000,10.6636259765625,0.30403923988342285,-1.0651382207870483,0.31391027569770813
1687351468061644000,10.67364404296875,0.16850422322750092,-1.1396410465240479,0.42965906858444214
1687351468071661000,10.6836611328125,0.04328584671020508,-1.0360260009765625,0.5094968676567078
1687351468081677800,10.693677734375,-0.07301191985607147,-0.8178405165672302,0.5683165788650513
1687351468091696000,10.703696044921875,-0.18533524870872498,-0.5709366798400879,0.592170000076294
1687351468101713000,10.713712890625,-0.3143693804740906,-0.36413058638572693,0.5591882467269897
1687351468111730200,10.723730224609374,-0.44625845551490784,-0.20896016061306,0.4685283601284027
1687351468121748000,10.733748046875,-0.5674466490745544,-0.10034172981977463,0.3615744113922119
1687351468131765200,10.74376513671875,-0.6873520612716675,-0.012852632440626621,0.2798057794570923
1687351468141782000,10.753781982421875,-0.8130782246589661,0.0760078877210617,0.26704341173171997
1687351468151799800,10.7637998046875,-0.9008581638336182,0.158625528216362,0.33809682726860046
1687351468161817000,10.773817138671875,-0.9324724078178406,0.20560579001903534,0.44223007559776306
1687351468171834000,10.783834228515625,-0.952912449836731,0.14890575408935547,0.47870391607284546
1687351468181852200,10.79385205078125,-0.9618473649024963,-0.012723889201879501,0.39200231432914734
1687351468191869000,10.803868896484374,-0.9824788570404053,-0.2225029468536377,0.22819609940052032
1687351468201886000,10.813885986328126,-0.9671711325645447,-0.4127980172634125,0.07355330139398575
1687351468211904000,10.823904052734376,-0.8567482233047485,-0.5718355774879456,0.005806481931358576
1687351468221921000,10.833921142578125,-0.6254470944404602,-0.7453517913818359,0.06439502537250519
1687351468231938000,10.84393798828125,-0.25964298844337463,-0.9376893043518066,0.20276887714862823
1687351468241956000,10.8539560546875,0.08859020471572876,-1.1538904905319214,0.38228699564933777
1687351468251972900,10.863972900390625,0.3439626097679138,-1.28630793094635,0.6307505965232849
1687351468261991000,10.873990966796875,0.5411861538887024,-1.5983918905258179,0.9768683910369873
1687351468272008000,10.884008056640624,0.680042564868927,-2.128549337387085,1.1163573265075684
1687351468282025200,10.894025146484376,0.8341560363769531,-2.6068780422210693,1.0112364292144775
1687351468292043000,10.90404296875,1.026212215423584,-2.6026453971862793,0.7913492918014526
1687351468302060000,10.91406005859375,1.0108455419540405,-2.246223211288452,0.20138268172740936
1687351468312077000,10.9240771484375,0.8831064701080322,-1.7024844884872437,-0.6079879403114319
1687351468322094800,10.9340947265625,0.5972821712493896,-1.1276612281799316,-1.0840206146240234
1687351468332112100,10.944112060546875,0.1324649453163147,-0.842584490776062,-1.054923176765442
1687351468342129000,10.95412890625,-0.15131676197052002,-0.8557183146476746,-0.7823521494865417
1687351468352147200,10.964147216796874,-0.17403484880924225,-0.9947835206985474,-0.707690417766571
1687351468362164000,10.9741640625,-0.00304006552323699,-0.7760258913040161,-0.938082218170166
1687351468372181000,10.984180908203125,0.16417822241783142,-0.323322057723999,-1.1965566873550415
1687351468382199000,10.994198974609375,0.1556774079799652,0.11303344368934631,-1.3840887546539307
1687351468392216000,11.004216064453125,-0.016386762261390686,0.5232212543487549,-1.4844521284103394
1687351468402233000,11.014233154296875,-0.3288034498691559,0.9677053689956665,-1.5060498714447021
1687351468412251000,11.0242509765625,-0.6625638604164124,1.4807281494140625,-1.4864871501922607
1687351468422268000,11.034267822265624,-0.9311285614967346,2.0728533267974854,-1.4264365434646606
1687351468432286000,11.044285888671874,-1.1216179132461548,2.6624064445495605,-1.2630010843276978
1687351468442303000,11.054302978515626,-1.2657527923583984,3.1300346851348877,-0.9228734970092773
1687351468452320000,11.064320068359375,-1.3110113143920898,3.413172960281372,-0.40460506081581116
1687351468462338000,11.074338134765625,-1.1790169477462769,3.5480129718780518,0.18745815753936768
1687351468472355000,11.08435498046875,-0.9706344604492188,3.4971015453338623,0.7695705890655518
1687351468482372000,11.0943720703125,-0.7244216799736023,3.274967670440674,1.3817740678787231
1687351468492390000,11.104389892578125,-0.4987185597419739,2.3385009765625,2.0374276638031006
1687351468502407200,11.1144072265625,-0.3249170184135437,-0.1411341428756714,2.3237016201019287
1687351468512424000,11.124423828125,-0.07966625690460205,-2.0950939655303955,1.8334349393844604
1687351468522442000,11.13444189453125,0.091642364859581,-2.9244141578674316,1.0339336395263672
1687351468532459000,11.144458984375,-0.013534914702177048,-3.0997884273529053,0.419533371925354
1687351468542476000,11.15447607421875,-0.34739890694618225,-2.96644926071167,0.120170459151268
1687351468552494000,11.164494140625,-0.7412963509559631,-2.7378039360046387,0.18491244316101074
1687351468562510800,11.1745107421875,-0.9658604860305786,-2.3633856773376465,0.4599234163761139
1687351468572528000,11.184528076171874,-0.973224937915802,-1.7957842350006104,0.6961548328399658
1687351468582546000,11.1945458984375,-0.9517310857772827,-1.1289710998535156,0.7394843101501465
1687351468592563000,11.20456298828125,-0.9873692393302917,-0.4975508749485016,0.6564757227897644
1687351468602581000,11.2145810546875,-1.0544476509094238,-0.03284287452697754,0.6192201375961304
1687351468612598000,11.224597900390625,-1.1203722953796387,0.16888172924518585,0.7245140671730042
1687351468622615000,11.234614990234375,-1.1471918821334839,0.06551021337509155,0.9352761507034302
1687351468632633000,11.244633056640625,-1.1010686159133911,-0.3066076934337616,1.1543656587600708
1687351468642650000,11.254650146484375,-0.9967285394668579,-0.8408409357070923,1.26314115524292
1687351468652667100,11.264667236328124,-0.846917986869812,-1.34944748878479,1.2177231311798096
1687351468662685000,11.274684814453124,-0.6853851675987244,-1.7738277912139893,1.1198118925094604
1687351468672702000,11.284701904296876,-0.5425278544425964,-2.1246731281280518,1.0894031524658203
1687351468682719000,11.294718994140625,-0.4358091950416565,-2.3874239921569824,1.1643296480178833
1687351468692737000,11.304737060546875,-0.2988217771053314,-2.505584955215454,1.3081836700439453
1687351468702754300,11.31475439453125,-0.15788570046424866,-2.5059144496917725,1.4531844854354858
1687351468712771300,11.324771240234375,-0.055105261504650116,-2.428722381591797,1.5626747608184814
1687351468722789400,11.334789306640625,-0.012216939590871334,-2.321337938308716,1.6322687864303589
1687351468732806400,11.344806396484374,-0.020004022866487503,-2.2115840911865234,1.7229440212249756
1687351468742823400,11.354823486328126,-0.06008411571383476,-2.1300160884857178,1.8622814416885376
1687351468752841500,11.364841552734376,-0.13207069039344788,-2.0854098796844482,1.9340590238571167
1687351468762858500,11.3748583984375,-0.22629790008068085,-2.4282124042510986,1.889023780822754
1687351468772875300,11.384875244140625,-0.30124643445014954,-3.259805917739868,1.5777779817581177
1687351468782893300,11.394893310546875,-0.31177496910095215,-3.8023457527160645,1.0787808895111084
1687351468792910300,11.404910400390625,-0.3061080276966095,-3.556457042694092,0.7959480881690979
1687351468802928400,11.414928466796875,-0.31719404458999634,-2.836911678314209,0.7901785373687744
1687351468812945400,11.4249453125,-0.2721727788448334,-2.1662118434906006,0.6192472577095032
1687351468822962200,11.434962158203126,-0.1562325358390808,-1.9528335332870483,0.1838541179895401
1687351468832980500,11.44498046875,0.03421970084309578,-1.914049744606018,-0.3185781240463257
1687351468842997200,11.454997314453125,0.2546719014644623,-1.8402756452560425,-0.7029954195022583
1687351468853014500,11.4650146484375,0.5266059041023254,-1.4763318300247192,-1.097418189048767
1687351468863032300,11.4750322265625,0.7879871726036072,-1.0927592515945435,-1.452109694480896
1687351468873049300,11.48504931640625,1.0813649892807007,-0.8669266104698181,-1.7820082902908325
1687351468883066400,11.49506640625,1.4058940410614014,-0.9154154658317566,-2.031804084777832
1687351468893084200,11.505084228515624,1.7348530292510986,-1.2073578834533691,-2.1399896144866943
1687351468903101400,11.515101318359376,1.9892010688781738,-1.658221960067749,-2.21168851852417
1687351468913118500,11.525118408203125,2.1397857666015625,-2.0044338703155518,-2.322852611541748
1687351468923136500,11.535136474609375,2.154761552810669,-2.171516180038452,-2.4654335975646973
1687351468933153300,11.5451533203125,2.175558567047119,-2.190918445587158,-2.534949541091919
1687351468943170300,11.55517041015625,2.245382308959961,-2.0885112285614014,-2.5128421783447266
1687351468953188400,11.565188232421875,2.293314218521118,-1.863058090209961,-2.4010894298553467
1687351468963205400,11.575205322265624,2.254103422164917,-1.6214121580123901,-2.253730297088623
1687351468973223400,11.585223388671874,2.0631256103515625,-1.4073810577392578,-2.1223998069763184
1687351468983240400,11.595240478515626,1.690647006034851,-1.2533305883407593,-2.012566566467285
1687351468993257200,11.60525732421875,1.1632822751998901,-1.1737101078033447,-1.9233989715576172
1687351469003275500,11.615275634765625,0.6335371732711792,-1.2509881258010864,-1.8389908075332642
1687351469013292300,11.625292236328125,0.29919326305389404,-1.494015097618103,-1.7393718957901
1687351469023309600,11.6353095703125,0.34104472398757935,-1.760011911392212,-1.655820369720459
1687351469033327400,11.645327392578125,0.5791912078857422,-1.9169855117797852,-1.5640991926193237
1687351469043344400,11.655344482421874,0.7344102263450623,-1.8316032886505127,-1.5397650003433228
1687351469053361400,11.665361328125,0.8068751096725464,-1.7098667621612549,-1.5046522617340088
1687351469063379200,11.675379150390626,0.9808681011199951,-1.6770200729370117,-1.4290900230407715
1687351469073396500,11.685396484375,1.2211960554122925,-1.9890360832214355,-1.4480676651000977
1687351469083413200,11.695413330078125,1.5391318798065186,-2.413109540939331,-1.4148403406143188
1687351469093431600,11.705431640625,1.8443964719772339,-2.7253823280334473,-1.381063461303711
1687351469103448300,11.7154482421875,2.0655808448791504,-2.546067714691162,-1.3226593732833862
1687351469113465300,11.72546533203125,2.20884370803833,-2.0092616081237793,-1.3839504718780518
1687351469123483400,11.7354833984375,2.1897714138031006,-1.3758959770202637,-1.540993332862854
1687351469133500400,11.74550048828125,1.8502612113952637,-0.9177995324134827,-1.6597468852996826
1687351469143518500,11.7555185546875,1.6019896268844604,-0.7142084836959839,-1.6304540634155273
1687351469153535500,11.765535400390625,1.5466291904449463,-0.7152116894721985,-1.4818389415740967
1687351469163552300,11.77555224609375,1.5660161972045898,-0.7173029184341431,-1.3529630899429321
1687351469173570300,11.7855703125,1.5809110403060913,-0.7904184460639954,-1.2172178030014038
1687351469183587300,11.79558740234375,1.630144715309143,-0.8848218321800232,-1.0331857204437256
1687351469193604400,11.805604248046874,1.6170451641082764,-0.8508841395378113,-0.8194406628608704
1687351469203622400,11.815622314453124,1.5393381118774414,-0.7706713080406189,-0.5631276369094849
1687351469213639200,11.82563916015625,1.392485499382019,-0.6931227445602417,-0.3053584098815918
1687351469223656400,11.835656494140625,1.318286418914795,-0.543862521648407,-0.13875065743923187
1687351469233674200,11.84567431640625,1.2628653049468994,-0.29340341687202454,-0.055683210492134094
1687351469243691500,11.85569140625,1.190966010093689,0.07999876886606216,-0.038399744778871536
1687351469253708300,11.865708251953125,1.0305110216140747,0.4575532376766205,-0.06508435308933258
1687351469263726600,11.8757265625,0.7936496734619141,0.7833790183067322,-0.09120288491249084
1687351469273743400,11.885743408203124,0.4947358965873718,0.9247734546661377,-0.08636099100112915
1687351469283760400,11.895760498046876,0.2590382993221283,0.7685843706130981,0.011078186333179474
1687351469293778400,11.9057783203125,0.12160029262304306,0.45384958386421204,0.19329431653022766
1687351469303795500,11.91579541015625,0.058724645525217056,0.18557633459568024,0.3814888596534729
1687351469313813500,11.9258134765625,0.026875369250774384,0.010974425822496414,0.5409142374992371
1687351469323830300,11.935830322265625,-0.033143069595098495,-0.06899160891771317,0.6559156775474548
1687351469333847300,11.945847412109375,-0.1256362497806549,-0.06608716398477554,0.718139111995697
1687351469343865300,11.955865234375,-0.25558963418006897,0.04272490739822388,0.752560019493103
1687351469353882400,11.96588232421875,-0.4166293740272522,0.22682443261146545,0.7701606154441833
1687351469363899400,11.9758994140625,-0.6273128390312195,0.3419700860977173,0.8466271758079529
1687351469373917400,11.98591748046875,-0.8952869772911072,0.3482799232006073,1.007241129875183
1687351469383934200,11.995934326171875,-1.2015316486358643,0.243835911154747,1.153282880783081
1687351469393951500,12.005951416015625,-1.5418606996536255,0.07459867745637894,1.1862660646438599
1687351469403969300,12.01596923828125,-1.7559489011764526,-0.2104893922805786,0.9264452457427979
1687351469413986600,12.025986572265625,-1.677333116531372,-0.8981404900550842,0.35376444458961487
1687351469424003300,12.03600341796875,-1.204514503479004,-1.474583387374878,0.06354083865880966
1687351469434021400,12.046021484375,-0.9554717540740967,-1.2950631380081177,0.625693142414093
1687351469444038400,12.056038330078126,-1.422724723815918,-1.232553482055664,1.530045986175537
1687351469454055400,12.066055419921875,-1.9550904035568237,-1.1884474754333496,1.6959336996078491
1687351469464073500,12.076073486328125,-1.6396268606185913,-0.7437331080436707,0.8627405762672424
1687351469474090200,12.08609033203125,-1.2008916139602661,-0.029194962233304977,0.19073425233364105
1687351469484108500,12.096108642578125,-1.1088200807571411,0.2210015058517456,0.17134223878383636
1687351469494125300,12.106125244140625,-1.3036595582962036,-0.10736013948917389,0.4776664674282074
1687351469504142300,12.116142333984374,-1.6053813695907593,-0.7598926424980164,0.789368748664856
1687351469514160400,12.126160400390624,-1.8888546228408813,-1.3931493759155273,1.0179646015167236
1687351469524177400,12.136177490234376,-2.1707568168640137,-1.8223899602890015,1.2327173948287964
1687351469534194400,12.1461943359375,-2.505526065826416,-1.9854614734649658,1.5030291080474854
1687351469544212200,12.156212158203125,-2.85849666595459,-1.8078571557998657,1.701377511024475
1687351469554229200,12.166229248046875,-3.1264400482177734,-1.3857508897781372,1.8515909910202026
1687351469564246500,12.17624658203125,-3.1193618774414062,-0.9285479187965393,1.8272093534469604
1687351469574264300,12.186264404296875,-2.7258548736572266,-0.5804836750030518,1.3822811841964722
1687351469584281300,12.19628125,-2.0480568408966064,-0.336788535118103,0.7441585063934326
1687351469594298400,12.20629833984375,-1.3775238990783691,-0.34611624479293823,0.2620677649974823
1687351469604316400,12.21631640625,-1.0328278541564941,-0.6001399159431458,0.10531633347272873
1687351469614333400,12.22633349609375,-1.0370947122573853,-0.8477540016174316,0.1713145226240158
1687351469624350200,12.23635009765625,-1.170684814453125,-0.9018522500991821,0.2849990725517273
1687351469634368500,12.246368408203125,-1.3016395568847656,-0.8498412370681763,0.3056153953075409
1687351469644385300,12.25638525390625,-1.3747204542160034,-0.8051986694335938,0.21536527574062347
1687351469654403300,12.2664033203125,-1.3600624799728394,-0.7943388819694519,0.03877212852239609
1687351469664420400,12.27642041015625,-1.2872974872589111,-0.8222943544387817,-0.142969012260437
1687351469674437400,12.286437255859376,-1.17747163772583,-0.8663720488548279,-0.26211780309677124
1687351469684455400,12.296455322265626,-1.0652742385864258,-0.8219665288925171,-0.2578805983066559
1687351469694472200,12.30647216796875,-1.0053843259811401,-0.5497373938560486,-0.11882789433002472
1687351469704488700,12.31648876953125,-0.9493422508239746,-0.18166860938072205,-0.007255755364894867
1687351469714506800,12.3265068359375,-0.8678295612335205,0.1331993192434311,0.009285137988626957
1687351469724523800,12.336523681640625,-0.7948510050773621,0.2941707372665405,-0.026647623628377914
1687351469734540800,12.346540771484374,-0.7750788927078247,0.29127562046051025,-0.04372141882777214
1687351469744558800,12.356558837890624,-0.806535542011261,0.13153137266635895,-0.004339860286563635
1687351469754575600,12.36657568359375,-0.8653200268745422,-0.03558224439620972,0.07191257178783417
1687351469764592600,12.376592529296875,-0.9076413512229919,-0.08842211216688156,0.1314447820186615
1687351469774610700,12.386610595703125,-0.9088432192802429,-0.022627651691436768,0.17217250168323517
1687351469784627700,12.396627685546875,-0.8891361951828003,0.08688631653785706,0.23038466274738312
1687351469794644700,12.406644775390625,-0.8527984619140625,0.18111002445220947,0.32773250341415405
1687351469804662800,12.416662841796875,-0.8243020176887512,0.17729602754116058,0.4445575773715973
1687351469814679600,12.426679443359374,-0.7954967617988586,0.0020365905947983265,0.5315026044845581
1687351469824697900,12.43669775390625,-0.725896954536438,-0.17851263284683228,0.5443398952484131
1687351469834714600,12.446714599609376,-0.626163125038147,-0.22469371557235718,0.5475034713745117
1687351469844732000,12.45673193359375,-0.4977185130119324,-0.2795388400554657,0.5640837550163269
1687351469854749700,12.466749755859375,-0.3376324474811554,-0.24022047221660614,0.5214012861251831
1687351469864766700,12.4767666015625,-0.2134227305650711,0.012140912935137749,0.4701361060142517
1687351469874783700,12.48678369140625,-0.1004844605922699,0.2710696756839752,0.4157111942768097
1687351469884801500,12.496801513671874,0.007614601403474808,0.3070657253265381,0.3538275361061096
1687351469894818800,12.50681884765625,0.13614967465400696,0.21664606034755707,0.28729113936424255
1687351469904835600,12.516835693359376,0.2658534646034241,0.12221917510032654,0.22189372777938843
1687351469914854000,12.52685400390625,0.3358951508998871,0.08352930098772049,0.19394385814666748
1687351469924870700,12.53687060546875,0.35947680473327637,0.10217109322547913,0.25125834345817566
1687351469934887700,12.5468876953125,0.38112589716911316,0.04863623157143593,0.38489842414855957
1687351469944905700,12.55690576171875,0.3621166944503784,-0.13185903429985046,0.4620645344257355
1687351469954922800,12.5669228515625,0.31342583894729614,-0.39568400382995605,0.4678683876991272
1687351469964940800,12.57694091796875,0.3166442811489105,-0.6570273041725159,0.4597916007041931
1687351469974957800,12.586957763671874,0.34122127294540405,-0.8180409669876099,0.479341596364975
1687351469984974600,12.596974609375,0.3164779841899872,-0.8486003875732422,0.5325528979301453
1687351469994992600,12.60699267578125,0.23599137365818024,-0.7278148531913757,0.5975449681282043
1687351470005009700,12.617009765625,0.13311104476451874,-0.4998258650302887,0.6161839365959167
1687351470015026700,12.627026611328125,0.024187225848436356,-0.22479507327079773,0.5734508633613586
1687351470025044700,12.637044677734375,-0.08033709228038788,0.057929929345846176,0.4993783235549927
1687351470035061800,12.647061767578125,-0.18234415352344513,0.33392369747161865,0.419694185256958
1687351470045078800,12.657078857421874,-0.26737335324287415,0.5902194380760193,0.3738209903240204
1687351470055096600,12.6670966796875,-0.32569897174835205,0.7798599600791931,0.34570813179016113
1687351470065113900,12.67711376953125,-0.35842084884643555,0.8742496371269226,0.3172823488712311
1687351470075130600,12.687130615234375,-0.39015400409698486,0.8223376870155334,0.2133471518754959
1687351470085149000,12.69714892578125,-0.4170801639556885,0.6397905349731445,0.0007265866734087467
1687351470095165700,12.707165771484375,-0.4113040268421173,0.4170738458633423,-0.27162450551986694
1687351470105182700,12.7171826171875,-0.4002824127674103,0.2694505751132965,-0.5187606811523438
1687351470115200800,12.72720068359375,-0.38535407185554504,0.279610812664032,-0.689915657043457
1687351470125217800,12.7372177734375,-0.3577735722064972,0.45949113368988037,-0.7237741351127625
1687351470135235800,12.74723583984375,-0.26060763001441956,0.78542160987854,-0.6088874936103821
1687351470145252600,12.757252685546876,-0.10883775353431702,1.1700769662857056,-0.40198972821235657
1687351470155269600,12.76726953125,-0.007131633348762989,1.2879732847213745,-0.27967607975006104
1687351470165287700,12.77728759765625,0.06200804561376572,1.025542974472046,-0.2839515507221222
1687351470175304700,12.7873046875,0.09433269500732422,0.45932960510253906,-0.4336605966091156
1687351470185321700,12.79732177734375,0.11024437099695206,-0.2423352301120758,-0.6999039649963379
1687351470195339800,12.80733984375,0.13346926867961884,-0.9749152064323425,-1.0173615217208862
1687351470205356800,12.817356689453124,0.182053342461586,-1.6603529453277588,-1.3118243217468262
1687351470215373800,12.827373779296876,0.2851368486881256,-2.331299066543579,-1.5030230283737183
1687351470225391600,12.8373916015625,0.3775025010108948,-2.9615721702575684,-1.5379762649536133
1687351470235409000,12.847408935546875,0.43403130769729614,-3.4794533252716064,-1.4446778297424316
1687351470245425700,12.85742578125,0.47896891832351685,-3.7820448875427246,-1.298473834991455
1687351470255443700,12.867443603515625,0.5260586738586426,-3.6562139987945557,-1.1262290477752686
1687351470265460700,12.877460693359374,0.5810036063194275,-3.064706802368164,-0.8950501680374146
1687351470275478800,12.887478759765624,0.6949391961097717,-2.2039496898651123,-0.5766924619674683
1687351470285495800,12.897495849609374,0.8753392696380615,-1.6218146085739136,-0.2258048951625824
1687351470295512600,12.9075126953125,1.1245132684707642,-2.081608295440674,-0.028748810291290283
1687351470305531000,12.91753076171875,1.3668586015701294,-3.3713009357452393,-0.0051064020954072475
1687351470315547600,12.927547607421875,1.4671670198440552,-4.507221698760986,0.053507909178733826
1687351470325564700,12.937564697265625,1.3123470544815063,-4.314946174621582,0.38118553161621094
1687351470335582700,12.947582763671875,1.2329829931259155,-3.055938243865967,0.31699109077453613
1687351470345599700,12.957599853515624,1.4190846681594849,-1.7914741039276123,-0.28607144951820374
1687351470355616800,12.96761669921875,1.65553879737854,-1.0311535596847534,-0.8869103789329529
1687351470365634600,12.977634521484376,1.758062481880188,-0.7003257274627686,-1.3196403980255127
1687351470375651800,12.98765185546875,1.8993251323699951,-0.4866624176502228,-1.5851227045059204
1687351470385668900,12.9976689453125,1.9706228971481323,-0.22194804251194,-1.6184427738189697
