time,seconds_elapsed,z,y,x
1686427007395521500,0.097521484375,-0.7745361328125,-0.6965179443359375,-0.0219573974609375
1686427007405467400,0.10746728515625,-0.7664947509765625,-0.6971435546875,-0.0052337646484375
1686427007415412700,0.117412841796875,-0.7635650634765625,-0.692169189453125,0.0059356689453125
1686427007425357600,0.127357666015625,-0.762725830078125,-0.6889495849609375,0.0199432373046875
1686427007435303400,0.137303466796875,-0.76397705078125,-0.6862030029296875,0.036224365234375
1686427007445248500,0.14724853515625,-0.7548980712890625,-0.6749725341796875,0.0468597412109375
1686427007455193600,0.157193603515625,-0.739227294921875,-0.6624908447265625,0.0469207763671875
1686427007465139700,0.1671396484375,-0.7313232421875,-0.6543121337890625,0.0340118408203125
1686427007475084500,0.17708447265625,-0.733978271484375,-0.6555633544921875,0.0188140869140625
1686427007485029400,0.187029296875,-0.7367095947265625,-0.6527252197265625,0.0108184814453125
1686427007494975500,0.1969755859375,-0.7404327392578125,-0.6395263671875,0.007843017578125
1686427007504920600,0.206920654296875,-0.7387847900390625,-0.629974365234375,-0.0000152587890625
1686427007514865700,0.21686572265625,-0.738189697265625,-0.641571044921875,-0.0062255859375
1686427007524811500,0.2268115234375,-0.726837158203125,-0.6575469970703125,0.0061187744140625
1686427007534756600,0.236756591796875,-0.7021026611328125,-0.65435791015625,0.034637451171875
1686427007544701700,0.24670166015625,-0.6851043701171875,-0.6436309814453125,0.0724029541015625
1686427007554647600,0.2566474609375,-0.67144775390625,-0.6324615478515625,0.10113525390625
1686427007564592600,0.266592529296875,-0.664825439453125,-0.621826171875,0.1105194091796875
1686427007574537500,0.276537353515625,-0.6677398681640625,-0.5927581787109375,0.13134765625
1686427007584483600,0.286483642578125,-0.6719970703125,-0.6019439697265625,0.1273193359375
1686427007594428400,0.296428466796875,-0.673736572265625,-0.6454620361328125,0.0842742919921875
1686427007604373500,0.30637353515625,-0.68597412109375,-0.6767730712890625,0.049468994140625
1686427007614319600,0.316319580078125,-0.700775146484375,-0.6783905029296875,0.032012939453125
1686427007624264400,0.326264404296875,-0.7035675048828125,-0.6674041748046875,0.02581787109375
1686427007634209500,0.33620947265625,-0.69842529296875,-0.6538543701171875,0.03179931640625
1686427007644155400,0.3461552734375,-0.69580078125,-0.63470458984375,0.0465087890625
1686427007654100700,0.356100830078125,-0.7021942138671875,-0.6339111328125,0.056304931640625
1686427007664045600,0.366045654296875,-0.7083282470703125,-0.64752197265625,0.0569000244140625
1686427007673991400,0.375991455078125,-0.693756103515625,-0.6492767333984375,0.0622711181640625
1686427007683936500,0.3859365234375,-0.68414306640625,-0.6673736572265625,0.065887451171875
1686427007693881600,0.395881591796875,-0.684661865234375,-0.6945648193359375,0.0619659423828125
1686427007703827700,0.40582763671875,-0.69915771484375,-0.684356689453125,0.082275390625
1686427007713772500,0.4157724609375,-0.7147216796875,-0.6587677001953125,0.1072235107421875
1686427007723717400,0.42571728515625,-0.7285308837890625,-0.6528472900390625,0.10748291015625
1686427007733663500,0.43566357421875,-0.72662353515625,-0.65374755859375,0.0962982177734375
1686427007743609000,0.445609130859375,-0.7216949462890625,-0.651824951171875,0.065887451171875
1686427007753554200,0.45555419921875,-0.7409515380859375,-0.6545562744140625,0.038665771484375
1686427007763500300,0.465500244140625,-0.75506591796875,-0.65435791015625,0.0317840576171875
1686427007773445000,0.475445068359375,-0.772857666015625,-0.644805908203125,0.0299835205078125
1686427007783390000,0.485389892578125,-0.80706787109375,-0.6400299072265625,0.0409698486328125
1686427007793336000,0.495336181640625,-0.8426513671875,-0.6234588623046875,0.0715484619140625
1686427007803281200,0.50528125,-0.8650970458984375,-0.6051483154296875,0.091400146484375
1686427007813226200,0.515226318359375,-0.8734130859375,-0.6004180908203125,0.0932159423828125
1686427007823172000,0.525172119140625,-0.880950927734375,-0.58709716796875,0.0823211669921875
1686427007833117200,0.5351171875,-0.8802642822265625,-0.577728271484375,0.059539794921875
1686427007843062300,0.545062255859375,-0.8726654052734375,-0.571197509765625,0.046905517578125
1686427007853008100,0.555008056640625,-0.868682861328125,-0.554107666015625,0.05145263671875
1686427007862953200,0.564953125,-0.8630218505859375,-0.5509490966796875,0.05657958984375
1686427007872898000,0.57489794921875,-0.88714599609375,-0.558013916015625,0.063232421875
1686427007882844200,0.58484423828125,-0.9155731201171875,-0.5536956787109375,0.0810546875
1686427007892789200,0.594789306640625,-0.931396484375,-0.5469970703125,0.0968017578125
1686427007902734000,0.604734130859375,-0.9402313232421875,-0.538360595703125,0.1096343994140625
1686427007912680200,0.61468017578125,-0.9441070556640625,-0.5362091064453125,0.11907958984375
1686427007922625000,0.624625,-0.934326171875,-0.5430908203125,0.1272430419921875
1686427007932570000,0.634570068359375,-0.9022979736328125,-0.538726806640625,0.1378631591796875
1686427007942516000,0.644515869140625,-0.8804779052734375,-0.5385589599609375,0.134521484375
1686427007952461300,0.65446142578125,-0.8647613525390625,-0.5363616943359375,0.1339569091796875
1686427007962406100,0.66440625,-0.8547515869140625,-0.5318450927734375,0.129974365234375
1686427007972352000,0.67435205078125,-0.8645477294921875,-0.5340423583984375,0.11578369140625
1686427007982297000,0.684297119140625,-0.874664306640625,-0.528106689453125,0.1162109375
1686427007992242200,0.6942421875,-0.892669677734375,-0.519744873046875,0.1417694091796875
1686427008002188300,0.704188232421875,-0.9022216796875,-0.511199951171875,0.1750946044921875
1686427008012133000,0.714133056640625,-0.9012298583984375,-0.5111083984375,0.1809234619140625
1686427008022078000,0.724077880859375,-0.8970184326171875,-0.5145263671875,0.1770782470703125
1686427008032024000,0.734024169921875,-0.8853302001953125,-0.505950927734375,0.1796112060546875
1686427008041969200,0.74396923828125,-0.8775634765625,-0.5039825439453125,0.1758270263671875
1686427008051914200,0.753914306640625,-0.866455078125,-0.5051116943359375,0.16357421875
1686427008061860000,0.763860107421875,-0.842803955078125,-0.50726318359375,0.158355712890625
1686427008071805200,0.77380517578125,-0.81903076171875,-0.510955810546875,0.156982421875
1686427008081750300,0.783750244140625,-0.8062591552734375,-0.512176513671875,0.16253662109375
1686427008091696000,0.793696044921875,-0.8065643310546875,-0.511962890625,0.1720123291015625
1686427008101641200,0.80364111328125,-0.82086181640625,-0.5154571533203125,0.1863555908203125
1686427008111586000,0.8135859375,-0.8394927978515625,-0.5114593505859375,0.2037506103515625
1686427008121532200,0.8235322265625,-0.8356170654296875,-0.4988250732421875,0.2185821533203125
1686427008131477000,0.83347705078125,-0.8357696533203125,-0.497528076171875,0.212005615234375
1686427008141422000,0.843422119140625,-0.8408660888671875,-0.500030517578125,0.198089599609375
1686427008151368200,0.8533681640625,-0.8397216796875,-0.4957122802734375,0.1970977783203125
1686427008161313000,0.86331298828125,-0.8314971923828125,-0.496063232421875,0.2104339599609375
1686427008171258000,0.873258056640625,-0.81689453125,-0.507659912109375,0.2328033447265625
1686427008181204000,0.883203857421875,-0.8050384521484375,-0.5110015869140625,0.2523345947265625
1686427008191149300,0.8931494140625,-0.801116943359375,-0.5057525634765625,0.2662811279296875
1686427008201094100,0.90309423828125,-0.7930755615234375,-0.504364013671875,0.2681884765625
1686427008211040300,0.913040283203125,-0.7740478515625,-0.50067138671875,0.2630615234375
1686427008220985000,0.922985107421875,-0.7601318359375,-0.4881591796875,0.2578887939453125
1686427008230930200,0.93293017578125,-0.775360107421875,-0.5095367431640625,0.27728271484375
1686427008240876300,0.942876220703125,-0.7884368896484375,-0.4756622314453125,0.2446136474609375
1686427008250821000,0.952821044921875,-0.7818450927734375,-0.42083740234375,0.193817138671875
1686427008260766000,0.962765869140625,-0.806365966796875,-0.4594879150390625,0.2277069091796875
1686427008270712000,0.972712158203125,-0.8103790283203125,-0.4664306640625,0.2801055908203125
1686427008280657200,0.9826572265625,-0.786224365234375,-0.4462432861328125,0.3137969970703125
1686427008290602200,0.992602294921875,-0.76263427734375,-0.443511962890625,0.35400390625
1686427008300548000,1.002548095703125,-0.729339599609375,-0.4574127197265625,0.3930816650390625
1686427008310493200,1.0124931640625,-0.69879150390625,-0.4613189697265625,0.400390625
1686427008320438300,1.022438232421875,-0.6937408447265625,-0.4682464599609375,0.37548828125
1686427008330384100,1.032384033203125,-0.7052764892578125,-0.4839935302734375,0.3470001220703125
1686427008340329200,1.0423291015625,-0.7036285400390625,-0.4967041015625,0.3330535888671875
1686427008350274000,1.052274169921875,-0.696868896484375,-0.502655029296875,0.3448486328125
1686427008360220200,1.06222021484375,-0.6998443603515625,-0.50091552734375,0.3771514892578125
1686427008370165000,1.0721650390625,-0.702484130859375,-0.4955291748046875,0.4018096923828125
1686427008380110000,1.082110107421875,-0.70562744140625,-0.4898223876953125,0.4066009521484375
1686427008390056200,1.09205615234375,-0.7240753173828125,-0.4910888671875,0.409393310546875
1686427008400001000,1.1020009765625,-0.756927490234375,-0.4884796142578125,0.4304351806640625
1686427008409946000,1.111946044921875,-0.765960693359375,-0.4825897216796875,0.4551849365234375
1686427008419892000,1.12189208984375,-0.78192138671875,-0.4831390380859375,0.467498779296875
1686427008429837300,1.13183740234375,-0.79437255859375,-0.4776763916015625,0.47491455078125
1686427008439782100,1.1417822265625,-0.790557861328125,-0.4705657958984375,0.4718780517578125
1686427008449728300,1.151728271484375,-0.7863006591796875,-0.472259521484375,0.452362060546875
1686427008459673000,1.161673095703125,-0.7886199951171875,-0.4749298095703125,0.4465179443359375
1686427008469618200,1.1716181640625,-0.7862701416015625,-0.471282958984375,0.4595947265625
1686427008479564300,1.181564208984375,-0.7665252685546875,-0.457977294921875,0.4792633056640625
1686427008489509000,1.191509033203125,-0.737396240234375,-0.4316253662109375,0.4955902099609375
1686427008499454200,1.2014541015625,-0.7274932861328125,-0.417144775390625,0.4976348876953125
1686427008509400000,1.211400146484375,-0.736968994140625,-0.391448974609375,0.5035400390625
1686427008519345200,1.22134521484375,-0.764068603515625,-0.3415069580078125,0.5159454345703125
1686427008529290200,1.231290283203125,-0.8004913330078125,-0.2745208740234375,0.509796142578125
1686427008539236000,1.241236083984375,-0.813751220703125,-0.22021484375,0.50323486328125
1686427008549181200,1.25118115234375,-0.8126220703125,-0.1910858154296875,0.5148162841796875
1686427008559126000,1.2611259765625,-0.8196868896484375,-0.2114410400390625,0.5551605224609375
1686427008569072000,1.271072021484375,-0.8276824951171875,-0.27239990234375,0.628662109375
1686427008579017200,1.281017333984375,-0.8162078857421875,-0.280914306640625,0.70538330078125
1686427008588962000,1.290962158203125,-0.808502197265625,-0.26171875,0.73345947265625
1686427008598908200,1.300908203125,-0.7820892333984375,-0.2216796875,0.7407379150390625
1686427008608853000,1.31085302734375,-0.7293701171875,-0.1688690185546875,0.74603271484375
1686427008618798300,1.32079833984375,-0.670654296875,-0.133758544921875,0.742523193359375
1686427008628744200,1.330744140625,-0.622528076171875,-0.113739013671875,0.724761962890625
1686427008638689000,1.34068896484375,-0.581451416015625,-0.1030120849609375,0.7017974853515625
1686427008648634000,1.350634033203125,-0.5272674560546875,-0.100311279296875,0.681915283203125
1686427008658580000,1.360580078125,-0.4510650634765625,-0.144805908203125,0.7014617919921875
1686427008668525300,1.370525390625,-0.3727569580078125,-0.1875762939453125,0.7146148681640625
1686427008678470100,1.38047021484375,-0.29302978515625,-0.1832427978515625,0.7064208984375
1686427008688416300,1.390416259765625,-0.2241363525390625,-0.169219970703125,0.6924896240234375
1686427008698361000,1.400361083984375,-0.167022705078125,-0.14794921875,0.6739349365234375
1686427008708306200,1.41030615234375,-0.1286163330078125,-0.106414794921875,0.6684417724609375
1686427008718252300,1.420252197265625,-0.124603271484375,-0.0839080810546875,0.6683807373046875
1686427008728197000,1.430197021484375,-0.097564697265625,-0.0965423583984375,0.652740478515625
1686427008738142200,1.44014208984375,-0.0221405029296875,-0.127777099609375,0.6301116943359375
1686427008748088000,1.450088134765625,0.0465087890625,-0.1662445068359375,0.6189117431640625
1686427008758033200,1.460033203125,0.0894775390625,-0.1433258056640625,0.6257781982421875
1686427008767978200,1.469978271484375,0.14593505859375,-0.0504913330078125,0.66064453125
1686427008777924000,1.479924072265625,0.18621826171875,0.02764892578125,0.7185211181640625
1686427008787869200,1.489869140625,0.18084716796875,0.071380615234375,0.7884063720703125
1686427008797814000,1.49981396484375,0.155609130859375,0.1140594482421875,0.8488616943359375
1686427008807760100,1.509760009765625,0.1161956787109375,0.1760406494140625,0.8732757568359375
1686427008817705200,1.519705322265625,0.103607177734375,0.204803466796875,0.8960723876953125
1686427008827650000,1.529650146484375,0.1235504150390625,0.2133026123046875,0.93853759765625
1686427008837596200,1.53959619140625,0.1823577880859375,0.2281341552734375,0.9987335205078125
1686427008847541000,1.549541015625,0.2589111328125,0.278594970703125,1.0549163818359375
1686427008857486300,1.559486328125,0.300079345703125,0.35528564453125,1.073699951171875
1686427008867432200,1.56943212890625,0.3194732666015625,0.38916015625,1.0974273681640625
1686427008877377000,1.579376953125,0.3670501708984375,0.34942626953125,1.1326751708984375
1686427008887323100,1.5893232421875,0.4393768310546875,0.266204833984375,1.1479339599609375
1686427008897268000,1.59926806640625,0.4806671142578125,0.222015380859375,1.1377716064453125
1686427008907213300,1.60921337890625,0.4983978271484375,0.221649169921875,1.1318206787109375
1686427008917159200,1.6191591796875,0.50244140625,0.174591064453125,1.1446685791015625
1686427008927104300,1.629104248046875,0.4644622802734375,0.1200408935546875,1.1940155029296875
1686427008937049000,1.639049072265625,0.3963470458984375,0.1069488525390625,1.2975616455078125
1686427008946995200,1.6489951171875,0.3121490478515625,0.1133270263671875,1.4082794189453125
1686427008956940300,1.658940185546875,0.2191009521484375,0.1172943115234375,1.486846923828125
1686427008966885000,1.668885009765625,0.1570587158203125,0.089630126953125,1.5546417236328125
1686427008976831200,1.678831298828125,0.1520233154296875,-0.0197296142578125,1.6333465576171875
1686427008986776000,1.688776123046875,0.2061920166015625,-0.1195831298828125,1.6829376220703125
1686427008996721200,1.69872119140625,0.315521240234375,-0.1881256103515625,1.7219696044921875
1686427009006667300,1.708667236328125,0.41339111328125,-0.274871826171875,1.742828369140625
1686427009016612000,1.718612060546875,0.4833526611328125,-0.325469970703125,1.715911865234375
1686427009026557200,1.72855712890625,0.5185699462890625,-0.313995361328125,1.6566314697265625
1686427009036503000,1.7385029296875,0.520660400390625,-0.3160552978515625,1.5816192626953125
1686427009046448000,1.7484482421875,0.503143310546875,-0.3128204345703125,1.4945068359375
1686427009056393200,1.758393310546875,0.4842987060546875,-0.2817840576171875,1.4304656982421875
1686427009066339300,1.76833935546875,0.5069122314453125,-0.2067413330078125,1.3475494384765625
1686427009076284200,1.7782841796875,0.52081298828125,-0.1002349853515625,1.2644500732421875
1686427009086229000,1.78822900390625,0.5812225341796875,0.0384674072265625,1.2048187255859375
1686427009096175000,1.798175048828125,0.8025665283203125,0.13128662109375,1.140380859375
1686427009106120200,1.8081201171875,0.731201171875,0.133148193359375,1.075775146484375
1686427009116065000,1.81806494140625,0.424346923828125,0.129058837890625,1.0062408447265625
1686427009126011100,1.82801123046875,0.2075958251953125,0.2953643798828125,0.9662628173828125
1686427009135956000,1.8379560546875,0.25634765625,0.417633056640625,0.9286956787109375
1686427009145901300,1.8479013671875,0.1843109130859375,0.3983306884765625,0.859039306640625
1686427009155847200,1.85784716796875,0.1031036376953125,0.3795013427734375,0.7344818115234375
1686427009165792300,1.867792236328125,0.0066986083984375,0.3033905029296875,0.5616302490234375
1686427009175737000,1.877737060546875,-0.0079345703125,0.278594970703125,0.4015960693359375
1686427009185683200,1.88768310546875,0.0611419677734375,0.3572998046875,0.49700927734375
1686427009195628300,1.897628173828125,0.0118408203125,0.4076995849609375,0.6824493408203125
1686427009205573000,1.907572998046875,-0.0749359130859375,0.4064483642578125,0.8216705322265625
1686427009215519200,1.917519287109375,-0.0798187255859375,0.451202392578125,0.92535400390625
1686427009225464000,1.927464111328125,-0.01629638671875,0.4999237060546875,0.9551239013671875
1686427009235409200,1.9374091796875,0.068817138671875,0.4792022705078125,0.8572235107421875
1686427009245355000,1.94735498046875,0.1751708984375,0.4301300048828125,0.7680206298828125
1686427009255300000,1.957300048828125,0.2533416748046875,0.3628997802734375,0.70391845703125
1686427009265246200,1.96724609375,0.3152618408203125,0.3044281005859375,0.699951171875
1686427009275191000,1.97719091796875,0.278717041015625,0.2792510986328125,0.69012451171875
1686427009285136100,1.98713623046875,0.17327880859375,0.300689697265625,0.6486358642578125
1686427009295082000,1.99708203125,0.1336517333984375,0.3981475830078125,0.665496826171875
1686427009305027300,2.00702734375,0.171661376953125,0.555419921875,0.728485107421875
1686427009314972200,2.01697216796875,0.2418365478515625,0.6570587158203125,0.8382720947265625
1686427009324918000,2.02691796875,0.327789306640625,0.65777587890625,0.996826171875
1686427009334863000,2.036863037109375,0.3406829833984375,0.66461181640625,1.1090545654296875
1686427009344808200,2.04680810546875,0.36614990234375,0.58282470703125,1.0693359375
1686427009354754300,2.05675439453125,0.3857269287109375,0.46697998046875,0.9779815673828125
1686427009364699100,2.06669921875,0.32666015625,0.451263427734375,0.889434814453125
1686427009374644000,2.07664404296875,0.2720947265625,0.4912109375,0.88934326171875
1686427009384590000,2.086590087890625,0.2053680419921875,0.593963623046875,0.884490966796875
1686427009394535200,2.09653515625,0.2194976806640625,0.5946502685546875,0.8148193359375
1686427009404480300,2.106480224609375,0.332855224609375,0.57073974609375,0.811279296875
1686427009414426000,2.116426025390625,0.4698333740234375,0.546417236328125,0.8687286376953125
1686427009424371200,2.12637109375,0.58868408203125,0.4141845703125,0.88128662109375
1686427009434316000,2.13631591796875,0.6125946044921875,0.2711334228515625,0.8415069580078125
1686427009444262100,2.14626220703125,0.5395050048828125,0.23699951171875,0.8204193115234375
1686427009454207200,2.156207275390625,0.456390380859375,0.2786865234375,0.8567962646484375
1686427009464152000,2.166152099609375,0.3933258056640625,0.3683624267578125,0.9088592529296875
1686427009474098200,2.17609814453125,0.3780670166015625,0.45428466796875,0.86248779296875
1686427009484043000,2.18604296875,0.4082489013671875,0.4387359619140625,0.63702392578125
1686427009493988000,2.195988037109375,0.3006591796875,0.57696533203125,0.7106475830078125
1686427009503934200,2.205934326171875,0.2241668701171875,0.6045684814453125,0.730255126953125
1686427009513879000,2.215879150390625,0.2591552734375,0.5280914306640625,0.71990966796875
1686427009523824000,2.22582421875,0.3269805908203125,0.5138702392578125,0.7587890625
1686427009533770000,2.23577001953125,0.375701904296875,0.5460662841796875,0.767059326171875
1686427009543715300,2.24571533203125,0.4112091064453125,0.5985565185546875,0.702880859375
1686427009553660200,2.25566015625,0.4456939697265625,0.5809783935546875,0.614013671875
1686427009563606000,2.26560595703125,0.5236358642578125,0.4698486328125,0.5390625
1686427009573551000,2.275551025390625,0.60186767578125,0.2896575927734375,0.564788818359375
1686427009583497000,2.2854970703125,0.6339569091796875,0.250091552734375,0.684661865234375
1686427009593442300,2.2954423828125,0.64947509765625,0.2423858642578125,0.868743896484375
1686427009603387100,2.30538720703125,0.6542510986328125,0.2138824462890625,0.9821319580078125
1686427009613333200,2.315333251953125,0.6410064697265625,0.2479705810546875,0.964019775390625
1686427009623278000,2.325278076171875,0.5747528076171875,0.3161163330078125,0.912628173828125
1686427009633223200,2.33522314453125,0.5468292236328125,0.51641845703125,0.90130615234375
1686427009643169300,2.345169189453125,0.5432281494140625,0.5795135498046875,0.86077880859375
1686427009653114000,2.355114013671875,0.5710296630859375,0.6304931640625,0.8682708740234375
1686427009663059200,2.36505908203125,0.5961761474609375,0.519378662109375,0.7749176025390625
1686427009673005000,2.375005126953125,0.6323089599609375,0.4689483642578125,0.75518798828125
1686427009682950100,2.3849501953125,0.66845703125,0.4492950439453125,0.783203125
1686427009692895200,2.394895263671875,0.6995697021484375,0.401641845703125,0.8630828857421875
1686427009702841000,2.404841064453125,0.72021484375,0.3848114013671875,0.860687255859375
1686427009712786200,2.4147861328125,0.67437744140625,0.3768157958984375,0.8176422119140625
1686427009722731000,2.42473095703125,0.6334075927734375,0.3472900390625,0.8485565185546875
1686427009732677000,2.434677001953125,0.6287689208984375,0.3297119140625,0.8729400634765625
1686427009742622000,2.4446220703125,0.649444580078125,0.31170654296875,0.8468780517578125
1686427009752567000,2.454567138671875,0.675323486328125,0.333953857421875,0.809722900390625
1686427009762513000,2.464512939453125,0.7156219482421875,0.372955322265625,0.7967681884765625
1686427009772458000,2.4744580078125,0.691864013671875,0.34954833984375,0.834381103515625
1686427009782403000,2.484403076171875,0.6862640380859375,0.3593292236328125,0.8614044189453125
1686427009792349200,2.49434912109375,0.70965576171875,0.35247802734375,0.841461181640625
1686427009802294000,2.5042939453125,0.717254638671875,0.2533111572265625,0.821990966796875
1686427009812240100,2.514240234375,0.731781005859375,0.199310302734375,0.7781982421875
1686427009822185000,2.52418505859375,0.655975341796875,0.249481201171875,0.7470245361328125
1686427009832130000,2.534130126953125,0.5060272216796875,0.28094482421875,0.7542877197265625
1686427009842076200,2.544076171875,0.4073944091796875,0.24444580078125,0.750030517578125
1686427009852021000,2.55402099609375,0.3869171142578125,0.1965179443359375,0.7478179931640625
1686427009861966000,2.563966064453125,0.38629150390625,0.112030029296875,0.677825927734375
1686427009871912000,2.573911865234375,0.39044189453125,0.00201416015625,0.6680450439453125
1686427009881857000,2.58385693359375,0.438385009765625,-0.1185150146484375,0.7481689453125
1686427009891802000,2.593802001953125,0.49163818359375,-0.1532440185546875,0.803802490234375
1686427009901748000,2.603748046875,0.5382843017578125,-0.090576171875,0.856781005859375
1686427009911693000,2.613693115234375,0.543548583984375,0.0286407470703125,0.8682403564453125
1686427009921638000,2.623637939453125,0.505401611328125,0.091766357421875,0.830596923828125
1686427009931584000,2.633583984375,0.4955596923828125,0.0658416748046875,0.805877685546875
1686427009941529000,2.643529052734375,0.53643798828125,-0.0028839111328125,0.8258209228515625
1686427009951474000,2.653473876953125,0.51165771484375,-0.0881195068359375,0.84954833984375
1686427009961420000,2.663419921875,0.39849853515625,-0.05999755859375,0.884552001953125
1686427009971364900,2.67336474609375,0.4117279052734375,0.0113525390625,0.8848419189453125
1686427009981310200,2.683310302734375,0.468597412109375,-0.00445556640625,0.8528594970703125
1686427009991256000,2.693256103515625,0.50042724609375,-0.0912628173828125,0.85260009765625
1686427010001201000,2.703200927734375,0.516845703125,-0.071380615234375,0.8332061767578125
1686427010011146000,2.71314599609375,0.5283355712890625,-0.0516815185546875,0.8137969970703125
1686427010021091800,2.723091796875,0.5395965576171875,-0.0543060302734375,0.8177490234375
1686427010031037200,2.733037109375,0.4561767578125,-0.0443878173828125,0.8559417724609375
1686427010040982000,2.74298193359375,0.447509765625,-0.0898590087890625,0.840606689453125
1686427010050928000,2.75292822265625,0.5230560302734375,-0.0895538330078125,0.804473876953125
1686427010060873000,2.762873046875,0.51446533203125,-0.0668182373046875,0.8401031494140625
1686427010070818800,2.77281884765625,0.52386474609375,-0.1560821533203125,0.892608642578125
1686427010080764200,2.78276416015625,0.517974853515625,-0.182159423828125,0.9430694580078125
1686427010090709000,2.792708984375,0.5018157958984375,-0.159088134765625,0.94171142578125
1686427010100655000,2.802655029296875,0.5035400390625,-0.11590576171875,0.9099884033203125
1686427010110600000,2.812599853515625,0.482269287109375,-0.0933990478515625,0.888702392578125
1686427010120545000,2.822544921875,0.4469451904296875,-0.1210479736328125,0.8949737548828125
1686427010130491100,2.8324912109375,0.455535888671875,-0.1635284423828125,0.9048614501953125
1686427010140436000,2.84243603515625,0.4895477294921875,-0.2005767822265625,0.9164276123046875
1686427010150381000,2.852381103515625,0.5052642822265625,-0.2262420654296875,0.9283905029296875
1686427010160327000,2.862326904296875,0.5152740478515625,-0.215240478515625,0.9299163818359375
1686427010170272000,2.87227197265625,0.4896240234375,-0.1876678466796875,0.9347381591796875
1686427010180217000,2.882217041015625,0.4595184326171875,-0.18719482421875,0.940765380859375
1686427010190163200,2.8921630859375,0.4589080810546875,-0.1694183349609375,0.9342041015625
1686427010200108000,2.90210791015625,0.5507965087890625,-0.10162353515625,0.8300323486328125
1686427010210052900,2.912052978515625,0.5631256103515625,-0.138519287109375,0.761260986328125
1686427010219999000,2.9219990234375,0.56524658203125,-0.24420166015625,0.845123291015625
1686427010229944000,2.931944091796875,0.5726165771484375,-0.2908782958984375,0.909942626953125
1686427010239890200,2.94189013671875,0.5597381591796875,-0.26702880859375,0.87603759765625
1686427010249835000,2.9518349609375,0.53875732421875,-0.25189208984375,0.8196258544921875
1686427010259779800,2.96177978515625,0.5408172607421875,-0.2462158203125,0.786956787109375
1686427010269726000,2.971725830078125,0.579315185546875,-0.264862060546875,0.7884979248046875
1686427010279671000,2.981671142578125,0.5528564453125,-0.2277069091796875,0.739715576171875
1686427010289616100,2.9916162109375,0.521759033203125,-0.322235107421875,0.7525634765625
1686427010299562000,3.00156201171875,0.5139923095703125,-0.3506317138671875,0.7738800048828125
1686427010309507000,3.011507080078125,0.519989013671875,-0.3707275390625,0.790802001953125
1686427010319452200,3.0214521484375,0.5464324951171875,-0.4072418212890625,0.779937744140625
1686427010329398000,3.03139794921875,0.565277099609375,-0.37213134765625,0.736236572265625
1686427010339343000,3.041343017578125,0.5455322265625,-0.3387603759765625,0.725372314453125
1686427010349288000,3.051287841796875,0.5024566650390625,-0.40692138671875,0.7229766845703125
1686427010359234000,3.061234130859375,0.481475830078125,-0.4291534423828125,0.76373291015625
1686427010369179100,3.07117919921875,0.5086822509765625,-0.376007080078125,0.76177978515625
1686427010379124000,3.0811240234375,0.49273681640625,-0.3058319091796875,0.6873016357421875
1686427010389070000,3.091070068359375,0.5035247802734375,-0.312225341796875,0.68060302734375
1686427010399015000,3.101014892578125,0.50433349609375,-0.318084716796875,0.650970458984375
1686427010408960000,3.1109599609375,0.5264892578125,-0.3872222900390625,0.665130615234375
1686427010418905900,3.12090576171875,0.4872283935546875,-0.361083984375,0.7114410400390625
1686427010428851200,3.130851318359375,0.4238739013671875,-0.357879638671875,0.749176025390625
1686427010438797000,3.140797119140625,0.3860931396484375,-0.363433837890625,0.7644500732421875
1686427010448742000,3.150741943359375,0.389739990234375,-0.4058380126953125,0.7607574462890625
1686427010458687000,3.16068701171875,0.476715087890625,-0.4152679443359375,0.795440673828125
1686427010468632800,3.1706328125,0.4942779541015625,-0.30670166015625,0.844757080078125
1686427010478578200,3.180578125,0.5076751708984375,-0.358917236328125,0.857879638671875
1686427010488523000,3.19052294921875,0.6305999755859375,-0.3257293701171875,0.876251220703125
1686427010498469000,3.20046923828125,0.668365478515625,-0.300140380859375,0.8304901123046875
1686427010508414000,3.2104140625,0.592376708984375,-0.2993927001953125,0.761322021484375
1686427010518359000,3.220359130859375,0.47943115234375,-0.3204498291015625,0.6889801025390625
1686427010528305200,3.23030517578125,0.485504150390625,-0.2847747802734375,0.6354217529296875
1686427010538250000,3.24025,0.5126800537109375,-0.299102783203125,0.6158447265625
1686427010548195000,3.250195068359375,0.552947998046875,-0.35107421875,0.6426239013671875
1686427010558141000,3.260140869140625,0.5799560546875,-0.32470703125,0.679962158203125
1686427010568086000,3.2700859375,0.5891876220703125,-0.28839111328125,0.696197509765625
1686427010578031000,3.280031005859375,0.5759124755859375,-0.2650909423828125,0.67938232421875
1686427010587977000,3.28997705078125,0.4641571044921875,-0.2736663818359375,0.6659393310546875
1686427010597922000,3.299922119140625,0.5172882080078125,-0.226165771484375,0.6682586669921875
1686427010607868000,3.309867919921875,0.6558837890625,-0.1603546142578125,0.6556396484375
1686427010617813000,3.31981298828125,0.69525146484375,-0.1598663330078125,0.616546630859375
1686427010627758000,3.329758056640625,0.7042236328125,-0.1212615966796875,0.584381103515625
1686427010637704200,3.3397041015625,0.626922607421875,-0.125091552734375,0.568328857421875
1686427010647649000,3.34964892578125,0.56634521484375,-0.416473388671875,0.6329498291015625
1686427010657593900,3.35959375,0.5329132080078125,-0.577911376953125,0.706329345703125
1686427010667540000,3.3695400390625,0.53961181640625,-0.60076904296875,0.749298095703125
1686427010677485000,3.379485107421875,0.595916748046875,-0.521331787109375,0.785980224609375
1686427010687430000,3.389429931640625,0.5951385498046875,-0.4321746826171875,0.79644775390625
1686427010697376000,3.3993759765625,0.6319580078125,-0.301727294921875,0.7764739990234375
1686427010707320800,3.40932080078125,0.7893829345703125,-0.161285400390625,0.7800140380859375
1686427010717266200,3.41926611328125,0.8846435546875,-0.121612548828125,0.85931396484375
1686427010727212000,3.4292119140625,0.8310089111328125,-0.1964874267578125,0.8489990234375
1686427010737157000,3.4391572265625,0.7585906982421875,-0.3142547607421875,0.870758056640625
1686427010747102500,3.4491025390625,0.7156219482421875,-0.2869720458984375,0.8374481201171875
1686427010757047600,3.459047607421875,0.7244720458984375,-0.1967315673828125,0.768798828125
1686427010766992600,3.46899267578125,0.711578369140625,-0.110260009765625,0.719451904296875
1686427010776938800,3.478938720703125,0.6947479248046875,-0.0853424072265625,0.67266845703125
1686427010786883600,3.488883544921875,0.6139373779296875,-0.1485443115234375,0.665313720703125
1686427010796828400,3.498828369140625,0.4680328369140625,-0.1949615478515625,0.6473541259765625
1686427010806774500,3.5087744140625,0.6051483154296875,-0.255157470703125,0.596221923828125
1686427010816719600,3.5187197265625,0.74334716796875,-0.337554931640625,0.64324951171875
1686427010826664400,3.52866455078125,0.786956787109375,-0.4065093994140625,0.662445068359375
1686427010836610600,3.538610595703125,0.749542236328125,-0.43951416015625,0.6745758056640625
1686427010846555400,3.548555419921875,0.7327423095703125,-0.3320159912109375,0.6379547119140625
1686427010856500700,3.558500732421875,0.6868743896484375,-0.2931976318359375,0.6408843994140625
1686427010866446600,3.568446533203125,0.60369873046875,-0.3693084716796875,0.7357635498046875
1686427010876391700,3.5783916015625,0.6056671142578125,-0.4378204345703125,0.6631622314453125
1686427010886336500,3.58833642578125,0.6718292236328125,-0.4068756103515625,0.6073760986328125
1686427010896282600,3.59828271484375,0.693878173828125,-0.378387451171875,0.634918212890625
1686427010906227700,3.608227783203125,0.677734375,-0.3942108154296875,0.6776123046875
1686427010916173600,3.618173583984375,0.696807861328125,-0.3725433349609375,0.6876983642578125
1686427010926118700,3.62811865234375,0.7009429931640625,-0.349151611328125,0.701507568359375
1686427010936063500,3.6380634765625,0.684356689453125,-0.3360595703125,0.71392822265625
1686427010946009600,3.648009521484375,0.693389892578125,-0.3088226318359375,0.715484619140625
1686427010955954400,3.657954345703125,0.7103271484375,-0.302520751953125,0.6962432861328125
1686427010965899500,3.6678994140625,0.7002410888671875,-0.2976837158203125,0.664459228515625
1686427010975845600,3.677845703125,0.6850738525390625,-0.2749176025390625,0.6349639892578125
1686427010985790500,3.68779052734375,0.6730804443359375,-0.24658203125,0.6265106201171875
1686427010995735600,3.697735595703125,0.6541748046875,-0.247039794921875,0.6536102294921875
1686427011005681400,3.707681396484375,0.6528472900390625,-0.369781494140625,0.6788330078125
1686427011015626800,3.717626708984375,0.6900177001953125,-0.4995574951171875,0.6508636474609375
1686427011025571600,3.727571533203125,0.6277618408203125,-0.368011474609375,0.612579345703125
1686427011035517400,3.737517333984375,0.68792724609375,-0.34295654296875,0.634613037109375
1686427011045462500,3.747462646484375,0.733612060546875,-0.293731689453125,0.679412841796875
1686427011055408400,3.757408447265625,0.691070556640625,-0.2643585205078125,0.7274932861328125
1686427011065353700,3.767353759765625,0.698699951171875,-0.325439453125,0.7344207763671875
1686427011075298600,3.777298583984375,0.6998138427734375,-0.39459228515625,0.6678619384765625
1686427011085244700,3.78724462890625,0.632843017578125,-0.426239013671875,0.5847930908203125
1686427011095189500,3.797189453125,0.5969696044921875,-0.4183502197265625,0.5458984375
1686427011105134600,3.807134521484375,0.61907958984375,-0.38519287109375,0.5357513427734375
1686427011115080700,3.817080810546875,0.6689605712890625,-0.3293304443359375,0.5535888671875
1686427011125025500,3.827025634765625,0.6921844482421875,-0.29248046875,0.6036224365234375
1686427011134970600,3.836970703125,0.70916748046875,-0.3104248046875,0.635467529296875
1686427011144916500,3.84691650390625,0.7026519775390625,-0.33428955078125,0.6536102294921875
1686427011154861600,3.856861572265625,0.685211181640625,-0.345550537109375,0.659027099609375
1686427011164806700,3.866806640625,0.667266845703125,-0.353759765625,0.6673431396484375
1686427011174752500,3.87675244140625,0.6534881591796875,-0.3155670166015625,0.6928863525390625
1686427011184697600,3.886697509765625,0.6319427490234375,-0.2144927978515625,0.7170257568359375
1686427011194643500,3.8966435546875,0.625091552734375,-0.1648101806640625,0.7023162841796875
1686427011204588500,3.906588623046875,0.6333770751953125,-0.180938720703125,0.6634674072265625
1686427011214533600,3.91653369140625,0.6495819091796875,-0.2408905029296875,0.645050048828125
1686427011224479700,3.926479736328125,0.655059814453125,-0.30621337890625,0.6265411376953125
1686427011234424600,3.936424560546875,0.6705474853515625,-0.317138671875,0.618499755859375
1686427011244369400,3.946369384765625,0.715545654296875,-0.292388916015625,0.609527587890625
1686427011254315500,3.9563154296875,0.78515625,-0.2370758056640625,0.592437744140625
1686427011264260600,3.966260498046875,0.8677215576171875,-0.1930084228515625,0.5418853759765625
1686427011274205400,3.976205322265625,0.921173095703125,-0.1259002685546875,0.5621185302734375
1686427011284151600,3.986151611328125,0.964508056640625,-0.0555267333984375,0.60076904296875
1686427011294096400,3.996096435546875,0.8694610595703125,-0.0096435546875,0.6436767578125
1686427011304041700,4.006041748046875,0.841583251953125,0.0431671142578125,0.6747283935546875
1686427011313987600,4.015987548828125,0.7341461181640625,-0.0715789794921875,0.6375732421875
1686427011323932700,4.0259326171875,0.6759185791015625,-0.1546630859375,0.5883331298828125
1686427011333878500,4.03587841796875,0.733917236328125,-0.12310791015625,0.61029052734375
1686427011343823600,4.04582373046875,0.7801666259765625,-0.1226348876953125,0.659912109375
1686427011353768700,4.055768798828125,0.78472900390625,-0.1580963134765625,0.6690216064453125
1686427011363714600,4.065714599609375,0.7764739990234375,-0.2145538330078125,0.6520538330078125
1686427011373659600,4.07565966796875,0.7762603759765625,-0.2055816650390625,0.659393310546875
1686427011383604500,4.0856044921875,0.785430908203125,-0.1896209716796875,0.646453857421875
1686427011393550600,4.095550537109375,0.7727508544921875,-0.183135986328125,0.645965576171875
1686427011403495400,4.105495361328125,0.7800750732421875,-0.1439056396484375,0.6552276611328125
1686427011413440500,4.1154404296875,0.7548065185546875,-0.149444580078125,0.6454620361328125
1686427011423386600,4.12538671875,0.7789459228515625,-0.1132965087890625,0.6643524169921875
1686427011433331500,4.13533154296875,0.7567291259765625,-0.0784759521484375,0.6726226806640625
1686427011443276500,4.145276611328125,0.747283935546875,-0.092559814453125,0.6450042724609375
1686427011453222400,4.155222412109375,0.7852630615234375,-0.099609375,0.6134796142578125
1686427011463167700,4.165167724609375,0.806304931640625,-0.09783935546875,0.622833251953125
1686427011473113600,4.175113525390625,0.8522796630859375,-0.0972900390625,0.6383819580078125
1686427011483058400,4.185058349609375,0.8786773681640625,-0.19793701171875,0.6186981201171875
1686427011493003500,4.19500341796875,0.791717529296875,-0.2794952392578125,0.5929412841796875
1686427011502949400,4.204949462890625,0.8204193115234375,-0.2920074462890625,0.584625244140625
1686427011512894700,4.214894775390625,0.797698974609375,-0.2760162353515625,0.604949951171875
1686427011522839600,4.224839599609375,0.6956787109375,-0.2517242431640625,0.627899169921875
1686427011532785700,4.23478564453125,0.6352691650390625,-0.2049713134765625,0.6418609619140625
1686427011542730500,4.24473046875,0.64776611328125,-0.223541259765625,0.61334228515625
1686427011552675600,4.254675537109375,0.6640777587890625,-0.228118896484375,0.651397705078125
1686427011562621700,4.26462158203125,0.694915771484375,-0.18695068359375,0.70916748046875
1686427011572566500,4.27456640625,0.6788482666015625,-0.170257568359375,0.7118682861328125
1686427011582512600,4.2845126953125,0.681060791015625,-0.1994171142578125,0.652252197265625
1686427011592457500,4.29445751953125,0.74737548828125,-0.1772613525390625,0.608734130859375
1686427011602402600,4.304402587890625,0.793853759765625,-0.1327972412109375,0.583831787109375
1686427011612348700,4.3143486328125,0.795867919921875,-0.1259918212890625,0.5682373046875
1686427011622293500,4.32429345703125,0.7559661865234375,-0.1640625,0.56353759765625
1686427011632238600,4.334238525390625,0.69647216796875,-0.1456146240234375,0.5936126708984375
1686427011642184400,4.344184326171875,0.703826904296875,-0.1633453369140625,0.5792694091796875
1686427011652129500,4.354129638671875,0.7200775146484375,-0.197723388671875,0.5873565673828125
1686427011662074600,4.36407470703125,0.7309417724609375,-0.18115234375,0.613983154296875
1686427011672020700,4.374020751953125,0.75482177734375,-0.1531829833984375,0.6242828369140625
1686427011681965600,4.383965576171875,0.7675323486328125,-0.140899658203125,0.6785736083984375
1686427011691911400,4.393911376953125,0.786041259765625,-0.1480255126953125,0.658416748046875
1686427011701856500,4.4038564453125,0.77984619140625,-0.1748046875,0.664794921875
1686427011711801600,4.413801513671875,0.7716217041015625,-0.1611785888671875,0.689361572265625
1686427011721747700,4.423747802734375,0.776947021484375,-0.1511688232421875,0.635162353515625
1686427011731692500,4.433692626953125,0.761444091796875,-0.10699462890625,0.6256103515625
1686427011741637400,4.443637451171875,0.7339630126953125,-0.0967254638671875,0.644744873046875
1686427011751583500,4.45358349609375,0.721038818359375,-0.113677978515625,0.626434326171875
1686427011761528800,4.46352880859375,0.7266693115234375,-0.1037139892578125,0.6300201416015625
1686427011771473700,4.4734736328125,0.741912841796875,-0.1393585205078125,0.593017578125
1686427011781419800,4.483419677734375,0.75823974609375,-0.1245269775390625,0.6404876708984375
1686427011791364600,4.493364501953125,0.7757568359375,-0.1106719970703125,0.644866943359375
1686427011801310700,4.503310791015625,0.7842559814453125,-0.0937042236328125,0.6387786865234375
1686427011811255800,4.513255859375,0.7705841064453125,-0.114990234375,0.61981201171875
1686427011821200600,4.52320068359375,0.7579803466796875,-0.144378662109375,0.6019134521484375
1686427011831146800,4.533146728515625,0.792205810546875,-0.1036224365234375,0.6826019287109375
1686427011841091600,4.543091552734375,0.809112548828125,-0.0912017822265625,0.6749420166015625
1686427011851036700,4.55303662109375,0.8192901611328125,-0.0890350341796875,0.650726318359375
1686427011860982800,4.562982666015625,0.780303955078125,-0.1357879638671875,0.593475341796875
1686427011870927600,4.572927734375,0.7447357177734375,-0.090667724609375,0.67364501953125
1686427011880872700,4.582872802734375,0.78826904296875,-0.00531005859375,0.631988525390625
1686427011890818600,4.592818603515625,0.7860107421875,0.002960205078125,0.5982818603515625
1686427011900763600,4.602763671875,0.7528228759765625,-0.034942626953125,0.5767974853515625
1686427011910709500,4.61270947265625,0.7208709716796875,-0.0484466552734375,0.5578460693359375
1686427011920654800,4.62265478515625,0.7257537841796875,-0.06561279296875,0.570892333984375
1686427011930599700,4.632599609375,0.7534027099609375,-0.0460052490234375,0.564361572265625
1686427011940545800,4.6425458984375,0.7678680419921875,-0.0529022216796875,0.5490875244140625
1686427011950490600,4.65249072265625,0.7511749267578125,-0.0745086669921875,0.5571441650390625
1686427011960435700,4.662435791015625,0.7384490966796875,-0.05499267578125,0.57086181640625
1686427011970381800,4.6723818359375,0.7432708740234375,-0.0212860107421875,0.590850830078125
1686427011980326700,4.68232666015625,0.751251220703125,-0.014373779296875,0.6127166748046875
1686427011990271500,4.692271484375,0.7679901123046875,-0.00286865234375,0.62066650390625
1686427012000217600,4.702217529296875,0.777801513671875,0.01910400390625,0.609283447265625
1686427012010162700,4.71216259765625,0.763336181640625,0.0061492919921875,0.5777435302734375
1686427012020107800,4.722107666015625,0.74945068359375,0.0155029296875,0.569244384765625
1686427012030053600,4.7320537109375,0.744781494140625,0.0049285888671875,0.5626678466796875
1686427012039998700,4.741998779296875,0.7904510498046875,0.00128173828125,0.5331268310546875
1686427012049944600,4.751944580078125,0.85418701171875,-0.0219573974609375,0.568359375
1686427012059890000,4.761889892578125,0.933197021484375,0.0296478271484375,0.5822906494140625
1686427012069834800,4.771834716796875,1.0817718505859375,0.120269775390625,0.60003662109375
1686427012079780600,4.781780517578125,1.0868988037109375,0.074127197265625,0.5789031982421875
1686427012089725700,4.7917255859375,0.9379730224609375,-0.0231475830078125,0.5316925048828125
1686427012099670500,4.80167041015625,0.814117431640625,-0.0304412841796875,0.5362396240234375
1686427012109616600,4.81161669921875,0.872314453125,-0.029205322265625,0.5652008056640625
1686427012119561700,4.821561767578125,0.8839874267578125,-0.0317230224609375,0.5852813720703125
1686427012129506600,4.831506591796875,0.89910888671875,-0.0857696533203125,0.54296875
1686427012139452700,4.84145263671875,0.877532958984375,-0.1361236572265625,0.518157958984375
1686427012149397500,4.8513974609375,0.8329315185546875,-0.1632537841796875,0.5236663818359375
1686427012159343600,4.861343505859375,0.825225830078125,-0.1372222900390625,0.53411865234375
1686427012169288700,4.871288818359375,0.8636932373046875,-0.092376708984375,0.5400848388671875
1686427012179233800,4.88123388671875,0.8994293212890625,-0.0806732177734375,0.528900146484375
1686427012189179600,4.8911796875,0.898529052734375,-0.17596435546875,0.5219268798828125
1686427012199124500,4.90112451171875,0.7758026123046875,-0.309722900390625,0.528076171875
1686427012209069800,4.91106982421875,0.817962646484375,-0.1913299560546875,0.543365478515625
1686427012219015700,4.921015625,0.8804473876953125,-0.1505889892578125,0.5583038330078125
1686427012228960800,4.930960693359375,0.8276824951171875,-0.0752716064453125,0.5467681884765625
1686427012238905600,4.940905517578125,0.808258056640625,-0.091552734375,0.4998016357421875
1686427012248851700,4.950851806640625,0.875457763671875,-0.0327301025390625,0.4812164306640625
1686427012258796800,4.960796875,0.9011688232421875,-0.0723419189453125,0.4318389892578125
1686427012268743000,4.970742919921875,0.9008941650390625,-0.179229736328125,0.5128173828125
1686427012278687700,4.980687744140625,0.8518829345703125,-0.2934417724609375,0.618621826171875
1686427012288632600,4.990632568359375,0.7664031982421875,-0.3258514404296875,0.610107421875
1686427012298578700,5.00057861328125,0.7845306396484375,-0.2018585205078125,0.562042236328125
1686427012308523800,5.010523681640625,0.86553955078125,-0.24609375,0.5278472900390625
1686427012318468600,5.020468505859375,0.7940673828125,-0.251068115234375,0.5435333251953125
1686427012328414700,5.030414794921875,0.7974395751953125,-0.178680419921875,0.5463409423828125
1686427012338359600,5.040359619140625,0.838287353515625,-0.20367431640625,0.5642547607421875
1686427012348304600,5.0503046875,0.8042144775390625,-0.15130615234375,0.58917236328125
1686427012358250500,5.06025048828125,0.7828216552734375,-0.135223388671875,0.57476806640625
1686427012368195800,5.07019580078125,0.7618865966796875,-0.1800537109375,0.5625
1686427012378141700,5.0801416015625,0.7095947265625,-0.213165283203125,0.5431976318359375
1686427012388086800,5.090086669921875,0.7165985107421875,-0.23260498046875,0.5272064208984375
1686427012398031600,5.100031494140625,0.7606048583984375,-0.233856201171875,0.5491943359375
1686427012407977500,5.1099775390625,0.7801361083984375,-0.2537994384765625,0.5664825439453125
1686427012417922800,5.1199228515625,0.7730865478515625,-0.312347412109375,0.5621490478515625
1686427012427867600,5.12986767578125,0.78680419921875,-0.371185302734375,0.54736328125
1686427012437813800,5.139813720703125,0.800933837890625,-0.4324798583984375,0.5200347900390625
1686427012447758600,5.149758544921875,0.777618408203125,-0.406158447265625,0.5379180908203125
1686427012457704700,5.15970458984375,0.7144012451171875,-0.3023529052734375,0.6057891845703125
1686427012467649800,5.16964990234375,0.700469970703125,-0.1208953857421875,0.62945556640625
1686427012477594600,5.1795947265625,0.75665283203125,-0.0836029052734375,0.61102294921875
1686427012487540700,5.189540771484375,0.80938720703125,0.0367279052734375,0.616912841796875
1686427012497485600,5.199485595703125,0.8592071533203125,0.0589752197265625,0.673828125
1686427012507431000,5.209430908203125,0.8429107666015625,0.05615234375,0.7086639404296875
1686427012517376800,5.219376708984375,0.8302764892578125,-0.0237274169921875,0.708770751953125
1686427012527321600,5.229321533203125,0.792510986328125,0.013153076171875,0.7095489501953125
1686427012537266700,5.2392666015625,0.7452239990234375,0.007568359375,0.71209716796875
1686427012547212500,5.249212646484375,0.7133636474609375,0.00872802734375,0.6683502197265625
1686427012557157600,5.25915771484375,0.73797607421875,-0.0568389892578125,0.61328125
1686427012567103700,5.269103759765625,0.774169921875,-0.11993408203125,0.5934600830078125
1686427012577048800,5.279048828125,0.765594482421875,-0.1917877197265625,0.6011962890625
1686427012586993700,5.28899365234375,0.7559661865234375,-0.1931915283203125,0.609527587890625
1686427012596939800,5.298939697265625,0.761505126953125,-0.1289520263671875,0.60736083984375
1686427012606884600,5.308884521484375,0.7756805419921875,-0.0588836669921875,0.6074371337890625
1686427012616829700,5.31882958984375,0.75048828125,-0.1065826416015625,0.61627197265625
1686427012626775800,5.32877587890625,0.763916015625,-0.122589111328125,0.64288330078125
1686427012636720600,5.338720703125,0.749267578125,-0.0494537353515625,0.6364593505859375
1686427012646665500,5.34866552734375,0.733184814453125,-0.0060882568359375,0.6265869140625
1686427012656611600,5.358611572265625,0.7335205078125,0.022918701171875,0.6762237548828125
1686427012666556700,5.368556640625,0.7328033447265625,0.0109405517578125,0.6934051513671875
1686427012676502800,5.378502685546875,0.7160491943359375,0.0021209716796875,0.7086181640625
1686427012686447600,5.388447509765625,0.707061767578125,-0.0620574951171875,0.7115325927734375
1686427012696392700,5.398392822265625,0.6933746337890625,-0.033538818359375,0.7083892822265625
1686427012706338600,5.408338623046875,0.6568450927734375,-0.0356292724609375,0.7027130126953125
1686427012716284000,5.418283935546875,0.6554412841796875,0.050018310546875,0.7206878662109375
1686427012726228700,5.428228759765625,0.69549560546875,0.0721893310546875,0.73260498046875
1686427012736174600,5.438174560546875,0.73883056640625,0.1143646240234375,0.7475433349609375
1686427012746120000,5.448119873046875,0.7569580078125,0.1166534423828125,0.7505340576171875
1686427012756066000,5.458066162109375,0.752227783203125,0.067047119140625,0.73468017578125
1686427012766011000,5.468010986328125,0.732818603515625,0.0906219482421875,0.7221527099609375
1686427012775956000,5.4779560546875,0.7426605224609375,0.0872344970703125,0.700836181640625
1686427012785902000,5.487902099609375,0.7141571044921875,0.148101806640625,0.704681396484375
1686427012795847000,5.497846923828125,0.73663330078125,0.17401123046875,0.6058349609375
1686427012805792000,5.5077919921875,0.71734619140625,0.1735076904296875,0.5621795654296875
1686427012815737900,5.51773779296875,0.6616058349609375,0.179290771484375,0.5715484619140625
1686427012825683200,5.52768310546875,0.703521728515625,0.0253448486328125,0.5834808349609375
1686427012835628000,5.5376279296875,0.762969970703125,-0.128570556640625,0.614227294921875
1686427012845574000,5.547573974609375,0.7736663818359375,-0.0698394775390625,0.716094970703125
1686427012855519000,5.55751904296875,0.78900146484375,-0.0067138671875,0.8029937744140625
1686427012865464800,5.56746484375,0.793060302734375,0.03900146484375,0.80926513671875
1686427012875410200,5.57741015625,0.773406982421875,0.0384674072265625,0.741729736328125
1686427012885355000,5.58735498046875,0.735992431640625,0.011627197265625,0.68475341796875
1686427012895301000,5.597301025390625,0.7178802490234375,-0.025543212890625,0.634307861328125
1686427012905246000,5.607245849609375,0.6991119384765625,-0.0551300048828125,0.6254425048828125
1686427012915191000,5.61719091796875,0.6800384521484375,-0.05841064453125,0.638427734375
1686427012925137200,5.62713720703125,0.677398681640625,-0.0066680908203125,0.671875
1686427012935082000,5.63708203125,0.6959381103515625,0.038116455078125,0.6800384521484375
1686427012945028000,5.647028076171875,0.7092132568359375,0.040924072265625,0.6768951416015625
1686427012954973000,5.656972900390625,0.717193603515625,0.04150390625,0.677886962890625
1686427012964918000,5.66691796875,0.7365570068359375,0.0173187255859375,0.6732025146484375
1686427012974864100,5.676864013671875,0.77880859375,0,0.6703338623046875
1686427012984809000,5.68680908203125,0.7944488525390625,0.0185546875,0.6751708984375
1686427012994754000,5.696754150390625,0.781646728515625,0.0507659912109375,0.680084228515625
1686427013004700000,5.706699951171875,0.7391357421875,0.0478668212890625,0.7059173583984375
1686427013014645000,5.71664501953125,0.71771240234375,0.0284881591796875,0.7306671142578125
1686427013024590800,5.7265908203125,0.7190399169921875,0.0231781005859375,0.7178955078125
1686427013034536200,5.7365361328125,0.7035980224609375,0.01806640625,0.7088165283203125
1686427013044481000,5.74648095703125,0.7029876708984375,0.0078125,0.703216552734375
1686427013054427000,5.756427001953125,0.703125,-0.0289154052734375,0.7025909423828125
1686427013064372000,5.7663720703125,0.7427520751953125,-0.0081634521484375,0.7227783203125
1686427013074317000,5.776317138671875,0.78704833984375,-0.00390625,0.723480224609375
1686427013084263200,5.78626318359375,0.7675018310546875,-0.048583984375,0.691375732421875
1686427013094208000,5.7962080078125,0.706695556640625,-0.08099365234375,0.660400390625
1686427013104154000,5.806154052734375,0.664794921875,-0.10540771484375,0.692535400390625
1686427013114099000,5.816098876953125,0.656707763671875,-0.1230010986328125,0.722869873046875
1686427013124044000,5.8260439453125,0.6630706787109375,-0.13104248046875,0.7357330322265625
1686427013133990100,5.835990234375,0.6753692626953125,-0.1431427001953125,0.7540740966796875
1686427013143935000,5.84593505859375,0.69732666015625,-0.12933349609375,0.758331298828125
1686427013153880000,5.855880126953125,0.7217254638671875,-0.0379791259765625,0.73626708984375
1686427013163826000,5.865825927734375,0.718109130859375,0.00616455078125,0.7330322265625
1686427013173771000,5.87577099609375,0.705535888671875,-0.0041351318359375,0.7379608154296875
1686427013183716000,5.885716064453125,0.7020111083984375,-0.004180908203125,0.7171783447265625
1686427013193662000,5.895661865234375,0.71868896484375,0.0152130126953125,0.700714111328125
1686427013203607000,5.90560693359375,0.714385986328125,0.0154571533203125,0.69744873046875
1686427013213553000,5.915552978515625,0.700927734375,0.025238037109375,0.687408447265625
1686427013223498000,5.925498046875,0.6893310546875,0.0269775390625,0.683197021484375
1686427013233443000,5.935443115234375,0.68353271484375,0.021331787109375,0.685028076171875
1686427013243389200,5.94538916015625,0.6771240234375,0.01397705078125,0.687347412109375
1686427013253334000,5.955333984375,0.672271728515625,0.0114898681640625,0.689849853515625
1686427013263278800,5.96527880859375,0.66845703125,0.0105438232421875,0.7042999267578125
1686427013273225000,5.975224853515625,0.6814727783203125,0.0056304931640625,0.711395263671875
1686427013283170000,5.985170166015625,0.69573974609375,0.001739501953125,0.7198028564453125
1686427013293116200,5.9951162109375,0.6991424560546875,-0.0073394775390625,0.733062744140625
1686427013303061000,6.00506103515625,0.702972412109375,-0.019744873046875,0.734619140625
1686427013313005800,6.015005859375,0.70404052734375,-0.032745361328125,0.730377197265625
1686427013322952000,6.024951904296875,0.698150634765625,-0.0535888671875,0.732452392578125
1686427013332897000,6.03489697265625,0.6979522705078125,-0.0816650390625,0.7191925048828125
1686427013342842000,6.044842041015625,0.7130126953125,-0.103973388671875,0.6952667236328125
1686427013352788000,6.0547880859375,0.7215118408203125,-0.1217803955078125,0.69476318359375
1686427013362733000,6.064733154296875,0.7207794189453125,-0.1330718994140625,0.691558837890625
1686427013372679000,6.074678955078125,0.723876953125,-0.1455078125,0.70343017578125
1686427013382624000,6.0846240234375,0.731292724609375,-0.172210693359375,0.733154296875
1686427013392569000,6.094569091796875,0.738983154296875,-0.1976776123046875,0.7370147705078125
1686427013402515000,6.104514892578125,0.740203857421875,-0.2133331298828125,0.725677490234375
1686427013412460000,6.1144599609375,0.7313079833984375,-0.2165985107421875,0.6960601806640625
1686427013422405000,6.124405029296875,0.7103271484375,-0.176971435546875,0.694793701171875
1686427013432351200,6.134351318359375,0.6894378662109375,-0.1168670654296875,0.7030029296875
1686427013442296000,6.144296142578125,0.69488525390625,-0.11590576171875,0.677825927734375
1686427013452242000,6.154241943359375,0.7082366943359375,-0.1222076416015625,0.6732940673828125
1686427013462187000,6.16418701171875,0.7149658203125,-0.1216888427734375,0.6826171875
1686427013472131800,6.1741318359375,0.717071533203125,-0.1205291748046875,0.6869049072265625
1686427013482078000,6.184077880859375,0.715667724609375,-0.117523193359375,0.6913299560546875
1686427013492023000,6.19402294921875,0.71331787109375,-0.1170501708984375,0.69573974609375
1686427013501968000,6.2039677734375,0.7071990966796875,-0.1168060302734375,0.702972412109375
1686427013511914000,6.2139140625,0.7003173828125,-0.116363525390625,0.7106170654296875
1686427013521858800,6.22385888671875,0.69549560546875,-0.119476318359375,0.7137603759765625
1686427013531805000,6.233804931640625,0.6961669921875,-0.1193084716796875,0.72442626953125
1686427013541750000,6.24375,0.696868896484375,-0.1266021728515625,0.728240966796875
1686427013551695000,6.253695068359375,0.6970672607421875,-0.135650634765625,0.7282867431640625
1686427013561641000,6.263640869140625,0.6960296630859375,-0.1435546875,0.7194366455078125
1686427013571586000,6.2735859375,0.69940185546875,-0.1525115966796875,0.7084197998046875
1686427013581531100,6.28353125,0.7012786865234375,-0.1571197509765625,0.706634521484375
1686427013591477000,6.29347705078125,0.7000274658203125,-0.159759521484375,0.702850341796875
1686427013601422000,6.303422119140625,0.695709228515625,-0.15887451171875,0.6999053955078125
1686427013611368000,6.313367919921875,0.6885833740234375,-0.156494140625,0.69610595703125
1686427013621313000,6.32331298828125,0.6804351806640625,-0.151763916015625,0.69366455078125
1686427013631258000,6.333258056640625,0.6800384521484375,-0.1457977294921875,0.70013427734375
1686427013641204200,6.343204345703125,0.6902923583984375,-0.13958740234375,0.7066802978515625
1686427013651149000,6.353149169921875,0.6955413818359375,-0.1344146728515625,0.70989990234375
1686427013661094000,6.363093994140625,0.6949005126953125,-0.1294708251953125,0.714752197265625
1686427013671040000,6.3730400390625,0.6886138916015625,-0.1261444091796875,0.7165069580078125
1686427013680985000,6.382985107421875,0.6798248291015625,-0.1191558837890625,0.7154388427734375
1686427013690931200,6.39293115234375,0.6613311767578125,-0.1113433837890625,0.7201385498046875
1686427013700876000,6.4028759765625,0.5823822021484375,-0.12152099609375,0.7736358642578125
1686427013710820900,6.41282080078125,0.6265411376953125,-0.124603271484375,0.6923828125
1686427013720767000,6.42276708984375,0.7043914794921875,-0.0989227294921875,0.6358184814453125
1686427013730712000,6.432712158203125,0.65850830078125,-0.126373291015625,0.707000732421875
1686427013740657200,6.4426572265625,0.6977691650390625,-0.135009765625,0.6685028076171875
1686427013750602500,6.4526025390625,0.7558746337890625,-0.150421142578125,0.6821441650390625
1686427013760547600,6.462547607421875,0.7659454345703125,-0.1396636962890625,0.681243896484375
1686427013770493400,6.472493408203125,0.7762603759765625,-0.1352386474609375,0.6843109130859375
1686427013780438800,6.482438720703125,0.74908447265625,-0.147918701171875,0.6980133056640625
1686427013790383600,6.492383544921875,0.7201385498046875,-0.137054443359375,0.6982574462890625
1686427013800329500,6.50232958984375,0.7228546142578125,-0.1377716064453125,0.6989593505859375
1686427013810274600,6.512274658203125,0.7181243896484375,-0.1370849609375,0.705291748046875
1686427013820219400,6.522219482421875,0.706390380859375,-0.1321868896484375,0.7021331787109375
1686427013830165500,6.53216552734375,0.6983489990234375,-0.1302947998046875,0.7024993896484375
1686427013840110600,6.542110595703125,0.7013397216796875,-0.12994384765625,0.6949310302734375
1686427013850056700,6.552056640625,0.7084808349609375,-0.126800537109375,0.6948699951171875
1686427013860001500,6.56200146484375,0.7074127197265625,-0.1269073486328125,0.6987152099609375
1686427013869946400,6.5719462890625,0.7093353271484375,-0.129425048828125,0.69976806640625
1686427013879892500,6.581892578125,0.71405029296875,-0.130218505859375,0.7071990966796875
1686427013889837600,6.591837646484375,0.71575927734375,-0.1320648193359375,0.7078094482421875
1686427013899782700,6.60178271484375,0.71710205078125,-0.142730712890625,0.7021026611328125
1686427013909728500,6.611728515625,0.71063232421875,-0.1438751220703125,0.7014617919921875
1686427013919673300,6.62167333984375,0.70941162109375,-0.14764404296875,0.694976806640625
1686427013929619500,6.631619384765625,0.704345703125,-0.15069580078125,0.700103759765625
1686427013939564500,6.641564453125,0.6993560791015625,-0.149810791015625,0.6988983154296875
1686427013949509600,6.651509521484375,0.7038116455078125,-0.14892578125,0.702606201171875
1686427013959455500,6.66145556640625,0.688262939453125,-0.1410980224609375,0.7092437744140625
1686427013969400600,6.671400634765625,0.6826934814453125,-0.1390380859375,0.7032928466796875
1686427013979346400,6.681346435546875,0.6848602294921875,-0.1389923095703125,0.700469970703125
1686427013989291800,6.691291748046875,0.68011474609375,-0.1375732421875,0.699371337890625
1686427013999236600,6.701236572265625,0.6864013671875,-0.146484375,0.6884002685546875
1686427014009182500,6.711182373046875,0.7010498046875,-0.151153564453125,0.6847381591796875
1686427014019127600,6.72112744140625,0.7027587890625,-0.14739990234375,0.6839447021484375
1686427014029072600,6.73107275390625,0.70745849609375,-0.14923095703125,0.6843109130859375
1686427014039018800,6.741018798828125,0.7171173095703125,-0.1497650146484375,0.684356689453125
1686427014048963600,6.750963623046875,0.7230987548828125,-0.1529083251953125,0.6863861083984375
1686427014058909700,6.76090966796875,0.7186737060546875,-0.14068603515625,0.688079833984375
1686427014068854500,6.7708544921875,0.7138671875,-0.1237945556640625,0.682403564453125
1686427014078799400,6.78079931640625,0.7076263427734375,-0.1240234375,0.6903228759765625
1686427014088745500,6.790745361328125,0.7026824951171875,-0.1226043701171875,0.6977996826171875
1686427014098690600,6.800690673828125,0.71087646484375,-0.118682861328125,0.7003631591796875
1686427014108635600,6.8106357421875,0.7211151123046875,-0.121795654296875,0.700408935546875
1686427014118581500,6.82058154296875,0.7273406982421875,-0.1274566650390625,0.6895599365234375
1686427014128526300,6.8305263671875,0.722625732421875,-0.13531494140625,0.6790618896484375
1686427014138472400,6.840472412109375,0.713226318359375,-0.1349945068359375,0.6748504638671875
1686427014148417500,6.85041748046875,0.70745849609375,-0.1337127685546875,0.6793060302734375
1686427014158362600,6.860362548828125,0.709442138671875,-0.1342315673828125,0.6890716552734375
1686427014168308500,6.87030859375,0.7149505615234375,-0.1296539306640625,0.6968841552734375
1686427014178253600,6.880253662109375,0.7161712646484375,-0.1269989013671875,0.702056884765625
1686427014188198700,6.89019873046875,0.713958740234375,-0.1262359619140625,0.70379638671875
1686427014198144800,6.900144775390625,0.70947265625,-0.1275787353515625,0.699920654296875
1686427014208089600,6.910089599609375,0.706756591796875,-0.1312408447265625,0.7016754150390625
1686427014218035500,6.920035400390625,0.706512451171875,-0.138275146484375,0.700653076171875
1686427014227980500,6.92998046875,0.7050323486328125,-0.1383209228515625,0.6983489990234375
1686427014237925600,6.939925537109375,0.700042724609375,-0.140167236328125,0.7020111083984375
1686427014247871700,6.949871826171875,0.6956939697265625,-0.1435699462890625,0.7018280029296875
1686427014257816600,6.959816650390625,0.690521240234375,-0.1463165283203125,0.6975555419921875
1686427014267761400,6.969761474609375,0.6867218017578125,-0.1489105224609375,0.6981201171875
1686427014277707500,6.97970751953125,0.6902313232421875,-0.1451263427734375,0.7012939453125
1686427014287652600,6.989652587890625,0.6953582763671875,-0.1431732177734375,0.7027130126953125
1686427014297598700,6.9995986328125,0.697784423828125,-0.1469879150390625,0.7002716064453125
1686427014307543600,7.00954345703125,0.695648193359375,-0.149139404296875,0.70013427734375
1686427014317488600,7.019488525390625,0.6912078857421875,-0.1503143310546875,0.699432373046875
1686427014327434500,7.0294345703125,0.6950531005859375,-0.149444580078125,0.703582763671875
1686427014337379300,7.03937939453125,0.700225830078125,-0.1482696533203125,0.70562744140625
1686427014347325400,7.049325439453125,0.702178955078125,-0.1501922607421875,0.70648193359375
1686427014357270500,7.0592705078125,0.7026824951171875,-0.150543212890625,0.7113189697265625
1686427014367215600,7.069215576171875,0.7027130126953125,-0.1475067138671875,0.715545654296875
1686427014377161500,7.079161376953125,0.7000885009765625,-0.1513214111328125,0.7102508544921875
1686427014387106600,7.0891064453125,0.699432373046875,-0.15252685546875,0.7051849365234375
1686427014397051600,7.0990517578125,0.6998443603515625,-0.1456146240234375,0.7034759521484375
1686427014406997500,7.10899755859375,0.702545166015625,-0.1429595947265625,0.701507568359375
1686427014416942600,7.118942626953125,0.6991729736328125,-0.140045166015625,0.698333740234375
1686427014426888400,7.128888427734375,0.6974029541015625,-0.1376953125,0.693572998046875
1686427014436833500,7.13883349609375,0.693634033203125,-0.1418914794921875,0.685516357421875
1686427014446778600,7.148778564453125,0.6914215087890625,-0.1446990966796875,0.6826934814453125
1686427014456724700,7.158724853515625,0.6966552734375,-0.1455841064453125,0.6790313720703125
1686427014466669600,7.168669677734375,0.706573486328125,-0.146820068359375,0.6781005859375
1686427014476614400,7.178614501953125,0.7128753662109375,-0.146697998046875,0.682098388671875
1686427014486560500,7.188560546875,0.7151031494140625,-0.146331787109375,0.686309814453125
1686427014496505600,7.198505615234375,0.716461181640625,-0.147735595703125,0.690185546875
1686427014506451700,7.20845166015625,0.713836669921875,-0.1468505859375,0.694061279296875
1686427014516396500,7.218396484375,0.7110748291015625,-0.14276123046875,0.696807861328125
1686427014526341600,7.228341552734375,0.704559326171875,-0.1384124755859375,0.7006378173828125
1686427014536287500,7.23828759765625,0.7029876708984375,-0.1414642333984375,0.7039642333984375
1686427014546232600,7.248232666015625,0.7003021240234375,-0.1330108642578125,0.703277587890625
1686427014556178700,7.2581787109375,0.70086669921875,-0.128387451171875,0.70306396484375
1686427014566123500,7.26812353515625,0.702911376953125,-0.13055419921875,0.7014312744140625
1686427014576068600,7.278068603515625,0.70440673828125,-0.1331634521484375,0.6965789794921875
1686427014586014500,7.288014404296875,0.705291748046875,-0.13543701171875,0.694183349609375
1686427014595959600,7.29795947265625,0.704742431640625,-0.1364898681640625,0.69256591796875
1686427014605904600,7.307904541015625,0.703277587890625,-0.139404296875,0.6914215087890625
1686427014615850500,7.3178505859375,0.70111083984375,-0.1413421630859375,0.6944732666015625
1686427014625795600,7.327795654296875,0.6978302001953125,-0.1421356201171875,0.695648193359375
1686427014635741400,7.337741455078125,0.693603515625,-0.1440887451171875,0.6953277587890625
1686427014645686500,7.3476865234375,0.691314697265625,-0.150421142578125,0.696990966796875
1686427014655631600,7.357631591796875,0.6892242431640625,-0.15142822265625,0.6963348388671875
1686427014665577700,7.36757763671875,0.688446044921875,-0.1501312255859375,0.7000579833984375
1686427014675522600,7.3775224609375,0.6892547607421875,-0.1484832763671875,0.703094482421875
1686427014685467400,7.38746728515625,0.6886138916015625,-0.1478118896484375,0.7044219970703125
1686427014695413500,7.39741357421875,0.689422607421875,-0.1512298583984375,0.7073974609375
1686427014705358600,7.407358642578125,0.6880950927734375,-0.155548095703125,0.708740234375
1686427014715304700,7.4173046875,0.6859893798828125,-0.1576995849609375,0.7094879150390625
1686427014725249500,7.42724951171875,0.6844635009765625,-0.162353515625,0.707550048828125
1686427014735194400,7.4371943359375,0.683563232421875,-0.169036865234375,0.7113800048828125
1686427014745140500,7.447140380859375,0.6807403564453125,-0.1699676513671875,0.7120208740234375
1686427014755085600,7.45708544921875,0.678253173828125,-0.168914794921875,0.7158050537109375
1686427014765031700,7.46703173828125,0.6768341064453125,-0.1689910888671875,0.7192535400390625
1686427014774976500,7.4769765625,0.67840576171875,-0.1685638427734375,0.720977783203125
1686427014784921300,7.48692138671875,0.6781463623046875,-0.1761016845703125,0.718292236328125
1686427014794867500,7.496867431640625,0.6784820556640625,-0.180877685546875,0.7180328369140625
1686427014804812500,7.5068125,0.680511474609375,-0.1817169189453125,0.7115478515625
1686427014814757600,7.516757568359375,0.6832275390625,-0.1803436279296875,0.7047119140625
1686427014824703500,7.526703369140625,0.68365478515625,-0.180206298828125,0.7009735107421875
1686427014834648600,7.536648681640625,0.6844329833984375,-0.1766815185546875,0.7025604248046875
1686427014844594400,7.546594482421875,0.6867218017578125,-0.1696014404296875,0.70745849609375
1686427014854539500,7.55653955078125,0.6887969970703125,-0.1635589599609375,0.708831787109375
1686427014864484600,7.566484619140625,0.693756103515625,-0.162109375,0.7061767578125
1686427014874430500,7.576430419921875,0.700531005859375,-0.1659393310546875,0.7000579833984375
1686427014884375600,7.58637548828125,0.703094482421875,-0.169342041015625,0.694976806640625
1686427014894320400,7.5963203125,0.7021484375,-0.1728363037109375,0.6958160400390625
1686427014904266500,7.6062666015625,0.6970977783203125,-0.170074462890625,0.6985321044921875
1686427014914211600,7.616211669921875,0.694976806640625,-0.163177490234375,0.69921875
1686427014924157700,7.62615771484375,0.697113037109375,-0.160064697265625,0.69952392578125
1686427014934102500,7.6361025390625,0.7024383544921875,-0.1580810546875,0.7012939453125
1686427014944047400,7.64604736328125,0.7039031982421875,-0.1600189208984375,0.7017669677734375
1686427014953993500,7.655993408203125,0.7028656005859375,-0.162872314453125,0.703582763671875
1686427014963938600,7.6659384765625,0.6943817138671875,-0.1628265380859375,0.7044677734375
1686427014973884700,7.675884765625,0.691436767578125,-0.165191650390625,0.7015838623046875
1686427014983829500,7.68582958984375,0.6953582763671875,-0.1665191650390625,0.6981658935546875
1686427014993774300,7.6957744140625,0.697418212890625,-0.16845703125,0.69451904296875
1686427015003720400,7.705720458984375,0.7027435302734375,-0.1688995361328125,0.689544677734375
1686427015013665500,7.71566552734375,0.7037353515625,-0.1689605712890625,0.686553955078125
1686427015023610600,7.725610595703125,0.70196533203125,-0.16400146484375,0.6851043701171875
1686427015033556500,7.735556396484375,0.7008514404296875,-0.1546173095703125,0.687713623046875
1686427015043501600,7.74550146484375,0.70123291015625,-0.14434814453125,0.689453125
1686427015053447400,7.755447509765625,0.7027587890625,-0.1373138427734375,0.692535400390625
1686427015063392500,7.765392578125,0.708770751953125,-0.1382293701171875,0.691558837890625
1686427015073337600,7.775337646484375,0.7152099609375,-0.143310546875,0.6896514892578125
1686427015083283500,7.785283447265625,0.720672607421875,-0.150726318359375,0.6876068115234375
1686427015093228500,7.795228515625,0.724273681640625,-0.15985107421875,0.6874237060546875
1686427015103174400,7.80517431640625,0.725372314453125,-0.169677734375,0.689239501953125
1686427015113119500,7.815119384765625,0.719390869140625,-0.174285888671875,0.6927642822265625
1686427015123064600,7.825064697265625,0.7083892822265625,-0.1774444580078125,0.6951446533203125
1686427015133010700,7.8350107421875,0.6968994140625,-0.1785430908203125,0.699127197265625
1686427015142955500,7.84495556640625,0.6850433349609375,-0.1733245849609375,0.70458984375
1686427015152900400,7.854900390625,0.6789703369140625,-0.16961669921875,0.710845947265625
1686427015162846500,7.864846435546875,0.678802490234375,-0.1663665771484375,0.711639404296875
1686427015172791600,7.87479150390625,0.67620849609375,-0.1628875732421875,0.7141265869140625
1686427015182737700,7.884737548828125,0.6751708984375,-0.1570892333984375,0.7186737060546875
1686427015192682500,7.8946826171875,0.67974853515625,-0.1547698974609375,0.7203826904296875
1686427015202627300,7.90462744140625,0.68524169921875,-0.1601104736328125,0.7225494384765625
1686427015212573400,7.914573486328125,0.6841888427734375,-0.16729736328125,0.725921630859375
1686427015222518500,7.9245185546875,0.6759490966796875,-0.171875,0.722320556640625
1686427015232464600,7.934464599609375,0.6641998291015625,-0.1807098388671875,0.717620849609375
1686427015242409500,7.944409423828125,0.6568145751953125,-0.1931610107421875,0.7129364013671875
1686427015252354600,7.9543544921875,0.65338134765625,-0.19525146484375,0.7088623046875
1686427015262300400,7.964300537109375,0.6533050537109375,-0.192901611328125,0.708831787109375
1686427015272245500,7.97424560546875,0.65679931640625,-0.188140869140625,0.71258544921875
1686427015282190600,7.984190673828125,0.663482666015625,-0.1876068115234375,0.71881103515625
1686427015292136400,7.994136474609375,0.668609619140625,-0.185028076171875,0.721221923828125
1686427015302081500,8.00408154296875,0.6723785400390625,-0.183197021484375,0.7199859619140625
1686427015312027400,8.01402734375,0.6753082275390625,-0.185272216796875,0.7189788818359375
1686427015321972700,8.02397265625,0.678741455078125,-0.1869964599609375,0.7156829833984375
1686427015331917600,8.03391748046875,0.6793060302734375,-0.191131591796875,0.708953857421875
1686427015341863700,8.04386376953125,0.680694580078125,-0.1971588134765625,0.703643798828125
1686427015351808500,8.05380859375,0.685028076171875,-0.2015228271484375,0.6998748779296875
1686427015361754400,8.06375439453125,0.689971923828125,-0.2038421630859375,0.7003326416015625
1686427015371699500,8.073699462890625,0.694091796875,-0.2052459716796875,0.7004852294921875
1686427015381644500,8.08364453125,0.700042724609375,-0.208221435546875,0.70245361328125
1686427015391590700,8.093590576171875,0.7044677734375,-0.208221435546875,0.7010498046875
1686427015401535500,8.103535400390625,0.7036590576171875,-0.2035369873046875,0.6994781494140625
1686427015411480300,8.113480224609376,0.703826904296875,-0.200042724609375,0.6994171142578125
1686427015421426400,8.123426513671875,0.7034759521484375,-0.193634033203125,0.696533203125
1686427015431371500,8.13337158203125,0.701568603515625,-0.18560791015625,0.695281982421875
1686427015441317600,8.143317626953126,0.701385498046875,-0.1776580810546875,0.6955413818359375
1686427015451262500,8.153262451171875,0.701629638671875,-0.1719207763671875,0.69244384765625
1686427015461207600,8.16320751953125,0.7024688720703125,-0.1691131591796875,0.6878204345703125
1686427015471153400,8.1731533203125,0.703125,-0.1656494140625,0.687255859375
1686427015481098500,8.183098388671874,0.7001953125,-0.1600494384765625,0.6837310791015625
1686427015491044600,8.193044677734376,0.704620361328125,-0.15301513671875,0.6776275634765625
1686427015500989400,8.202989501953125,0.6942901611328125,-0.1656494140625,0.6628570556640625
1686427015510934500,8.2129345703125,0.6878662109375,-0.1734161376953125,0.6615142822265625
1686427015520880400,8.22288037109375,0.698272705078125,-0.1715240478515625,0.6742401123046875
1686427015530825700,8.23282568359375,0.706085205078125,-0.1697540283203125,0.6832733154296875
1686427015540771600,8.242771484375,0.709716796875,-0.1716766357421875,0.689208984375
1686427015550716400,8.25271630859375,0.714080810546875,-0.17706298828125,0.689453125
1686427015560661500,8.26266162109375,0.71563720703125,-0.1833038330078125,0.695953369140625
1686427015570607400,8.272607421875,0.711395263671875,-0.18475341796875,0.6982879638671875
1686427015580552700,8.282552734375,0.7084503173828125,-0.184844970703125,0.694366455078125
1686427015590497500,8.29249755859375,0.7081451416015625,-0.185516357421875,0.6924285888671875
1686427015600443600,8.302443603515625,0.708099365234375,-0.1878509521484375,0.6882171630859375
1686427015610388500,8.312388427734374,0.7071075439453125,-0.1881866455078125,0.6856536865234375
1686427015620334600,8.32233447265625,0.7025146484375,-0.185577392578125,0.685089111328125
1686427015630279400,8.332279541015625,0.69781494140625,-0.180511474609375,0.6856231689453125
1686427015640224500,8.342224609375,0.6967315673828125,-0.1801300048828125,0.6855926513671875
1686427015650170600,8.352170654296875,0.69781494140625,-0.183319091796875,0.6855926513671875
1686427015660115500,8.362115478515625,0.7008056640625,-0.187103271484375,0.6883392333984375
1686427015670061600,8.3720615234375,0.6999969482421875,-0.1892547607421875,0.6941680908203125
1686427015680006400,8.38200634765625,0.69744873046875,-0.189697265625,0.695465087890625
1686427015689951500,8.391951416015624,0.6977691650390625,-0.19024658203125,0.6959381103515625
1686427015699897600,8.401897705078126,0.696380615234375,-0.190887451171875,0.701629638671875
1686427015709842400,8.411842529296875,0.6945343017578125,-0.1886749267578125,0.7029876708984375
1686427015719787500,8.42178759765625,0.6895904541015625,-0.1880035400390625,0.701812744140625
1686427015729733400,8.4317333984375,0.68682861328125,-0.18914794921875,0.6973114013671875
1686427015739678700,8.4416787109375,0.6891937255859375,-0.1887969970703125,0.6913299560546875
1686427015749625000,8.451625,0.6920928955078125,-0.186187744140625,0.684112548828125
1686427015759570200,8.461570068359375,0.6966094970703125,-0.1839447021484375,0.6810455322265625
1686427015769515000,8.471514892578124,0.698638916015625,-0.1830902099609375,0.6796875
1686427015779461000,8.481461181640626,0.7025909423828125,-0.18109130859375,0.681243896484375
1686427015789406000,8.491406005859375,0.7084808349609375,-0.182342529296875,0.6837615966796875
1686427015799352000,8.50135205078125,0.7105560302734375,-0.181976318359375,0.686187744140625
1686427015809297200,8.511297119140625,0.7118988037109375,-0.182159423828125,0.6891632080078125
1686427015819242000,8.521241943359374,0.71356201171875,-0.184356689453125,0.691162109375
1686427015829188000,8.53118798828125,0.7125396728515625,-0.184722900390625,0.69122314453125
1686427015839133000,8.5411328125,0.708953857421875,-0.183441162109375,0.6920318603515625
1686427015849079000,8.5510791015625,0.708282470703125,-0.1833343505859375,0.69061279296875
1686427015859024100,8.561024169921875,0.7072601318359375,-0.1821746826171875,0.6894073486328125
1686427015868969000,8.570968994140625,0.7071990966796875,-0.1810302734375,0.688720703125
1686427015878915000,8.5809150390625,0.707855224609375,-0.181732177734375,0.6881561279296875
1686427015888860000,8.59085986328125,0.7076568603515625,-0.183197021484375,0.688995361328125
1686427015898805200,8.60080517578125,0.704620361328125,-0.1843109130859375,0.6876220703125
1686427015908751000,8.610751220703126,0.701416015625,-0.1862030029296875,0.6873626708984375
1686427015918696200,8.6206962890625,0.6984710693359375,-0.1848297119140625,0.6851806640625
1686427015928642000,8.63064208984375,0.6952362060546875,-0.189666748046875,0.68536376953125
1686427015938587000,8.6405869140625,0.691741943359375,-0.1917877197265625,0.6879730224609375
1686427015948532200,8.6505322265625,0.6899261474609375,-0.1947784423828125,0.690643310546875
1686427015958478000,8.66047802734375,0.6928558349609375,-0.1959228515625,0.693328857421875
1686427015968423200,8.670423095703125,0.6941680908203125,-0.1988067626953125,0.697265625
1686427015978369000,8.680369140625,0.6967620849609375,-0.1964111328125,0.6980743408203125
1686427015988314000,8.690314208984375,0.6982574462890625,-0.195526123046875,0.696746826171875
1686427015998259000,8.700259033203125,0.6949462890625,-0.1942138671875,0.69635009765625
1686427016008205000,8.710205078125,0.69158935546875,-0.1903228759765625,0.695159912109375
1686427016018150100,8.720150146484375,0.6912078857421875,-0.1864776611328125,0.6932373046875
1686427016028096000,8.730095947265625,0.6936187744140625,-0.1864471435546875,0.6895751953125
1686427016038041000,8.740041015625,0.6979827880859375,-0.186492919921875,0.685882568359375
1686427016047986000,8.74998583984375,0.7010498046875,-0.1883544921875,0.690582275390625
1686427016057932000,8.75993212890625,0.69891357421875,-0.193084716796875,0.690155029296875
1686427016067877000,8.769877197265625,0.700775146484375,-0.1963043212890625,0.6885833740234375
1686427016077823200,8.7798232421875,0.7036895751953125,-0.19329833984375,0.6919097900390625
1686427016087768000,8.78976806640625,0.707977294921875,-0.1949920654296875,0.688507080078125
1686427016097713000,8.799712890625,0.7102508544921875,-0.1934356689453125,0.6893463134765625
1686427016107659000,8.809658935546874,0.7068939208984375,-0.1909637451171875,0.6925811767578125
1686427016117604000,8.81960400390625,0.7085723876953125,-0.1856842041015625,0.6854248046875
1686427016127549200,8.829549072265625,0.7138519287109375,-0.1824188232421875,0.686767578125
1686427016137495000,8.8394951171875,0.71441650390625,-0.176788330078125,0.6854248046875
1686427016147439900,8.84943994140625,0.7140960693359375,-0.17303466796875,0.6806488037109375
1686427016157386000,8.859385986328125,0.7117462158203125,-0.1731719970703125,0.6800537109375
1686427016167331000,8.8693310546875,0.7092132568359375,-0.1737060546875,0.6763458251953125
1686427016177276200,8.879276123046875,0.7114410400390625,-0.175445556640625,0.67047119140625
1686427016187222000,8.889221923828124,0.7110748291015625,-0.165283203125,0.6632537841796875
1686427016197167000,8.8991669921875,0.7027435302734375,-0.156646728515625,0.6641693115234375
1686427016207113000,8.909113037109375,0.7106170654296875,-0.186737060546875,0.6753082275390625
1686427016217058000,8.91905810546875,0.721954345703125,-0.1991729736328125,0.67340087890625
1686427016227003100,8.929003173828125,0.7238616943359375,-0.2034149169921875,0.6722564697265625
1686427016236949000,8.938948974609374,0.7159423828125,-0.1939544677734375,0.6680908203125
1686427016246894000,8.94889404296875,0.704803466796875,-0.185211181640625,0.67974853515625
1686427016256840000,8.95883984375,0.7093658447265625,-0.1815185546875,0.6747283935546875
1686427016266785000,8.968784912109374,0.7139434814453125,-0.1797943115234375,0.674041748046875
1686427016276730000,8.978730224609375,0.7093658447265625,-0.177520751953125,0.6751861572265625
1686427016286676200,8.98867626953125,0.7053680419921875,-0.1790618896484375,0.675994873046875
1686427016296621000,8.99862109375,0.708526611328125,-0.1802215576171875,0.677490234375
1686427016306567000,9.00856689453125,0.7121734619140625,-0.180694580078125,0.678741455078125
1686427016316512000,9.018511962890624,0.7120361328125,-0.180389404296875,0.6792449951171875
1686427016326457000,9.02845703125,0.7145233154296875,-0.182769775390625,0.6773681640625
1686427016336403200,9.0384033203125,0.717376708984375,-0.1819915771484375,0.6774139404296875
1686427016346348000,9.04834814453125,0.71630859375,-0.1810455322265625,0.676300048828125
1686427016356292900,9.05829296875,0.7148590087890625,-0.1812591552734375,0.6759033203125
1686427016366239000,9.068239013671874,0.7143402099609375,-0.1802215576171875,0.6767425537109375
1686427016376184000,9.07818408203125,0.7143707275390625,-0.1804656982421875,0.67755126953125
1686427016386130200,9.088130126953125,0.7131195068359375,-0.180938720703125,0.6777801513671875
1686427016396075000,9.098074951171874,0.712677001953125,-0.183807373046875,0.6801300048828125
1686427016406020000,9.10802001953125,0.712646484375,-0.1842498779296875,0.6803436279296875
1686427016415966000,9.117966064453125,0.711395263671875,-0.184600830078125,0.6798095703125
1686427016425911000,9.1279111328125,0.7103424072265625,-0.18450927734375,0.6802978515625
1686427016435857200,9.137857177734375,0.70941162109375,-0.1857452392578125,0.6833648681640625
1686427016445802000,9.147802001953124,0.7078704833984375,-0.185089111328125,0.68170166015625
1686427016455747000,9.1577470703125,0.70770263671875,-0.185882568359375,0.6822662353515625
1686427016465693000,9.16769287109375,0.7069244384765625,-0.1868133544921875,0.6836395263671875
1686427016475638300,9.17763818359375,0.7061309814453125,-0.1869659423828125,0.6813507080078125
1686427016485584100,9.187584228515625,0.705047607421875,-0.18798828125,0.6810760498046875
1686427016495529200,9.197529296875,0.7037200927734375,-0.1871185302734375,0.681488037109375
1686427016505474000,9.20747412109375,0.7029876708984375,-0.188873291015625,0.6832427978515625
1686427016515420000,9.217419921875,0.702178955078125,-0.18927001953125,0.6862335205078125
1686427016525365000,9.227364990234374,0.701263427734375,-0.1891326904296875,0.686920166015625
1686427016535311000,9.23731103515625,0.7029876708984375,-0.1888427734375,0.6849822998046875
1686427016545256200,9.247256103515625,0.703155517578125,-0.188812255859375,0.6819610595703125
1686427016555201000,9.257200927734376,0.7050323486328125,-0.1873931884765625,0.685150146484375
1686427016565147100,9.267147216796875,0.701690673828125,-0.1907958984375,0.6883697509765625
1686427016575092000,9.277092041015624,0.698516845703125,-0.1909027099609375,0.6902618408203125
1686427016585037800,9.287037841796876,0.6982879638671875,-0.191925048828125,0.693572998046875
1686427016594983200,9.296983154296875,0.6999053955078125,-0.190826416015625,0.6920013427734375
1686427016604928000,9.306927978515626,0.7078094482421875,-0.18695068359375,0.6855010986328125
1686427016614874000,9.3168740234375,0.70587158203125,-0.1893157958984375,0.681732177734375
1686427016624819000,9.32681884765625,0.702880859375,-0.18695068359375,0.6860198974609375
1686427016634764000,9.336763916015625,0.700836181640625,-0.1908721923828125,0.682708740234375
1686427016644710100,9.346710205078125,0.6978912353515625,-0.1921234130859375,0.679107666015625
1686427016654655000,9.356655029296874,0.7022857666015625,-0.1877899169921875,0.6784210205078125
1686427016664601000,9.36660107421875,0.7073974609375,-0.1834716796875,0.6819915771484375
1686427016674546000,9.3765458984375,0.711578369140625,-0.1815948486328125,0.682403564453125
1686427016684491300,9.3864912109375,0.7137451171875,-0.180877685546875,0.6863250732421875
1686427016694437000,9.39643701171875,0.716766357421875,-0.1785125732421875,0.6829986572265625
1686427016704382000,9.4063818359375,0.7186737060546875,-0.1764984130859375,0.6856231689453125
1686427016714328000,9.416328125,0.720458984375,-0.172698974609375,0.684173583984375
1686427016724273000,9.42627294921875,0.7226715087890625,-0.1710968017578125,0.6800537109375
1686427016734218200,9.43621826171875,0.7230377197265625,-0.1713714599609375,0.6778411865234375
1686427016744164000,9.4461640625,0.7216033935546875,-0.172454833984375,0.6758880615234375
1686427016754108700,9.456108642578124,0.7185211181640625,-0.171966552734375,0.675567626953125
1686427016764054800,9.4660546875,0.7180633544921875,-0.17034912109375,0.6728515625
1686427016773999600,9.47599951171875,0.71612548828125,-0.1721038818359375,0.674041748046875
1686427016783944700,9.48594482421875,0.7136383056640625,-0.17340087890625,0.672149658203125
1686427016793890800,9.495890869140625,0.7113800048828125,-0.1758270263671875,0.673980712890625
1686427016803835600,9.505835693359375,0.7087860107421875,-0.1763458251953125,0.6747283935546875
1686427016813781800,9.51578173828125,0.70916748046875,-0.175933837890625,0.6745758056640625
1686427016823726600,9.5257265625,0.7097930908203125,-0.1767578125,0.6731109619140625
1686427016833671700,9.535671630859374,0.7098541259765625,-0.178558349609375,0.675445556640625
1686427016843617800,9.54561767578125,0.70867919921875,-0.1794891357421875,0.678253173828125
1686427016853562600,9.555562744140625,0.708404541015625,-0.179962158203125,0.6821746826171875
1686427016863508700,9.5655087890625,0.7060089111328125,-0.1804046630859375,0.6826629638671875
1686427016873453600,9.57545361328125,0.7066650390625,-0.1805419921875,0.682525634765625
1686427016883398700,9.585398681640624,0.7048187255859375,-0.1830291748046875,0.679473876953125
1686427016893344800,9.5953447265625,0.701385498046875,-0.1829986572265625,0.6823272705078125
1686427016903289900,9.605289794921875,0.706787109375,-0.1837005615234375,0.6862335205078125
1686427016913235700,9.615235595703124,0.7120819091796875,-0.184661865234375,0.6864776611328125
1686427016923180500,9.6251806640625,0.7152557373046875,-0.1832122802734375,0.6854095458984375
1686427016933125600,9.635125732421875,0.712860107421875,-0.18603515625,0.68780517578125
1686427016943071500,9.645071533203126,0.703948974609375,-0.183746337890625,0.692535400390625
1686427016953016800,9.655016845703125,0.7067718505859375,-0.1857757568359375,0.69036865234375
1686427016962961700,9.664961669921874,0.71112060546875,-0.1837615966796875,0.6904296875
1686427016972907800,9.67490771484375,0.7061309814453125,-0.18115234375,0.6865081787109375
1686427016982852600,9.6848525390625,0.7041473388671875,-0.1789703369140625,0.68389892578125
1686427016992798500,9.694798583984374,0.7043914794921875,-0.1776123046875,0.6818084716796875
1686427017002743800,9.704743896484375,0.7039031982421875,-0.1752471923828125,0.679718017578125
1686427017012688600,9.714688720703125,0.7030792236328125,-0.17578125,0.6748199462890625
1686427017022634800,9.724634765625,0.70819091796875,-0.1760711669921875,0.6712799072265625
1686427017032579600,9.73457958984375,0.7076568603515625,-0.1792755126953125,0.677978515625
1686427017042525700,9.744525634765624,0.703582763671875,-0.177490234375,0.68310546875
1686427017052470800,9.754470703125,0.70269775390625,-0.1785736083984375,0.686248779296875
1686427017062415600,9.76441552734375,0.7007598876953125,-0.182373046875,0.6877899169921875
1686427017072361700,9.77436181640625,0.702362060546875,-0.1877899169921875,0.687591552734375
1686427017082306600,9.784306640625,0.701873779296875,-0.189666748046875,0.687347412109375
1686427017092252700,9.794252685546875,0.7018280029296875,-0.1887054443359375,0.6911773681640625
1686427017102197800,9.80419775390625,0.70159912109375,-0.185699462890625,0.6923675537109375
1686427017112142800,9.814142822265625,0.7005615234375,-0.1841583251953125,0.6977081298828125
1686427017122088700,9.824088623046874,0.7007598876953125,-0.18310546875,0.6968231201171875
1686427017132033500,9.834033447265625,0.6996307373046875,-0.1851043701171875,0.693511962890625
1686427017141979600,9.843979736328125,0.7010650634765625,-0.1872711181640625,0.6922607421875
1686427017151924700,9.8539248046875,0.701385498046875,-0.1879425048828125,0.6917266845703125
1686427017161869800,9.863869873046875,0.69757080078125,-0.1836395263671875,0.69183349609375
1686427017171815700,9.873815673828124,0.69989013671875,-0.183929443359375,0.6883697509765625
1686427017181760800,9.8837607421875,0.7004241943359375,-0.18304443359375,0.68505859375
1686427017191706600,9.89370654296875,0.6971435546875,-0.180328369140625,0.6868896484375
1686427017201651500,9.9036513671875,0.693389892578125,-0.1766204833984375,0.6863861083984375
1686427017211596800,9.9135966796875,0.6943817138671875,-0.1775360107421875,0.68768310546875
1686427017221542700,9.923542724609375,0.6935882568359375,-0.1748046875,0.6947174072265625
1686427017231487700,9.93348779296875,0.6950836181640625,-0.1768646240234375,0.6972808837890625
1686427017241433600,9.94343359375,0.70086669921875,-0.17950439453125,0.7007293701171875
1686427017251378700,9.953378662109374,0.7056121826171875,-0.1826171875,0.7039947509765625
1686427017261323800,9.96332373046875,0.706207275390625,-0.1833038330078125,0.705474853515625
1686427017271270000,9.973269775390625,0.70166015625,-0.1780242919921875,0.703948974609375
1686427017281214700,9.983214599609376,0.69580078125,-0.170013427734375,0.7020416259765625
1686427017291160600,9.99316064453125,0.693511962890625,-0.161346435546875,0.700225830078125
1686427017301105700,10.003105712890624,0.6949462890625,-0.1588134765625,0.6969757080078125
1686427017311050800,10.01305078125,0.6966552734375,-0.1599884033203125,0.6918792724609375
1686427017320996900,10.022996826171875,0.6994476318359375,-0.1566009521484375,0.689544677734375
1686427017330941700,10.032941650390624,0.7035369873046875,-0.162445068359375,0.6826019287109375
1686427017340887800,10.0428876953125,0.7063751220703125,-0.167266845703125,0.6786041259765625
1686427017350832600,10.05283251953125,0.70648193359375,-0.1680755615234375,0.681915283203125
1686427017360777700,10.06277783203125,0.7067718505859375,-0.1690521240234375,0.6883087158203125
1686427017370723800,10.072723876953125,0.7053375244140625,-0.168731689453125,0.6918487548828125
1686427017380668700,10.082668701171874,0.7035369873046875,-0.1680755615234375,0.6941375732421875
1686427017390614800,10.09261474609375,0.7001190185546875,-0.1753997802734375,0.6982269287109375
1686427017400559600,10.1025595703125,0.698272705078125,-0.1835784912109375,0.6937713623046875
1686427017410504700,10.112504638671876,0.69189453125,-0.1861419677734375,0.6883087158203125
1686427017420450600,10.122450439453125,0.6877899169921875,-0.1899566650390625,0.6889495849609375
1686427017430395600,10.132395751953124,0.685089111328125,-0.1900482177734375,0.6942596435546875
1686427017440341800,10.142341796875,0.6831817626953125,-0.1889190673828125,0.7014312744140625
1686427017450286600,10.15228662109375,0.6802215576171875,-0.1841888427734375,0.7087554931640625
1686427017460231700,10.162231689453124,0.6800079345703125,-0.18359375,0.71307373046875
1686427017470177500,10.172177490234375,0.6828765869140625,-0.1848907470703125,0.7135162353515625
1686427017480122600,10.18212255859375,0.6868896484375,-0.187408447265625,0.7097015380859375
1686427017490068700,10.19206884765625,0.69024658203125,-0.19158935546875,0.706329345703125
1686427017500013600,10.202013671875,0.6903533935546875,-0.19415283203125,0.703765869140625
1686427017509958700,10.211958740234374,0.689300537109375,-0.1950225830078125,0.701324462890625
1686427017519904500,10.221904541015626,0.6860198974609375,-0.1982421875,0.70330810546875
1686427017529849900,10.231849853515625,0.6842803955078125,-0.204559326171875,0.7024993896484375
1686427017539795700,10.241795654296874,0.681640625,-0.201995849609375,0.70166015625
1686427017549740800,10.25174072265625,0.67901611328125,-0.1963043212890625,0.7073516845703125
1686427017559685600,10.261685546875,0.677581787109375,-0.1913909912109375,0.7149810791015625
1686427017569631500,10.271631591796876,0.6802825927734375,-0.188446044921875,0.7201080322265625
1686427017579576800,10.281576904296875,0.681854248046875,-0.1859130859375,0.721649169921875
1686427017589522700,10.291522705078124,0.6791839599609375,-0.18414306640625,0.7199249267578125
1686427017599467800,10.3014677734375,0.678314208984375,-0.1844635009765625,0.7175140380859375
1686427017609412600,10.31141259765625,0.67999267578125,-0.183502197265625,0.7146148681640625
1686427017619358700,10.321358642578126,0.682830810546875,-0.1840972900390625,0.7091217041015625
1686427017629303800,10.3313037109375,0.6868438720703125,-0.1872711181640625,0.702239990234375
1686427017639250000,10.34125,0.6887664794921875,-0.188629150390625,0.6942138671875
1686427017649194800,10.35119482421875,0.686920166015625,-0.1910247802734375,0.6830291748046875
1686427017659139600,10.3611396484375,0.6887969970703125,-0.19061279296875,0.675262451171875
1686427017669085700,10.371085693359374,0.6945037841796875,-0.187042236328125,0.67425537109375
1686427017679030800,10.38103076171875,0.7015533447265625,-0.185089111328125,0.6786041259765625
1686427017688976600,10.3909765625,0.7101898193359375,-0.1854400634765625,0.686004638671875
1686427017698921700,10.400921630859376,0.7118682861328125,-0.1862945556640625,0.69134521484375
1686427017708866600,10.410866455078125,0.7076568603515625,-0.187347412109375,0.6939697265625
1686427017718812700,10.420812744140624,0.7065277099609375,-0.1875457763671875,0.69537353515625
1686427017728757500,10.430757568359375,0.7069854736328125,-0.1985321044921875,0.6965789794921875
1686427017738703600,10.44070361328125,0.701812744140625,-0.2147369384765625,0.691650390625
1686427017748648700,10.450648681640626,0.69476318359375,-0.2152862548828125,0.688385009765625
1686427017758593500,10.460593505859375,0.6978759765625,-0.2025909423828125,0.683746337890625
1686427017768539600,10.47053955078125,0.7064361572265625,-0.1942291259765625,0.6833038330078125
1686427017778484500,10.480484375,0.7161102294921875,-0.2040863037109375,0.6696319580078125
1686427017788430600,10.4904306640625,0.724151611328125,-0.2024383544921875,0.661468505859375
1686427017798375700,10.500375732421874,0.7267608642578125,-0.1609649658203125,0.6740570068359375
1686427017808320500,10.510320556640625,0.7291107177734375,-0.07965087890625,0.7025604248046875
1686427017818266600,10.5202666015625,0.731170654296875,-0.0340576171875,0.7196197509765625
1686427017828211500,10.53021142578125,0.7240142822265625,-0.0891571044921875,0.6951751708984375
1686427017838157600,10.540157470703125,0.721221923828125,-0.139373779296875,0.666839599609375
1686427017848102700,10.5501025390625,0.7252044677734375,-0.163330078125,0.6566925048828125
1686427017858047700,10.5600478515625,0.732818603515625,-0.16455078125,0.65948486328125
1686427017867993600,10.56999365234375,0.74102783203125,-0.15716552734375,0.6616973876953125
1686427017877938700,10.579938720703124,0.7416229248046875,-0.156036376953125,0.6600494384765625
1686427017887884500,10.589884521484375,0.7316741943359375,-0.159820556640625,0.664947509765625
1686427017897829600,10.59982958984375,0.71783447265625,-0.1605224609375,0.6691741943359375
1686427017907774700,10.609774658203126,0.713592529296875,-0.157257080078125,0.6695404052734375
1686427017917720600,10.619720458984375,0.7163543701171875,-0.1576690673828125,0.6677093505859375
1686427017927665700,10.629665771484374,0.7189483642578125,-0.161590576171875,0.6729278564453125
1686427017937611500,10.639611572265625,0.7225799560546875,-0.163818359375,0.6706390380859375
1686427017947556600,10.649556640625,0.72332763671875,-0.17022705078125,0.67486572265625
1686427017957501700,10.659501708984376,0.7200775146484375,-0.1749114990234375,0.6761627197265625
1686427017967447800,10.66944775390625,0.7178192138671875,-0.175811767578125,0.676177978515625
1686427017977392600,10.679392578125,0.7138671875,-0.1717987060546875,0.6800537109375
1686427017987338500,10.68933837890625,0.7052459716796875,-0.1779632568359375,0.6857757568359375
1686427017997283600,10.69928369140625,0.709930419921875,-0.1833038330078125,0.6815185546875
1686427018007228700,10.709228759765624,0.711456298828125,-0.1859283447265625,0.6811981201171875
1686427018017174800,10.7191748046875,0.7132415771484375,-0.1881103515625,0.6790313720703125
1686427018027119600,10.72911962890625,0.7133026123046875,-0.19049072265625,0.6768951416015625
1686427018037065700,10.739065673828126,0.712799072265625,-0.1977691650390625,0.67535400390625
1686427018047010600,10.749010498046875,0.7139129638671875,-0.1993255615234375,0.669891357421875
1686427018056955600,10.75895556640625,0.7043914794921875,-0.1882476806640625,0.6714324951171875
1686427018066901800,10.76890185546875,0.7022705078125,-0.2088775634765625,0.6827239990234375
1686427018076846600,10.7788466796875,0.7150726318359375,-0.210723876953125,0.6766357421875
1686427018086792700,10.788792724609374,0.7143096923828125,-0.204833984375,0.673980712890625
1686427018096737500,10.798737548828125,0.7090301513671875,-0.200103759765625,0.676055908203125
1686427018106682600,10.8086826171875,0.704315185546875,-0.1964569091796875,0.6781463623046875
1686427018116628700,10.818628662109376,0.705963134765625,-0.19293212890625,0.6743316650390625
1686427018126573600,10.828573486328125,0.7093658447265625,-0.19476318359375,0.6731414794921875
1686427018136519700,10.838519775390624,0.70819091796875,-0.1799163818359375,0.666534423828125
1686427018146464500,10.848464599609375,0.698944091796875,-0.183135986328125,0.6768035888671875
1686427018156409900,10.858409912109375,0.70855712890625,-0.188873291015625,0.6725616455078125
1686427018166355700,10.868355712890626,0.7152099609375,-0.1974334716796875,0.6727142333984375
1686427018176300500,10.878300537109375,0.7237091064453125,-0.19476318359375,0.667938232421875
1686427018186246700,10.88824658203125,0.7188873291015625,-0.1837921142578125,0.6693115234375
1686427018196191500,10.89819140625,0.71356201171875,-0.18267822265625,0.669677734375
1686427018206136600,10.908136474609375,0.7120208740234375,-0.185638427734375,0.671112060546875
1686427018216082700,10.918082763671874,0.712371826171875,-0.185272216796875,0.6731719970703125
1686427018226027800,10.92802783203125,0.7141265869140625,-0.191070556640625,0.6757049560546875
1686427018235973600,10.9379736328125,0.713409423828125,-0.1940155029296875,0.6747589111328125
1686427018245918700,10.947918701171876,0.7129669189453125,-0.196563720703125,0.673614501953125
1686427018255863600,10.957863525390625,0.711639404296875,-0.1968841552734375,0.6749725341796875
1686427018265809400,10.967809326171874,0.70855712890625,-0.19586181640625,0.6748199462890625
1686427018275754800,10.977754638671875,0.7094268798828125,-0.19244384765625,0.676971435546875
1686427018285700600,10.98770068359375,0.7095794677734375,-0.1911773681640625,0.6768035888671875
1686427018295645700,10.997645751953126,0.7103424072265625,-0.1899566650390625,0.673248291015625
1686427018305590500,11.007590576171875,0.7124176025390625,-0.1704254150390625,0.665802001953125
1686427018315536600,11.01753662109375,0.7099151611328125,-0.19085693359375,0.6817626953125
1686427018325481700,11.027481689453126,0.72113037109375,-0.194244384765625,0.6798095703125
1686427018335427600,11.037427490234375,0.7277679443359375,-0.1998443603515625,0.6853790283203125
1686427018345372700,11.04737255859375,0.729705810546875,-0.190155029296875,0.6783294677734375
1686427018355317500,11.0573173828125,0.7213897705078125,-0.1877899169921875,0.6800384521484375
1686427018365263600,11.067263671875,0.7146148681640625,-0.1882781982421875,0.6825714111328125
1686427018375208700,11.077208740234376,0.711639404296875,-0.1859893798828125,0.68157958984375
1686427018385154800,11.08715478515625,0.71044921875,-0.18853759765625,0.6811981201171875
1686427018395099600,11.097099609375,0.7080841064453125,-0.1908416748046875,0.6830291748046875
1686427018405044500,11.10704443359375,0.7064971923828125,-0.194000244140625,0.6797027587890625
1686427018414990600,11.116990478515625,0.705413818359375,-0.1829681396484375,0.67022705078125
1686427018424935700,11.126935791015624,0.6979217529296875,-0.19091796875,0.6767578125
1686427018434881800,11.1368818359375,0.696502685546875,-0.2086639404296875,0.686187744140625
1686427018444826600,11.14682666015625,0.6995086669921875,-0.22528076171875,0.6914520263671875
1686427018454771700,11.156771728515626,0.7047576904296875,-0.2125244140625,0.6764678955078125
1686427018464717600,11.166717529296875,0.70635986328125,-0.2025604248046875,0.680267333984375
1686427018474662700,11.17666259765625,0.70428466796875,-0.1961517333984375,0.6830596923828125
1686427018484608800,11.18660888671875,0.7082977294921875,-0.198211669921875,0.6762542724609375
1686427018494553600,11.1965537109375,0.7101898193359375,-0.200836181640625,0.6748199462890625
1686427018504498700,11.206498779296876,0.7089996337890625,-0.19940185546875,0.6756744384765625
1686427018514444500,11.216444580078125,0.7082977294921875,-0.2021942138671875,0.6740875244140625
1686427018524389600,11.2263896484375,0.707977294921875,-0.20330810546875,0.675811767578125
1686427018534335500,11.23633544921875,0.706695556640625,-0.203277587890625,0.6750335693359375
1686427018544280600,11.246280517578125,0.7074737548828125,-0.2060089111328125,0.673095703125
1686427018554226700,11.256226806640624,0.7092742919921875,-0.2064361572265625,0.675048828125
1686427018564171500,11.266171630859375,0.7104949951171875,-0.2009429931640625,0.6755218505859375
1686427018574116600,11.27611669921875,0.711700439453125,-0.19989013671875,0.6732177734375
1686427018584062500,11.2860625,0.7109832763671875,-0.2004241943359375,0.6727447509765625
1686427018594007800,11.2960078125,0.712493896484375,-0.1995391845703125,0.672637939453125
1686427018603953700,11.30595361328125,0.714141845703125,-0.198699951171875,0.6738739013671875
1686427018613898800,11.315898681640626,0.7155303955078125,-0.196563720703125,0.6739501953125
1686427018623843600,11.325843505859375,0.715118408203125,-0.1974945068359375,0.6749114990234375
1686427018633789400,11.33578955078125,0.711761474609375,-0.1942901611328125,0.679107666015625
1686427018643734800,11.34573486328125,0.709197998046875,-0.19268798828125,0.6790313720703125
1686427018653680600,11.3556806640625,0.7103424072265625,-0.1941986083984375,0.6753997802734375
1686427018663625700,11.365625732421876,0.7128753662109375,-0.19677734375,0.6732330322265625
1686427018673570600,11.375570556640625,0.714630126953125,-0.1948089599609375,0.6732635498046875
1686427018683516700,11.3855166015625,0.7165985107421875,-0.1950531005859375,0.6704559326171875
1686427018693461800,11.395461669921875,0.717926025390625,-0.198577880859375,0.6689300537109375
1686427018703407600,11.40540771484375,0.71624755859375,-0.1941070556640625,0.6699981689453125
1686427018713352700,11.415352783203126,0.7186279296875,-0.1906585693359375,0.6655426025390625
1686427018723297500,11.425297607421875,0.7179718017578125,-0.1934661865234375,0.6717376708984375
1686427018733243600,11.43524365234375,0.71337890625,-0.193939208984375,0.673583984375
1686427018743188700,11.445188720703126,0.712249755859375,-0.19171142578125,0.67242431640625
1686427018753134800,11.455134765625,0.7138671875,-0.19525146484375,0.669830322265625
1686427018763080000,11.465079833984374,0.7172088623046875,-0.1995849609375,0.66717529296875
1686427018773024800,11.475024658203125,0.7168426513671875,-0.199188232421875,0.6690216064453125
1686427018782971000,11.484970947265625,0.7159576416015625,-0.200408935546875,0.6679840087890625
1686427018792915700,11.494915771484376,0.71746826171875,-0.199310302734375,0.6661224365234375
1686427018802861600,11.504861572265625,0.7186737060546875,-0.1967010498046875,0.667633056640625
1686427018812807000,11.514806884765624,0.72039794921875,-0.1957244873046875,0.6669158935546875
1686427018822751700,11.524751708984375,0.7218475341796875,-0.1974945068359375,0.6649627685546875
1686427018832697900,11.53469775390625,0.7202606201171875,-0.1946868896484375,0.6675872802734375
1686427018842642700,11.544642578125,0.7181396484375,-0.1934814453125,0.666778564453125
1686427018852588800,11.5545888671875,0.7180938720703125,-0.192413330078125,0.6644744873046875
1686427018862534000,11.564533935546875,0.7197723388671875,-0.1919708251953125,0.6646270751953125
1686427018872480000,11.57447998046875,0.7213134765625,-0.1911773681640625,0.667388916015625
1686427018882424800,11.5844248046875,0.7236328125,-0.191253662109375,0.669769287109375
1686427018892369700,11.59436962890625,0.7221221923828125,-0.1922149658203125,0.6681365966796875
1686427018902315800,11.604315673828125,0.7216033935546875,-0.1945343017578125,0.6676177978515625
1686427018912260900,11.6142607421875,0.72442626953125,-0.1952056884765625,0.6695709228515625
1686427018922207000,11.62420703125,0.7241973876953125,-0.1929168701171875,0.673004150390625
1686427018932151800,11.63415185546875,0.7216796875,-0.1880950927734375,0.673492431640625
1686427018942096600,11.6440966796875,0.720611572265625,-0.1910247802734375,0.6683349609375
1686427018952042800,11.654042724609376,0.7207794189453125,-0.1912689208984375,0.6649169921875
1686427018961987800,11.66398779296875,0.720855712890625,-0.1911468505859375,0.66265869140625
1686427018971934000,11.673933837890624,0.7210235595703125,-0.193450927734375,0.6633148193359375
1686427018981878800,11.683878662109375,0.7183685302734375,-0.192413330078125,0.6653594970703125
1686427018991824000,11.693823974609375,0.719146728515625,-0.193084716796875,0.665069580078125
1686427019001769700,11.703769775390626,0.7188568115234375,-0.190643310546875,0.6632232666015625
1686427019011714800,11.71371484375,0.718902587890625,-0.190643310546875,0.666656494140625
1686427019021661000,11.723660888671875,0.7168731689453125,-0.1959075927734375,0.6697235107421875
1686427019031605800,11.733605712890625,0.7143402099609375,-0.193511962890625,0.670318603515625
1686427019041550800,11.74355078125,0.7144622802734375,-0.189971923828125,0.6700439453125
1686427019051496700,11.75349658203125,0.721221923828125,-0.1873016357421875,0.66741943359375
1686427019061441800,11.76344189453125,0.72686767578125,-0.1870880126953125,0.6663360595703125
1686427019071387600,11.7733876953125,0.7266387939453125,-0.1890869140625,0.66461181640625
1686427019081333000,11.7833330078125,0.723876953125,-0.189422607421875,0.6622161865234375
1686427019091277800,11.79327783203125,0.7229766845703125,-0.190460205078125,0.6613616943359375
1686427019101223700,11.8032236328125,0.7237548828125,-0.189544677734375,0.6608734130859375
1686427019111168800,11.813168701171875,0.72308349609375,-0.1913604736328125,0.6602630615234375
1686427019121114600,11.823114501953125,0.720611572265625,-0.196441650390625,0.6607513427734375
1686427019131060000,11.83306005859375,0.720062255859375,-0.1955108642578125,0.662445068359375
1686427019141004800,11.8430048828125,0.7209320068359375,-0.194793701171875,0.66326904296875
1686427019150951000,11.852950927734375,0.721435546875,-0.194549560546875,0.6650848388671875
1686427019160895700,11.862895751953126,0.720672607421875,-0.1922607421875,0.666778564453125
1686427019170841600,11.872841552734375,0.7195587158203125,-0.190185546875,0.667572021484375
1686427019180787000,11.882786865234374,0.7194671630859375,-0.192169189453125,0.668121337890625
1686427019190732800,11.89273291015625,0.719451904296875,-0.192626953125,0.6669921875
1686427019200678000,11.902677978515625,0.7193145751953125,-0.1945037841796875,0.665740966796875
1686427019210622700,11.912622802734376,0.7212677001953125,-0.1974334716796875,0.6657867431640625
1686427019220568800,11.92256884765625,0.7189788818359375,-0.1971588134765625,0.667266845703125
1686427019230514000,11.932513916015624,0.7166900634765625,-0.19622802734375,0.670135498046875
1686427019240460000,11.9424599609375,0.7147979736328125,-0.1953582763671875,0.672515869140625
1686427019250404900,11.95240478515625,0.7153472900390625,-0.19635009765625,0.6738433837890625
1686427019260349700,11.962349609375,0.7145538330078125,-0.196136474609375,0.673492431640625
1686427019270295800,11.9722958984375,0.7143096923828125,-0.1979522705078125,0.6718902587890625
1686427019280241000,11.982240966796875,0.713714599609375,-0.196075439453125,0.674224853515625
1686427019290187000,11.99218701171875,0.712799072265625,-0.1971435546875,0.67449951171875
1686427019300131800,12.0021318359375,0.71148681640625,-0.197235107421875,0.6746978759765625
1686427019310076700,12.01207666015625,0.71319580078125,-0.199005126953125,0.675018310546875
1686427019320022800,12.022022705078125,0.71343994140625,-0.199188232421875,0.67486572265625
1686427019329967600,12.031967529296875,0.7153472900390625,-0.200286865234375,0.6743927001953125
1686427019339913700,12.041913818359374,0.7157440185546875,-0.1986236572265625,0.67169189453125
1686427019349858800,12.05185888671875,0.7147216796875,-0.198272705078125,0.6705474853515625
1686427019359804000,12.061803955078124,0.712677001953125,-0.200347900390625,0.669921875
1686427019369749800,12.071749755859376,0.7137908935546875,-0.2001190185546875,0.6696929931640625
1686427019379694600,12.081694580078125,0.7142791748046875,-0.19866943359375,0.6700286865234375
1686427019389640700,12.091640625,0.7148284912109375,-0.19989013671875,0.6707916259765625
1686427019399585800,12.101585693359375,0.7149505615234375,-0.1968231201171875,0.6721343994140625
1686427019409531000,12.11153076171875,0.7144012451171875,-0.1961517333984375,0.671661376953125
1686427019419476700,12.121476806640626,0.7148895263671875,-0.19671630859375,0.6711883544921875
1686427019429421800,12.131421875,0.7170257568359375,-0.197662353515625,0.670654296875
1686427019439367700,12.14136767578125,0.7197418212890625,-0.1989898681640625,0.6685333251953125
1686427019449313000,12.15131298828125,0.7198638916015625,-0.1994171142578125,0.666748046875
1686427019459259000,12.1612587890625,0.7208099365234375,-0.1967926025390625,0.6673736572265625
1686427019469203700,12.17120361328125,0.7204437255859375,-0.19512939453125,0.667266845703125
1686427019479148800,12.181148681640625,0.7186737060546875,-0.1979827880859375,0.6666259765625
1686427019489094700,12.1910947265625,0.7165985107421875,-0.1986083984375,0.6667327880859375
1686427019499040000,12.2010400390625,0.7157440185546875,-0.1954498291015625,0.6675872802734375
1686427019508985900,12.21098583984375,0.7165374755859375,-0.1976776123046875,0.667327880859375
1686427019518931000,12.220930908203124,0.7144927978515625,-0.1966705322265625,0.6697998046875
1686427019528875800,12.230875732421875,0.7130126953125,-0.192657470703125,0.6700439453125
1686427019538821600,12.240821533203125,0.7158203125,-0.19427490234375,0.667449951171875
1686427019548767000,12.25076708984375,0.7214813232421875,-0.19384765625,0.667205810546875
1686427019558712800,12.260712890625,0.725494384765625,-0.194793701171875,0.6664581298828125
1686427019568658000,12.270657958984375,0.7259521484375,-0.19427490234375,0.66754150390625
1686427019578602800,12.280602783203125,0.723846435546875,-0.194549560546875,0.6694183349609375
1686427019588548900,12.290548828125,0.720703125,-0.1954345703125,0.6698455810546875
1686427019598493700,12.30049365234375,0.719879150390625,-0.1951446533203125,0.668365478515625
1686427019608439800,12.310439697265625,0.7199859619140625,-0.1956939697265625,0.6687469482421875
1686427019618385000,12.320385009765625,0.719482421875,-0.1957244873046875,0.66998291015625
1686427019628329700,12.330329833984376,0.7170257568359375,-0.1939697265625,0.6728057861328125
1686427019638275800,12.34027587890625,0.713165283203125,-0.1922454833984375,0.673919677734375
1686427019648220700,12.350220703125,0.7149810791015625,-0.1875762939453125,0.674346923828125
1686427019658166800,12.360166748046876,0.720306396484375,-0.1870574951171875,0.6735687255859375
1686427019668112000,12.37011181640625,0.723602294921875,-0.18865966796875,0.66998291015625
1686427019678058000,12.38005810546875,0.7219696044921875,-0.1911163330078125,0.664794921875
1686427019688002800,12.3900029296875,0.7198638916015625,-0.1934051513671875,0.6641693115234375
1686427019697947600,12.39994775390625,0.719696044921875,-0.195709228515625,0.6645050048828125
1686427019707893800,12.409893798828126,0.7164459228515625,-0.1966094970703125,0.66485595703125
1686427019717838800,12.4198388671875,0.714263916015625,-0.196990966796875,0.6661834716796875
1686427019727785000,12.429784912109374,0.711822509765625,-0.1978912353515625,0.66845703125
1686427019737729800,12.439729736328125,0.7133331298828125,-0.198455810546875,0.670562744140625
1686427019747674600,12.449674560546875,0.714752197265625,-0.1981353759765625,0.6689910888671875
1686427019757620700,12.459620849609376,0.7140960693359375,-0.1982574462890625,0.6680450439453125
1686427019767565800,12.46956591796875,0.7132720947265625,-0.1970672607421875,0.66845703125
1686427019777512000,12.479511962890625,0.7126312255859375,-0.1940765380859375,0.6713409423828125
1686427019787456800,12.489456787109376,0.712799072265625,-0.1923675537109375,0.67181396484375
1686427019797401600,12.499401611328125,0.717193603515625,-0.1904754638671875,0.6725311279296875
1686427019807347700,12.50934765625,0.71893310546875,-0.185577392578125,0.676422119140625
1686427019817292800,12.519292724609375,0.7177886962890625,-0.1823577880859375,0.679229736328125
1686427019827239000,12.529239013671875,0.7181549072265625,-0.18438720703125,0.6751861572265625
1686427019837183700,12.539183837890626,0.717987060546875,-0.185699462890625,0.6730804443359375
1686427019847129900,12.5491298828125,0.7169036865234375,-0.186553955078125,0.672271728515625
1686427019857074700,12.55907470703125,0.7161102294921875,-0.1881256103515625,0.669189453125
1686427019867019800,12.569019775390625,0.7119598388671875,-0.1943511962890625,0.6634674072265625
1686427019876966000,12.5789658203125,0.7053985595703125,-0.1952056884765625,0.6564788818359375
1686427019886910700,12.58891064453125,0.70263671875,-0.1899261474609375,0.6661834716796875
1686427019896856800,12.59885693359375,0.705078125,-0.1865386962890625,0.675445556640625
1686427019906801700,12.6088017578125,0.71099853515625,-0.1876373291015625,0.6812896728515625
1686427019916746800,12.618746826171876,0.71502685546875,-0.1893310546875,0.683013916015625
1686427019926692600,12.628692626953125,0.7166748046875,-0.1910552978515625,0.6833343505859375
1686427019936638000,12.638637939453124,0.7159271240234375,-0.1929779052734375,0.6807861328125
1686427019946583800,12.648583740234375,0.71337890625,-0.1956024169921875,0.6767425537109375
1686427019956528600,12.658528564453125,0.714447021484375,-0.1979217529296875,0.6723480224609375
1686427019966473700,12.6684736328125,0.7147979736328125,-0.198883056640625,0.6715240478515625
1686427019976419600,12.678419677734375,0.7146453857421875,-0.2013092041015625,0.6703948974609375
1686427019986365000,12.688364990234374,0.7150421142578125,-0.2067718505859375,0.67132568359375
1686427019996310800,12.698310791015626,0.7091522216796875,-0.2114105224609375,0.670135498046875
1686427020006255900,12.708255859375,0.7031402587890625,-0.2152099609375,0.6737060546875
1686427020016200700,12.71820068359375,0.699188232421875,-0.2172698974609375,0.678253173828125
1686427020026146600,12.728146484375,0.6944580078125,-0.2170562744140625,0.6827545166015625
1686427020036092000,12.738091796875,0.6936187744140625,-0.2174224853515625,0.6833343505859375
1686427020046037800,12.748037841796876,0.6964111328125,-0.2193603515625,0.683441162109375
1686427020055982800,12.75798291015625,0.69940185546875,-0.2148895263671875,0.68310546875
1686427020065928700,12.7679287109375,0.7043304443359375,-0.2058563232421875,0.6834564208984375
1686427020075873800,12.777873779296876,0.7078094482421875,-0.20086669921875,0.68597412109375
1686427020085819000,12.78781884765625,0.70928955078125,-0.2014312744140625,0.6881561279296875
1686427020095765000,12.797764892578124,0.7103118896484375,-0.1995391845703125,0.690277099609375
1686427020105709800,12.807709716796875,0.711395263671875,-0.198760986328125,0.688995361328125
1686427020115655700,12.81765576171875,0.7120208740234375,-0.1989593505859375,0.689208984375
1686427020125600800,12.827600830078126,0.7131195068359375,-0.19561767578125,0.6899261474609375
1686427020135545900,12.8375458984375,0.7141265869140625,-0.1904296875,0.6898651123046875
1686427020145491700,12.84749169921875,0.7145843505859375,-0.1874542236328125,0.6885223388671875
1686427020155436800,12.857436767578125,0.7147216796875,-0.1843414306640625,0.68695068359375
1686427020165383000,12.8673828125,0.7147369384765625,-0.18414306640625,0.68218994140625
1686427020175327700,12.87732763671875,0.7180023193359375,-0.182708740234375,0.6767730712890625
1686427020185273600,12.887273681640625,0.7189788818359375,-0.1816253662109375,0.673126220703125
1686427020195218700,12.89721875,0.7203521728515625,-0.185455322265625,0.6707611083984375
1686427020205163800,12.907163818359376,0.7168121337890625,-0.18463134765625,0.671783447265625
1686427020215110000,12.91710986328125,0.718170166015625,-0.1823577880859375,0.6736602783203125
1686427020225054700,12.9270546875,0.7200775146484375,-0.1764678955078125,0.6754608154296875
1686427020235000800,12.937000732421875,0.719268798828125,-0.167877197265625,0.67694091796875
1686427020244945700,12.946945556640625,0.717254638671875,-0.1600341796875,0.6731109619140625
1686427020254890800,12.956890869140626,0.7201080322265625,-0.1589202880859375,0.6674652099609375
1686427020264836900,12.9668369140625,0.72906494140625,-0.162445068359375,0.6590728759765625
1686427020274781700,12.97678173828125,0.7353973388671875,-0.167388916015625,0.652374267578125
1686427020284727800,12.986727783203126,0.73809814453125,-0.1624908447265625,0.65289306640625
1686427020294672600,12.996672607421875,0.7361602783203125,-0.1668853759765625,0.649932861328125
1686427020304618000,13.006617919921876,0.733123779296875,-0.168853759765625,0.6530303955078125
