time,seconds_elapsed,z,y,x
1686426289892234800,0.10623486328125,-0.9022979736328125,-0.6331787109375,-0.1085357666015625
1686426289902178800,0.1161787109375,-0.90191650390625,-0.6331634521484375,-0.1323699951171875
1686426289912124000,0.1261240234375,-0.92315673828125,-0.6439971923828125,-0.122161865234375
1686426289922068700,0.13606884765625,-0.963592529296875,-0.659393310546875,-0.02423095703125
1686426289932013800,0.146013916015625,-0.9638671875,-0.641571044921875,-0.007904052734375
1686426289941959000,0.155958984375,-0.92474365234375,-0.58477783203125,-0.0136871337890625
1686426289951903700,0.16590380859375,-0.9493865966796875,-0.6091766357421875,-0.0083770751953125
1686426289961849000,0.17584912109375,-0.970672607421875,-0.6515655517578125,-0.01959228515625
1686426289971793000,0.18579296875,-0.9493255615234375,-0.6627044677734375,-0.056976318359375
1686426289981737700,0.19573779296875,-0.9867401123046875,-0.6505889892578125,-0.0660552978515625
1686426289991682800,0.205682861328125,-0.9905548095703125,-0.6045989990234375,-0.0074310302734375
1686426290001628000,0.2156279296875,-0.9916229248046875,-0.565155029296875,0.0567474365234375
1686426290011572700,0.22557275390625,-1.0389251708984375,-0.5615081787109375,0.101715087890625
1686426290021517800,0.235517822265625,-1.093841552734375,-0.537811279296875,0.1595306396484375
1686426290031463000,0.245462890625,-1.118865966796875,-0.494659423828125,0.22674560546875
1686426290041407000,0.255406982421875,-1.115631103515625,-0.4747467041015625,0.2662200927734375
1686426290051352000,0.26535205078125,-1.0930633544921875,-0.4610137939453125,0.27880859375
1686426290061297200,0.275297119140625,-1.06170654296875,-0.4400787353515625,0.2812652587890625
1686426290071242000,0.285241943359375,-1.0257720947265625,-0.427459716796875,0.27325439453125
1686426290081187000,0.29518701171875,-0.982666015625,-0.422698974609375,0.2505950927734375
1686426290091132200,0.305132080078125,-0.931304931640625,-0.408294677734375,0.1920013427734375
1686426290101077000,0.315076904296875,-0.90338134765625,-0.4017791748046875,0.0935821533203125
1686426290111021000,0.32502099609375,-0.8809814453125,-0.4089202880859375,0.0623626708984375
1686426290120966100,0.334966064453125,-0.857208251953125,-0.382232666015625,0.11334228515625
1686426290130911200,0.3449111328125,-0.8469085693359375,-0.361114501953125,0.1836395263671875
1686426290140856000,0.35485595703125,-0.836761474609375,-0.3713531494140625,0.2390899658203125
1686426290150801200,0.36480126953125,-0.82147216796875,-0.3727264404296875,0.2978363037109375
1686426290160746000,0.37474609375,-0.808074951171875,-0.3594818115234375,0.34490966796875
1686426290170691000,0.384691162109375,-0.809600830078125,-0.3481292724609375,0.3468475341796875
1686426290180635100,0.39463525390625,-0.8152618408203125,-0.34130859375,0.3169097900390625
1686426290190580200,0.404580322265625,-0.810211181640625,-0.3314208984375,0.265228271484375
1686426290200525000,0.414525146484375,-0.7805328369140625,-0.3201751708984375,0.23065185546875
1686426290210470100,0.42447021484375,-0.7313995361328125,-0.3101806640625,0.2118072509765625
1686426290220415200,0.434415283203125,-0.6917266845703125,-0.312164306640625,0.223846435546875
1686426290230360000,0.444360107421875,-0.652099609375,-0.3209686279296875,0.2659759521484375
1686426290240305200,0.45430517578125,-0.618011474609375,-0.3284454345703125,0.3063812255859375
1686426290250249200,0.464249267578125,-0.5998687744140625,-0.328338623046875,0.3395538330078125
1686426290260194000,0.474194091796875,-0.58013916015625,-0.329986572265625,0.36224365234375
1686426290270139100,0.48413916015625,-0.5620574951171875,-0.3426971435546875,0.363525390625
1686426290280084200,0.494084228515625,-0.5518951416015625,-0.363555908203125,0.3529510498046875
1686426290290029000,0.504029052734375,-0.530120849609375,-0.3719329833984375,0.35205078125
1686426290299974100,0.51397412109375,-0.484619140625,-0.378204345703125,0.3485870361328125
1686426290309919200,0.523919189453125,-0.4364166259765625,-0.40081787109375,0.3283843994140625
1686426290319863000,0.533863037109375,-0.40045166015625,-0.4308319091796875,0.31378173828125
1686426290329808000,0.543807861328125,-0.387847900390625,-0.4505462646484375,0.3127899169921875
1686426290339753200,0.553753173828125,-0.409271240234375,-0.4473876953125,0.30743408203125
1686426290349698000,0.563697998046875,-0.42926025390625,-0.45123291015625,0.313079833984375
1686426290359643100,0.57364306640625,-0.425445556640625,-0.45806884765625,0.3339080810546875
1686426290369588200,0.583588134765625,-0.41961669921875,-0.4628753662109375,0.3668212890625
1686426290379533000,0.593532958984375,-0.405120849609375,-0.4581298828125,0.416473388671875
1686426290389477000,0.60347705078125,-0.3853759765625,-0.4308013916015625,0.474273681640625
1686426290399422200,0.613422119140625,-0.364410400390625,-0.407073974609375,0.5403289794921875
1686426290409367000,0.623366943359375,-0.3532257080078125,-0.390380859375,0.60400390625
1686426290419312000,0.63331201171875,-0.3662261962890625,-0.3725738525390625,0.62255859375
1686426290429257200,0.64325732421875,-0.3798980712890625,-0.3817901611328125,0.6337738037109375
1686426290439202000,0.6532021484375,-0.3975830078125,-0.417938232421875,0.6310272216796875
1686426290449147100,0.663147216796875,-0.416412353515625,-0.44427490234375,0.6299896240234375
1686426290459091200,0.67309130859375,-0.44244384765625,-0.4494781494140625,0.63690185546875
1686426290469036000,0.6830361328125,-0.4727783203125,-0.45068359375,0.6388702392578125
1686426290478981000,0.692981201171875,-0.48724365234375,-0.452301025390625,0.6734466552734375
1686426290488926200,0.70292626953125,-0.487701416015625,-0.411376953125,0.7393341064453125
1686426290498871000,0.71287109375,-0.4924774169921875,-0.33551025390625,0.8156890869140625
1686426290508816100,0.722816162109375,-0.4901275634765625,-0.2591400146484375,0.8965301513671875
1686426290518761200,0.73276123046875,-0.47210693359375,-0.2593841552734375,0.9842529296875
1686426290528705000,0.742705078125,-0.460174560546875,-0.3465423583984375,1.0555267333984375
1686426290538650000,0.752650146484375,-0.439544677734375,-0.359375,1.07586669921875
1686426290548595200,0.76259521484375,-0.4149169921875,-0.2620697021484375,1.078338623046875
1686426290558540000,0.7725400390625,-0.368316650390625,-0.120513916015625,1.052581787109375
1686426290568485000,0.782485107421875,-0.3009185791015625,-0.019317626953125,0.9949493408203125
1686426290578430200,0.79243017578125,-0.2342681884765625,0.003326416015625,0.9876708984375
1686426290588375000,0.802375,-0.184295654296875,-0.0055084228515625,0.9967498779296875
1686426290598319000,0.812319091796875,-0.156585693359375,-0.0170745849609375,0.9948272705078125
1686426290608264200,0.82226416015625,-0.158843994140625,-0.061737060546875,1.0156402587890625
1686426290618209000,0.832208984375,-0.1723480224609375,-0.09381103515625,1.0488433837890625
1686426290628154000,0.842154052734375,-0.1945953369140625,-0.0401763916015625,1.0895233154296875
1686426290638099200,0.85209912109375,-0.25738525390625,0.0359954833984375,1.1451416015625
1686426290648044000,0.8620439453125,-0.2619476318359375,0.103363037109375,1.163665771484375
1686426290657989000,0.871989013671875,-0.2689361572265625,0.20086669921875,1.1849365234375
1686426290667933200,0.88193310546875,-0.30224609375,0.2869873046875,1.18536376953125
1686426290677878000,0.8918779296875,-0.2806243896484375,0.36126708984375,1.176605224609375
1686426290687823000,0.901822998046875,-0.2095489501953125,0.435150146484375,1.2023162841796875
1686426290697768200,0.911768310546875,-0.1376953125,0.445709228515625,1.25640869140625
1686426290707713000,0.921713134765625,-0.0677947998046875,0.4529876708984375,1.29302978515625
1686426290717658000,0.931658203125,0.01739501953125,0.460968017578125,1.3086700439453125
1686426290727603200,0.941603271484375,0.0831451416015625,0.4419097900390625,1.2846832275390625
1686426290737548000,0.951548095703125,0.1246337890625,0.419891357421875,1.232025146484375
1686426290747492000,0.9614921875,0.1635894775390625,0.4269256591796875,1.214935302734375
1686426290757437200,0.971437255859375,0.1610260009765625,0.39422607421875,1.2059173583984375
1686426290767382300,0.98138232421875,0.136444091796875,0.34503173828125,1.2055511474609375
1686426290777327000,0.9913271484375,0.1279754638671875,0.3108978271484375,1.2640533447265625
1686426290787272200,1.001272216796875,0.0986785888671875,0.279144287109375,1.33349609375
1686426290797217000,1.011217041015625,0.071441650390625,0.2606658935546875,1.3906707763671875
1686426290807162000,1.021162109375,0.0502777099609375,0.2350921630859375,1.4399871826171875
1686426290817106000,1.03110595703125,0.028778076171875,0.1806793212890625,1.49163818359375
1686426290827051300,1.04105126953125,0.0227813720703125,0.131561279296875,1.5237884521484375
1686426290836996000,1.05099609375,0.046539306640625,0.0745849609375,1.54058837890625
1686426290846941200,1.060941162109375,0.0726776123046875,0.0048370361328125,1.54046630859375
1686426290856886300,1.07088623046875,0.1047515869140625,-0.045684814453125,1.50714111328125
1686426290866831000,1.0808310546875,0.14349365234375,-0.089691162109375,1.4583587646484375
1686426290876776200,1.090776123046875,0.1830902099609375,-0.1279144287109375,1.3926544189453125
1686426290886720300,1.10072021484375,0.2311859130859375,-0.1668243408203125,1.3155975341796875
1686426290896665000,1.1106650390625,0.2954559326171875,-0.211456298828125,1.235504150390625
1686426290906610000,1.12060986328125,0.3871612548828125,-0.2623138427734375,1.1510162353515625
1686426290916555300,1.13055517578125,0.4528961181640625,-0.2999420166015625,1.06951904296875
1686426290926500000,1.1405,0.4770965576171875,-0.3044891357421875,0.9967498779296875
1686426290936445000,1.15044482421875,0.4389495849609375,-0.266754150390625,0.954010009765625
1686426290946390300,1.160390380859375,0.337982177734375,-0.1981201171875,0.944366455078125
1686426290956335000,1.170335205078125,0.236480712890625,-0.1207733154296875,0.94024658203125
1686426290966279000,1.18027880859375,0.1388397216796875,-0.0285491943359375,0.9245147705078125
1686426290976224300,1.190224365234375,0.0323486328125,0.0938720703125,0.9048309326171875
1686426290986169000,1.200169189453125,-0.047637939453125,0.2529296875,0.8407745361328125
1686426290996114000,1.210114013671875,-0.079620361328125,0.4010772705078125,0.7515716552734375
1686426291006059300,1.220059326171875,-0.0902557373046875,0.535675048828125,0.6728668212890625
1686426291016004000,1.230004150390625,-0.17169189453125,0.6229095458984375,0.632659912109375
1686426291025949000,1.239948974609375,-0.2957763671875,0.6815338134765625,0.6591339111328125
1686426291035894300,1.249894287109375,-0.3848876953125,0.6873931884765625,0.76068115234375
1686426291045837000,1.259837158203125,-0.359832763671875,0.604248046875,0.934600830078125
1686426291055782400,1.269782470703125,-0.1323699951171875,0.4156646728515625,1.1341705322265625
1686426291065727200,1.279727294921875,0.021087646484375,0.2530670166015625,1.2552490234375
1686426291075672000,1.289672119140625,0.05572509765625,0.2098236083984375,1.335418701171875
1686426291085617400,1.299617431640625,0.017486572265625,0.22869873046875,1.4001922607421875
1686426291095562200,1.309562255859375,-0.006195068359375,0.2801513671875,1.4043731689453125
1686426291105507000,1.319507080078125,-0.0213775634765625,0.3443603515625,1.3541717529296875
1686426291115451400,1.329451416015625,-0.088623046875,0.36767578125,1.271453857421875
1686426291125396200,1.339396240234375,-0.114593505859375,0.3699798583984375,1.1850128173828125
1686426291135341000,1.349341064453125,-0.139678955078125,0.3702239990234375,1.099853515625
1686426291145286400,1.359286376953125,-0.1699066162109375,0.3356781005859375,1.060089111328125
1686426291155231200,1.369231201171875,-0.2038421630859375,0.302642822265625,1.0590362548828125
1686426291165176000,1.379176025390625,-0.2090911865234375,0.3446807861328125,1.0588226318359375
1686426291175121400,1.389121337890625,-0.2328643798828125,0.426513671875,1.063201904296875
1686426291185066200,1.399066162109375,-0.300872802734375,0.4919891357421875,1.0749969482421875
1686426291195010300,1.40901025390625,-0.3111724853515625,0.4298858642578125,1.1699676513671875
1686426291204955400,1.418955322265625,-0.2561798095703125,0.2490081787109375,1.382720947265625
1686426291214900200,1.428900146484375,-0.3314208984375,0.08172607421875,1.596282958984375
1686426291224845000,1.438844970703125,-0.4952239990234375,0.0660400390625,1.6510772705078125
1686426291234790400,1.448790283203125,-0.61627197265625,0.181732177734375,1.602020263671875
1686426291244735200,1.4587353515625,-0.608551025390625,0.3922576904296875,1.46759033203125
1686426291254680000,1.46868017578125,-0.5865631103515625,0.5739593505859375,1.2980804443359375
1686426291264624400,1.478624267578125,-0.5764923095703125,0.6460418701171875,1.054107666015625
1686426291274569200,1.4885693359375,-0.5110015869140625,0.540557861328125,0.797149658203125
1686426291284514300,1.498514404296875,-0.2369537353515625,0.4433746337890625,0.5063323974609375
1686426291294459400,1.50845947265625,-0.2562103271484375,0.3661041259765625,0.38787841796875
1686426291304404200,1.518404296875,-0.434722900390625,0.2841339111328125,0.4788360595703125
1686426291314349000,1.52834912109375,-0.3637237548828125,0.4193572998046875,0.51177978515625
1686426291324294400,1.53829443359375,-0.206573486328125,0.46539306640625,0.4374237060546875
1686426291334239200,1.5482392578125,-0.0087432861328125,0.47674560546875,0.3721771240234375
1686426291344183300,1.558183349609375,0.1258087158203125,0.3945770263671875,0.43994140625
1686426291354128100,1.568128173828125,0.143798828125,0.296783447265625,0.4733428955078125
1686426291364073200,1.5780732421875,0.1158905029296875,0.1289825439453125,0.517669677734375
1686426291374018300,1.588018310546875,0.1636962890625,0.1032257080078125,0.5557403564453125
1686426291383963400,1.59796337890625,0.15875244140625,0.1481475830078125,0.5964813232421875
1686426291393908200,1.607908203125,0.1233062744140625,0.167633056640625,0.6549224853515625
1686426291403853000,1.61785302734375,0.1069488525390625,0.208343505859375,0.7013702392578125
1686426291413798400,1.62779833984375,0.1068267822265625,0.2503204345703125,0.744964599609375
1686426291423742200,1.6377421875,0.1451568603515625,0.305816650390625,0.770751953125
1686426291433687300,1.647687255859375,0.1455841064453125,0.314697265625,0.7564697265625
1686426291443632000,1.657632080078125,0.145111083984375,0.278656005859375,0.7242431640625
1686426291453577200,1.6675771484375,0.105621337890625,0.1885528564453125,0.7013092041015625
1686426291463522300,1.677522216796875,0.1243438720703125,0.1409759521484375,0.668365478515625
1686426291473467400,1.68746728515625,0.175079345703125,0.128631591796875,0.6148529052734375
1686426291483412200,1.697412109375,0.20068359375,0.134796142578125,0.5926971435546875
1686426291493357000,1.707357177734375,0.1974029541015625,0.1597900390625,0.6318817138671875
1686426291503301000,1.717301025390625,0.1516876220703125,0.1807098388671875,0.6539764404296875
1686426291513246200,1.72724609375,0.1319427490234375,0.2345123291015625,0.6671142578125
1686426291523191300,1.73719140625,0.138031005859375,0.2459869384765625,0.685791015625
1686426291533136100,1.74713623046875,0.0978240966796875,0.2708892822265625,0.6673431396484375
1686426291543081200,1.757081298828125,0.003021240234375,0.35382080078125,0.7498779296875
1686426291553026300,1.7670263671875,0.0323028564453125,0.4851531982421875,0.8317108154296875
1686426291562971400,1.776971435546875,0.0028228759765625,0.51202392578125,0.8434906005859375
1686426291572915200,1.786915283203125,0.00469970703125,0.54669189453125,0.8404083251953125
1686426291582860300,1.7968603515625,0.1002655029296875,0.6092987060546875,0.877960205078125
1686426291592805000,1.80680517578125,0.2177581787109375,0.625091552734375,0.9370880126953125
1686426291602750200,1.816750244140625,0.2950592041015625,0.62139892578125,1.0026702880859375
1686426291612695300,1.8266953125,0.336822509765625,0.5945281982421875,1.0573577880859375
1686426291622640000,1.83664013671875,0.430328369140625,0.596832275390625,1.07061767578125
1686426291632585200,1.846585205078125,0.5413360595703125,0.613311767578125,1.014556884765625
1686426291642530300,1.8565302734375,0.5620574951171875,0.5966949462890625,0.9544219970703125
1686426291652475400,1.866475341796875,0.5676116943359375,0.5614166259765625,0.904876708984375
1686426291662419200,1.876419189453125,0.6051025390625,0.590606689453125,0.8768768310546875
1686426291672364300,1.8863642578125,0.5269775390625,0.5498504638671875,0.813018798828125
1686426291682309000,1.89630908203125,0.3980712890625,0.5418701171875,0.721649169921875
1686426291692254200,1.906254150390625,0.1704559326171875,0.638580322265625,0.7231292724609375
1686426291702199300,1.91619921875,-0.147369384765625,0.8263397216796875,0.8018341064453125
1686426291712144100,1.92614404296875,-0.2755126953125,1.06982421875,0.8745574951171875
1686426291722089200,1.936089111328125,-0.2788543701171875,1.321624755859375,0.9028472900390625
1686426291732033300,1.946033203125,-0.236480712890625,1.550140380859375,0.89990234375
1686426291741978000,1.95597802734375,-0.17681884765625,1.729644775390625,0.8665008544921875
1686426291751923200,1.965923095703125,-0.1997528076171875,1.7501678466796875,0.8515167236328125
1686426291761868300,1.975868408203125,-0.2529144287109375,1.562591552734375,0.804534912109375
1686426291771813000,1.985813232421875,-0.268096923828125,1.29931640625,0.793792724609375
1686426291781758200,1.99575830078125,-0.2998046875,1.062774658203125,0.8210906982421875
1686426291791703300,2.005703369140625,-0.3418731689453125,0.8856964111328125,0.8439483642578125
1686426291801648000,2.015648193359375,-0.3823089599609375,0.7519989013671875,0.8563232421875
1686426291811592400,2.025592529296875,-0.412200927734375,0.672698974609375,0.8467559814453125
1686426291821537300,2.035537353515625,-0.43341064453125,0.6425628662109375,0.8167877197265625
1686426291831482000,2.045482177734375,-0.4152984619140625,0.647613525390625,0.78082275390625
1686426291841427200,2.05542724609375,-0.3525543212890625,0.662353515625,0.730865478515625
1686426291851372300,2.065372314453125,-0.2686004638671875,0.6592254638671875,0.665374755859375
1686426291861317000,2.075317138671875,-0.1718597412109375,0.629608154296875,0.5739898681640625
1686426291871262200,2.08526220703125,-0.0585784912109375,0.6173095703125,0.5121002197265625
1686426291881207300,2.095207275390625,0.0261688232421875,0.6491851806640625,0.46258544921875
1686426291891151000,2.105151123046875,0.07379150390625,0.708892822265625,0.4468231201171875
1686426291901096400,2.115096435546875,0.0948028564453125,0.7365875244140625,0.3505859375
1686426291911041300,2.125041259765625,0.1059112548828125,0.7519683837890625,0.232757568359375
1686426291920986000,2.134986083984375,0.102386474609375,0.7484130859375,0.1259765625
1686426291930931500,2.144931396484375,0.081756591796875,0.700836181640625,0.060943603515625
1686426291940876300,2.154876220703125,0.0905609130859375,0.6284332275390625,0.0334320068359375
1686426291950821000,2.164821044921875,0.119171142578125,0.584808349609375,0.0528106689453125
1686426291960766200,2.17476611328125,0.1457672119140625,0.54803466796875,0.075103759765625
1686426291970710300,2.184710205078125,0.151763916015625,0.4573516845703125,0.1239776611328125
1686426291980655000,2.194655029296875,0.139007568359375,0.3350372314453125,0.1942901611328125
1686426291990600400,2.204600341796875,0.077178955078125,0.3112640380859375,0.1870880126953125
1686426292000545300,2.214545166015625,-0.03143310546875,0.326873779296875,0.1574859619140625
1686426292010490000,2.224489990234375,-0.120941162109375,0.3621673583984375,0.1359100341796875
1686426292020435500,2.234435546875,-0.1905364990234375,0.40008544921875,0.1050567626953125
1686426292030380300,2.24438037109375,-0.2638702392578125,0.44903564453125,0.0633544921875
1686426292040325000,2.2543251953125,-0.312042236328125,0.5295257568359375,0.032379150390625
1686426292050270200,2.264270263671875,-0.354095458984375,0.6232757568359375,0.017913818359375
1686426292060215000,2.274215087890625,-0.3635406494140625,0.816070556640625,0.055389404296875
1686426292070160100,2.28416015625,-0.2902374267578125,1.2579345703125,0.1499176025390625
1686426292080105000,2.29410498046875,-0.1829376220703125,2.062042236328125,0.282073974609375
1686426292090050000,2.304050048828125,0.08544921875,2.5293121337890625,0.239166259765625
1686426292099995100,2.3139951171875,0.4677276611328125,2.29638671875,0.1354522705078125
1686426292109940000,2.32393994140625,0.5619049072265625,1.6502227783203125,0.226806640625
1686426292119885000,2.333885009765625,0.3275299072265625,1.2969512939453125,0.3349761962890625
1686426292129830100,2.343830078125,0.0204010009765625,1.21649169921875,0.3493499755859375
1686426292139774200,2.353774169921875,-0.1637420654296875,1.2070770263671875,0.291595458984375
1686426292149719000,2.363718994140625,-0.1480255126953125,1.1854248046875,0.274993896484375
1686426292159663900,2.373663818359375,0.0309295654296875,1.1733551025390625,0.30206298828125
1686426292169609000,2.38360888671875,0.1766510009765625,1.2334747314453125,0.301849365234375
1686426292179554000,2.393553955078125,0.195343017578125,1.3207855224609375,0.25775146484375
1686426292189499100,2.4034990234375,0.1153106689453125,1.407867431640625,0.1844940185546875
1686426292199444000,2.41344384765625,0.0035400390625,1.465667724609375,0.1252593994140625
1686426292209389000,2.42338916015625,-0.0604095458984375,1.487579345703125,0.1131591796875
1686426292219332900,2.433332763671875,-0.105560302734375,1.470947265625,0.119171142578125
1686426292229278200,2.4432783203125,-0.18121337890625,1.4115447998046875,0.0948638916015625
1686426292239223000,2.45322314453125,-0.2605133056640625,1.364776611328125,0.1283721923828125
1686426292249168000,2.46316796875,-0.3377532958984375,1.2906951904296875,0.167694091796875
1686426292259113000,2.473113037109375,-0.4344329833984375,1.22003173828125,0.1662445068359375
1686426292269058000,2.48305810546875,-0.508514404296875,1.15985107421875,0.140899658203125
1686426292279003100,2.493003173828125,-0.551727294921875,1.11383056640625,0.0552825927734375
1686426292288948000,2.502947998046875,-0.56768798828125,1.065460205078125,-0.086456298828125
1686426292298892000,2.51289208984375,-0.5570068359375,1.0132598876953125,-0.2095794677734375
1686426292308836900,2.5228369140625,-0.5149993896484375,0.9894561767578125,-0.2591094970703125
1686426292318782200,2.5327822265625,-0.474151611328125,0.95159912109375,-0.2221832275390625
1686426292328727000,2.54272705078125,-0.4429473876953125,0.8900146484375,-0.229156494140625
1686426292338671900,2.552671875,-0.44989013671875,0.9165802001953125,-0.3538818359375
1686426292348617000,2.562616943359375,-0.5011138916015625,1.0240020751953125,-0.5018768310546875
1686426292358562000,2.57256201171875,-0.546295166015625,1.185394287109375,-0.66668701171875
1686426292368507100,2.582507080078125,-0.5070953369140625,1.2766265869140625,-0.694915771484375
1686426292378451200,2.592451171875,-0.3799896240234375,1.2994384765625,-0.65313720703125
1686426292388396000,2.60239599609375,-0.253509521484375,1.2557525634765625,-0.5792236328125
1686426292398340900,2.6123408203125,-0.148681640625,1.0880889892578125,-0.4761962890625
1686426292408286200,2.6222861328125,-0.08123779296875,0.893829345703125,-0.3429412841796875
1686426292418231000,2.63223095703125,-0.02911376953125,0.7799835205078125,-0.1768798828125
1686426292428176000,2.64217578125,-0.010955810546875,0.712554931640625,-0.00970458984375
1686426292438121000,2.652120849609375,-0.0150299072265625,0.6862640380859375,0.133819580078125
1686426292448066000,2.662066162109375,-0.0125885009765625,0.6853485107421875,0.2476348876953125
1686426292458011100,2.67201123046875,-0.032470703125,0.6855316162109375,0.308135986328125
1686426292467955200,2.681955078125,-0.0709686279296875,0.6810455322265625,0.347320556640625
1686426292477900000,2.691900146484375,-0.034088134765625,0.7412567138671875,0.4070587158203125
1686426292487844900,2.701844970703125,0.0073394775390625,0.8087615966796875,0.467376708984375
1686426292497790200,2.711790283203125,0.011749267578125,0.841583251953125,0.4879913330078125
1686426292507735000,2.721735107421875,0.031158447265625,0.8381805419921875,0.4804229736328125
1686426292517679900,2.731679931640625,0.10791015625,0.79400634765625,0.3902435302734375
1686426292527625000,2.741625,0.15509033203125,0.693023681640625,0.33001708984375
1686426292537570000,2.751570068359375,0.1598358154296875,0.585174560546875,0.28009033203125
1686426292547513900,2.761513916015625,0.1326904296875,0.5146484375,0.2087860107421875
1686426292557459200,2.771459228515625,0.1162872314453125,0.4567413330078125,0.1196136474609375
1686426292567404000,2.781404052734375,0.1324462890625,0.4284515380859375,0.019195556640625
1686426292577348900,2.791348876953125,0.1719207763671875,0.452667236328125,-0.0843505859375
1686426292587294200,2.801294189453125,0.2118988037109375,0.50665283203125,-0.1361846923828125
1686426292597239000,2.811239013671875,0.2568206787109375,0.654571533203125,-0.0978851318359375
1686426292607184000,2.821183837890625,0.285552978515625,0.7272186279296875,0.0108795166015625
1686426292617129000,2.83112890625,0.29180908203125,0.78857421875,0.025421142578125
1686426292627074000,2.841073974609375,0.274627685546875,0.8701171875,-0.0220489501953125
1686426292637017900,2.851017822265625,0.236083984375,0.9413909912109375,-0.092071533203125
1686426292646963200,2.860963134765625,0.17535400390625,1.0555877685546875,-0.1697235107421875
1686426292656908000,2.870907958984375,0.07501220703125,1.1676025390625,-0.2421722412109375
1686426292666852900,2.880852783203125,-0.057281494140625,1.239288330078125,-0.2538299560546875
1686426292676798200,2.890798095703125,-0.1848602294921875,1.34600830078125,-0.2218170166015625
1686426292686743000,2.900742919921875,-0.2038421630859375,1.5175018310546875,-0.1303558349609375
1686426292696687900,2.91068798828125,0.0039520263671875,1.5981292724609375,-0.0561676025390625
1686426292706633200,2.92063330078125,0.3283538818359375,1.5630035400390625,-0.07391357421875
1686426292716578000,2.930578125,0.6104278564453125,1.4534149169921875,-0.094635009765625
1686426292726521900,2.94052197265625,0.7457122802734375,1.399505615234375,-0.1486053466796875
1686426292736467200,2.95046728515625,0.6638641357421875,1.4449920654296875,-0.191070556640625
1686426292746412000,2.960412109375,0.4544677734375,1.538543701171875,-0.175201416015625
1686426292756356900,2.97035693359375,0.22503662109375,1.594818115234375,-0.1763763427734375
1686426292766302200,2.98030224609375,-0.0130462646484375,1.554290771484375,-0.21783447265625
1686426292776247000,2.9902470703125,-0.282562255859375,1.4994354248046875,-0.2206268310546875
1686426292786192000,3.00019189453125,-0.457489013671875,1.4331512451171875,-0.2029876708984375
1686426292796137200,3.01013720703125,-0.4813690185546875,1.2993316650390625,-0.132598876953125
1686426292806082000,3.02008203125,-0.422271728515625,1.1761016845703125,-0.1390533447265625
1686426292816025900,3.03002587890625,-0.3511962890625,1.0639495849609375,-0.23565673828125
1686426292825971200,3.03997119140625,-0.2371673583984375,0.938995361328125,-0.29522705078125
1686426292835916000,3.049916015625,-0.0948638916015625,0.8181304931640625,-0.270904541015625
1686426292845860900,3.05986083984375,-0.0615997314453125,0.7162322998046875,-0.2263031005859375
1686426292855806200,3.06980615234375,-0.1736297607421875,0.633056640625,-0.173675537109375
1686426292865751000,3.0797509765625,-0.3829193115234375,0.554962158203125,-0.126739501953125
1686426292875695900,3.08969580078125,-0.6080169677734375,0.519683837890625,-0.1023406982421875
1686426292885641200,3.09964111328125,-0.73321533203125,0.5810546875,-0.0680084228515625
1686426292895585000,3.1095849609375,-0.7821807861328125,0.6304473876953125,-0.03448486328125
1686426292905529900,3.11952978515625,-0.8409881591796875,0.7203216552734375,0.125457763671875
1686426292915475200,3.12947509765625,-0.7913055419921875,0.930328369140625,0.29949951171875
1686426292925420000,3.139419921875,-0.6905364990234375,1.1334686279296875,0.3194580078125
1686426292935364900,3.14936474609375,-0.52203369140625,1.284881591796875,0.1605987548828125
1686426292945310200,3.159310302734375,-0.3059844970703125,1.3441009521484375,0.012603759765625
1686426292955255000,3.169255126953125,-0.13311767578125,1.2996826171875,0.0146484375
1686426292965200000,3.179199951171875,-0.0312957763671875,1.189422607421875,0.0163726806640625
1686426292975145200,3.189145263671875,-0.0072479248046875,1.0607452392578125,-0.02667236328125
1686426292985090000,3.199090087890625,-0.023895263671875,0.960113525390625,-0.06451416015625
1686426292995033900,3.209033935546875,-0.041839599609375,0.8675079345703125,-0.13134765625
1686426293004979200,3.218979248046875,-0.0382537841796875,0.7755126953125,-0.1724853515625
1686426293014924000,3.228924072265625,-0.01470947265625,0.70220947265625,-0.1730499267578125
1686426293024868900,3.238868896484375,0.031768798828125,0.652801513671875,-0.17620849609375
1686426293034814200,3.248814208984375,0.0700225830078125,0.6251678466796875,-0.1715545654296875
1686426293044759000,3.258759033203125,0.098114013671875,0.5995635986328125,-0.1708221435546875
1686426293054703400,3.268703369140625,0.0923919677734375,0.5864715576171875,-0.1489410400390625
1686426293064648400,3.2786484375,0.0592803955078125,0.595245361328125,-0.11224365234375
1686426293074592500,3.288592529296875,0.0194854736328125,0.61505126953125,-0.089599609375
1686426293084537600,3.29853759765625,-0.02252197265625,0.6498260498046875,-0.0720977783203125
1686426293094482400,3.308482421875,-0.0551605224609375,0.6885223388671875,-0.0558013916015625
1686426293104427500,3.318427490234375,-0.0762176513671875,0.722686767578125,-0.0294189453125
1686426293114372600,3.32837255859375,-0.0664215087890625,0.775177001953125,0.009796142578125
1686426293124317400,3.3383173828125,-0.021636962890625,0.8455810546875,0.0779876708984375
1686426293134262500,3.348262451171875,0.0438690185546875,0.9111785888671875,0.1494140625
1686426293144207400,3.358207275390625,0.1026458740234375,0.96099853515625,0.2113037109375
1686426293154152400,3.36815234375,0.1247100830078125,0.9800262451171875,0.26727294921875
1686426293164097500,3.37809765625,0.0888671875,1.0020751953125,0.2896728515625
1686426293174041600,3.38804150390625,-0.0113067626953125,1.0314483642578125,0.270599365234375
1686426293183986400,3.397986328125,-0.1437530517578125,1.0525360107421875,0.2569580078125
1686426293193931500,3.407931640625,-0.2378082275390625,1.0783538818359375,0.261260986328125
1686426293203876600,3.417876708984375,-0.2619781494140625,1.105682373046875,0.3032379150390625
1686426293213821400,3.427821533203125,-0.1947021484375,1.1452484130859375,0.4087982177734375
1686426293223766500,3.4377666015625,-0.09228515625,1.19476318359375,0.48248291015625
1686426293233711400,3.44771142578125,0.0154571533203125,1.252532958984375,0.4702911376953125
1686426293243656400,3.457656494140625,0.12469482421875,1.2982940673828125,0.3795928955078125
1686426293253601500,3.4676015625,0.19403076171875,1.312957763671875,0.3303680419921875
1686426293263545600,3.477545654296875,0.1936798095703125,1.3296356201171875,0.314453125
1686426293273490400,3.487490478515625,0.110626220703125,1.3623809814453125,0.2808074951171875
1686426293283435500,3.497435546875,-0.0001373291015625,1.3882598876953125,0.2305145263671875
1686426293293380600,3.507380615234375,-0.09466552734375,1.39031982421875,0.186981201171875
1686426293303325400,3.517325439453125,-0.1329498291015625,1.3701934814453125,0.1463165283203125
1686426293313270500,3.5272705078125,-0.1192474365234375,1.3337860107421875,0.1880950927734375
1686426293323215400,3.53721533203125,-0.13922119140625,1.3203887939453125,0.23101806640625
1686426293333160400,3.547160400390625,-0.2046966552734375,1.353759765625,0.2034454345703125
1686426293343105500,3.55710546875,-0.2903594970703125,1.388275146484375,0.13873291015625
1686426293353049600,3.567049560546875,-0.35467529296875,1.346405029296875,0.079681396484375
1686426293362994400,3.576994384765625,-0.376220703125,1.206878662109375,0.0514373779296875
1686426293372939500,3.586939453125,-0.4024810791015625,1.0489349365234375,0.080718994140625
1686426293382884600,3.596884521484375,-0.4652099609375,0.92437744140625,0.0978851318359375
1686426293392829400,3.606829345703125,-0.5603179931640625,0.8472137451171875,0.0215911865234375
1686426293402774500,3.6167744140625,-0.6330718994140625,0.843414306640625,-0.094879150390625
1686426293412719600,3.6267197265625,-0.66717529296875,0.9189453125,-0.22259521484375
1686426293422664400,3.63666455078125,-0.65374755859375,1.0279388427734375,-0.3682098388671875
1686426293432609500,3.646609619140625,-0.6024017333984375,1.1371612548828125,-0.53155517578125
1686426293442554400,3.656554443359375,-0.5680084228515625,1.245880126953125,-0.6699066162109375
1686426293452498400,3.66649853515625,-0.57403564453125,1.3376617431640625,-0.788421630859375
1686426293462443500,3.676443603515625,-0.58892822265625,1.388153076171875,-0.89385986328125
1686426293472388600,3.686388671875,-0.5290069580078125,1.389495849609375,-0.95172119140625
1686426293482333400,3.69633349609375,-0.3920745849609375,1.328125,-0.880615234375
1686426293492278500,3.706278564453125,-0.239715576171875,1.1551971435546875,-0.778533935546875
1686426293502223600,3.7162236328125,-0.1045684814453125,0.9547882080078125,-0.6517333984375
1686426293512168400,3.72616845703125,-0.01580810546875,0.8135833740234375,-0.437225341796875
1686426293522113500,3.736113525390625,0.043182373046875,0.776214599609375,-0.1763763427734375
1686426293532058400,3.746058349609375,0.10791015625,0.7867279052734375,0.0643157958984375
1686426293542002400,3.75600244140625,0.1464996337890625,0.8455963134765625,0.2924041748046875
1686426293551947500,3.765947509765625,0.1117706298828125,0.92181396484375,0.4333038330078125
1686426293561892600,3.775892578125,-0.018157958984375,0.968658447265625,0.479034423828125
1686426293571837400,3.78583740234375,-0.1865692138671875,0.9748992919921875,0.498016357421875
1686426293581782500,3.795782470703125,-0.306182861328125,0.9329376220703125,0.4967193603515625
1686426293591727600,3.8057275390625,-0.354400634765625,0.8351593017578125,0.4541778564453125
1686426293601672400,3.81567236328125,-0.3145751953125,0.7191314697265625,0.392608642578125
1686426293611617500,3.825617431640625,-0.2294464111328125,0.6188507080078125,0.32525634765625
1686426293621562400,3.835562255859375,-0.1240081787109375,0.5367889404296875,0.262420654296875
1686426293631507500,3.845507568359375,-0.0431365966796875,0.4570770263671875,0.219818115234375
1686426293641451500,3.855451416015625,0.0035400390625,0.4030303955078125,0.1654815673828125
1686426293651396600,3.865396728515625,0.0522918701171875,0.3591156005859375,0.142547607421875
1686426293661341400,3.875341552734375,0.0782928466796875,0.3624267578125,0.1329345703125
1686426293671286500,3.88528662109375,0.0986480712890625,0.38958740234375,0.1112518310546875
1686426293681231600,3.895231689453125,0.111328125,0.400604248046875,0.055328369140625
1686426293691176400,3.905176513671875,0.11907958984375,0.4117431640625,0.0075836181640625
1686426293701121500,3.91512158203125,0.138458251953125,0.432037353515625,-0.005767822265625
1686426293711066400,3.92506640625,0.1710205078125,0.4786224365234375,-0.0291748046875
1686426293721011500,3.935011474609375,0.2324066162109375,0.5497283935546875,-0.0700836181640625
1686426293730956500,3.94495654296875,0.31134033203125,0.6432952880859375,-0.117706298828125
1686426293740901400,3.9549013671875,0.3724212646484375,0.767486572265625,-0.1595001220703125
1686426293750845400,3.964845458984375,0.41717529296875,0.9172515869140625,-0.2138824462890625
1686426293760790500,3.97479052734375,0.4074859619140625,1.08721923828125,-0.2588958740234375
1686426293770735600,3.984735595703125,0.327972412109375,1.266357421875,-0.299896240234375
1686426293780680400,3.994680419921875,0.2197723388671875,1.43328857421875,-0.3828277587890625
1686426293790625500,4.00462548828125,0.0587158203125,1.6082000732421875,-0.4287261962890625
1686426293800570400,4.0145703125,-0.1705474853515625,1.8079681396484375,-0.3048248291015625
1686426293810515500,4.024515380859375,-0.2194671630859375,1.891815185546875,-0.1309814453125
1686426293820460500,4.03446044921875,0.0596466064453125,1.7637176513671875,-0.101837158203125
1686426293830405400,4.0444052734375,0.4156951904296875,1.5315093994140625,-0.169921875
1686426293840349400,4.054349365234375,0.6536865234375,1.3460235595703125,-0.2617950439453125
1686426293850294500,4.06429443359375,0.69879150390625,1.2205963134765625,-0.2834930419921875
1686426293860239600,4.074239501953125,0.564208984375,1.143310546875,-0.2181854248046875
1686426293870184400,4.084184326171875,0.377532958984375,1.17486572265625,-0.1794891357421875
1686426293880129500,4.094129638671875,0.214447021484375,1.3132171630859375,-0.1903228759765625
1686426293890074400,4.104074462890625,0.06475830078125,1.4654083251953125,-0.2569580078125
1686426293900019500,4.11401953125,-0.102783203125,1.584320068359375,-0.260528564453125
1686426293909964500,4.123964599609375,-0.2924652099609375,1.518585205078125,-0.1806182861328125
1686426293919909400,4.133909423828125,-0.3673553466796875,1.347076416015625,-0.1124267578125
1686426293929854500,4.1438544921875,-0.3629150390625,1.1921234130859375,-0.2152099609375
1686426293939799600,4.153799560546875,-0.3621978759765625,0.9708404541015625,-0.4503173828125
1686426293949743600,4.16374365234375,-0.3284759521484375,0.8597869873046875,-0.502685546875
1686426293959688400,4.1736884765625,-0.243896484375,0.8110809326171875,-0.45947265625
1686426293969633500,4.183633544921875,-0.2060699462890625,0.7629852294921875,-0.395782470703125
1686426293979578400,4.193578369140625,-0.2595367431640625,0.6883392333984375,-0.23028564453125
1686426293989523500,4.2035234375,-0.3735809326171875,0.614105224609375,-0.1081390380859375
1686426293999468500,4.213468505859375,-0.512420654296875,0.5848236083984375,-0.05303955078125
1686426294009413400,4.223413330078125,-0.6235198974609375,0.610595703125,-0.010345458984375
1686426294019358500,4.2333583984375,-0.6875762939453125,0.6506805419921875,0.018280029296875
1686426294029303600,4.243303466796875,-0.7664794921875,0.7095489501953125,0.09637451171875
1686426294039248400,4.253248291015625,-0.7380218505859375,0.864227294921875,0.2326202392578125
1686426294049192200,4.263192138671875,-0.642486572265625,1.032958984375,0.314544677734375
1686426294059137300,4.27313720703125,-0.5230560302734375,1.1967926025390625,0.3233489990234375
1686426294069082400,4.283082275390625,-0.3591461181640625,1.319549560546875,0.129302978515625
1686426294079027200,4.293027099609375,-0.219451904296875,1.291168212890625,-0.0293731689453125
1686426294088972300,4.30297216796875,-0.129791259765625,1.1674346923828125,-0.0605926513671875
1686426294098917000,4.312917236328125,-0.11895751953125,1.02972412109375,-0.0494384765625
1686426294108862500,4.322862548828125,-0.156341552734375,0.8773345947265625,-0.017242431640625
1686426294118807300,4.332807373046875,-0.1253662109375,0.7860870361328125,-0.0376434326171875
1686426294128752000,4.342752197265625,-0.0841217041015625,0.7256317138671875,-0.0843963623046875
1686426294138697500,4.352697509765625,-0.062286376953125,0.68878173828125,-0.0851287841796875
1686426294148641300,4.362641357421875,-0.0069122314453125,0.660064697265625,-0.0603790283203125
1686426294158586400,4.37258642578125,0.054443359375,0.6176605224609375,-0.074371337890625
1686426294168531200,4.38253125,0.0882415771484375,0.5943756103515625,-0.076202392578125
1686426294178476300,4.392476318359375,0.10064697265625,0.571319580078125,-0.0512237548828125
1686426294188421400,4.40242138671875,0.1086273193359375,0.5525360107421875,-0.030853271484375
1686426294198366200,4.4123662109375,0.107025146484375,0.558319091796875,-0.0339813232421875
1686426294208311300,4.422311279296875,0.0855560302734375,0.5928192138671875,-0.057373046875
1686426294218256100,4.432256103515625,0.048858642578125,0.6526031494140625,-0.074249267578125
1686426294228201500,4.442201416015625,-0.009490966796875,0.731903076171875,-0.0810089111328125
1686426294238146300,4.452146240234375,-0.056671142578125,0.83160400390625,-0.0507965087890625
1686426294248090400,4.46209033203125,-0.054595947265625,0.9293060302734375,0.0351104736328125
1686426294258035200,4.47203515625,0.0044097900390625,1.0191497802734375,0.1399688720703125
1686426294267980300,4.481980224609375,0.069244384765625,1.1177520751953125,0.1751861572265625
1686426294277925400,4.49192529296875,0.066497802734375,1.1846771240234375,0.228668212890625
1686426294287870200,4.5018701171875,-0.010711669921875,1.2166900634765625,0.2821807861328125
1686426294297815300,4.511815185546875,-0.106109619140625,1.2133636474609375,0.3150177001953125
1686426294307760000,4.521760009765625,-0.1465301513671875,1.2053680419921875,0.3263092041015625
1686426294317705500,4.53170556640625,-0.11053466796875,1.20562744140625,0.3457183837890625
1686426294327650300,4.541650390625,-0.0215911865234375,1.2092437744140625,0.3926849365234375
1686426294337595100,4.55159521484375,0.10284423828125,1.227508544921875,0.4182586669921875
1686426294347540500,4.56154052734375,0.1839752197265625,1.2518157958984375,0.367431640625
1686426294357484300,4.571484375,0.1740875244140625,1.26715087890625,0.29840087890625
1686426294367429400,4.581429443359375,0.1248931884765625,1.29583740234375,0.2823486328125
1686426294377374200,4.591374267578125,0.0820770263671875,1.3423614501953125,0.2581329345703125
1686426294387319300,4.6013193359375,0.020355224609375,1.389495849609375,0.2290802001953125
1686426294397264100,4.61126416015625,-0.0518035888671875,1.4373779296875,0.2161407470703125
1686426294407209500,4.62120947265625,-0.099578857421875,1.462890625,0.2323760986328125
1686426294417154300,4.631154296875,-0.1312408447265625,1.499755859375,0.247589111328125
1686426294427099100,4.64109912109375,-0.18878173828125,1.520599365234375,0.2374114990234375
1686426294437044500,4.65104443359375,-0.2648773193359375,1.5154266357421875,0.18096923828125
1686426294446989300,4.6609892578125,-0.304901123046875,1.401641845703125,0.1470794677734375
1686426294456934100,4.67093408203125,-0.3286285400390625,1.20184326171875,0.1434478759765625
1686426294466878200,4.680878173828125,-0.366180419921875,1.039703369140625,0.164764404296875
1686426294476823300,4.6908232421875,-0.4288330078125,0.9320220947265625,0.1716766357421875
1686426294486768000,4.70076806640625,-0.52825927734375,0.85626220703125,0.1035614013671875
1686426294496713500,4.71071337890625,-0.6343841552734375,0.8266448974609375,-0.000823974609375
1686426294506658300,4.720658203125,-0.693603515625,0.8520050048828125,-0.1152191162109375
1686426294516603100,4.73060302734375,-0.668670654296875,0.90093994140625,-0.241058349609375
1686426294526548500,4.740548583984375,-0.595855712890625,0.9803619384765625,-0.3947601318359375
1686426294536493300,4.750493408203125,-0.5667724609375,1.10272216796875,-0.5304718017578125
1686426294546438100,4.760438232421875,-0.5788116455078125,1.2260589599609375,-0.6766204833984375
1686426294556383500,4.770383544921875,-0.6036376953125,1.3072509765625,-0.821044921875
1686426294566328300,4.780328369140625,-0.5709991455078125,1.32806396484375,-0.8401641845703125
1686426294576272100,4.790272216796875,-0.4379730224609375,1.2881011962890625,-0.7543487548828125
1686426294586217200,4.80021728515625,-0.295379638671875,1.1643524169921875,-0.632049560546875
1686426294596162300,4.810162353515625,-0.1900177001953125,0.98095703125,-0.52215576171875
1686426294606107100,4.820107177734375,-0.079559326171875,0.85284423828125,-0.3882293701171875
1686426294616052500,4.830052490234375,-0.0154266357421875,0.7970733642578125,-0.1721038818359375
1686426294625997300,4.839997314453125,0.02166748046875,0.7725830078125,0.0569610595703125
1686426294635942100,4.849942138671875,0.04754638671875,0.767852783203125,0.227752685546875
1686426294645887500,4.859887451171875,0.07098388671875,0.817901611328125,0.39697265625
1686426294655832300,4.869832275390625,0.0396881103515625,0.874603271484375,0.512908935546875
1686426294665777200,4.879777099609375,-0.0718231201171875,0.914459228515625,0.5301971435546875
1686426294675722200,4.88972216796875,-0.185028076171875,0.9278717041015625,0.5027008056640625
1686426294685666300,4.899666259765625,-0.232818603515625,0.894805908203125,0.4539794921875
1686426294695611100,4.909611083984375,-0.1631011962890625,0.817535400390625,0.4205780029296875
1686426294705556500,4.919556396484375,-0.0298614501953125,0.726104736328125,0.345001220703125
1686426294715501300,4.929501220703125,0.0756683349609375,0.63140869140625,0.2624053955078125
1686426294725446100,4.939446044921875,0.119293212890625,0.51837158203125,0.2320098876953125
1686426294735391500,4.9493916015625,0.1189117431640625,0.4291839599609375,0.2127227783203125
1686426294745336300,4.95933642578125,0.1112518310546875,0.37518310546875,0.1811981201171875
1686426294755281200,4.96928125,0.10186767578125,0.3484039306640625,0.1353607177734375
1686426294765226200,4.979226318359375,0.0854644775390625,0.3353729248046875,0.0914764404296875
1686426294775171300,4.98917138671875,0.0833740234375,0.3592987060546875,0.064117431640625
1686426294785116200,4.9991162109375,0.106048583984375,0.4162445068359375,0.05120849609375
1686426294795061200,5.009061279296875,0.1527099609375,0.4874420166015625,0.0346832275390625
1686426294805005300,5.01900537109375,0.249725341796875,0.5713958740234375,0.022308349609375
1686426294814950100,5.0289501953125,0.393524169921875,0.662078857421875,0.0065765380859375
1686426294824895500,5.0388955078125,0.5368194580078125,0.7857208251953125,-0.0247039794921875
1686426294834840300,5.04884033203125,0.5718994140625,0.929046630859375,-0.0409393310546875
1686426294844785200,5.05878515625,0.4283447265625,1.023681640625,-0.028778076171875
1686426294854730200,5.068730224609375,0.24359130859375,1.0903167724609375,-0.056976318359375
1686426294864675300,5.07867529296875,0.059112548828125,1.163665771484375,-0.17474365234375
1686426294874620200,5.0886201171875,-0.267181396484375,1.256591796875,-0.3612518310546875
1686426294884565200,5.098565185546875,-0.7050323486328125,1.49237060546875,-0.443634033203125
1686426294894510300,5.10851025390625,-0.808349609375,1.7861480712890625,-0.32275390625
1686426294904455200,5.118455078125,-0.27789306640625,1.84393310546875,-0.2108154296875
1686426294914399500,5.1283994140625,0.4483184814453125,1.72454833984375,-0.1999664306640625
1686426294924344300,5.13834423828125,0.8847808837890625,1.536376953125,-0.4033203125
1686426294934289200,5.1482890625,0.977142333984375,1.2910919189453125,-0.477813720703125
1686426294944234500,5.158234375,0.813812255859375,1.181304931640625,-0.25482177734375
1686426294954179300,5.168179443359375,0.556182861328125,1.2049713134765625,0.0311431884765625
1686426294964124200,5.178124267578125,0.3433074951171875,1.2947540283203125,0.14154052734375
1686426294974069200,5.1880693359375,0.160247802734375,1.3634033203125,0.09942626953125
1686426294984014300,5.198014404296875,-0.03656005859375,1.40142822265625,-0.0150299072265625
1686426294993959200,5.207959228515625,-0.279205322265625,1.37762451171875,-0.13922119140625
1686426295003904300,5.217904296875,-0.4368743896484375,1.3390350341796875,-0.1782684326171875
1686426295013849300,5.227849365234375,-0.42950439453125,1.292449951171875,-0.1637115478515625
1686426295023794200,5.237794189453125,-0.3691864013671875,1.2009429931640625,-0.25030517578125
1686426295033738500,5.247738525390625,-0.281158447265625,1.1136474609375,-0.297882080078125
1686426295043683300,5.257683349609375,-0.17034912109375,1.01568603515625,-0.2805328369140625
1686426295053629000,5.26762890625,-0.0915985107421875,0.898162841796875,-0.235565185546875
1686426295063573800,5.27757373046875,-0.109588623046875,0.766082763671875,-0.160888671875
1686426295073519000,5.28751904296875,-0.2504425048828125,0.653350830078125,-0.082275390625
1686426295083464000,5.2974638671875,-0.480499267578125,0.5928802490234375,-0.0173797607421875
1686426295093408800,5.30740869140625,-0.6891632080078125,0.6019439697265625,0.0286865234375
1686426295103353900,5.317353759765625,-0.797271728515625,0.66259765625,0.073974609375
1686426295113299000,5.327298828125,-0.8281707763671875,0.7394256591796875,0.17822265625
1686426295123243800,5.337243896484375,-0.805328369140625,0.836456298828125,0.305267333984375
1686426295133188900,5.34718896484375,-0.6966552734375,0.9679412841796875,0.4149322509765625
1686426295143133000,5.3571328125,-0.56024169921875,1.1218719482421875,0.410980224609375
1686426295153077800,5.367077880859375,-0.3831634521484375,1.247894287109375,0.24786376953125
1686426295163023000,5.377023193359375,-0.1966400146484375,1.277587890625,0.157470703125
1686426295172968000,5.386968017578125,-0.053558349609375,1.1845245361328125,0.105010986328125
1686426295182912800,5.396912841796875,-0.021942138671875,1.07135009765625,0.05908203125
1686426295192857900,5.40685791015625,-0.039276123046875,0.962799072265625,-0.01202392578125
1686426295202803000,5.416802978515625,-0.049285888671875,0.8855743408203125,-0.0897369384765625
1686426295212747800,5.426747802734375,-0.060882568359375,0.8270416259765625,-0.173095703125
1686426295222692900,5.43669287109375,-0.079071044921875,0.7790985107421875,-0.186279296875
1686426295232638000,5.446637939453125,-0.0672454833984375,0.7562408447265625,-0.1365966796875
1686426295242582800,5.456582763671875,-0.040130615234375,0.71466064453125,-0.108612060546875
1686426295252527900,5.46652783203125,0.00189208984375,0.6535797119140625,-0.1010284423828125
1686426295262472000,5.476471923828125,0.053466796875,0.5891265869140625,-0.0824127197265625
1686426295272416800,5.486416748046875,0.0959014892578125,0.5424652099609375,-0.0289459228515625
1686426295282362000,5.496362060546875,0.1215667724609375,0.5160369873046875,0.0006866455078125
1686426295292307000,5.506306884765625,0.1338348388671875,0.517059326171875,0.00311279296875
1686426295302251800,5.516251708984375,0.124755859375,0.549163818359375,-0.0052337646484375
1686426295312196900,5.52619677734375,0.0732879638671875,0.6179046630859375,0.0075225830078125
1686426295322142000,5.536141845703125,-0.002197265625,0.707763671875,0.038726806640625
1686426295332086800,5.546086669921875,-0.0621490478515625,0.79388427734375,0.09503173828125
1686426295342032000,5.556031982421875,-0.08355712890625,0.87774658203125,0.17608642578125
1686426295351977000,5.56597705078125,-0.081024169921875,0.941619873046875,0.2308807373046875
1686426295361922000,5.575922119140625,-0.081817626953125,0.993133544921875,0.235748291015625
1686426295371867000,5.585866943359375,-0.1085968017578125,1.057769775390625,0.180023193359375
1686426295381812000,5.59581201171875,-0.14208984375,1.1446075439453125,0.119720458984375
1686426295391755800,5.605755859375,-0.1326904296875,1.2325897216796875,0.0772552490234375
1686426295401700900,5.615700927734375,-0.0380706787109375,1.3075408935546875,0.0713348388671875
1686426295411646000,5.62564599609375,0.0971221923828125,1.3546600341796875,0.1114959716796875
1686426295421590800,5.6355908203125,0.2019195556640625,1.3905029296875,0.2340850830078125
1686426295431535900,5.645535888671875,0.2276763916015625,1.399261474609375,0.3356781005859375
1686426295441481000,5.65548095703125,0.127532958984375,1.3679351806640625,0.349212646484375
1686426295451425800,5.66542578125,0.0412445068359375,1.2968597412109375,0.3150482177734375
1686426295461371000,5.675370849609375,0.0547943115234375,1.2440948486328125,0.3566436767578125
1686426295471316000,5.68531591796875,0.1164398193359375,1.2319183349609375,0.39471435546875
1686426295481261000,5.695260986328125,0.121612548828125,1.2471771240234375,0.3821868896484375
1686426295491206000,5.705205810546875,0.0293426513671875,1.2808685302734375,0.3595123291015625
1686426295501150700,5.715150634765625,-0.037139892578125,1.3130950927734375,0.3682861328125
1686426295511094800,5.7250947265625,-0.0990142822265625,1.344879150390625,0.39813232421875
1686426295521040000,5.735039794921875,-0.18621826171875,1.4017791748046875,0.3916168212890625
1686426295530985000,5.74498486328125,-0.2874755859375,1.479827880859375,0.3200531005859375
1686426295540929800,5.7549296875,-0.3457794189453125,1.4810943603515625,0.261871337890625
1686426295550875000,5.764875,-0.3697967529296875,1.365142822265625,0.2300567626953125
1686426295560820000,5.774820068359375,-0.3879547119140625,1.1917266845703125,0.2015228271484375
1686426295570765000,5.78476513671875,-0.4045562744140625,1.0266571044921875,0.2093658447265625
1686426295580710000,5.7947099609375,-0.4537200927734375,0.8922576904296875,0.1767730712890625
1686426295590655000,5.804655029296875,-0.5302886962890625,0.7959442138671875,0.0844573974609375
1686426295600600000,5.81460009765625,-0.6020965576171875,0.760498046875,-0.012237548828125
1686426295610545000,5.824544921875,-0.63323974609375,0.8013153076171875,-0.11444091796875
1686426295620489700,5.83448974609375,-0.619049072265625,0.9028778076171875,-0.2382659912109375
1686426295630435000,5.84443505859375,-0.582427978515625,1.049896240234375,-0.40435791015625
1686426295640379000,5.85437890625,-0.5677642822265625,1.195953369140625,-0.541778564453125
1686426295650324000,5.864323974609375,-0.56103515625,1.3132171630859375,-0.6704254150390625
1686426295660269000,5.87426904296875,-0.5401153564453125,1.3933258056640625,-0.78546142578125
1686426295670214000,5.8842138671875,-0.4709625244140625,1.4298553466796875,-0.7940216064453125
1686426295680159000,5.894158935546875,-0.343902587890625,1.391754150390625,-0.708953857421875
1686426295690104000,5.90410400390625,-0.18255615234375,1.23040771484375,-0.584259033203125
1686426295700049000,5.914048828125,-0.0559234619140625,1.0023651123046875,-0.448974609375
1686426295709993700,5.92399365234375,0.0013427734375,0.8619537353515625,-0.296966552734375
1686426295719939000,5.93393896484375,0.044769287109375,0.812652587890625,-0.1044464111328125
1686426295729884000,5.9438837890625,0.100433349609375,0.8105621337890625,0.0928497314453125
1686426295739828700,5.953828857421875,0.15509033203125,0.85882568359375,0.300506591796875
1686426295749774000,5.963774169921875,0.0997467041015625,0.8963470458984375,0.4454345703125
1686426295759719000,5.973718994140625,-0.0372314453125,0.91217041015625,0.55462646484375
1686426295769663000,5.9836630859375,-0.2110595703125,0.911590576171875,0.5941009521484375
1686426295779608000,5.993608154296875,-0.32012939453125,0.862030029296875,0.5340423583984375
1686426295789553000,6.003552978515625,-0.3019256591796875,0.7891845703125,0.433868408203125
1686426295799497700,6.013497802734375,-0.2029571533203125,0.7204742431640625,0.361602783203125
1686426295809443000,6.023443115234375,-0.094573974609375,0.6372222900390625,0.284881591796875
1686426295819388000,6.033387939453125,-0.017578125,0.52935791015625,0.2226104736328125
1686426295829332700,6.043332763671875,0.020111083984375,0.4255523681640625,0.173583984375
1686426295839278000,6.053278076171875,0.0272979736328125,0.3599395751953125,0.1258544921875
1686426295849223000,6.063222900390625,0.02117919921875,0.3614349365234375,0.110443115234375
1686426295859167700,6.073167724609375,0.0178985595703125,0.4113006591796875,0.107635498046875
1686426295869113000,6.083113037109375,0.0184326171875,0.41510009765625,0.036956787109375
1686426295879058000,6.093057861328125,0.019317626953125,0.401611328125,-0.0244903564453125
1686426295889002800,6.103002685546875,0.044769287109375,0.399322509765625,-0.054290771484375
1686426295898947000,6.112947021484375,0.0984344482421875,0.4281463623046875,-0.045440673828125
1686426295908892000,6.122891845703125,0.1929779052734375,0.498748779296875,-0.043426513671875
1686426295918836700,6.132836669921875,0.3254852294921875,0.619903564453125,-0.0608062744140625
1686426295928782000,6.142781982421875,0.4855804443359375,0.779449462890625,-0.0828094482421875
1686426295938727000,6.152726806640625,0.673309326171875,0.9746551513671875,-0.120574951171875
1686426295948671700,6.162671630859375,0.7174530029296875,1.1489105224609375,-0.171844482421875
1686426295958617000,6.1726171875,0.45843505859375,1.230072021484375,-0.2415618896484375
1686426295968562000,6.18256201171875,0.12139892578125,1.256744384765625,-0.3130950927734375
1686426295978506800,6.1925068359375,-0.2281646728515625,1.2747650146484375,-0.4415130615234375
1686426295988451800,6.202451904296875,-0.583953857421875,1.411285400390625,-0.5500030517578125
1686426295998397000,6.21239697265625,-0.74542236328125,1.70440673828125,-0.402923583984375
1686426296008341800,6.222341796875,-0.3585968017578125,1.7738189697265625,-0.234893798828125
1686426296018286800,6.232286865234375,0.2862548828125,1.60211181640625,-0.1028900146484375
1686426296028231000,6.24223095703125,0.8164825439453125,1.4156494140625,-0.11749267578125
1686426296038175700,6.25217578125,1.07257080078125,1.2594146728515625,-0.1817779541015625
1686426296048121000,6.26212109375,0.931610107421875,1.1844635009765625,-0.127197265625
1686426296058065700,6.272065673828125,0.591552734375,1.168609619140625,-0.0513916015625
1686426296068010500,6.282010498046875,0.395599365234375,1.1622772216796875,-0.0157012939453125
1686426296077955800,6.291955810546875,0.2761077880859375,1.2051239013671875,-0.0557098388671875
1686426296087900700,6.301900634765625,0.1454010009765625,1.2899169921875,-0.1005096435546875
1686426296097845500,6.311845458984375,-0.017608642578125,1.3375701904296875,-0.1230621337890625
1686426296107790600,6.32179052734375,-0.227630615234375,1.3300018310546875,-0.166290283203125
1686426296117735700,6.331735595703125,-0.375,1.2928314208984375,-0.1870574951171875
1686426296127680500,6.341680419921875,-0.486663818359375,1.240478515625,-0.258392333984375
1686426296137625600,6.35162548828125,-0.559326171875,1.1992950439453125,-0.3931427001953125
1686426296147570700,6.36157080078125,-0.49908447265625,1.202392578125,-0.418548583984375
1686426296157515500,6.371515625,-0.332763671875,1.1514892578125,-0.34344482421875
1686426296167459800,6.3814599609375,-0.1851348876953125,1.03070068359375,-0.2337646484375
1686426296177404700,6.39140478515625,-0.141876220703125,0.8959197998046875,-0.116790771484375
1686426296187349500,6.401349609375,-0.2320404052734375,0.786285400390625,-0.020599365234375
1686426296197294600,6.411294677734375,-0.4238128662109375,0.69976806640625,0.0299224853515625
1686426296207239700,6.42123974609375,-0.6007232666015625,0.6538543701171875,0.035736083984375
1686426296217184500,6.4311845703125,-0.6978302001953125,0.6640777587890625,0.083648681640625
1686426296227129600,6.441129638671875,-0.7196807861328125,0.70843505859375,0.182952880859375
1686426296237074700,6.45107470703125,-0.676727294921875,0.7876434326171875,0.3011016845703125
1686426296247019500,6.46101953125,-0.588134765625,0.893310546875,0.3931121826171875
1686426296256964600,6.470964599609375,-0.465118408203125,1.01849365234375,0.3967437744140625
1686426296266909700,6.48090966796875,-0.3097381591796875,1.124969482421875,0.2401123046875
1686426296276854500,6.4908544921875,-0.176025390625,1.1812896728515625,0.0865478515625
1686426296286799600,6.500799560546875,-0.09912109375,1.1953277587890625,-0.015838623046875
1686426296296744700,6.51074462890625,-0.08123779296875,1.16217041015625,-0.082061767578125
1686426296306688500,6.5206884765625,-0.076873779296875,1.06915283203125,-0.144683837890625
1686426296316633600,6.530633544921875,-0.0960845947265625,0.9421539306640625,-0.2285003662109375
1686426296326578700,6.54057861328125,-0.1190338134765625,0.82928466796875,-0.2725372314453125
1686426296336523500,6.5505234375,-0.115753173828125,0.740631103515625,-0.219329833984375
1686426296346468600,6.560468505859375,-0.105377197265625,0.675048828125,-0.1576690673828125
1686426296356413700,6.57041357421875,-0.085784912109375,0.6265716552734375,-0.14776611328125
1686426296366358500,6.580358642578125,-0.0548248291015625,0.585845947265625,-0.124755859375
1686426296376303600,6.5903037109375,-0.0298309326171875,0.576446533203125,-0.0883026123046875
1686426296386248700,6.600248779296875,-0.0190887451171875,0.5607452392578125,-0.052215576171875
1686426296396193500,6.610193603515625,-0.023101806640625,0.5471954345703125,-0.0224456787109375
1686426296406138600,6.620138671875,-0.0321197509765625,0.55633544921875,-0.0101165771484375
1686426296416083500,6.63008349609375,-0.0464630126953125,0.6051788330078125,-0.00677490234375
1686426296426028800,6.64002880859375,-0.0756072998046875,0.6793975830078125,0.0163116455078125
1686426296435973600,6.6499736328125,-0.07183837890625,0.76971435546875,0.057586669921875
1686426296445917700,6.659917724609375,-0.0151824951171875,0.8611602783203125,0.133453369140625
1686426296455862500,6.669862548828125,0.0859832763671875,0.9566497802734375,0.217987060546875
1686426296465807600,6.6798076171875,0.1776123046875,1.032806396484375,0.305908203125
1686426296475752700,6.689752685546875,0.211639404296875,1.0651092529296875,0.356781005859375
1686426296485697500,6.699697509765625,0.1737518310546875,1.0861053466796875,0.3380584716796875
1686426296495642600,6.709642578125,0.06787109375,1.1023406982421875,0.277984619140625
1686426296505587500,6.71958740234375,-0.0566558837890625,1.1230926513671875,0.210662841796875
1686426296515532800,6.72953271484375,-0.1409454345703125,1.110076904296875,0.1692657470703125
1686426296525477600,6.7394775390625,-0.150665283203125,1.0749359130859375,0.1769866943359375
1686426296535422500,6.74942236328125,-0.1063690185546875,1.068359375,0.249725341796875
1686426296545367800,6.759367919921875,-0.016265869140625,1.102813720703125,0.3612518310546875
1686426296555312600,6.769312744140625,0.0887451171875,1.1680755615234375,0.4159088134765625
1686426296565257500,6.779257568359375,0.14605712890625,1.2201385498046875,0.3958282470703125
1686426296575202800,6.789202880859375,0.1190643310546875,1.237579345703125,0.369537353515625
1686426296585147600,6.799147705078125,0.05169677734375,1.2679595947265625,0.3570404052734375
1686426296595091500,6.809091552734375,-0.005279541015625,1.3163299560546875,0.3331451416015625
1686426296605036500,6.81903662109375,-0.0511016845703125,1.3664093017578125,0.30938720703125
1686426296614981600,6.828981689453125,-0.0903167724609375,1.40924072265625,0.3018646240234375
1686426296624926500,6.838926513671875,-0.093994140625,1.446807861328125,0.3188018798828125
1686426296634871800,6.848871826171875,-0.1039276123046875,1.48638916015625,0.37506103515625
1686426296644816600,6.858816650390625,-0.17877197265625,1.532318115234375,0.4153594970703125
1686426296654761500,6.868761474609375,-0.2848968505859375,1.5857696533203125,0.3589935302734375
1686426296664706800,6.878706787109375,-0.345367431640625,1.5275421142578125,0.264007568359375
1686426296674651600,6.888651611328125,-0.3898162841796875,1.360382080078125,0.2133026123046875
1686426296684596500,6.898596435546875,-0.413726806640625,1.195831298828125,0.1875762939453125
1686426296694541600,6.90854150390625,-0.4438934326171875,1.050048828125,0.159576416015625
1686426296704486700,6.918486572265625,-0.5018463134765625,0.922607421875,0.097137451171875
1686426296714431500,6.928431396484375,-0.5427093505859375,0.8298492431640625,0.0369110107421875
1686426296724376600,6.93837646484375,-0.541900634765625,0.7912139892578125,-0.05841064453125
1686426296734321700,6.94832177734375,-0.540557861328125,0.8460540771484375,-0.24462890625
1686426296744265500,6.958265380859375,-0.579681396484375,0.987457275390625,-0.4253082275390625
1686426296754210800,6.9682109375,-0.644866943359375,1.118865966796875,-0.5653839111328125
1686426296764155600,6.97815576171875,-0.715362548828125,1.2199249267578125,-0.7102508544921875
1686426296774100500,6.9881005859375,-0.7467803955078125,1.2906036376953125,-0.78375244140625
1686426296784045800,6.9980458984375,-0.656524658203125,1.2958221435546875,-0.7535858154296875
1686426296793990700,7.00799072265625,-0.4640960693359375,1.22442626953125,-0.6536102294921875
1686426296803935500,7.017935546875,-0.297943115234375,1.0631103515625,-0.5655975341796875
1686426296813880600,7.027880615234375,-0.2028656005859375,0.8567962646484375,-0.4501953125
1686426296823825700,7.03782568359375,-0.1376800537109375,0.7534637451171875,-0.323516845703125
1686426296833770500,7.0477705078125,-0.1005096435546875,0.7381744384765625,-0.181884765625
1686426296843715600,7.057715576171875,-0.0743865966796875,0.7486419677734375,-0.02166748046875
1686426296853660700,7.06766064453125,-0.0576629638671875,0.77349853515625,0.137542724609375
1686426296863605500,7.07760546875,-0.03924560546875,0.82366943359375,0.2786712646484375
1686426296873550600,7.087550537109375,-0.0028076171875,0.9027557373046875,0.3967437744140625
1686426296883495700,7.09749560546875,-0.040740966796875,0.9713592529296875,0.4634552001953125
1686426296893439500,7.107439453125,-0.13421630859375,0.9569854736328125,0.4964141845703125
1686426296903384600,7.117384521484375,-0.1804656982421875,0.8882293701171875,0.4933929443359375
1686426296913329700,7.12732958984375,-0.140533447265625,0.8117523193359375,0.429443359375
1686426296923274500,7.1372744140625,-0.043426513671875,0.7027130126953125,0.3278961181640625
1686426296933219600,7.147219482421875,0.077728271484375,0.57415771484375,0.2330169677734375
1686426296943164700,7.15716455078125,0.1569366455078125,0.442230224609375,0.1878662109375
1686426296953109500,7.167109619140625,0.1600799560546875,0.3209075927734375,0.1740875244140625
1686426296963054600,7.1770546875,0.120452880859375,0.2419281005859375,0.1508636474609375
1686426296972999700,7.186999755859375,0.082489013671875,0.222381591796875,0.098968505859375
1686426296982944800,7.19694482421875,0.0774383544921875,0.2704315185546875,0.0434112548828125
1686426296992889600,7.2068896484375,0.11541748046875,0.3321075439453125,-0.0250701904296875
1686426297002834400,7.21683447265625,0.1896820068359375,0.4018402099609375,-0.08941650390625
1686426297012779800,7.22677978515625,0.2636871337890625,0.5035400390625,-0.13592529296875
1686426297022724600,7.236724609375,0.3018341064453125,0.647430419921875,-0.119903564453125
1686426297032669400,7.24666943359375,0.349365234375,0.8310089111328125,-0.1026763916015625
1686426297042614800,7.25661474609375,0.3913726806640625,1.050018310546875,-0.119537353515625
1686426297052559000,7.26655908203125,0.4083709716796875,1.2740020751953125,-0.1082763671875
1686426297062504200,7.276504150390625,0.3722991943359375,1.4348297119140625,-0.0280303955078125
1686426297072449300,7.28644921875,0.2115020751953125,1.5049896240234375,-0.0034027099609375
1686426297082394000,7.29639404296875,-0.046844482421875,1.5714263916015625,-0.17388916015625
1686426297092339200,7.306339111328125,-0.3734283447265625,1.6982269287109375,-0.19287109375
1686426297102284300,7.3162841796875,-0.399383544921875,1.721649169921875,-0.0919647216796875
1686426297112229400,7.3262294921875,-0.057037353515625,1.516204833984375,-0.0899505615234375
1686426297122174200,7.33617431640625,0.35784912109375,1.2751007080078125,-0.1188201904296875
1686426297132119300,7.346119384765625,0.69451904296875,1.1574249267578125,-0.13848876953125
1686426297142064400,7.356064453125,0.91119384765625,1.1023406982421875,-0.152374267578125
1686426297152009200,7.36600927734375,0.891845703125,1.1259765625,-0.2122650146484375
1686426297161954000,7.3759541015625,0.545654296875,1.2491912841796875,-0.26702880859375
1686426297171899400,7.3858994140625,0.231536865234375,1.382049560546875,-0.297454833984375
1686426297181844200,7.39584423828125,0.010406494140625,1.447540283203125,-0.25579833984375
1686426297191789000,7.4057890625,-0.2801361083984375,1.4705657958984375,-0.2570953369140625
1686426297201734400,7.415734375,-0.639129638671875,1.493743896484375,-0.3144683837890625
1686426297211678200,7.42567822265625,-0.8706207275390625,1.5054779052734375,-0.297637939453125
1686426297221623300,7.435623291015625,-0.848907470703125,1.438507080078125,-0.2759552001953125
1686426297231568400,7.445568359375,-0.6709442138671875,1.3132476806640625,-0.2985687255859375
1686426297241513200,7.45551318359375,-0.39300537109375,1.1249542236328125,-0.2759857177734375
1686426297251458000,7.4654580078125,-0.1790618896484375,0.897735595703125,-0.19677734375
1686426297261403400,7.4754033203125,-0.1447296142578125,0.7578582763671875,-0.0759735107421875
1686426297271348200,7.48534814453125,-0.270538330078125,0.677337646484375,-0.0187835693359375
1686426297281293000,7.49529296875,-0.4995880126953125,0.575439453125,-0.017120361328125
1686426297291238400,7.50523828125,-0.7049407958984375,0.5218658447265625,0.0351715087890625
1686426297301183200,7.515183349609375,-0.8099212646484375,0.5418853759765625,0.1520538330078125
1686426297311128000,7.525128173828125,-0.8321685791015625,0.6078643798828125,0.2899932861328125
1686426297321073400,7.535073486328125,-0.7825775146484375,0.7634735107421875,0.4237213134765625
1686426297331018200,7.545018310546875,-0.6912841796875,0.9926300048828125,0.5243072509765625
1686426297340963000,7.554963134765625,-0.577392578125,1.2155303955078125,0.470489501953125
1686426297350908200,7.564908203125,-0.368743896484375,1.293792724609375,0.20269775390625
1686426297360853200,7.574853271484375,-0.1710205078125,1.246826171875,0.0899200439453125
1686426297370798300,7.58479833984375,-0.0972442626953125,1.1338958740234375,0.1273040771484375
1686426297380742400,7.594742431640625,-0.081756591796875,0.9931488037109375,0.0850677490234375
1686426297390687200,7.604687255859375,-0.0668182373046875,0.8846435546875,0.004852294921875
1686426297400632000,7.614632080078125,-0.084716796875,0.822418212890625,-0.1051483154296875
1686426297410577400,7.624577392578125,-0.1045074462890625,0.746490478515625,-0.165435791015625
1686426297420522200,7.634522216796875,-0.0859832763671875,0.6667327880859375,-0.15521240234375
1686426297430467000,7.644467041015625,-0.03839111328125,0.6061248779296875,-0.1453704833984375
1686426297440412200,7.654412109375,0.0220489501953125,0.561553955078125,-0.1418914794921875
1686426297450357200,7.664357177734375,0.0742034912109375,0.51434326171875,-0.1360321044921875
1686426297460302300,7.67430224609375,0.103118896484375,0.4671783447265625,-0.1340484619140625
1686426297470247200,7.6842470703125,0.1083221435546875,0.4659576416015625,-0.15325927734375
1686426297480192300,7.694192138671875,0.109161376953125,0.4961395263671875,-0.178253173828125
1686426297490137300,7.704137451171875,0.0626678466796875,0.53338623046875,-0.167510986328125
1686426297500082200,7.714082275390625,-0.0813140869140625,0.588104248046875,-0.126953125
1686426297510027300,7.72402734375,-0.2647552490234375,0.677093505859375,-0.0709686279296875
1686426297519972400,7.733972412109375,-0.395721435546875,0.7869873046875,0.0294952392578125
1686426297529917200,7.743917236328125,-0.4031829833984375,0.9115753173828125,0.1655120849609375
1686426297539862300,7.7538623046875,-0.2701263427734375,1.051788330078125,0.2749481201171875
1686426297549806300,7.763806396484375,-0.06060791015625,1.193939208984375,0.344757080078125
1686426297559751200,7.773751220703125,0.1479034423828125,1.328369140625,0.3698883056640625
1686426297569696300,7.7836962890625,0.31866455078125,1.430419921875,0.3615875244140625
1686426297579641300,7.793641357421875,0.3726959228515625,1.4627227783203125,0.34478759765625
1686426297589586200,7.803586181640625,0.2684478759765625,1.4320526123046875,0.3451080322265625
1686426297599531300,7.81353125,0.1240081787109375,1.373992919921875,0.397369384765625
1686426297609476400,7.823476318359375,0.024444580078125,1.2883758544921875,0.4689483642578125
1686426297619421200,7.833421142578125,-0.05889892578125,1.1949005126953125,0.51971435546875
1686426297629366300,7.8433662109375,-0.071990966796875,1.136749267578125,0.504150390625
1686426297639311400,7.853311279296875,0.0022430419921875,1.126861572265625,0.478790283203125
1686426297649256200,7.863256103515625,0.08868408203125,1.1556549072265625,0.4508514404296875
1686426297659201000,7.873200927734375,0.0214996337890625,1.2326507568359375,0.4412841796875
1686426297669146400,7.883146484375,-0.1845703125,1.342132568359375,0.4050750732421875
1686426297679091200,7.89309130859375,-0.3347625732421875,1.4338836669921875,0.378143310546875
1686426297689036000,7.9030361328125,-0.403289794921875,1.4554595947265625,0.2995147705078125
1686426297698981400,7.9129814453125,-0.4056549072265625,1.3931732177734375,0.2269439697265625
1686426297708926200,7.92292626953125,-0.4148101806640625,1.2711944580078125,0.1889190673828125
1686426297718870300,7.932870361328125,-0.428863525390625,1.132110595703125,0.1604461669921875
1686426297728815400,7.9428154296875,-0.4170074462890625,1.0026092529296875,0.1115264892578125
1686426297738760200,7.95276025390625,-0.3959808349609375,0.910369873046875,0.0404205322265625
1686426297748705000,7.962705078125,-0.4155120849609375,0.841644287109375,-0.016845703125
1686426297758650400,7.972650390625,-0.4928741455078125,0.8251800537109375,-0.0471038818359375
1686426297768595200,7.98259521484375,-0.5855865478515625,0.9127349853515625,-0.105377197265625
1686426297778540000,7.9925400390625,-0.651092529296875,1.110809326171875,-0.2353973388671875
1686426297788485400,8.0024853515625,-0.6785430908203125,1.3311767578125,-0.34515380859375
1686426297798430200,8.01243017578125,-0.678802490234375,1.479034423828125,-0.431640625
1686426297808375300,8.022375244140624,-0.644256591796875,1.559051513671875,-0.541839599609375
1686426297818320400,8.0323203125,-0.574005126953125,1.593414306640625,-0.627349853515625
1686426297828265200,8.04226513671875,-0.4332275390625,1.54046630859375,-0.5955810546875
1686426297838210300,8.052210205078126,-0.2865447998046875,1.385528564453125,-0.5006866455078125
1686426297848155100,8.062155029296875,-0.155548095703125,1.191253662109375,-0.3999786376953125
1686426297858100200,8.072100341796874,-0.0660552978515625,1.0292205810546875,-0.2812042236328125
1686426297868045300,8.08204541015625,-0.0273895263671875,0.9079437255859375,-0.13995361328125
1686426297877990100,8.091990234375,0.01654052734375,0.841705322265625,0.013824462890625
1686426297887935200,8.101935302734375,0.067169189453125,0.8245391845703125,0.155670166015625
1686426297897880300,8.11188037109375,0.115936279296875,0.8418426513671875,0.31475830078125
1686426297907824400,8.121824462890626,0.0616455078125,0.844451904296875,0.457550048828125
1686426297917769200,8.131769287109375,-0.080169677734375,0.8216400146484375,0.5672149658203125
1686426297927714300,8.14171435546875,-0.2407989501953125,0.7833099365234375,0.6149444580078125
1686426297937659100,8.1516591796875,-0.2947998046875,0.7256317138671875,0.5685272216796875
1686426297947604200,8.161604248046874,-0.2289276123046875,0.659210205078125,0.492919921875
1686426297957549300,8.17154931640625,-0.120880126953125,0.5735015869140625,0.395233154296875
1686426297967494100,8.181494140625,-0.0235595703125,0.453948974609375,0.3154754638671875
1686426297977439200,8.191439208984375,0.0159759521484375,0.3318023681640625,0.2628173828125
1686426297987384300,8.20138427734375,0.0196533203125,0.24627685546875,0.215850830078125
1686426297997329200,8.2113291015625,-0.00201416015625,0.2021636962890625,0.1736297607421875
1686426298007274200,8.221274169921875,-0.04119873046875,0.1895599365234375,0.1366729736328125
1686426298017219300,8.23121923828125,-0.060455322265625,0.20111083984375,0.113494873046875
1686426298027164200,8.2411640625,-0.0482635498046875,0.224609375,0.0575714111328125
1686426298037109200,8.251109130859374,-0.0145416259765625,0.2628631591796875,-0.016693115234375
1686426298047054300,8.261054443359376,0.03851318359375,0.3311614990234375,-0.0676422119140625
1686426298056998400,8.270998291015625,0.109832763671875,0.425201416015625,-0.0919189453125
1686426298066943500,8.280943603515626,0.186798095703125,0.5594482421875,-0.091278076171875
1686426298076888300,8.290888427734375,0.3012847900390625,0.7479248046875,-0.10137939453125
1686426298086833400,8.30083349609375,0.4718017578125,0.9869842529296875,-0.1426544189453125
1686426298096778500,8.310778564453125,0.6099700927734375,1.227996826171875,-0.2224578857421875
1686426298106722300,8.320722412109374,0.4810028076171875,1.3897552490234375,-0.321868896484375
1686426298116667400,8.33066748046875,0.184478759765625,1.4861297607421875,-0.4449920654296875
1686426298126612500,8.340612548828124,-0.2062225341796875,1.571380615234375,-0.5805511474609375
1686426298136557300,8.350557373046875,-0.5195465087890625,1.7313995361328125,-0.489410400390625
1686426298146502400,8.36050244140625,-0.3846893310546875,1.8067779541015625,-0.3233642578125
1686426298156447500,8.370447509765626,0.076873779296875,1.650848388671875,-0.3470916748046875
1686426298166392300,8.380392333984375,0.5155181884765625,1.3022308349609375,-0.3291015625
1686426298176337400,8.39033740234375,0.812835693359375,1.0594940185546875,-0.2034454345703125
1686426298186282500,8.400282470703125,0.8823394775390625,1.043121337890625,-0.0192413330078125
1686426298196227300,8.410227294921874,0.755767822265625,1.1533050537109375,0.065185546875
1686426298206172400,8.42017236328125,0.6027374267578125,1.316986083984375,0.1322784423828125
1686426298216117500,8.430117431640625,0.4725189208984375,1.44677734375,0.1815643310546875
1686426298226062300,8.440062255859376,0.2639923095703125,1.55859375,0.14794921875
1686426298236007400,8.45000732421875,-0.0944976806640625,1.6400604248046875,0.05877685546875
1686426298245952300,8.4599521484375,-0.50335693359375,1.5761260986328125,-0.0806732177734375
1686426298255897600,8.469897705078125,-0.7262115478515625,1.4537811279296875,-0.1260528564453125
1686426298265842400,8.479842529296874,-0.7037353515625,1.3671875,-0.142822265625
1686426298275787300,8.489787353515625,-0.59759521484375,1.3014678955078125,-0.274749755859375
1686426298285731300,8.4997314453125,-0.378753662109375,1.2493133544921875,-0.2845001220703125
1686426298295676400,8.509676513671875,-0.083953857421875,1.09808349609375,-0.2140655517578125
1686426298305621500,8.51962158203125,0.014068603515625,0.8968658447265625,-0.1154327392578125
1686426298315566300,8.52956640625,-0.1322479248046875,0.758880615234375,-0.0601654052734375
1686426298325511400,8.539511474609375,-0.400299072265625,0.6587371826171875,-0.046844482421875
1686426298335456300,8.549456298828124,-0.639556884765625,0.5946807861328125,-0.0293426513671875
1686426298345401600,8.559401611328125,-0.734039306640625,0.5957794189453125,0.049835205078125
1686426298355346400,8.569346435546874,-0.73114013671875,0.633697509765625,0.1667633056640625
1686426298365291300,8.579291259765625,-0.71148681640625,0.6991119384765625,0.292877197265625
1686426298375236600,8.589236572265625,-0.67138671875,0.8340606689453125,0.421905517578125
1686426298385181400,8.599181396484376,-0.5972442626953125,1.033294677734375,0.5052490234375
1686426298395126300,8.609126220703125,-0.4303436279296875,1.2315216064453125,0.4086456298828125
1686426298405071600,8.619071533203124,-0.2176666259765625,1.2894287109375,0.2275238037109375
1686426298415016400,8.629016357421875,-0.07928466796875,1.255645751953125,0.094635009765625
1686426298424961300,8.638961181640624,-0.040283203125,1.1474456787109375,0.025115966796875
1686426298434906400,8.64890625,-0.034576416015625,1.029296875,-0.003326416015625
1686426298444851500,8.6588515625,-0.0522308349609375,0.96563720703125,-0.108612060546875
1686426298454796300,8.66879638671875,-0.0874786376953125,0.8721771240234375,-0.252166748046875
1686426298464741400,8.678741455078125,-0.0775146484375,0.774444580078125,-0.2513275146484375
1686426298474686500,8.6886865234375,0.0043487548828125,0.688201904296875,-0.1624298095703125
1686426298484631300,8.69863134765625,0.101226806640625,0.604217529296875,-0.1475067138671875
1686426298494575600,8.70857568359375,0.180572509765625,0.526763916015625,-0.160919189453125
1686426298504520400,8.7185205078125,0.2175750732421875,0.470794677734375,-0.15631103515625
1686426298514465300,8.72846533203125,0.20245361328125,0.4623260498046875,-0.158050537109375
1686426298524410400,8.738410400390626,0.158447265625,0.4878387451171875,-0.1606597900390625
1686426298534355500,8.74835546875,0.072967529296875,0.5330963134765625,-0.146942138671875
1686426298544300300,8.75830029296875,-0.06854248046875,0.579559326171875,-0.109466552734375
1686426298554245400,8.768245361328125,-0.212921142578125,0.6403350830078125,-0.0322113037109375
1686426298564190500,8.7781904296875,-0.2918548583984375,0.707122802734375,0.0670928955078125
1686426298574135300,8.78813525390625,-0.2491607666015625,0.7813262939453125,0.1798858642578125
1686426298584080400,8.798080322265625,-0.1046905517578125,0.8749237060546875,0.2948760986328125
1686426298594025500,8.808025390625,0.0508880615234375,0.9832916259765625,0.3787689208984375
1686426298603970300,8.81797021484375,0.1393585205078125,1.0752410888671875,0.4300537109375
1686426298613915400,8.827915283203126,0.142791748046875,1.15142822265625,0.4539794921875
1686426298623860500,8.837860595703125,0.0807647705078125,1.2085418701171875,0.4365234375
1686426298633805600,8.8478056640625,-0.0224456787109375,1.2292633056640625,0.36669921875
1686426298643750400,8.85775048828125,-0.0478973388671875,1.237091064453125,0.303924560546875
1686426298653695200,8.8676953125,0.0079803466796875,1.2671661376953125,0.340057373046875
1686426298663640600,8.877640625,0.0967254638671875,1.311676025390625,0.390106201171875
1686426298673585400,8.88758544921875,0.1563873291015625,1.335174560546875,0.42333984375
1686426298683530200,8.8975302734375,0.1117095947265625,1.2960052490234375,0.439544677734375
1686426298693475600,8.9074755859375,0.04779052734375,1.2386627197265625,0.4495697021484375
1686426298703420400,8.91742041015625,0.063232421875,1.235443115234375,0.4828033447265625
1686426298713364500,8.927364501953125,0.1070709228515625,1.2570037841796875,0.48724365234375
1686426298723309600,8.9373095703125,0.06732177734375,1.292388916015625,0.44964599609375
1686426298733254400,8.94725439453125,-0.042694091796875,1.34100341796875,0.3988037109375
1686426298743199200,8.95719921875,-0.148590087890625,1.387115478515625,0.366912841796875
1686426298753144600,8.96714453125,-0.24444580078125,1.4499053955078125,0.3350830078125
1686426298763089400,8.97708935546875,-0.3139801025390625,1.52899169921875,0.2728118896484375
1686426298773034200,8.9870341796875,-0.3718719482421875,1.538970947265625,0.1983642578125
1686426298782979600,8.9969794921875,-0.4108734130859375,1.4241943359375,0.1693878173828125
1686426298792924400,9.00692431640625,-0.4299163818359375,1.23028564453125,0.1353759765625
1686426298802869200,9.016869140625,-0.4194793701171875,1.042449951171875,0.0871429443359375
1686426298812814600,9.026814697265625,-0.430633544921875,0.907958984375,0.04364013671875
1686426298822759400,9.036759521484376,-0.4758453369140625,0.818084716796875,-0.0165863037109375
1686426298832704300,9.046704345703125,-0.5117645263671875,0.7842559814453125,-0.0857391357421875
1686426298842649300,9.0566494140625,-0.5031280517578125,0.8630523681640625,-0.1817169189453125
1686426298852594400,9.066594482421875,-0.5052642822265625,1.0333709716796875,-0.34246826171875
1686426298862539300,9.076539306640624,-0.5260467529296875,1.19403076171875,-0.509796142578125
1686426298872484400,9.086484375,-0.5552215576171875,1.3175811767578125,-0.63720703125
1686426298882429400,9.096429443359375,-0.5798797607421875,1.4228363037109375,-0.81451416015625
1686426298892374500,9.10637451171875,-0.574188232421875,1.4994049072265625,-0.9228668212890625
1686426298902319400,9.1163193359375,-0.4634552001953125,1.4933929443359375,-0.8316192626953125
1686426298912264400,9.126264404296874,-0.3008880615234375,1.3573150634765625,-0.707244873046875
1686426298922209500,9.13620947265625,-0.177276611328125,1.0820465087890625,-0.607696533203125
1686426298932154400,9.146154296875,-0.0764923095703125,0.86322021484375,-0.4396820068359375
1686426298942098400,9.156098388671875,-0.0109405517578125,0.7861175537109375,-0.2194976806640625
1686426298952043300,9.166043212890624,0.061798095703125,0.7435302734375,-0.0073699951171875
1686426298961988400,9.17598828125,0.146087646484375,0.743072509765625,0.188262939453125
1686426298971933400,9.185933349609375,0.2006072998046875,0.8260650634765625,0.3921051025390625
1686426298981878500,9.19587841796875,0.1149139404296875,0.8784027099609375,0.5315704345703125
1686426298991823400,9.2058232421875,-0.053802490234375,0.8873291015625,0.62042236328125
1686426299001768400,9.2157685546875,-0.2337493896484375,0.8447723388671875,0.6243896484375
1686426299011713500,9.225713623046875,-0.3322296142578125,0.751861572265625,0.5637054443359375
1686426299021658400,9.235658447265624,-0.315032958984375,0.6528167724609375,0.4965057373046875
1686426299031603500,9.245603515625,-0.2045440673828125,0.5330047607421875,0.414581298828125
1686426299041548500,9.255548583984375,-0.0620269775390625,0.401580810546875,0.3476409912109375
1686426299051493400,9.265493408203126,0.048858642578125,0.283355712890625,0.28826904296875
1686426299061438700,9.275438720703125,0.101226806640625,0.219024658203125,0.2189483642578125
1686426299071384000,9.285384033203124,0.1190185546875,0.2004241943359375,0.1623687744140625
1686426299081329000,9.295328857421875,0.113800048828125,0.206573486328125,0.1146392822265625
1686426299091273700,9.305273681640625,0.1103363037109375,0.21435546875,0.0679473876953125
1686426299101218800,9.31521875,0.132110595703125,0.2363739013671875,0.024749755859375
1686426299111164000,9.325163818359375,0.1907196044921875,0.31805419921875,0.0182037353515625
1686426299121108700,9.335108642578126,0.31744384765625,0.4573974609375,0.0204315185546875
1686426299131053800,9.3450537109375,0.50469970703125,0.618255615234375,0.013519287109375
1686426299140999000,9.3549990234375,0.7135467529296875,0.8412017822265625,0.037506103515625
1686426299150943700,9.36494384765625,0.6944732666015625,1.0730133056640625,0.096435546875
1686426299160888800,9.374888916015625,0.484375,1.2451934814453125,0.149871826171875
1686426299170834000,9.384833984375,0.2934722900390625,1.332122802734375,0.14019775390625
1686426299180777700,9.39477783203125,0.0867156982421875,1.3982391357421875,0.0107269287109375
1686426299190722800,9.404722900390626,-0.2424163818359375,1.4979400634765625,-0.178619384765625
1686426299200668000,9.41466796875,-0.644805908203125,1.7100067138671875,-0.2319183349609375
1686426299210612700,9.42461279296875,-0.678619384765625,1.9358062744140625,-0.0447845458984375
1686426299220557800,9.434557861328125,-0.18701171875,1.8001861572265625,0.017486572265625
1686426299230503000,9.4445029296875,0.359375,1.4579925537109375,-0.096099853515625
1686426299240447700,9.45444775390625,0.7114715576171875,1.260223388671875,-0.3234405517578125
1686426299250392800,9.464392822265625,0.8997802734375,1.2354888916015625,-0.32666015625
1686426299260338000,9.474337890625,0.730743408203125,1.2887420654296875,-0.1910858154296875
1686426299270283000,9.484282958984375,0.4646148681640625,1.436004638671875,-0.10784912109375
1686426299280227800,9.494227783203126,0.285064697265625,1.6387939453125,-0.1141357421875
1686426299290173000,9.5041728515625,0.066558837890625,1.7472381591796875,-0.101104736328125
1686426299300118000,9.514117919921874,-0.1967926025390625,1.732452392578125,-0.0260772705078125
1686426299310062800,9.524062744140625,-0.529052734375,1.5765380859375,0.0224761962890625
1686426299320007700,9.534007568359375,-0.6369476318359375,1.4663543701171875,0.0660552978515625
1686426299329953000,9.543953125,-0.511199951171875,1.2418365478515625,-0.0503387451171875
1686426299339897900,9.55389794921875,-0.34149169921875,0.9653167724609375,-0.187530517578125
1686426299349842700,9.5638427734375,-0.1627197265625,0.8233489990234375,-0.1955413818359375
1686426299359788000,9.5737880859375,-0.0496063232421875,0.7496185302734375,-0.188690185546875
1686426299369732900,9.58373291015625,-0.12945556640625,0.687225341796875,-0.1944122314453125
1686426299379677700,9.593677734375,-0.364898681640625,0.587493896484375,-0.227996826171875
1686426299389623000,9.603623046875,-0.6150054931640625,0.49169921875,-0.1785430908203125
1686426299399568000,9.61356787109375,-0.7896881103515625,0.4905242919921875,-0.0401763916015625
1686426299409512700,9.6235126953125,-0.8672332763671875,0.55438232421875,0.1134490966796875
1686426299419457800,9.633457763671874,-0.8740692138671875,0.6636505126953125,0.24322509765625
1686426299429403000,9.64340283203125,-0.8290863037109375,0.8151702880859375,0.339569091796875
1686426299439346700,9.6533466796875,-0.7214813232421875,0.982940673828125,0.3838653564453125
1686426299449292000,9.6632919921875,-0.545196533203125,1.1622314453125,0.3156280517578125
1686426299459236900,9.67323681640625,-0.302001953125,1.28753662109375,0.16143798828125
1686426299469181700,9.683181640625,-0.1346435546875,1.2927703857421875,0.1228790283203125
1686426299479127000,9.693126953125,-0.07568359375,1.1887664794921875,0.1606292724609375
1686426299489071900,9.70307177734375,-0.083465576171875,1.0350341796875,0.179046630859375
1686426299499016700,9.7130166015625,-0.0916900634765625,0.8927459716796875,0.1332550048828125
1686426299508961800,9.7229619140625,-0.096954345703125,0.792022705078125,0.0409088134765625
1686426299518907000,9.732906982421875,-0.1144866943359375,0.72528076171875,-0.0321807861328125
1686426299528851700,9.742851806640624,-0.1025543212890625,0.686676025390625,-0.034881591796875
1686426299538796800,9.752796875,-0.0571136474609375,0.6539764404296875,-0.0248870849609375
1686426299548742000,9.762741943359375,-0.006591796875,0.5616302490234375,-0.0278778076171875
1686426299558687000,9.77268701171875,0.0497894287109375,0.543212890625,-0.0840301513671875
1686426299568631800,9.7826318359375,0.1052703857421875,0.5377349853515625,-0.1119232177734375
1686426299578577000,9.792576904296874,0.1442718505859375,0.5334320068359375,-0.1523284912109375
1686426299588522000,9.80252197265625,0.152618408203125,0.5265960693359375,-0.178741455078125
1686426299598466800,9.812466796875,0.130950927734375,0.541290283203125,-0.21044921875
1686426299608412000,9.822411865234375,0.0535125732421875,0.5879364013671875,-0.2025299072265625
1686426299618357000,9.83235693359375,-0.076080322265625,0.6660919189453125,-0.130035400390625
1686426299628301800,9.8423017578125,-0.1808624267578125,0.7835845947265625,-0.0091400146484375
1686426299638246700,9.85224658203125,-0.2119293212890625,0.898223876953125,0.1331329345703125
1686426299648192000,9.86219189453125,-0.1434326171875,0.9799346923828125,0.2692108154296875
1686426299658136800,9.87213671875,-0.0236053466796875,1.0437774658203125,0.343994140625
1686426299668081700,9.88208154296875,0.075103759765625,1.1190185546875,0.3603668212890625
1686426299678027000,9.892027099609376,0.1029052734375,1.1959228515625,0.3442230224609375
1686426299687970800,9.901970703125,0.08087158203125,1.253265380859375,0.3225250244140625
1686426299697916000,9.911916015625,0.0494537353515625,1.248931884765625,0.288909912109375
1686426299707861000,9.921861083984375,0.038055419921875,1.2336883544921875,0.29888916015625
1686426299717805800,9.931805908203126,0.0557098388671875,1.2281494140625,0.3668060302734375
1686426299727750700,9.941750732421875,0.09381103515625,1.2297210693359375,0.42431640625
1686426299737696000,9.951696044921874,0.106109619140625,1.2213897705078125,0.4104156494140625
1686426299747640800,9.961640869140625,0.0703887939453125,1.202728271484375,0.391937255859375
1686426299757585700,9.971585693359375,0.04534912109375,1.195709228515625,0.419097900390625
1686426299767531000,9.981531005859376,0.0375213623046875,1.2310791015625,0.4218597412109375
1686426299777475800,9.991475830078125,-0.0042572021484375,1.309356689453125,0.419525146484375
1686426299787420700,10.001420654296876,-0.0860443115234375,1.3957977294921875,0.3980255126953125
1686426299797366000,10.011365966796875,-0.150390625,1.4530487060546875,0.397308349609375
1686426299807310800,10.021310791015624,-0.2230377197265625,1.4936676025390625,0.36749267578125
1686426299817256000,10.031255859375,-0.3115234375,1.4965362548828125,0.27178955078125
1686426299827200800,10.04120068359375,-0.3765106201171875,1.441314697265625,0.23187255859375
1686426299837145900,10.051145751953126,-0.418182373046875,1.2975311279296875,0.2309417724609375
1686426299847091000,10.061091064453125,-0.4575653076171875,1.1380157470703125,0.1914825439453125
1686426299857035800,10.071035888671876,-0.50189208984375,1.0127716064453125,0.1094512939453125
1686426299866980900,10.08098095703125,-0.5516204833984375,0.9180755615234375,-0.002532958984375
1686426299876926000,10.090926025390624,-0.619842529296875,0.8699798583984375,-0.0879364013671875
1686426299886870800,10.100870849609375,-0.6727294921875,0.9076385498046875,-0.194000244140625
1686426299896815900,10.11081591796875,-0.6787567138671875,1.035919189453125,-0.33868408203125
1686426299906761000,10.120760986328126,-0.6576995849609375,1.1896820068359375,-0.45172119140625
1686426299916705800,10.130705810546875,-0.6525115966796875,1.324981689453125,-0.573638916015625
1686426299926651000,10.14065087890625,-0.6733856201171875,1.4238128662109375,-0.709381103515625
1686426299936596000,10.150595947265625,-0.6571197509765625,1.49591064453125,-0.795501708984375
1686426299946540800,10.160540771484374,-0.56646728515625,1.5220794677734375,-0.7733917236328125
1686426299956485600,10.170485595703125,-0.390960693359375,1.460174560546875,-0.6637420654296875
1686426299966431000,10.180430908203125,-0.220916748046875,1.3301544189453125,-0.6375732421875
1686426299976375800,10.190375732421876,-0.071502685546875,1.09765625,-0.5367584228515625
1686426299986320000,10.20031982421875,0.0099945068359375,0.882293701171875,-0.372314453125
1686426299996265000,10.210264892578126,0.0739898681640625,0.803863525390625,-0.17218017578125
1686426300006209800,10.220209716796875,0.1648101806640625,0.7826080322265625,0.0270233154296875
1686426300016155000,10.23015478515625,0.273406982421875,0.8301239013671875,0.2338409423828125
1686426300026100000,10.240099853515625,0.2650146484375,0.878326416015625,0.3986968994140625
1686426300036044800,10.250044921875,0.1394195556640625,0.8660125732421875,0.4960174560546875
1686426300045989600,10.25998974609375,-0.06756591796875,0.815093994140625,0.5532684326171875
1686426300055934500,10.2699345703125,-0.2755889892578125,0.7686004638671875,0.5627593994140625
1686426300065879600,10.279879638671876,-0.384307861328125,0.719696044921875,0.4913177490234375
1686426300075824400,10.289824462890625,-0.3489532470703125,0.6180419921875,0.3952178955078125
1686426300085769500,10.29976953125,-0.230682373046875,0.5142974853515625,0.3125457763671875
1686426300095714600,10.309714599609375,-0.10479736328125,0.4124755859375,0.255126953125
1686426300105659400,10.319659423828124,-0.009857177734375,0.31298828125,0.2138519287109375
1686426300115604700,10.329604736328125,0.0264892578125,0.219940185546875,0.1920013427734375
1686426300125549600,10.339549560546875,0.040802001953125,0.137664794921875,0.1644287109375
1686426300135494400,10.349494384765626,0.03387451171875,0.1072845458984375,0.1213836669921875
1686426300145439700,10.359439697265625,0.025421142578125,0.1147918701171875,0.06707763671875
1686426300155384600,10.369384521484376,0.0339813232421875,0.16412353515625,0.0243072509765625
1686426300165329400,10.379329345703125,0.079498291015625,0.2709503173828125,0.0037994384765625
1686426300175274500,10.3892744140625,0.1664886474609375,0.424163818359375,-0.003021240234375
1686426300185219600,10.399219482421875,0.2468109130859375,0.5909576416015625,0.0188751220703125
1686426300195164400,10.409164306640625,0.3228912353515625,0.799346923828125,0.0866851806640625
1686426300205109500,10.419109619140626,0.405181884765625,1.06109619140625,0.11279296875
1686426300215054600,10.4290546875,0.4890899658203125,1.3094329833984375,0.078582763671875
1686426300224999400,10.43899951171875,0.513580322265625,1.50927734375,0.0430450439453125
1686426300234944500,10.448944580078125,0.3306732177734375,1.6138916015625,-0.0230865478515625
1686426300244889600,10.4588896484375,-0.0624847412109375,1.727325439453125,-0.1573028564453125
1686426300254834400,10.46883447265625,-0.443634033203125,1.951904296875,-0.161590576171875
1686426300264779500,10.478779541015625,-0.3684234619140625,1.944244384765625,-0.1177520751953125
1686426300274724600,10.488724609375,0.06878662109375,1.570465087890625,-0.183807373046875
1686426300284669700,10.498669677734375,0.4378814697265625,1.2118682861328125,-0.2754364013671875
1686426300294613500,10.508613525390626,0.6988677978515625,1.054901123046875,-0.3177642822265625
1686426300304558600,10.51855859375,0.7874298095703125,1.063140869140625,-0.2717437744140625
1686426300314503400,10.52850341796875,0.6357269287109375,1.201568603515625,-0.1959075927734375
1686426300324448500,10.538448486328125,0.4262847900390625,1.4223175048828125,-0.16656494140625
1686426300334393600,10.5483935546875,0.2414703369140625,1.6457977294921875,-0.1703338623046875
1686426300344338400,10.55833837890625,0.0030517578125,1.81866455078125,-0.0999603271484375
1686426300354283500,10.568283447265625,-0.3162841796875,1.7894287109375,0.03143310546875
1686426300364228600,10.578228515625,-0.541473388671875,1.55792236328125,0.114898681640625
1686426300374173700,10.588173583984375,-0.53936767578125,1.3580780029296875,0.0378570556640625
1686426300384118500,10.598118408203124,-0.501312255859375,1.1213226318359375,-0.2532806396484375
1686426300394063400,10.6080634765625,-0.383544921875,0.976165771484375,-0.305023193359375
1686426300404008700,10.6180087890625,-0.1917266845703125,0.897735595703125,-0.2347259521484375
1686426300413953500,10.62795361328125,-0.093170166015625,0.8513641357421875,-0.1390380859375
1686426300423898400,10.6378984375,-0.1822967529296875,0.8136444091796875,-0.08203125
1686426300433843700,10.64784375,-0.39056396484375,0.711181640625,-0.1258392333984375
1686426300443788500,10.65778857421875,-0.5864105224609375,0.5995025634765625,-0.1226043701171875
1686426300453733400,10.6677333984375,-0.7080535888671875,0.5785064697265625,-0.010711669921875
1686426300463678700,10.6776787109375,-0.7529296875,0.6301116943359375,0.147430419921875
1686426300473623600,10.68762353515625,-0.7618865966796875,0.7149200439453125,0.283599853515625
1686426300483568400,10.697568359375,-0.72760009765625,0.824066162109375,0.3759613037109375
1686426300493513500,10.707513427734375,-0.6530609130859375,0.938323974609375,0.429229736328125
1686426300503458600,10.71745849609375,-0.514251708984375,1.0617828369140625,0.382659912109375
1686426300513403400,10.7274033203125,-0.3255462646484375,1.154571533203125,0.185943603515625
1686426300523348500,10.737348388671874,-0.1836090087890625,1.191802978515625,0.104949951171875
1686426300533293600,10.74729345703125,-0.1061859130859375,1.1762542724609375,0.1118621826171875
1686426300543238700,10.75723876953125,-0.0790252685546875,1.1274566650390625,0.0716705322265625
1686426300553183500,10.76718359375,-0.0695343017578125,1.0263671875,0.0193634033203125
1686426300563128600,10.777128662109375,-0.0716552734375,0.8958892822265625,-0.0743865966796875
1686426300573073700,10.78707373046875,-0.0900115966796875,0.7819976806640625,-0.1327056884765625
1686426300583018500,10.7970185546875,-0.078582763671875,0.699615478515625,-0.13702392578125
1686426300592963600,10.806963623046874,-0.0270233154296875,0.62725830078125,-0.1271514892578125
1686426300602908700,10.81690869140625,0.0258636474609375,0.5659332275390625,-0.1237945556640625
1686426300612853500,10.826853515625,0.060211181640625,0.5274658203125,-0.1103515625
1686426300622798300,10.83679833984375,0.0784912109375,0.4925994873046875,-0.0796356201171875
1686426300632743700,10.84674365234375,0.0910491943359375,0.468353271484375,-0.0865936279296875
1686426300642688500,10.8566884765625,0.079986572265625,0.469146728515625,-0.0907135009765625
1686426300652633300,10.86663330078125,0.03948974609375,0.501251220703125,-0.0921783447265625
1686426300662577700,10.87657763671875,-0.01904296875,0.55462646484375,-0.091033935546875
1686426300672522500,10.8865224609375,-0.0948028564453125,0.6186676025390625,-0.0738677978515625
1686426300682467600,10.896467529296874,-0.163177490234375,0.707366943359375,-0.025421142578125
1686426300692412700,10.90641259765625,-0.169464111328125,0.8119354248046875,0.0656890869140625
1686426300702357500,10.916357421875,-0.1160430908203125,0.9509735107421875,0.1684112548828125
1686426300712302300,10.92630224609375,-0.040863037109375,1.1026153564453125,0.25347900390625
1686426300722247700,10.93624755859375,0.04510498046875,1.22369384765625,0.328033447265625
1686426300732192500,10.946192626953126,0.1309814453125,1.290771484375,0.38641357421875
1686426300742137300,10.956137451171875,0.1551666259765625,1.2943878173828125,0.3909759521484375
1686426300752082700,10.966082763671874,0.069854736328125,1.2357940673828125,0.383941650390625
1686426300762027500,10.976027587890625,-0.04107666015625,1.1797332763671875,0.4314727783203125
1686426300771972400,10.985972412109374,-0.074798583984375,1.1754302978515625,0.5040435791015625
1686426300781917700,10.995917724609376,-0.08099365234375,1.1902313232421875,0.541351318359375
1686426300791862500,11.005862548828125,-0.0502471923828125,1.2007293701171875,0.507080078125
1686426300801807600,11.0158076171875,0.0006561279296875,1.1931304931640625,0.4518280029296875
1686426300811752400,11.02575244140625,0.0659942626953125,1.1982879638671875,0.4335784912109375
1686426300821697500,11.035697509765624,0.1282196044921875,1.238006591796875,0.406219482421875
1686426300831642600,11.045642578125,0.10888671875,1.3045806884765625,0.3697662353515625
1686426300841587500,11.05558740234375,-0.037139892578125,1.3705291748046875,0.3310546875
1686426300851532500,11.065532470703126,-0.1456451416015625,1.41937255859375,0.326690673828125
1686426300861477600,11.0754775390625,-0.156280517578125,1.43609619140625,0.3808441162109375
1686426300871422500,11.08542236328125,-0.1888427734375,1.4744720458984375,0.41033935546875
1686426300881367600,11.095367431640625,-0.2542724609375,1.5416259765625,0.4055328369140625
1686426300891312600,11.105312744140624,-0.3193511962890625,1.528778076171875,0.33331298828125
1686426300901257500,11.115257568359375,-0.3658905029296875,1.3828277587890625,0.2645111083984375
1686426300911202300,11.125202392578124,-0.3943634033203125,1.1817626953125,0.1993865966796875
1686426300921147600,11.135147705078126,-0.3897552490234375,0.9918365478515625,0.16094970703125
1686426300931092500,11.145092529296875,-0.40789794921875,0.852783203125,0.1079559326171875
1686426300941037300,11.155037353515626,-0.4869384765625,0.7647247314453125,0.0303955078125
1686426300950982700,11.164982666015625,-0.57037353515625,0.7579345703125,-0.057373046875
1686426300960927500,11.174927490234374,-0.6124420166015625,0.8268280029296875,-0.1714019775390625
1686426300970872600,11.18487255859375,-0.63037109375,0.957977294921875,-0.3335418701171875
1686426300980817700,11.194817626953125,-0.646575927734375,1.1243743896484375,-0.458282470703125
1686426300990762500,11.204762451171876,-0.6483154296875,1.2697906494140625,-0.5640716552734375
1686426301000707600,11.21470751953125,-0.6361541748046875,1.3809356689453125,-0.7086029052734375
1686426301010652400,11.22465234375,-0.6109466552734375,1.4634857177734375,-0.853271484375
1686426301020597500,11.234597412109375,-0.49053955078125,1.4952850341796875,-0.81610107421875
1686426301030542600,11.24454248046875,-0.30615234375,1.423492431640625,-0.6855010986328125
1686426301040487400,11.2544873046875,-0.110809326171875,1.252227783203125,-0.5442962646484375
1686426301050432500,11.2644326171875,0.0197601318359375,1.0030059814453125,-0.384185791015625
1686426301060377300,11.27437744140625,0.076324462890625,0.8548431396484375,-0.1952056884765625
1686426301070322200,11.284322265625,0.1370697021484375,0.81390380859375,-0.00421142578125
1686426301080267300,11.294267333984376,0.2592010498046875,0.852447509765625,0.2113800048828125
1686426301090212400,11.30421240234375,0.310516357421875,0.9028167724609375,0.3648529052734375
1686426301100157200,11.3141572265625,0.2202911376953125,0.8981170654296875,0.4514312744140625
1686426301110102300,11.324102294921875,0.041351318359375,0.8598785400390625,0.5686492919921875
1686426301120047400,11.33404736328125,-0.19573974609375,0.8226470947265625,0.668243408203125
1686426301129992200,11.3439921875,-0.355499267578125,0.77996826171875,0.658966064453125
1686426301139937300,11.353937255859375,-0.3577880859375,0.706207275390625,0.5370941162109375
1686426301149882400,11.36388232421875,-0.24835205078125,0.587158203125,0.428009033203125
1686426301159827200,11.3738271484375,-0.1200408935546875,0.4398956298828125,0.3456878662109375
1686426301169772000,11.38377197265625,-0.0302581787109375,0.3196258544921875,0.27056884765625
1686426301179717400,11.39371728515625,0.0019683837890625,0.2585906982421875,0.1869659423828125
1686426301189662200,11.403662109375,-0.001800537109375,0.239715576171875,0.108184814453125
1686426301199607000,11.41360693359375,-0.00830078125,0.2664947509765625,0.0427093505859375
1686426301209552400,11.423552490234375,0.0041351318359375,0.3192291259765625,0.0056610107421875
1686426301219497200,11.433497314453126,0.043426513671875,0.338653564453125,-0.033416748046875
1686426301229442300,11.4434423828125,0.115692138671875,0.3486175537109375,-0.0855712890625
1686426301239387400,11.453387451171874,0.22119140625,0.407684326171875,-0.1441650390625
1686426301249332200,11.463332275390625,0.3517608642578125,0.5337677001953125,-0.1540985107421875
1686426301259277300,11.47327734375,0.5009918212890625,0.7217559814453125,-0.106842041015625
1686426301269222100,11.48322216796875,0.6677398681640625,0.967498779296875,-0.0756378173828125
1686426301279167200,11.493167236328125,0.7110443115234375,1.2043609619140625,-0.051422119140625
1686426301289112300,11.5031123046875,0.5222320556640625,1.359100341796875,-0.0584564208984375
1686426301299057200,11.51305712890625,0.2490997314453125,1.417388916015625,-0.0781097412109375
1686426301309002200,11.523002197265624,-0.077667236328125,1.3962554931640625,-0.1430206298828125
1686426301318947300,11.532947265625,-0.428375244140625,1.4349365234375,-0.2400360107421875
1686426301328892200,11.54289208984375,-0.6138763427734375,1.6016387939453125,-0.2027740478515625
1686426301338837200,11.552837158203126,-0.379638671875,1.616485595703125,-0.0979156494140625
1686426301348782300,11.5627822265625,0.0797119140625,1.4603729248046875,-0.005523681640625
1686426301358727200,11.57272705078125,0.5489501953125,1.28399658203125,-0.049468994140625
1686426301368672300,11.58267236328125,0.9217529296875,1.2028656005859375,-0.112213134765625
1686426301378617300,11.592617431640624,1.0172271728515625,1.2352752685546875,-0.0877227783203125
1686426301388562200,11.602562255859375,0.769561767578125,1.3015289306640625,-0.0234832763671875
1686426301398507300,11.61250732421875,0.4964599609375,1.332794189453125,0.017791748046875
1686426301408452400,11.622452392578126,0.2958221435546875,1.364227294921875,-0.0225677490234375
1686426301418397200,11.632397216796875,0.0736846923828125,1.466339111328125,-0.0858306884765625
1686426301428342300,11.64234228515625,-0.2063751220703125,1.526580810546875,-0.15325927734375
1686426301438287400,11.652287353515625,-0.4275665283203125,1.5085906982421875,-0.2047576904296875
1686426301448232200,11.662232177734374,-0.481689453125,1.4659576416015625,-0.176849365234375
1686426301458177300,11.67217724609375,-0.45916748046875,1.3721160888671875,-0.2515716552734375
1686426301468122400,11.682122314453125,-0.40985107421875,1.2402801513671875,-0.3238525390625
1686426301478067200,11.692067138671876,-0.2812652587890625,1.0942840576171875,-0.2171630859375
1686426301488012300,11.70201220703125,-0.1895904541015625,0.9125213623046875,-0.1244659423828125
1686426301497957000,11.71195703125,-0.2165679931640625,0.737060546875,-0.0783233642578125
1686426301507902200,11.721902099609375,-0.3584747314453125,0.6067352294921875,-0.0662384033203125
1686426301517847300,11.731847412109374,-0.57135009765625,0.5215911865234375,-0.0827789306640625
1686426301527792000,11.741792236328125,-0.7494354248046875,0.487884521484375,-0.0563507080078125
1686426301537737200,11.7517373046875,-0.8076019287109375,0.5364227294921875,0.1020660400390625
1686426301547682300,11.761682373046876,-0.8042449951171875,0.63671875,0.2647857666015625
1686426301557626400,11.77162646484375,-0.7674102783203125,0.7904205322265625,0.397216796875
1686426301567571200,11.7815712890625,-0.6812591552734375,1.0013427734375,0.49847412109375
1686426301577516300,11.791516357421875,-0.53497314453125,1.2225341796875,0.4896697998046875
1686426301587461000,11.801461181640626,-0.2824554443359375,1.3303985595703125,0.2639312744140625
1686426301597406200,11.81140625,-0.085296630859375,1.303131103515625,0.1226959228515625
1686426301607351300,11.821351318359374,-0.04449462890625,1.211151123046875,0.1442413330078125
1686426301617296100,11.831296142578125,-0.0447845458984375,1.068634033203125,0.134490966796875
1686426301627241200,11.8412412109375,-0.05450439453125,0.936126708984375,0.0573272705078125
1686426301637186300,11.851186279296876,-0.068756103515625,0.858642578125,-0.0592803955078125
1686426301647131100,11.861131103515625,-0.0777587890625,0.798187255859375,-0.160797119140625
1686426301657076500,11.871076416015624,-0.05865478515625,0.716217041015625,-0.14959716796875
1686426301667021300,11.881021240234375,0.0020751953125,0.6456756591796875,-0.1155242919921875
1686426301676966100,11.890966064453124,0.0810089111328125,0.5984344482421875,-0.12823486328125
1686426301686911200,11.9009111328125,0.1521148681640625,0.5571441650390625,-0.144805908203125
1686426301696856300,11.910856201171875,0.1987457275390625,0.543426513671875,-0.1624908447265625
1686426301706801200,11.92080126953125,0.220123291015625,0.5341796875,-0.1805572509765625
1686426301716746200,11.930746337890625,0.2133026123046875,0.5277862548828125,-0.1637420654296875
1686426301726691300,11.94069140625,0.135955810546875,0.5587310791015625,-0.11737060546875
1686426301736636200,11.95063623046875,0.0023651123046875,0.6234283447265625,-0.055328369140625
1686426301746581200,11.960581298828124,-0.1268768310546875,0.696746826171875,0.0325469970703125
1686426301756526300,11.9705263671875,-0.217010498046875,0.789398193359375,0.13494873046875
1686426301766471200,11.98047119140625,-0.223236083984375,0.89886474609375,0.2373199462890625
1686426301776416300,11.990416259765626,-0.1462860107421875,0.9897308349609375,0.3238983154296875
1686426301786361300,12.000361328125,-0.0398406982421875,1.05596923828125,0.36676025390625
1686426301796306200,12.01030615234375,0.0462799072265625,1.0809478759765625,0.40167236328125
1686426301806251300,12.020251220703125,0.0887298583984375,1.1052398681640625,0.4053802490234375
1686426301816196000,12.030196044921874,0.0991668701171875,1.15771484375,0.384246826171875
1686426301826141400,12.040141357421875,0.07135009765625,1.2108001708984375,0.3759613037109375
1686426301836086300,12.050086181640625,0.032379150390625,1.2583160400390625,0.3766937255859375
1686426301846031000,12.060031005859376,0.0291900634765625,1.28802490234375,0.3765716552734375
1686426301855976400,12.0699765625,0.0430145263671875,1.3004608154296875,0.362823486328125
1686426301865921300,12.07992138671875,0.070159912109375,1.2878570556640625,0.32562255859375
1686426301875866000,12.0898662109375,0.166046142578125,1.274383544921875,0.343414306640625
1686426301885811500,12.0998115234375,0.2878875732421875,1.2891082763671875,0.3680877685546875
1686426301895756300,12.10975634765625,0.2597808837890625,1.3254241943359375,0.3613128662109375
1686426301905701000,12.119701171875,0.066253662109375,1.385833740234375,0.347930908203125
1686426301915646200,12.129646240234376,-0.0875396728515625,1.4150848388671875,0.340087890625
1686426301925591300,12.13959130859375,-0.15936279296875,1.42291259765625,0.335601806640625
1686426301935536000,12.1495361328125,-0.20819091796875,1.4370574951171875,0.3082275390625
1686426301945481200,12.159481201171875,-0.27056884765625,1.4429931640625,0.25341796875
1686426301955426300,12.16942626953125,-0.3406219482421875,1.364471435546875,0.218048095703125
1686426301965371100,12.17937109375,-0.40478515625,1.2043304443359375,0.213653564453125
1686426301975316200,12.189316162109375,-0.4580230712890625,1.0338134765625,0.2138519287109375
1686426301985261300,12.19926123046875,-0.4731903076171875,0.90350341796875,0.189666748046875
1686426301995206400,12.209206298828125,-0.4805145263671875,0.817626953125,0.1278839111328125
1686426302005151200,12.219151123046874,-0.53948974609375,0.7665557861328125,0.02667236328125
1686426302015096000,12.229095947265625,-0.603485107421875,0.75738525390625,-0.0831298828125
1686426302025041400,12.23904150390625,-0.6199493408203125,0.850372314453125,-0.236053466796875
1686426302034986200,12.248986328125,-0.6127471923828125,1.0496368408203125,-0.3968048095703125
1686426302044931000,12.25893115234375,-0.5828857421875,1.264892578125,-0.493011474609375
1686426302054876400,12.26887646484375,-0.5301666259765625,1.421844482421875,-0.5485076904296875
1686426302064821200,12.2788212890625,-0.47918701171875,1.5146942138671875,-0.695281982421875
1686426302074766000,12.28876611328125,-0.432220458984375,1.5733489990234375,-0.8284454345703125
1686426302084711200,12.298711181640625,-0.340606689453125,1.5828399658203125,-0.814056396484375
1686426302094656300,12.30865625,-0.2183685302734375,1.5204315185546875,-0.720916748046875
1686426302104601000,12.31860107421875,-0.099395751953125,1.2848358154296875,-0.5967864990234375
1686426302114546200,12.328546142578125,-0.0312652587890625,0.9896697998046875,-0.417999267578125
1686426302124491300,12.3384912109375,0.03155517578125,0.85345458984375,-0.2068939208984375
1686426302134436000,12.34843603515625,0.1539459228515625,0.8250732421875,0.014984130859375
1686426302144381000,12.358380859375,0.3080596923828125,0.8715362548828125,0.274261474609375
1686426302154326300,12.368326171875,0.3343048095703125,0.909271240234375,0.4672393798828125
1686426302164271000,12.37827099609375,0.177734375,0.879608154296875,0.55615234375
1686426302174216200,12.38821630859375,-0.0265960693359375,0.8192901611328125,0.62237548828125
1686426302184161300,12.398161376953125,-0.2476959228515625,0.76348876953125,0.6313323974609375
1686426302194105000,12.40810498046875,-0.3827972412109375,0.716583251953125,0.5613250732421875
1686426302204051200,12.41805126953125,-0.401031494140625,0.65948486328125,0.4612579345703125
1686426302213995300,12.427995361328126,-0.2972412109375,0.581939697265625,0.381256103515625
1686426302223940000,12.437940185546875,-0.1554107666015625,0.471099853515625,0.3405914306640625
1686426302233885000,12.447885009765624,-0.051971435546875,0.3585662841796875,0.3010406494140625
1686426302243830300,12.457830322265625,0.0272064208984375,0.298675537109375,0.2602081298828125
1686426302253775000,12.467775146484374,0.0640869140625,0.268798828125,0.2080841064453125
1686426302263720200,12.47772021484375,0.058624267578125,0.2337493896484375,0.1551666259765625
1686426302273665300,12.487665283203125,0.06005859375,0.2082672119140625,0.1042938232421875
1686426302283610000,12.497610107421876,0.07025146484375,0.217926025390625,0.050750732421875
1686426302293555200,12.50755517578125,0.0986785888671875,0.2808074951171875,0.0084381103515625
1686426302303500300,12.517500244140624,0.1764984130859375,0.429656982421875,0.0015869140625
1686426302313445000,12.527445068359375,0.30621337890625,0.5927734375,0.0125732421875
1686426302323390200,12.53739013671875,0.4365234375,0.7479400634765625,0.0478363037109375
1686426302333335000,12.5473349609375,0.557159423828125,0.945831298828125,0.086822509765625
1686426302343280000,12.557280029296875,0.581298828125,1.1565399169921875,0.085235595703125
1686426302353225200,12.56722509765625,0.4656982421875,1.3181304931640625,0.029693603515625
1686426302363170000,12.577170166015625,0.2808837890625,1.4051666259765625,-0.033172607421875
1686426302373115100,12.587115234375,0.0501708984375,1.4443511962890625,-0.14208984375
1686426302383060200,12.597060302734375,-0.2334747314453125,1.5326385498046875,-0.2412109375
1686426302393005000,12.607005126953124,-0.443206787109375,1.742034912109375,-0.1376800537109375
1686426302402950100,12.6169501953125,-0.2668914794921875,1.7903900146484375,-0.078277587890625
1686426302412895200,12.626895263671875,0.1561431884765625,1.539306640625,-0.106964111328125
1686426302422840000,12.636840087890626,0.5421905517578125,1.25244140625,-0.1645660400390625
1686426302432785200,12.64678515625,0.82470703125,1.092803955078125,-0.230010986328125
1686426302442730200,12.656730224609374,0.8589935302734375,1.05035400390625,-0.22125244140625
1686426302452675000,12.666675048828125,0.60931396484375,1.129058837890625,-0.1671905517578125
1686426302462620200,12.6766201171875,0.3645782470703125,1.296783447265625,-0.0976409912109375
1686426302472565200,12.686565185546876,0.1977996826171875,1.4800872802734375,-0.079376220703125
1686426302482510000,12.696510009765625,0.02362060546875,1.6091156005859375,-0.076385498046875
1686426302492455200,12.706455078125,-0.18731689453125,1.68359375,-0.023681640625
1686426302502400300,12.716400146484375,-0.3803558349609375,1.6338043212890625,0.0724639892578125
1686426302512345000,12.726344970703124,-0.422454833984375,1.4971771240234375,0.1690216064453125
1686426302522290200,12.736290283203125,-0.4366302490234375,1.2995758056640625,0.0016937255859375
1686426302532235300,12.7462353515625,-0.4268646240234375,1.117828369140625,-0.2127685546875
1686426302542180000,12.75618017578125,-0.27734375,0.9951019287109375,-0.16790771484375
1686426302552125200,12.766125244140625,-0.11810302734375,0.872467041015625,-0.09564208984375
1686426302562070000,12.776070068359376,-0.125518798828125,0.76873779296875,-0.02667236328125
1686426302572015000,12.78601513671875,-0.2842254638671875,0.676605224609375,-0.0175933837890625
1686426302581960200,12.795960205078124,-0.503631591796875,0.57061767578125,-0.0498809814453125
1686426302591905000,12.805905029296875,-0.6820068359375,0.5386962890625,-0.03826904296875
1686426302601850400,12.815850341796875,-0.746337890625,0.5847625732421875,0.057037353515625
1686426302611795200,12.825795166015626,-0.7584381103515625,0.67144775390625,0.19659423828125
1686426302621740000,12.835739990234375,-0.730804443359375,0.792633056640625,0.330322265625
1686426302631685400,12.845685302734376,-0.6368560791015625,0.9438934326171875,0.42041015625
1686426302641630200,12.855630126953125,-0.4975128173828125,1.10955810546875,0.4568634033203125
1686426302651575000,12.865574951171874,-0.26849365234375,1.2605133056640625,0.2866363525390625
1686426302661520100,12.87552001953125,-0.0703582763671875,1.3342742919921875,0.132904052734375
1686426302671465200,12.88546533203125,0.01025390625,1.324371337890625,0.0832366943359375
1686426302681410000,12.89541015625,-0.0022735595703125,1.2467498779296875,0.032623291015625
1686426302691355100,12.905355224609375,-0.042388916015625,1.111724853515625,-0.01654052734375
1686426302701300200,12.91530029296875,-0.087371826171875,0.9675140380859375,-0.09161376953125
1686426302711245000,12.9252451171875,-0.1194915771484375,0.8482513427734375,-0.16583251953125
1686426302721190100,12.935190185546874,-0.1204071044921875,0.7592315673828125,-0.18121337890625
1686426302731135200,12.94513525390625,-0.09368896484375,0.67657470703125,-0.124176025390625
1686426302741080000,12.955080078125,-0.038238525390625,0.616729736328125,-0.0845489501953125
1686426302751025200,12.965025146484376,0.02130126953125,0.5633087158203125,-0.0845794677734375
1686426302760970200,12.97497021484375,0.068267822265625,0.511474609375,-0.090240478515625
1686426302770915300,12.984915283203126,0.09698486328125,0.4791259765625,-0.080535888671875
1686426302780860200,12.994860107421875,0.082733154296875,0.4732513427734375,-0.0641937255859375
1686426302790805000,13.004804931640624,0.0359954833984375,0.484375,-0.0423431396484375
1686426302800750300,13.014750244140625,-0.03228759765625,0.5240020751953125,-0.01611328125
