time,seconds_elapsed,z,y,x
1686426289892234800,0.10623486328125,0.2054852396249771,0.01085584331303835,0.12197250872850418
1686426289902178800,0.1161787109375,0.08780335634946823,0.07327660918235779,0.07829160988330841
1686426289912124000,0.1261240234375,0.028990106657147408,0.266549676656723,-0.07889508455991745
1686426289922068700,0.13606884765625,0.03138907998800278,0.32560527324676514,-0.2382834106683731
1686426289932013800,0.146013916015625,0.036501817405223846,0.19269540905952454,-0.33710986375808716
1686426289941959000,0.155958984375,0.01992177590727806,0.05994589254260063,-0.36389485001564026
1686426289951903700,0.16590380859375,0.005840312223881483,0.09863735735416412,-0.32623109221458435
1686426289961849000,0.17584912109375,-0.059415921568870544,0.21321427822113037,-0.30416467785835266
1686426289971793000,0.18579296875,-0.13932247459888458,0.6313095092773438,-0.35163286328315735
1686426289981737700,0.19573779296875,-0.16982817649841309,1.145187258720398,-0.3709823191165924
1686426289991682800,0.205682861328125,-0.16229383647441864,1.476326823234558,-0.38012203574180603
1686426290001628000,0.2156279296875,-0.16097663342952728,1.6278353929519653,-0.4054071605205536
1686426290011572700,0.22557275390625,-0.15467533469200134,1.619505524635315,-0.4329053461551666
1686426290021517800,0.235517822265625,-0.13336125016212463,1.4148218631744385,-0.4513099193572998
1686426290031463000,0.245462890625,-0.11203359067440033,1.0594127178192139,-0.4363301694393158
1686426290041407000,0.255406982421875,-0.0902462750673294,0.68030846118927,-0.4039916694164276
1686426290051352000,0.26535205078125,-0.07399806380271912,0.35746997594833374,-0.3453637957572937
1686426290061297200,0.275297119140625,-0.03909467160701752,0.15239539742469788,-0.2746102511882782
1686426290071242000,0.285241943359375,0.014839133247733116,0.14580939710140228,-0.21877415478229523
1686426290081187000,0.29518701171875,0.05464566871523857,0.3229793906211853,-0.20299679040908813
1686426290091132200,0.305132080078125,0.07561939209699631,0.5677156448364258,-0.1973751187324524
1686426290101077000,0.315076904296875,0.046652987599372864,0.811810314655304,-0.18911212682724
1686426290111021000,0.32502099609375,-0.021946577355265617,1.0498745441436768,-0.18453681468963623
1686426290120966100,0.334966064453125,-0.07115087658166885,1.2949165105819702,-0.19671759009361267
1686426290130911200,0.3449111328125,-0.070103719830513,1.5195424556732178,-0.22171881794929504
1686426290140856000,0.35485595703125,-0.006412891671061516,1.676948070526123,-0.23586685955524445
1686426290150801200,0.36480126953125,0.08140750974416733,1.7628216743469238,-0.23322340846061707
1686426290160746000,0.37474609375,0.14593137800693512,1.8591862916946411,-0.2338646948337555
1686426290170691000,0.384691162109375,0.12762001156806946,1.9671950340270996,-0.22356358170509338
1686426290180635100,0.39463525390625,0.01335575245320797,1.9938567876815796,-0.1901978999376297
1686426290190580200,0.404580322265625,-0.17267003655433655,2.001645803451538,-0.12585273385047913
1686426290200525000,0.414525146484375,-0.3812437653541565,2.0953633785247803,-0.049014680087566376
1686426290210470100,0.42447021484375,-0.5515710115432739,2.194931983947754,-0.015095329843461514
1686426290220415200,0.434415283203125,-0.6291148066520691,2.296416997909546,-0.0016522251535207033
1686426290230360000,0.444360107421875,-0.616491973400116,2.379457950592041,0.012556537985801697
1686426290240305200,0.45430517578125,-0.5350719094276428,2.4110031127929688,0.06005561351776123
1686426290250249200,0.464249267578125,-0.4332853853702545,2.5180952548980713,0.15339860320091248
1686426290260194000,0.474194091796875,-0.32647904753685,2.6441822052001953,0.2781354784965515
1686426290270139100,0.48413916015625,-0.23748312890529633,2.799673318862915,0.41498759388923645
1686426290280084200,0.494084228515625,-0.17657716572284698,3.0183145999908447,0.5052024722099304
1686426290290029000,0.504029052734375,-0.14652499556541443,3.1963961124420166,0.5541265606880188
1686426290299974100,0.51397412109375,-0.13423876464366913,3.1989219188690186,0.522947371006012
1686426290309919200,0.523919189453125,-0.14147324860095978,2.992079257965088,0.434558629989624
1686426290319863000,0.533863037109375,-0.2056192010641098,2.665396213531494,0.3237977623939514
1686426290329808000,0.543807861328125,-0.3697735369205475,2.4330356121063232,0.23792840540409088
1686426290339753200,0.553753173828125,-0.575626790523529,2.431993007659912,0.215353861451149
1686426290349698000,0.563697998046875,-0.7038729190826416,2.593693733215332,0.24239346385002136
1686426290359643100,0.57364306640625,-0.7370008230209351,2.7598774433135986,0.28683868050575256
1686426290369588200,0.583588134765625,-0.6987495422363281,2.875286817550659,0.29694539308547974
1686426290379533000,0.593532958984375,-0.6381860971450806,2.993840217590332,0.2588483393192291
1686426290389477000,0.60347705078125,-0.5854823589324951,3.1505112648010254,0.14942996203899384
1686426290399422200,0.613422119140625,-0.5344098806381226,3.293869972229004,-0.04360872879624367
1686426290409367000,0.623366943359375,-0.4966934025287628,3.358609676361084,-0.27206507325172424
1686426290419312000,0.63331201171875,-0.5284393429756165,3.324183464050293,-0.46915575861930847
1686426290429257200,0.64325732421875,-0.6913869976997375,3.358316659927368,-0.5414414405822754
1686426290439202000,0.6532021484375,-0.9441244006156921,3.4343645572662354,-0.46096521615982056
1686426290449147100,0.663147216796875,-1.2345682382583618,3.417717456817627,-0.26199325919151306
1686426290459091200,0.67309130859375,-1.4733490943908691,3.3874051570892334,0.024358602240681648
1686426290469036000,0.6830361328125,-1.622135877609253,3.332335948944092,0.36184316873550415
1686426290478981000,0.692981201171875,-1.6701325178146362,3.1659672260284424,0.7319626212120056
1686426290488926200,0.70292626953125,-1.6179169416427612,2.94796085357666,1.1291248798370361
1686426290498871000,0.71287109375,-1.5755207538604736,2.7982025146484375,1.5579575300216675
1686426290508816100,0.722816162109375,-1.5132648944854736,2.660456895828247,2.000608444213867
1686426290518761200,0.73276123046875,-1.39363431930542,2.6380796432495117,2.4015285968780518
1686426290528705000,0.742705078125,-1.2230702638626099,2.64507794380188,2.697551727294922
1686426290538650000,0.752650146484375,-1.107851266860962,2.778125762939453,2.882624387741089
1686426290548595200,0.76259521484375,-1.122924566268921,2.919018507003784,3.0025558471679688
1686426290558540000,0.7725400390625,-1.215644359588623,2.819816827774048,3.0821166038513184
1686426290568485000,0.782485107421875,-1.364261269569397,2.3633620738983154,3.147324800491333
1686426290578430200,0.79243017578125,-1.5870980024337769,1.7229690551757812,3.2032623291015625
1686426290588375000,0.802375,-1.907153844833374,1.0329972505569458,3.252091884613037
1686426290598319000,0.812319091796875,-2.3203341960906982,0.7146320939064026,3.329359769821167
1686426290608264200,0.82226416015625,-2.677396774291992,0.9568892121315002,3.4470157623291016
1686426290618209000,0.832208984375,-2.8229761123657227,1.2618355751037598,3.529641628265381
1686426290628154000,0.842154052734375,-2.790626287460327,0.9106330275535583,3.633251905441284
1686426290638099200,0.85209912109375,-2.7111592292785645,0.8892217874526978,3.8130695819854736
1686426290648044000,0.8620439453125,-2.713290214538574,0.8152034282684326,4.097877502441406
1686426290657989000,0.871989013671875,-2.751258611679077,0.7370612621307373,4.403388977050781
1686426290667933200,0.88193310546875,-2.877760648727417,0.5878816246986389,4.752707004547119
1686426290677878000,0.8918779296875,-3.0004642009735107,0.10610033571720123,5.115851879119873
1686426290687823000,0.901822998046875,-3.0897650718688965,-0.44295984506607056,5.397526741027832
1686426290697768200,0.911768310546875,-3.1597201824188232,-0.6906644701957703,5.527596473693848
1686426290707713000,0.921713134765625,-3.1661765575408936,-0.8039728999137878,5.503708839416504
1686426290717658000,0.931658203125,-3.1043734550476074,-0.8621113300323486,5.381654262542725
1686426290727603200,0.941603271484375,-3.0147528648376465,-0.9391381740570068,5.20563268661499
1686426290737548000,0.951548095703125,-2.9342312812805176,-0.9995631575584412,5.004010200500488
1686426290747492000,0.9614921875,-2.9359350204467773,-1.0106414556503296,4.759108066558838
1686426290757437200,0.971437255859375,-3.002124786376953,-1.0729016065597534,4.478363990783691
1686426290767382300,0.98138232421875,-3.0700855255126953,-1.2355378866195679,4.199923992156982
1686426290777327000,0.9913271484375,-3.104156732559204,-1.3992490768432617,3.8956551551818848
1686426290787272200,1.001272216796875,-3.0645852088928223,-1.4752322435379028,3.581347942352295
1686426290797217000,1.011217041015625,-2.9335696697235107,-1.4874012470245361,3.3195106983184814
1686426290807162000,1.021162109375,-2.697152614593506,-1.4701437950134277,3.1439154148101807
1686426290817106000,1.03110595703125,-2.3828108310699463,-1.4038726091384888,3.0361671447753906
1686426290827051300,1.04105126953125,-2.0203866958618164,-1.2745068073272705,2.960984945297241
1686426290836996000,1.05099609375,-1.615522027015686,-1.0948013067245483,2.8734259605407715
1686426290846941200,1.060941162109375,-1.206175684928894,-0.9759992361068726,2.7684595584869385
1686426290856886300,1.07088623046875,-0.8358895778656006,-0.8677199482917786,2.644510269165039
1686426290866831000,1.0808310546875,-0.5172202587127686,-0.7868144512176514,2.479989767074585
1686426290876776200,1.090776123046875,-0.24906867742538452,-0.7297652363777161,2.2654271125793457
1686426290886720300,1.10072021484375,-0.038004107773303986,-0.6856601238250732,1.9963047504425049
1686426290896665000,1.1106650390625,0.141627699136734,-0.6422863006591797,1.6392203569412231
1686426290906610000,1.12060986328125,0.2719777226448059,-0.5237889289855957,1.1625521183013916
1686426290916555300,1.13055517578125,0.35099664330482483,-0.3524453938007355,0.6352019906044006
1686426290926500000,1.1405,0.3788282573223114,-0.2039209008216858,0.1418687254190445
1686426290936445000,1.15044482421875,0.3606780171394348,-0.1378215104341507,-0.23653584718704224
1686426290946390300,1.160390380859375,0.32956111431121826,-0.10724309831857681,-0.49917200207710266
1686426290956335000,1.170335205078125,0.2972322106361389,-0.0685092881321907,-0.6772136092185974
1686426290966279000,1.18027880859375,0.2894051671028137,-0.03507915884256363,-0.7698585987091064
1686426290976224300,1.190224365234375,0.26452887058258057,0.058101654052734375,-0.773845374584198
1686426290986169000,1.200169189453125,0.17898279428482056,0.24250425398349762,-0.7490830421447754
1686426290996114000,1.210114013671875,0.1043410524725914,0.43244701623916626,-0.7412850260734558
1686426291006059300,1.220059326171875,-0.024576716125011444,0.7322518229484558,-0.6755238771438599
1686426291016004000,1.230004150390625,-0.19920311868190765,1.102229118347168,-0.43425798416137695
1686426291025949000,1.239948974609375,-0.29240337014198303,1.3566291332244873,-0.020412864163517952
1686426291035894300,1.249894287109375,-0.24125869572162628,1.565854787826538,0.4382287561893463
1686426291045837000,1.259837158203125,-0.0672469511628151,1.7537953853607178,0.6747355461120605
1686426291055782400,1.269782470703125,0.16470879316329956,1.7915030717849731,0.5828613042831421
1686426291065727200,1.279727294921875,0.2924928367137909,1.5959186553955078,0.3972962200641632
1686426291075672000,1.289672119140625,0.29087045788764954,1.1838611364364624,0.19545631110668182
1686426291085617400,1.299617431640625,0.1818893700838089,0.6964059472084045,-0.07107017934322357
1686426291095562200,1.309562255859375,0.02828463539481163,0.1940232664346695,-0.3856033384799957
1686426291105507000,1.319507080078125,-0.10488539934158325,-0.16586540639400482,-0.6259506940841675
1686426291115451400,1.329451416015625,-0.16716022789478302,-0.30716952681541443,-0.7830992937088013
1686426291125396200,1.339396240234375,-0.17120105028152466,-0.251870334148407,-0.8437306880950928
1686426291135341000,1.349341064453125,-0.13620764017105103,-0.13303475081920624,-0.8245671391487122
1686426291145286400,1.359286376953125,-0.05510879307985306,0.053105294704437256,-0.7462220191955566
1686426291155231200,1.369231201171875,0.01438373327255249,0.1924930214881897,-0.6911789774894714
1686426291165176000,1.379176025390625,0.039568979293107986,0.25620195269584656,-0.7202860116958618
1686426291175121400,1.389121337890625,0.010928814299404621,0.26072508096694946,-0.7685019969940186
1686426291185066200,1.399066162109375,0.01233336515724659,0.2555982172489166,-0.7897303104400635
1686426291195010300,1.40901025390625,0.25403547286987305,0.2900664508342743,-0.8422657251358032
1686426291204955400,1.418955322265625,0.7725009918212891,0.26275599002838135,-0.8211665153503418
1686426291214900200,1.428900146484375,1.3199843168258667,0.12304683029651642,-0.5429303646087646
1686426291224845000,1.438844970703125,1.7576191425323486,-0.1406516581773758,-0.16306082904338837
1686426291234790400,1.448790283203125,1.9744234085083008,-0.28695347905158997,0.02575303427875042
1686426291244735200,1.4587353515625,2.060729742050171,-0.38804733753204346,-0.026609506458044052
1686426291254680000,1.46868017578125,2.0772900581359863,-0.4178102910518646,-0.20463916659355164
1686426291264624400,1.478624267578125,2.036824941635132,-0.2618483901023865,-0.33383336663246155
1686426291274569200,1.4885693359375,1.8150055408477783,0.003626692807301879,-0.5584936141967773
1686426291284514300,1.498514404296875,1.436293601989746,0.373772531747818,-0.8839582800865173
1686426291294459400,1.50845947265625,1.2172001600265503,0.6974275708198547,-0.932252824306488
1686426291304404200,1.518404296875,1.050065517425537,0.936283528804779,-0.682608425617218
1686426291314349000,1.52834912109375,0.7811514735221863,1.0686432123184204,-0.47063782811164856
1686426291324294400,1.53829443359375,0.40594616532325745,0.9374321699142456,-0.3674320578575134
1686426291334239200,1.5482392578125,0.10269388556480408,0.7668284773826599,-0.4166792333126068
1686426291344183300,1.558183349609375,-0.11444668471813202,0.7461681962013245,-0.4054761230945587
1686426291354128100,1.568128173828125,-0.24938052892684937,0.9000563025474548,-0.2550155222415924
1686426291364073200,1.5780732421875,-0.296106219291687,1.0875729322433472,-0.06034776195883751
1686426291374018300,1.588018310546875,-0.33350393176078796,1.2500468492507935,-0.016438627615571022
1686426291383963400,1.59796337890625,-0.3983231484889984,1.4159313440322876,-0.09103003889322281
1686426291393908200,1.607908203125,-0.46420520544052124,1.3554158210754395,-0.16202113032341003
1686426291403853000,1.61785302734375,-0.5434699654579163,1.016831874847412,-0.2010212540626526
1686426291413798400,1.62779833984375,-0.6027311682701111,0.448490709066391,-0.25418540835380554
1686426291423742200,1.6377421875,-0.6324490904808044,-0.09291955083608627,-0.3572465479373932
1686426291433687300,1.647687255859375,-0.6260380744934082,-0.42575955390930176,-0.4607172906398773
1686426291443632000,1.657632080078125,-0.5706791877746582,-0.5260528922080994,-0.4622264802455902
1686426291453577200,1.6675771484375,-0.5051294565200806,-0.48822134733200073,-0.34985652565956116
1686426291463522300,1.677522216796875,-0.4911747872829437,-0.48688045144081116,-0.19399264454841614
1686426291473467400,1.68746728515625,-0.5635510087013245,-0.6334187388420105,-0.040553018450737
1686426291483412200,1.697412109375,-0.7094844579696655,-0.8656623959541321,0.03436676040291786
1686426291493357000,1.707357177734375,-0.810676634311676,-0.9798544645309448,0.06805708259344101
1686426291503301000,1.717301025390625,-0.8470074534416199,-1.0440212488174438,0.08502381294965744
1686426291513246200,1.72724609375,-0.8176184296607971,-0.9479843974113464,0.05703452229499817
1686426291523191300,1.73719140625,-0.8700949549674988,-0.7974697351455688,-0.037103958427906036
1686426291533136100,1.74713623046875,-0.9577826857566833,-0.1685839593410492,-0.20017597079277039
1686426291543081200,1.757081298828125,-0.9773145914077759,0.5685233473777771,-0.37473711371421814
1686426291553026300,1.7670263671875,-0.8787994980812073,1.1384934186935425,-0.40510061383247375
1686426291562971400,1.776971435546875,-0.9782341718673706,1.7632765769958496,-0.2880328595638275
1686426291572915200,1.786915283203125,-1.021838665008545,2.0494985580444336,-0.07462789863348007
1686426291582860300,1.7968603515625,-1.0562560558319092,2.0483734607696533,0.15748576819896698
1686426291592805000,1.80680517578125,-1.0585740804672241,1.8139879703521729,0.3490959405899048
1686426291602750200,1.816750244140625,-1.0771996974945068,1.6121567487716675,0.4149194359779358
1686426291612695300,1.8266953125,-1.154832124710083,1.556528925895691,0.3207165002822876
1686426291622640000,1.83664013671875,-1.2805850505828857,1.4478014707565308,0.06514597684144974
1686426291632585200,1.846585205078125,-1.3246909379959106,1.13278067111969,-0.2990325093269348
1686426291642530300,1.8565302734375,-1.7719722986221313,1.2481788396835327,-0.6907523274421692
1686426291652475400,1.866475341796875,-2.251209259033203,1.0799927711486816,-1.1102843284606934
1686426291662419200,1.876419189453125,-2.815722703933716,0.6399344205856323,-1.4081770181655884
1686426291672364300,1.8863642578125,-3.4140992164611816,0.16964708268642426,-1.4684380292892456
1686426291682309000,1.89630908203125,-4.1100850105285645,-0.28677985072135925,-1.312862515449524
1686426291692254200,1.906254150390625,-4.666694641113281,-0.47668159008026123,-0.8330490589141846
1686426291702199300,1.91619921875,-4.984408378601074,-0.46201983094215393,-0.15392617881298065
1686426291712144100,1.92614404296875,-5.032129287719727,-0.35064271092414856,0.467581570148468
1686426291722089200,1.936089111328125,-4.785343170166016,-0.37426814436912537,0.9523719549179077
1686426291732033300,1.946033203125,-4.348982810974121,-0.6009880900382996,1.1086121797561646
1686426291741978000,1.95597802734375,-3.815509557723999,-0.6691216230392456,0.9935920834541321
1686426291751923200,1.965923095703125,-3.229733943939209,-0.3718944787979126,0.789770781993866
1686426291761868300,1.975868408203125,-2.574690580368042,0.16920900344848633,0.541560709476471
1686426291771813000,1.985813232421875,-1.8856961727142334,0.6518211960792542,0.3622964322566986
1686426291781758200,1.99575830078125,-1.2882200479507446,0.8272483944892883,0.3645353615283966
1686426291791703300,2.005703369140625,-0.7722219228744507,0.8864286541938782,0.4311133027076721
1686426291801648000,2.015648193359375,-0.37758323550224304,0.9465585350990295,0.5543540120124817
1686426291811592400,2.025592529296875,-0.14819851517677307,1.0396051406860352,0.753153920173645
1686426291821537300,2.035537353515625,-0.0835883691906929,1.111144781112671,1.0203936100006104
1686426291831482000,2.045482177734375,-0.11346930265426636,1.022199273109436,1.3234003782272339
1686426291841427200,2.05542724609375,-0.22582247853279114,0.7631455659866333,1.5663357973098755
1686426291851372300,2.065372314453125,-0.39617475867271423,0.4546135663986206,1.6970323324203491
1686426291861317000,2.075317138671875,-0.6075069904327393,0.2440323680639267,1.7246888875961304
1686426291871262200,2.08526220703125,-0.8602279424667358,0.2553710341453552,1.6554046869277954
1686426291881207300,2.095207275390625,-1.1968826055526733,0.3594798743724823,1.4806370735168457
1686426291891151000,2.105151123046875,-1.5835214853286743,0.34466469287872314,1.2657877206802368
1686426291901096400,2.115096435546875,-2.0352542400360107,0.08294175565242767,1.075617790222168
1686426291911041300,2.125041259765625,-2.533872604370117,-0.31392329931259155,0.9274327754974365
1686426291920986000,2.134986083984375,-3.0147957801818848,-0.8317504525184631,0.8469446301460266
1686426291930931500,2.144931396484375,-3.4306654930114746,-1.3268688917160034,0.7862439751625061
1686426291940876300,2.154876220703125,-3.778797149658203,-1.6961909532546997,0.6773534417152405
1686426291950821000,2.164821044921875,-4.084749221801758,-2.0249786376953125,0.5174157023429871
1686426291960766200,2.17476611328125,-4.275559425354004,-2.2765066623687744,0.3221689760684967
1686426291970710300,2.184710205078125,-4.275295734405518,-2.3234786987304688,0.13760367035865784
1686426291980655000,2.194655029296875,-4.177534580230713,-2.0799896717071533,-0.002520149340853095
1686426291990600400,2.204600341796875,-4.043242931365967,-1.6380126476287842,-0.04824023321270943
1686426292000545300,2.214545166015625,-3.837635040283203,-1.1479721069335938,-0.013116600923240185
1686426292010490000,2.224489990234375,-3.587827682495117,-0.8220573663711548,0.08262324333190918
1686426292020435500,2.234435546875,-3.3378844261169434,-0.6992380023002625,0.25202956795692444
1686426292030380300,2.24438037109375,-3.1196911334991455,-0.7432677745819092,0.47907230257987976
1686426292040325000,2.2543251953125,-2.8988282680511475,-0.9745864272117615,0.7815661430358887
1686426292050270200,2.264270263671875,-2.634307622909546,-1.1426215171813965,1.1196019649505615
1686426292060215000,2.274215087890625,-2.340914249420166,-1.0333800315856934,1.400347352027893
1686426292070160100,2.28416015625,-1.9693833589553833,-0.47963452339172363,1.5397840738296509
1686426292080105000,2.29410498046875,-1.3657745122909546,0.24264486134052277,1.4894471168518066
1686426292090050000,2.304050048828125,-0.7391350269317627,0.07031571120023727,1.1257357597351074
1686426292099995100,2.3139951171875,-0.11216168850660324,-0.9759462475776672,0.43289923667907715
1686426292109940000,2.32393994140625,0.1802709698677063,-1.5386253595352173,-0.26733794808387756
1686426292119885000,2.333885009765625,0.289494127035141,-1.346025824546814,-0.6332190036773682
1686426292129830100,2.343830078125,0.33665579557418823,-0.9185498356819153,-0.6266042590141296
1686426292139774200,2.353774169921875,0.3449390232563019,-0.531232476234436,-0.38585901260375977
1686426292149719000,2.363718994140625,0.3826136887073517,-0.2972114384174347,-0.15052959322929382
1686426292159663900,2.373663818359375,0.3873724937438965,-0.08344322443008423,-0.041195906698703766
1686426292169609000,2.38360888671875,0.3654746413230896,0.04687456414103508,-0.05089780315756798
1686426292179554000,2.393553955078125,0.3312852382659912,0.04734035208821297,-0.11969710886478424
1686426292189499100,2.4034990234375,0.28145831823349,-0.0034908715169876814,-0.20296989381313324
1686426292199444000,2.41344384765625,0.25936925411224365,-0.05661693960428238,-0.2821797728538513
1686426292209389000,2.42338916015625,0.31991782784461975,-0.09991754591464996,-0.39252224564552307
1686426292219332900,2.433332763671875,0.4352795481681824,-0.09635583311319351,-0.5356354713439941
1686426292229278200,2.4432783203125,0.5637049078941345,-0.05025225132703781,-0.6535775661468506
1686426292239223000,2.45322314453125,0.7267356514930725,-0.07959789037704468,-0.773168683052063
1686426292249168000,2.46316796875,0.874347984790802,-0.11397343873977661,-0.84684157371521
1686426292259113000,2.473113037109375,0.9995125532150269,-0.021514346823096275,-0.864334762096405
1686426292269058000,2.48305810546875,1.0639033317565918,0.23260128498077393,-0.8093245029449463
1686426292279003100,2.493003173828125,1.0047518014907837,0.4637093245983124,-0.7167772650718689
1686426292288948000,2.502947998046875,0.8169659376144409,0.49866917729377747,-0.6145222783088684
1686426292298892000,2.51289208984375,0.6117832064628601,0.29033008217811584,-0.5564035773277283
1686426292308836900,2.5228369140625,0.4708130657672882,0.03888561204075813,-0.5494841933250427
1686426292318782200,2.5327822265625,0.2827880382537842,0.21176232397556305,-0.48499199748039246
1686426292328727000,2.54272705078125,0.01510065607726574,0.1918027251958847,-0.3998856246471405
1686426292338671900,2.552671875,-0.2593141198158264,-0.36875060200691223,-0.32759809494018555
1686426292348617000,2.562616943359375,-0.6177061200141907,-1.233493685722351,-0.2233649045228958
1686426292358562000,2.57256201171875,-0.8878289461135864,-1.8629122972488403,-0.09778781235218048
1686426292368507100,2.582507080078125,-0.9145795702934265,-2.042354106903076,-0.024991104379296303
1686426292378451200,2.592451171875,-0.6978267431259155,-1.84043550491333,-0.004942027851939201
1686426292388396000,2.60239599609375,-0.36309564113616943,-1.406317114830017,0.005931925028562546
1686426292398340900,2.6123408203125,-0.1643732339143753,-0.7089390754699707,-0.008125037886202335
1686426292408286200,2.6222861328125,-0.11338701099157333,0.2791741192340851,-0.08953627198934555
1686426292418231000,2.63223095703125,-0.048662345856428146,1.394287347793579,-0.1615297794342041
1686426292428176000,2.64217578125,0.07803807407617569,2.4908297061920166,-0.18416744470596313
1686426292438121000,2.652120849609375,0.2645328640937805,3.519413471221924,-0.19924093782901764
1686426292448066000,2.662066162109375,0.47295504808425903,4.411231517791748,-0.19898153841495514
1686426292458011100,2.67201123046875,0.6730979681015015,5.055690765380859,-0.16745316982269287
1686426292467955200,2.681955078125,0.8635797500610352,5.509329319000244,-0.16261900961399078
1686426292477900000,2.691900146484375,1.0568102598190308,5.6973443031311035,-0.2512418031692505
1686426292487844900,2.701844970703125,1.2355948686599731,5.316347599029541,-0.33579719066619873
1686426292497790200,2.711790283203125,1.3958383798599243,4.3152313232421875,-0.35824790596961975
1686426292507735000,2.721735107421875,1.4364746809005737,3.0531728267669678,-0.3954448103904724
1686426292517679900,2.731679931640625,1.3509196043014526,1.9207338094711304,-0.4924752116203308
1686426292527625000,2.741625,1.2593777179718018,1.1157550811767578,-0.6084793210029602
1686426292537570000,2.751570068359375,1.1642080545425415,0.6287030577659607,-0.6457401514053345
1686426292547513900,2.761513916015625,1.0112630128860474,0.2743428647518158,-0.5559737682342529
1686426292557459200,2.771459228515625,0.819506049156189,0.11576174944639206,-0.38647234439849854
1686426292567404000,2.781404052734375,0.3789542317390442,0.16772934794425964,-0.22925342619419098
1686426292577348900,2.791348876953125,-0.12160126864910126,0.4708375632762909,-0.0992078110575676
1686426292587294200,2.801294189453125,-0.4566551446914673,0.8923541903495789,0.020743627101182938
1686426292597239000,2.811239013671875,-0.5532695651054382,1.232934594154358,0.13851633667945862
1686426292607184000,2.821183837890625,-0.4746149778366089,1.4396239519119263,0.24345579743385315
1686426292617129000,2.83112890625,-0.4488486349582672,1.4897006750106812,0.24380706250667572
1686426292627074000,2.841073974609375,-0.4910978078842163,1.4460432529449463,0.11677321791648865
1686426292637017900,2.851017822265625,-0.6439741849899292,1.3531907796859741,-0.08946942538022995
1686426292646963200,2.860963134765625,-0.9424673914909363,1.2649786472320557,-0.2776028513908386
1686426292656908000,2.870907958984375,-1.3003571033477783,1.1509183645248413,-0.3276047706604004
1686426292666852900,2.880852783203125,-1.5888839960098267,0.948602020740509,-0.15945543348789215
1686426292676798200,2.890798095703125,-1.790676236152649,0.6388004422187805,0.2108571082353592
1686426292686743000,2.900742919921875,-1.855535864830017,0.44161707162857056,0.5780196785926819
1686426292696687900,2.91068798828125,-1.8445231914520264,0.3455960154533386,0.7184033989906311
1686426292706633200,2.92063330078125,-1.764153242111206,0.10232051461935043,0.6199487447738647
1686426292716578000,2.930578125,-1.5922735929489136,-0.23381301760673523,0.2771807312965393
1686426292726521900,2.94052197265625,-1.3501912355422974,-0.3396846055984497,-0.191837877035141
1686426292736467200,2.95046728515625,-1.0046626329421997,-0.12543275952339172,-0.5927600264549255
1686426292746412000,2.960412109375,-0.5669406652450562,0.09393634647130966,-0.7996812462806702
1686426292756356900,2.97035693359375,-0.3342192471027374,-0.04151788353919983,-0.7691813707351685
1686426292766302200,2.98030224609375,-0.39332839846611023,-0.7344649434089661,-0.468254029750824
1686426292776247000,2.9902470703125,-0.5531955361366272,-1.76451575756073,0.03971385583281517
1686426292786192000,3.00019189453125,-0.658565104007721,-2.571113109588623,0.513392448425293
1686426292796137200,3.01013720703125,-0.6803212761878967,-2.863814115524292,0.8011376857757568
1686426292806082000,3.02008203125,-0.7143314480781555,-2.838839530944824,0.9069951772689819
1686426292816025900,3.03002587890625,-0.7632837891578674,-2.5261237621307373,0.8352448344230652
1686426292825971200,3.03997119140625,-0.7431076765060425,-1.7996121644973755,0.5246073007583618
1686426292835916000,3.049916015625,-0.6608223915100098,-0.882925808429718,0.06515742838382721
1686426292845860900,3.05986083984375,-0.5274286866188049,-0.236165389418602,-0.3306596875190735
1686426292855806200,3.06980615234375,-0.3613928258419037,-0.004548679105937481,-0.48646578192710876
1686426292865751000,3.0797509765625,-0.19068606197834015,-0.10260893404483795,-0.2940702438354492
1686426292875695900,3.08969580078125,-0.053398508578538895,-0.3662400543689728,0.17780674993991852
1686426292885641200,3.09964111328125,-0.0068054418079555035,-0.41318279504776,0.7367885708808899
1686426292895585000,3.1095849609375,0.08833998441696167,-0.15602874755859375,1.361735463142395
1686426292905529900,3.11952978515625,0.36356303095817566,0.4755050241947174,1.9178602695465088
1686426292915475200,3.12947509765625,0.7237678170204163,1.2200173139572144,2.271885871887207
1686426292925420000,3.139419921875,0.9727379679679871,1.8901314735412598,2.3512580394744873
1686426292935364900,3.14936474609375,0.9806084036827087,2.3544766902923584,2.0627777576446533
1686426292945310200,3.159310302734375,0.9396559000015259,2.555302619934082,1.4883877038955688
1686426292955255000,3.169255126953125,0.9555302262306213,2.4221479892730713,0.8018130660057068
1686426292965200000,3.179199951171875,0.9291303157806396,1.9418576955795288,0.2259361892938614
1686426292975145200,3.189145263671875,0.8464004993438721,1.2523187398910522,-0.11341870576143265
1686426292985090000,3.199090087890625,0.7259010076522827,0.4438469409942627,-0.24136042594909668
1686426292995033900,3.209033935546875,0.6057032346725464,-0.40841493010520935,-0.23348891735076904
1686426293004979200,3.218979248046875,0.5542786717414856,-1.1808253526687622,-0.15121908485889435
1686426293014924000,3.228924072265625,0.5549324750900269,-1.7782748937606812,-0.057986870408058167
1686426293024868900,3.238868896484375,0.6013995409011841,-2.1388344764709473,0.009395898319780827
1686426293034814200,3.248814208984375,0.6206288933753967,-2.21808123588562,0.03117815963923931
1686426293044759000,3.258759033203125,0.5418808460235596,-2.0498461723327637,0.053098104894161224
1686426293054703400,3.268703369140625,0.4231429994106293,-1.7049243450164795,0.12082815170288086
1686426293064648400,3.2786484375,0.29344654083251953,-1.2831733226776123,0.22149164974689484
1686426293074592500,3.288592529296875,0.16207093000411987,-0.9185476899147034,0.360627681016922
1686426293084537600,3.29853759765625,0.03845205157995224,-0.6963074207305908,0.5260829925537109
1686426293094482400,3.308482421875,-0.05830325186252594,-0.645932137966156,0.6957114338874817
1686426293104427500,3.318427490234375,-0.11464881896972656,-0.7337072491645813,0.8508993983268738
1686426293114372600,3.32837255859375,-0.12920938432216644,-0.8859865665435791,0.9465612173080444
1686426293124317400,3.3383173828125,-0.1346113383769989,-1.0286118984222412,0.9289073944091797
1686426293134262500,3.348262451171875,-0.1335252970457077,-1.1052390336990356,0.8008564710617065
1686426293144207400,3.358207275390625,-0.11400779336690903,-1.1983662843704224,0.5986546277999878
1686426293154152400,3.36815234375,-0.10482042282819748,-1.3967219591140747,0.3910098373889923
1686426293164097500,3.37809765625,-0.12400050461292267,-1.6504706144332886,0.24084030091762543
1686426293174041600,3.38804150390625,-0.1597321331501007,-1.7750381231307983,0.17819343507289886
1686426293183986400,3.397986328125,-0.14971812069416046,-1.6313835382461548,0.21422281861305237
1686426293193931500,3.407931640625,-0.0763365849852562,-1.2352651357650757,0.30565178394317627
1686426293203876600,3.417876708984375,0.07850892096757889,-0.7106211185455322,0.4033365547657013
1686426293213821400,3.427821533203125,0.2685547471046448,-0.2775146961212158,0.44040828943252563
1686426293223766500,3.4377666015625,0.43048346042633057,-0.12865625321865082,0.4332049489021301
1686426293233711400,3.44771142578125,0.4912445545196533,-0.1317441761493683,0.3668017089366913
1686426293243656400,3.457656494140625,0.4624025225639343,-0.1216350868344307,0.24787132441997528
1686426293253601500,3.4676015625,0.4339272081851959,-0.06102313846349716,0.09548924118280411
1686426293263545600,3.477545654296875,0.3721541166305542,0.06394782662391663,-0.021332452073693275
1686426293273490400,3.487490478515625,0.2803722620010376,0.2380748838186264,-0.042688872665166855
1686426293283435500,3.497435546875,0.2019807994365692,0.37658241391181946,0.012063320726156235
1686426293293380600,3.507380615234375,0.16470293700695038,0.3929648697376251,0.09170195460319519
1686426293303325400,3.517325439453125,0.19185198843479156,0.39977961778640747,0.11062025278806686
1686426293313270500,3.5272705078125,0.28741660714149475,0.3935350477695465,0.04134344682097435
1686426293323215400,3.53721533203125,0.37399062514305115,0.35710620880126953,-0.10594187676906586
1686426293333160400,3.547160400390625,0.41404643654823303,0.2114507257938385,-0.29012635350227356
1686426293343105500,3.55710546875,0.4440576136112213,-0.08181337267160416,-0.45604875683784485
1686426293353049600,3.567049560546875,0.5015951991081238,-0.4093742072582245,-0.5998805165290833
1686426293362994400,3.576994384765625,0.5778961181640625,-0.6465817093849182,-0.7621620893478394
1686426293372939500,3.586939453125,0.700331449508667,-0.6884862780570984,-0.9161351323127747
1686426293382884600,3.596884521484375,0.7870733141899109,-0.5162710547447205,-0.9671463966369629
1686426293392829400,3.606829345703125,0.8105700612068176,-0.2906835079193115,-0.8842278122901917
1686426293402774500,3.6167744140625,0.7905588150024414,-0.17701499164104462,-0.7123814821243286
1686426293412719600,3.6267197265625,0.6914551258087158,-0.21649475395679474,-0.5099666118621826
1686426293422664400,3.63666455078125,0.47551754117012024,-0.4949096143245697,-0.3594314157962799
1686426293432609500,3.646609619140625,0.1376958191394806,-0.8976980447769165,-0.27158409357070923
1686426293442554400,3.656554443359375,-0.24628940224647522,-1.3610888719558716,-0.21307098865509033
1686426293452498400,3.66649853515625,-0.6340720057487488,-1.8587408065795898,-0.1390625536441803
1686426293462443500,3.676443603515625,-0.970125138759613,-2.3002326488494873,-0.04954571649432182
1686426293472388600,3.686388671875,-1.0440922975540161,-2.5646791458129883,0.008561530150473118
1686426293482333400,3.69633349609375,-0.8316096067428589,-2.558401584625244,0.04361804947257042
1686426293492278500,3.706278564453125,-0.6274471282958984,-2.207080841064453,0.034261301159858704
1686426293502223600,3.7162236328125,-0.47788429260253906,-1.5071585178375244,-0.013938185758888721
1686426293512168400,3.72616845703125,-0.32735735177993774,-0.6262180805206299,-0.12654782831668854
1686426293522113500,3.736113525390625,-0.10390269756317139,0.27081578969955444,-0.31212034821510315
1686426293532058400,3.746058349609375,0.2035864144563675,1.144817590713501,-0.564573347568512
1686426293542002400,3.75600244140625,0.5514211058616638,1.9338544607162476,-0.8157147765159607
1686426293551947500,3.765947509765625,0.8363564014434814,2.4870548248291016,-0.9374196529388428
1686426293561892600,3.775892578125,1.0451469421386719,2.7687740325927734,-0.8354789018630981
1686426293571837400,3.78583740234375,1.2101657390594482,2.777355194091797,-0.557395875453949
1686426293581782500,3.795782470703125,1.3166327476501465,2.5537543296813965,-0.18970681726932526
1686426293591727600,3.8057275390625,1.3296371698379517,2.1452090740203857,0.13513198494911194
1686426293601672400,3.81567236328125,1.1884732246398926,1.6604468822479248,0.3006937801837921
1686426293611617500,3.825617431640625,0.8693207502365112,1.2038211822509766,0.25988829135894775
1686426293621562400,3.835562255859375,0.43328672647476196,0.7472478151321411,0.053579870611429214
1686426293631507500,3.845507568359375,-0.04525056853890419,0.29771772027015686,-0.20905521512031555
1686426293641451500,3.855451416015625,-0.4485548734664917,-0.08663342893123627,-0.46003657579421997
1686426293651396600,3.865396728515625,-0.7232328057289124,-0.2700634300708771,-0.6706987619400024
1686426293661341400,3.875341552734375,-0.874186098575592,-0.24362251162528992,-0.828461229801178
1686426293671286500,3.88528662109375,-0.9310376644134521,-0.04103079065680504,-0.9396846890449524
1686426293681231600,3.895231689453125,-0.9779478907585144,0.29647454619407654,-0.9861696362495422
1686426293691176400,3.905176513671875,-0.993371307849884,0.7484321594238281,-0.9806454181671143
1686426293701121500,3.91512158203125,-0.9740210771560669,1.2089682817459106,-0.9349951148033142
1686426293711066400,3.92506640625,-0.9568879008293152,1.6481297016143799,-0.8950588703155518
1686426293721011500,3.935011474609375,-0.96079021692276,2.099905014038086,-0.9256950616836548
1686426293730956500,3.94495654296875,-0.9681927561759949,2.4962100982666016,-0.9331705570220947
1686426293740901400,3.9549013671875,-0.930757999420166,2.6662373542785645,-0.7957554459571838
1686426293750845400,3.964845458984375,-0.7890275120735168,2.4452357292175293,-0.5621432065963745
1686426293760790500,3.97479052734375,-0.49841219186782837,1.9463504552841187,-0.34474700689315796
1686426293770735600,3.984735595703125,-0.1813436895608902,1.6326102018356323,-0.23227770626544952
1686426293780680400,3.994680419921875,-0.041244376450777054,1.4132426977157593,-0.14298085868358612
1686426293790625500,4.00462548828125,-0.08442353457212448,0.8752263188362122,0.11971814185380936
1686426293800570400,4.0145703125,-0.2574469745159149,0.08690613508224487,0.5594824552536011
1686426293810515500,4.024515380859375,-0.4819839596748352,-0.4917084872722626,0.8321536779403687
1686426293820460500,4.03446044921875,-0.681196391582489,-0.5656341314315796,0.7365241050720215
1686426293830405400,4.0444052734375,-0.7870104312896729,-0.2504793405532837,0.3549644947052002
1686426293840349400,4.054349365234375,-0.7491637468338013,0.08717804402112961,-0.12784931063652039
1686426293850294500,4.06429443359375,-0.5282174944877625,0.2897804081439972,-0.5381268262863159
1686426293860239600,4.074239501953125,-0.26570090651512146,0.40206488966941833,-0.7575084567070007
1686426293870184400,4.084184326171875,-0.12423886358737946,0.33643049001693726,-0.7727010250091553
1686426293880129500,4.094129638671875,-0.11221762001514435,0.005630188621580601,-0.6470648050308228
1686426293890074400,4.104074462890625,-0.16270050406455994,-0.5979507565498352,-0.4224148988723755
1686426293900019500,4.11401953125,-0.1380087286233902,-1.4296191930770874,-0.061098240315914154
1686426293909964500,4.123964599609375,-0.008469385094940662,-2.2216951847076416,0.33020535111427307
1686426293919909400,4.133909423828125,0.1139846220612526,-2.7240803241729736,0.532514214515686
1686426293929854500,4.1438544921875,0.009239038452506065,-3.081817388534546,0.5861700177192688
1686426293939799600,4.153799560546875,-0.15709374845027924,-3.1339993476867676,0.5191646218299866
1686426293949743600,4.16374365234375,-0.2614441215991974,-2.7047109603881836,0.33711063861846924
1686426293959688400,4.1736884765625,-0.37328702211380005,-1.891388177871704,0.05655275657773018
1686426293969633500,4.183633544921875,-0.40156981348991394,-1.053425669670105,-0.17551696300506592
1686426293979578400,4.193578369140625,-0.32692432403564453,-0.5091801285743713,-0.2578379213809967
1686426293989523500,4.2035234375,-0.21168801188468933,-0.3442750871181488,-0.13355353474617004
1686426293999468500,4.213468505859375,-0.10183155536651611,-0.4426855444908142,0.1940496265888214
1686426294009413400,4.223413330078125,-0.03779478371143341,-0.5209491848945618,0.6314645409584045
1686426294019358500,4.2333583984375,0.01182177197188139,-0.49747875332832336,1.1898531913757324
1686426294029303600,4.243303466796875,0.18509182333946228,-0.2868221700191498,1.766256332397461
1686426294039248400,4.253248291015625,0.4769412577152252,0.105648934841156,2.229095697402954
1686426294049192200,4.263192138671875,0.8513100743293762,0.6004083156585693,2.50646710395813
1686426294059137300,4.27313720703125,1.1101980209350586,1.1944959163665771,2.4407994747161865
1686426294069082400,4.283082275390625,1.1288132667541504,1.8347904682159424,1.9920802116394043
1686426294079027200,4.293027099609375,1.0327541828155518,2.187206745147705,1.3451969623565674
1686426294088972300,4.30297216796875,0.8680461645126343,2.078995943069458,0.76480633020401
1686426294098917000,4.312917236328125,0.7410434484481812,1.7065805196762085,0.40028563141822815
1686426294108862500,4.322862548828125,0.6431052088737488,1.1791542768478394,0.2099124789237976
1686426294118807300,4.332807373046875,0.5672056078910828,0.49513542652130127,0.09729006886482239
1686426294128752000,4.342752197265625,0.5035083889961243,-0.31494277715682983,0.05864759907126427
1686426294138697500,4.352697509765625,0.5301623940467834,-1.1637920141220093,0.0479145273566246
1686426294148641300,4.362641357421875,0.585929811000824,-1.892981767654419,-0.007211041171103716
1686426294158586400,4.37258642578125,0.560236930847168,-2.4318652153015137,-0.0757453590631485
1686426294168531200,4.38253125,0.4769359230995178,-2.739643096923828,-0.12965865433216095
1686426294178476300,4.392476318359375,0.4136677384376526,-2.7491567134857178,-0.18551047146320343
1686426294188421400,4.40242138671875,0.3435603082180023,-2.448171854019165,-0.22127565741539001
1686426294198366200,4.4123662109375,0.1952989250421524,-1.8925591707229614,-0.2056591510772705
1686426294208311300,4.422311279296875,0.01967703178524971,-1.269831657409668,-0.1186254471540451
1686426294218256100,4.432256103515625,-0.1263430267572403,-0.7778443694114685,0.09038902074098587
1686426294228201500,4.442201416015625,-0.27245041728019714,-0.5846280455589294,0.40075060725212097
1686426294238146300,4.452146240234375,-0.3635545074939728,-0.7297524809837341,0.7265856862068176
1686426294248090400,4.46209033203125,-0.3405945897102356,-1.0852868556976318,0.9592743515968323
1686426294258035200,4.47203515625,-0.24751313030719757,-1.4374030828475952,1.0093330144882202
1686426294267980300,4.481980224609375,-0.1570439487695694,-1.7374780178070068,0.9019948244094849
1686426294277925400,4.49192529296875,-0.027752269059419632,-1.8449528217315674,0.6979823112487793
1686426294287870200,4.5018701171875,0.11053609848022461,-1.6909708976745605,0.48358798027038574
1686426294297815300,4.511815185546875,0.22146287560462952,-1.3172780275344849,0.29899388551712036
1686426294307760000,4.521760009765625,0.2781924605369568,-0.8756319284439087,0.1514611542224884
1686426294317705500,4.53170556640625,0.33188340067863464,-0.5321816205978394,0.02491467073559761
1686426294327650300,4.541650390625,0.42063218355178833,-0.34732839465141296,-0.09091472625732422
1686426294337595100,4.55159521484375,0.5033451914787292,-0.36703580617904663,-0.19954320788383484
1686426294347540500,4.56154052734375,0.494141548871994,-0.3936287760734558,-0.25283706188201904
1686426294357484300,4.571484375,0.46390828490257263,-0.31649672985076904,-0.22338329255580902
1686426294367429400,4.581429443359375,0.43657225370407104,-0.19269728660583496,-0.12931804358959198
1686426294377374200,4.591374267578125,0.4035003185272217,-0.07214929163455963,-0.026147181168198586
1686426294387319300,4.6013193359375,0.3576745092868805,0.07690596580505371,0.03069479577243328
1686426294397264100,4.61126416015625,0.33909815549850464,0.1644243597984314,0.00999271310865879
1686426294407209500,4.62120947265625,0.3498496115207672,0.16891498863697052,-0.10123580694198608
1686426294417154300,4.631154296875,0.3960370719432831,0.10601671040058136,-0.2854847311973572
1686426294427099100,4.64109912109375,0.40041905641555786,-0.051537491381168365,-0.4991016983985901
1686426294437044500,4.65104443359375,0.420356810092926,-0.3258358836174011,-0.6987034678459167
1686426294446989300,4.6609892578125,0.495415598154068,-0.6873887777328491,-0.8637033700942993
1686426294456934100,4.67093408203125,0.5967105031013489,-0.9292876720428467,-1.0257090330123901
1686426294466878200,4.680878173828125,0.7072407603263855,-0.9822491407394409,-1.1685458421707153
1686426294476823300,4.6908232421875,0.7912448644638062,-0.8306516408920288,-1.2322648763656616
1686426294486768000,4.70076806640625,0.8001318573951721,-0.557458221912384,-1.1292575597763062
1686426294496713500,4.71071337890625,0.7656665444374084,-0.32916536927223206,-0.8815768957138062
1686426294506658300,4.720658203125,0.689495325088501,-0.25083062052726746,-0.5950095653533936
1686426294516603100,4.73060302734375,0.5374786257743835,-0.3678206205368042,-0.39907947182655334
1686426294526548500,4.740548583984375,0.3029148578643799,-0.5651115775108337,-0.2885045111179352
1686426294536493300,4.750493408203125,-0.0026636936236172915,-0.8225633502006531,-0.19611704349517822
1686426294546438100,4.760438232421875,-0.38484835624694824,-1.2312020063400269,-0.08227729797363281
1686426294556383500,4.770383544921875,-0.7234131097793579,-1.6771214008331299,0.03105565346777439
1686426294566328300,4.780328369140625,-0.8357660174369812,-1.9768998622894287,0.08872827142477036
1686426294576272100,4.790272216796875,-0.6813532710075378,-1.9716845750808716,0.05144241824746132
1686426294586217200,4.80021728515625,-0.4734136462211609,-1.6513854265213013,0.01230540219694376
1686426294596162300,4.810162353515625,-0.36784327030181885,-1.0912818908691406,-0.058227088302373886
1686426294606107100,4.820107177734375,-0.28959134221076965,-0.39464399218559265,-0.16451624035835266
1686426294616052500,4.830052490234375,-0.13325633108615875,0.3622508943080902,-0.27824386954307556
1686426294625997300,4.839997314453125,0.1012941300868988,1.1806269884109497,-0.39532095193862915
1686426294635942100,4.849942138671875,0.3922277092933655,2.0747196674346924,-0.5204588770866394
1686426294645887500,4.859887451171875,0.7208164930343628,2.9724059104919434,-0.6261935830116272
1686426294655832300,4.869832275390625,0.9977253079414368,3.6734001636505127,-0.6015812158584595
1686426294665777200,4.879777099609375,1.188614845275879,4.119003772735596,-0.4342784881591797
1686426294675722200,4.88972216796875,1.2724578380584717,4.271660327911377,-0.18077270686626434
1686426294685666300,4.899666259765625,1.3098169565200806,4.014886379241943,0.042021751403808594
1686426294695611100,4.909611083984375,1.2926299571990967,3.364814281463623,0.12322792410850525
1686426294705556500,4.919556396484375,1.1029654741287231,2.435852527618408,0.033479396253824234
1686426294715501300,4.929501220703125,0.774456799030304,1.425819993019104,-0.17405062913894653
1686426294725446100,4.939446044921875,0.41207757592201233,0.5160814523696899,-0.3893618583679199
1686426294735391500,4.9493916015625,0.0736830085515976,-0.10819358378648758,-0.5600377321243286
1686426294745336300,4.95933642578125,-0.23455151915550232,-0.4312959909439087,-0.6699514389038086
1686426294755281200,4.96928125,-0.5021424889564514,-0.4306754767894745,-0.6998896598815918
1686426294765226200,4.979226318359375,-0.6690606474876404,-0.11412923783063889,-0.6500800251960754
1686426294775171300,4.98917138671875,-0.7442249059677124,0.3961012661457062,-0.5574989318847656
1686426294785116200,4.9991162109375,-0.7876152396202087,0.9846707582473755,-0.441656231880188
1686426294795061200,5.009061279296875,-0.8150226473808289,1.546283483505249,-0.2329898476600647
1686426294805005300,5.01900537109375,-0.8000338077545166,1.984878659248352,-0.04175011068582535
1686426294814950100,5.0289501953125,-0.7403531670570374,2.289198398590088,0.034077275544404984
1686426294824895500,5.0388955078125,-0.6739121079444885,2.234997034072876,-0.04607188701629639
1686426294834840300,5.04884033203125,-0.620903491973877,1.8382264375686646,-0.19296519458293915
1686426294844785200,5.05878515625,-0.5869934558868408,1.4410409927368164,-0.3888145983219147
1686426294854730200,5.068730224609375,-0.6718755960464478,1.2830660343170166,-0.5942788124084473
1686426294864675300,5.07867529296875,-0.9306517839431763,1.144086480140686,-0.5918699502944946
1686426294874620200,5.0886201171875,-1.357911467552185,0.5247061252593994,-0.0678299143910408
1686426294884565200,5.098565185546875,-1.7416338920593262,-0.46269333362579346,0.8878257274627686
1686426294894510300,5.10851025390625,-1.8584752082824707,-0.8688278198242188,1.4990651607513428
1686426294904455200,5.118455078125,-1.6142990589141846,-0.5405005216598511,1.2211096286773682
1686426294914399500,5.1283994140625,-1.1288522481918335,-0.024212928488850594,0.3723165690898895
1686426294924344300,5.13834423828125,-0.8790809512138367,0.04536215588450432,-0.3709956407546997
1686426294934289200,5.1482890625,-0.5588366389274597,-0.10185472667217255,-0.7196521759033203
1686426294944234500,5.158234375,-0.26554059982299805,0.28297126293182373,-0.8715053200721741
1686426294954179300,5.168179443359375,-0.13277775049209595,0.9573640823364258,-0.9303681254386902
1686426294964124200,5.178124267578125,-0.1434604972600937,1.0857630968093872,-0.8316090703010559
1686426294974069200,5.1880693359375,-0.14929227530956268,0.48090243339538574,-0.6236345767974854
1686426294984014300,5.198014404296875,-0.161743625998497,-0.7017336487770081,-0.27826225757598877
1686426294993959200,5.207959228515625,-0.13859303295612335,-1.9709594249725342,0.17007772624492645
1686426295003904300,5.217904296875,-0.06949625164270401,-2.7119948863983154,0.5329192876815796
1686426295013849300,5.227849365234375,-0.08521103113889694,-2.8763391971588135,0.7044755816459656
1686426295023794200,5.237794189453125,-0.20258906483650208,-2.6549196243286133,0.6816027760505676
1686426295033738500,5.247738525390625,-0.31281062960624695,-2.0769429206848145,0.4588426649570465
1686426295043683300,5.257683349609375,-0.41467520594596863,-1.2814295291900635,0.08258382230997086
1686426295053629000,5.26762890625,-0.48752066493034363,-0.5781453847885132,-0.3081631660461426
1686426295063573800,5.27757373046875,-0.4739744961261749,-0.18542498350143433,-0.5495917797088623
1686426295073519000,5.28751904296875,-0.36644190549850464,-0.07356982678174973,-0.4876631498336792
1686426295083464000,5.2974638671875,-0.20402184128761292,-0.24325738847255707,-0.08977542817592621
1686426295093408800,5.30740869140625,-0.05814293026924133,-0.49532026052474976,0.5249024033546448
1686426295103353900,5.317353759765625,0.08697005361318588,-0.46635040640830994,1.1957085132598877
1686426295113299000,5.327298828125,0.31038743257522583,-0.062070827931165695,1.8114933967590332
1686426295123243800,5.337243896484375,0.6343657374382019,0.5672993659973145,2.256765842437744
1686426295133188900,5.34718896484375,1.0298882722854614,1.282582402229309,2.412735939025879
1686426295143133000,5.3571328125,1.2681008577346802,1.8677749633789062,2.2194154262542725
1686426295153077800,5.367077880859375,1.3025611639022827,2.1365418434143066,1.755927324295044
1686426295163023000,5.377023193359375,1.2442210912704468,2.137171506881714,1.1583664417266846
1686426295172968000,5.386968017578125,1.0909922122955322,1.8605295419692993,0.6399232745170593
1686426295182912800,5.396912841796875,0.8658711910247803,1.3415292501449585,0.2934742271900177
1686426295192857900,5.40685791015625,0.615222692489624,0.7304670214653015,0.0885985717177391
1686426295202803000,5.416802978515625,0.3848422169685364,0.0937909409403801,-0.0037790255155414343
1686426295212747800,5.426747802734375,0.1940821260213852,-0.6325463056564331,0.007601194549351931
1686426295222692900,5.43669287109375,0.11879109591245651,-1.342069149017334,0.06003910303115845
1686426295232638000,5.446637939453125,0.1655721813440323,-1.9579485654830933,0.07858588546514511
1686426295242582800,5.456582763671875,0.23514780402183533,-2.384082317352295,0.030556045472621918
1686426295252527900,5.46652783203125,0.24919544160366058,-2.5393459796905518,-0.09021324664354324
1686426295262472000,5.476471923828125,0.25792554020881653,-2.420630693435669,-0.24306590855121613
1686426295272416800,5.486416748046875,0.27295351028442383,-2.073248863220215,-0.37483859062194824
1686426295282362000,5.496362060546875,0.2488393783569336,-1.5509192943572998,-0.4210495054721832
1686426295292307000,5.506306884765625,0.16106131672859192,-0.9056318998336792,-0.31428682804107666
1686426295302251800,5.516251708984375,0.03255821019411087,-0.33565178513526917,-0.05468588322401047
1686426295312196900,5.52619677734375,-0.11235769838094711,-0.08702971041202545,0.3252348303794861
1686426295322142000,5.536141845703125,-0.23532569408416748,-0.23862774670124054,0.7499938011169434
1686426295332086800,5.546086669921875,-0.2970351278781891,-0.6521918773651123,1.1179503202438354
1686426295342032000,5.556031982421875,-0.30588802695274353,-1.1205638647079468,1.325175404548645
1686426295351977000,5.56597705078125,-0.2881614863872528,-1.4840604066848755,1.334605097770691
1686426295361922000,5.575922119140625,-0.2950097918510437,-1.7119039297103882,1.1712348461151123
1686426295371867000,5.585866943359375,-0.31644532084465027,-1.831390142440796,0.9154773354530334
1686426295381812000,5.59581201171875,-0.28829970955848694,-1.8156508207321167,0.6335201859474182
1686426295391755800,5.605755859375,-0.1824350506067276,-1.5984777212142944,0.3677330017089844
1686426295401700900,5.615700927734375,-0.0212435033172369,-1.2338966131210327,0.10153621435165405
1686426295411646000,5.62564599609375,0.20038609206676483,-0.9266481995582581,-0.1384819746017456
1686426295421590800,5.6355908203125,0.4460408687591553,-0.7778803110122681,-0.3585277795791626
1686426295431535900,5.645535888671875,0.6012152433395386,-0.7347136735916138,-0.45362207293510437
1686426295441481000,5.65548095703125,0.5955864191055298,-0.6237677335739136,-0.38881751894950867
1686426295451425800,5.66542578125,0.5165845155715942,-0.4144744277000427,-0.25990986824035645
1686426295461371000,5.675370849609375,0.4396929442882538,-0.2433929443359375,-0.14076857268810272
1686426295471316000,5.68531591796875,0.34991034865379333,-0.1400575041770935,-0.06536808609962463
1686426295481261000,5.695260986328125,0.25594523549079895,-0.005978796631097794,-0.018564630299806595
1686426295491206000,5.705205810546875,0.19956077635288239,0.11244665086269379,-0.014974688179790974
1686426295501150700,5.715150634765625,0.18384067714214325,0.08280567079782486,-0.056900300085544586
1686426295511094800,5.7250947265625,0.19318783283233643,0.028919532895088196,-0.11931254714727402
1686426295521040000,5.735039794921875,0.22323095798492432,0.007940215058624744,-0.21629022061824799
1686426295530985000,5.74498486328125,0.27723774313926697,0.003947869874536991,-0.3514339327812195
1686426295540929800,5.7549296875,0.4020387828350067,-0.08514605462551117,-0.505388081073761
1686426295550875000,5.764875,0.5408182144165039,-0.29486384987831116,-0.6744785904884338
1686426295560820000,5.774820068359375,0.6850574612617493,-0.49819913506507874,-0.8646754026412964
1686426295570765000,5.78476513671875,0.8330181241035461,-0.5571929216384888,-1.022515892982483
1686426295580710000,5.7947099609375,0.9145295023918152,-0.4343932569026947,-1.0880365371704102
1686426295590655000,5.804655029296875,0.9247502088546753,-0.19588801264762878,-1.0128307342529297
1686426295600600000,5.81460009765625,0.8911243081092834,0.02221342734992504,-0.8131741285324097
1686426295610545000,5.824544921875,0.8154362440109253,0.17611590027809143,-0.5611024498939514
1686426295620489700,5.83448974609375,0.6090385913848877,0.22726058959960938,-0.3215167820453644
1686426295630435000,5.84443505859375,0.2659294307231903,0.1946275383234024,-0.10764709860086441
1686426295640379000,5.85437890625,-0.16603530943393707,0.04621090367436409,0.08070416748523712
1686426295650324000,5.864323974609375,-0.6694840788841248,-0.2540067136287689,0.25381630659103394
1686426295660269000,5.87426904296875,-1.1043684482574463,-0.5839646458625793,0.38537830114364624
1686426295670214000,5.8842138671875,-1.268558382987976,-0.7559667825698853,0.37589266896247864
1686426295680159000,5.894158935546875,-1.0991605520248413,-0.6711693406105042,0.2597940266132355
1686426295690104000,5.90410400390625,-0.7959333658218384,-0.5138108730316162,0.08864092081785202
1686426295700049000,5.914048828125,-0.5776308178901672,-0.27590295672416687,-0.09421278536319733
1686426295709993700,5.92399365234375,-0.4277462661266327,0.13506221771240234,-0.30076462030410767
1686426295719939000,5.93393896484375,-0.2530335783958435,0.6676403880119324,-0.5188964009284973
1686426295729884000,5.9438837890625,-0.01218848954886198,1.3529415130615234,-0.782952070236206
1686426295739828700,5.953828857421875,0.27838343381881714,2.0640065670013428,-0.9955071806907654
1686426295749774000,5.963774169921875,0.5822170972824097,2.640427350997925,-1.0359909534454346
1686426295759719000,5.973718994140625,0.896971583366394,3.0778937339782715,-0.8571487665176392
1686426295769663000,5.9836630859375,1.1459898948669434,3.377056121826172,-0.5001320838928223
1686426295779608000,5.993608154296875,1.268115520477295,3.3890020847320557,-0.11925475299358368
1686426295789553000,6.003552978515625,1.2641810178756714,3.001025676727295,0.13731151819229126
1686426295799497700,6.013497802734375,1.0606111288070679,2.3561978340148926,0.1623079478740692
1686426295809443000,6.023443115234375,0.6405892968177795,1.6226017475128174,0.005140433553606272
1686426295819388000,6.033387939453125,0.12192030996084213,0.8761003613471985,-0.23851163685321808
1686426295829332700,6.043332763671875,-0.3858049511909485,0.2283972203731537,-0.47564083337783813
1686426295839278000,6.053278076171875,-0.7883396148681641,-0.20480480790138245,-0.6498491168022156
1686426295849223000,6.063222900390625,-0.9671556949615479,-0.3696078658103943,-0.7508236765861511
1686426295859167700,6.073167724609375,-1.0490857362747192,-0.31001031398773193,-0.7905106544494629
1686426295869113000,6.083113037109375,-1.1098079681396484,0.04639120027422905,-0.7299186587333679
1686426295879058000,6.093057861328125,-1.1563770771026611,0.6377144455909729,-0.6070518493652344
1686426295889002800,6.103002685546875,-1.1508616209030151,1.305017113685608,-0.48980513215065
1686426295898947000,6.112947021484375,-1.0700498819351196,1.8845957517623901,-0.41442301869392395
1686426295908892000,6.122891845703125,-0.9593744874000549,2.351641893386841,-0.43742793798446655
1686426295918836700,6.132836669921875,-0.7865084409713745,2.657275676727295,-0.4753316342830658
1686426295928782000,6.142781982421875,-0.5587676763534546,2.5951106548309326,-0.5196698307991028
1686426295938727000,6.152726806640625,-0.28912076354026794,1.9860880374908447,-0.5880541801452637
1686426295948671700,6.162671630859375,-0.07080759108066559,1.4636000394821167,-0.6754141449928284
1686426295958617000,6.1726171875,0.03989601880311966,1.5427782535552979,-0.7332489490509033
1686426295968562000,6.18256201171875,0.007758587133139372,1.7696588039398193,-0.557837724685669
1686426295978506800,6.1925068359375,-0.22928965091705322,1.525284767150879,-0.025885924696922302
1686426295988451800,6.202451904296875,-0.49296310544013977,0.5131884813308716,0.829971194267273
1686426295998397000,6.21239697265625,-0.6528518199920654,-0.37187501788139343,1.4184805154800415
1686426296008341800,6.222341796875,-0.7247603535652161,-0.6121222376823425,1.3292372226715088
1686426296018286800,6.232286865234375,-0.6962014436721802,-0.39388445019721985,0.7426464557647705
1686426296028231000,6.24223095703125,-0.6524891257286072,-0.37802425026893616,0.10289016366004944
1686426296038175700,6.25217578125,-0.54864901304245,-0.3847881555557251,-0.3590843975543976
1686426296048121000,6.26212109375,-0.3587341904640198,0.12219168990850449,-0.5966335535049438
1686426296058065700,6.272065673828125,-0.13937200605869293,0.8543745875358582,-0.6836989521980286
1686426296068010500,6.282010498046875,-0.037522342056035995,1.083536148071289,-0.6615848541259766
1686426296077955800,6.291955810546875,-0.005918342620134354,0.6811681389808655,-0.6100265979766846
1686426296087900700,6.301900634765625,-0.002665557898581028,-0.004430168308317661,-0.5231689214706421
1686426296097845500,6.311845458984375,0.008408398367464542,-0.857236385345459,-0.29871666431427
1686426296107790600,6.32179052734375,0.03020264394581318,-1.614937663078308,0.023802535608410835
1686426296117735700,6.331735595703125,0.018704446032643318,-2.202230215072632,0.350690096616745
1686426296127680500,6.341680419921875,-0.17048226296901703,-2.7300806045532227,0.6829453110694885
1686426296137625600,6.35162548828125,-0.455587238073349,-2.873674154281616,0.9152877330780029
1686426296147570700,6.36157080078125,-0.6964949369430542,-2.368842363357544,0.9001196622848511
1686426296157515500,6.371515625,-0.8389111757278442,-1.3891775608062744,0.6243874430656433
1686426296167459800,6.3814599609375,-0.8770852088928223,-0.48469266295433044,0.20968398451805115
1686426296177404700,6.39140478515625,-0.8077178597450256,-0.017460215836763382,-0.1601310819387436
1686426296187349500,6.401349609375,-0.6269957423210144,-0.0025063008069992065,-0.28995245695114136
1686426296197294600,6.411294677734375,-0.4169650077819824,-0.3017662465572357,-0.10469391942024231
1686426296207239700,6.42123974609375,-0.21778185665607452,-0.7146233320236206,0.30011001229286194
1686426296217184500,6.4311845703125,-0.03026469424366951,-0.8557007908821106,0.8120140433311462
1686426296227129600,6.441129638671875,0.21122968196868896,-0.6146082878112793,1.3203047513961792
1686426296237074700,6.45107470703125,0.5234331488609314,-0.22820574045181274,1.7438552379608154
1686426296247019500,6.46101953125,0.8959278464317322,0.10246725380420685,2.045847177505493
1686426296256964600,6.470964599609375,1.1475478410720825,0.3601517975330353,2.133291244506836
1686426296266909700,6.48090966796875,1.1860209703445435,0.5450449585914612,1.9912010431289673
1686426296276854500,6.4908544921875,1.1130164861679077,0.6964871883392334,1.6881115436553955
1686426296286799600,6.500799560546875,0.9943897128105164,0.762423574924469,1.3324077129364014
1686426296296744700,6.51074462890625,0.8636908531188965,0.6779388189315796,0.9773033857345581
1686426296306688500,6.5206884765625,0.7046540379524231,0.31009262800216675,0.6882883906364441
1686426296316633600,6.530633544921875,0.5338796377182007,-0.20204204320907593,0.4940030574798584
1686426296326578700,6.54057861328125,0.4378575086593628,-0.6764511466026306,0.35493093729019165
1686426296336523500,6.5505234375,0.45978304743766785,-1.0364525318145752,0.23457469046115875
1686426296346468600,6.560468505859375,0.5304535031318665,-1.3960835933685303,0.1350984275341034
1686426296356413700,6.57041357421875,0.5888017416000366,-1.7073535919189453,0.03279336541891098
1686426296366358500,6.580358642578125,0.6462399959564209,-1.9176498651504517,-0.07666654884815216
1686426296376303600,6.5903037109375,0.6821881532669067,-1.979712963104248,-0.20016132295131683
1686426296386248700,6.600248779296875,0.678432822227478,-1.9000173807144165,-0.2936404049396515
1686426296396193500,6.610193603515625,0.6150426864624023,-1.6992725133895874,-0.33520010113716125
1686426296406138600,6.620138671875,0.46276843547821045,-1.4076989889144897,-0.33535563945770264
1686426296416083500,6.63008349609375,0.252509206533432,-1.0562325716018677,-0.23707832396030426
1686426296426028800,6.64002880859375,0.03275341913104057,-0.6777592897415161,0.015321431681513786
1686426296435973600,6.6499736328125,-0.14940333366394043,-0.38926225900650024,0.3617962896823883
1686426296445917700,6.659917724609375,-0.26119378209114075,-0.3593618869781494,0.686870276927948
1686426296455862500,6.669862548828125,-0.2930220067501068,-0.6815897226333618,0.9080734848976135
1686426296465807600,6.6798076171875,-0.2769722044467926,-1.234557032585144,0.9677677154541016
1686426296475752700,6.689752685546875,-0.24840235710144043,-1.7526425123214722,0.8554360866546631
1686426296485697500,6.699697509765625,-0.233155757188797,-2.002211570739746,0.6239770650863647
1686426296495642600,6.709642578125,-0.22895222902297974,-1.9197508096694946,0.3882979452610016
1686426296505587500,6.71958740234375,-0.20200902223587036,-1.5895178318023682,0.20682242512702942
1686426296515532800,6.72953271484375,-0.1479947865009308,-1.1581387519836426,0.11001624912023544
1686426296525477600,6.7394775390625,-0.04807618260383606,-0.7554815411567688,0.07842743396759033
1686426296535422500,6.74942236328125,0.11330924928188324,-0.4229677617549896,0.0648660808801651
1686426296545367800,6.759367919921875,0.2923125624656677,-0.22763395309448242,0.04224226251244545
1686426296555312600,6.769312744140625,0.4234585762023926,-0.19742785394191742,-0.002749447477981448
1686426296565257500,6.779257568359375,0.4708857536315918,-0.18510407209396362,0.0035089810844510794
1686426296575202800,6.789202880859375,0.4577353298664093,-0.07903756201267242,0.10590513050556183
1686426296585147600,6.799147705078125,0.39074644446372986,0.13962900638580322,0.2662966549396515
1686426296595091500,6.809091552734375,0.30880099534988403,0.4217565655708313,0.4032779633998871
1686426296605036500,6.81903662109375,0.2569020986557007,0.6352334022521973,0.4797668755054474
1686426296614981600,6.828981689453125,0.2579692304134369,0.6863527894020081,0.4449079632759094
1686426296624926500,6.838926513671875,0.3446284830570221,0.6497564315795898,0.28281837701797485
1686426296634871800,6.848871826171875,0.4630472660064697,0.6044603586196899,0.05010764300823212
1686426296644816600,6.858816650390625,0.5308430790901184,0.5128260254859924,-0.20524530112743378
1686426296654761500,6.868761474609375,0.5098739266395569,0.3020365536212921,-0.43404972553253174
1686426296664706800,6.878706787109375,0.5205745100975037,0.01908128336071968,-0.5950828194618225
1686426296674651600,6.888651611328125,0.5817592740058899,-0.1791636347770691,-0.7323498725891113
1686426296684596500,6.898596435546875,0.6490576267242432,-0.23965387046337128,-0.8729085922241211
1686426296694541600,6.90854150390625,0.6856873035430908,-0.09799686819314957,-0.9485210180282593
1686426296704486700,6.918486572265625,0.6920724511146545,0.15839709341526031,-0.9103379845619202
1686426296714431500,6.928431396484375,0.6802650690078735,0.3782554268836975,-0.8017308115959167
1686426296724376600,6.93837646484375,0.5855135321617126,0.3735232651233673,-0.6625758409500122
1686426296734321700,6.94832177734375,0.3396691381931305,0.13910143077373505,-0.4874098598957062
1686426296744265500,6.958265380859375,-0.006138586439192295,-0.13125842809677124,-0.24782444536685944
1686426296754210800,6.9682109375,-0.43098121881484985,-0.3876723647117615,0.07245609164237976
1686426296764155600,6.97815576171875,-0.8321654200553894,-0.6572732329368591,0.43152210116386414
1686426296774100500,6.9881005859375,-1.0900342464447021,-0.9088771939277649,0.6892772316932678
1686426296784045800,6.9980458984375,-1.0335872173309326,-1.0171443223953247,0.7078919410705566
1686426296793990700,7.00799072265625,-0.7834564447402954,-0.9986587762832642,0.5171379446983337
1686426296803935500,7.017935546875,-0.504341185092926,-0.8840965032577515,0.30328717827796936
1686426296813880600,7.027880615234375,-0.29786524176597595,-0.5634284615516663,0.1091826781630516
1686426296823825700,7.03782568359375,-0.1883629858493805,-0.005495432764291763,-0.08344056457281113
1686426296833770500,7.0477705078125,-0.10062354803085327,0.6450900435447693,-0.24690991640090942
1686426296843715600,7.057715576171875,0.024960476905107498,1.2959730625152588,-0.36085033416748047
1686426296853660700,7.06766064453125,0.19349676370620728,1.9132524728775024,-0.4342747628688812
1686426296863605500,7.07760546875,0.39103513956069946,2.618361711502075,-0.5187909603118896
1686426296873550600,7.087550537109375,0.552018404006958,3.322021007537842,-0.5735407471656799
1686426296883495700,7.09749560546875,0.6549932956695557,3.793109655380249,-0.4721422493457794
1686426296893439500,7.107439453125,0.7683046460151672,3.944298028945923,-0.2501954734325409
1686426296903384600,7.117384521484375,0.841535747051239,3.695448637008667,-0.024171115830540657
1686426296913329700,7.12732958984375,0.8284233808517456,3.028898000717163,0.09999503940343857
1686426296923274500,7.1372744140625,0.6812946796417236,2.0705463886260986,0.060141898691654205
1686426296933219600,7.147219482421875,0.40533924102783203,1.028939127922058,-0.13288241624832153
1686426296943164700,7.15716455078125,0.09071499109268188,0.10302518308162689,-0.3844270408153534
1686426296953109500,7.167109619140625,-0.1696699857711792,-0.5898374319076538,-0.5758702158927917
1686426296963054600,7.1770546875,-0.3935616910457611,-0.9742003083229065,-0.670057475566864
1686426296972999700,7.186999755859375,-0.5273621082305908,-0.9526835680007935,-0.7071835398674011
1686426296982944800,7.19694482421875,-0.6310855746269226,-0.5984088182449341,-0.73282790184021
1686426296992889600,7.2068896484375,-0.7542399764060974,0.06736385822296143,-0.8095239996910095
1686426297002834400,7.21683447265625,-0.9057831764221191,0.9535719752311707,-0.9539384245872498
1686426297012779800,7.22677978515625,-1.0782455205917358,1.8411058187484741,-1.1035958528518677
1686426297022724600,7.236724609375,-1.2053676843643188,2.4027976989746094,-1.096773386001587
1686426297032669400,7.24666943359375,-1.2770392894744873,2.648393392562866,-0.9591915011405945
1686426297042614800,7.25661474609375,-1.3008681535720825,2.7257320880889893,-0.8335036635398865
1686426297052559000,7.26655908203125,-1.1822296380996704,2.758901596069336,-0.7715398669242859
1686426297062504200,7.276504150390625,-0.8656194806098938,2.675722360610962,-0.7017921805381775
1686426297072449300,7.28644921875,-0.5392352342605591,2.1845345497131348,-0.48558056354522705
1686426297082394000,7.29639404296875,-0.4176899194717407,1.05860435962677,-0.019182216376066208
1686426297092339200,7.306339111328125,-0.3386283814907074,-0.35483771562576294,0.5928963422775269
1686426297102284300,7.3162841796875,-0.48865702748298645,-0.935769259929657,0.8825169801712036
1686426297112229400,7.3262294921875,-0.6485034227371216,-0.7406032681465149,0.7170805931091309
1686426297122174200,7.33617431640625,-0.6596221327781677,-0.32006776332855225,0.2387760877609253
1686426297132119300,7.346119384765625,-0.5334559082984924,-0.12170220166444778,-0.25197073817253113
1686426297142064400,7.356064453125,-0.3303385078907013,-0.08822253346443176,-0.6415674686431885
1686426297152009200,7.36600927734375,-0.11237261444330215,0.2948779761791229,-0.8455008864402771
1686426297161954000,7.3759541015625,0.008418784476816654,0.5606973767280579,-0.8720443844795227
1686426297171899400,7.3858994140625,0.030292391777038574,0.26883891224861145,-0.7754563093185425
1686426297181844200,7.39584423828125,-0.010181797668337822,-0.5317818522453308,-0.5293293595314026
1686426297191789000,7.4057890625,-0.17275233566761017,-1.774078607559204,-0.02178625576198101
1686426297201734400,7.415734375,-0.39036428928375244,-3.165862560272217,0.6807851791381836
1686426297211678200,7.42567822265625,-0.5761695504188538,-4.007503509521484,1.2998758554458618
1686426297221623300,7.435623291015625,-0.7858902812004089,-3.9792721271514893,1.6269197463989258
1686426297231568400,7.445568359375,-0.9621540307998657,-3.116328716278076,1.5165692567825317
1686426297241513200,7.45551318359375,-0.97132807970047,-1.74494206905365,0.9749638438224792
1686426297251458000,7.4654580078125,-0.7899516224861145,-0.5614119172096252,0.24027492105960846
1686426297261403400,7.4754033203125,-0.5199523568153381,0.0778479278087616,-0.3929603397846222
1686426297271348200,7.48534814453125,-0.24387338757514954,0.2124326378107071,-0.6523964405059814
1686426297281293000,7.49529296875,0.0054759918712079525,-0.0010516822803765535,-0.4508177638053894
1686426297291238400,7.50523828125,0.2109479159116745,-0.23612597584724426,0.08753863722085953
1686426297301183200,7.515183349609375,0.4497826099395752,-0.2380405217409134,0.7978644371032715
1686426297311128000,7.525128173828125,0.7878003120422363,0.06539098918437958,1.5262980461120605
1686426297321073400,7.535073486328125,1.212371587753296,0.6231852769851685,2.1325604915618896
1686426297331018200,7.545018310546875,1.6856651306152344,1.251288890838623,2.514439344406128
1686426297340963000,7.554963134765625,1.877030849456787,1.8562384843826294,2.492093563079834
1686426297350908200,7.564908203125,1.6995854377746582,2.288722276687622,1.9789621829986572
1686426297360853200,7.574853271484375,1.3971350193023682,2.42573881149292,1.2804765701293945
1686426297370798300,7.58479833984375,1.07614266872406,2.134728193283081,0.6931347846984863
1686426297380742400,7.594742431640625,0.7591913342475891,1.5668718814849854,0.28776946663856506
1686426297390687200,7.604687255859375,0.4292594790458679,0.726170539855957,0.07922185212373734
1686426297400632000,7.614632080078125,0.15275466442108154,-0.33381766080856323,0.039150066673755646
1686426297410577400,7.624577392578125,0.00498117646202445,-1.4278812408447266,0.06041780486702919
1686426297420522200,7.634522216796875,-0.048714276403188705,-2.4020798206329346,0.06034909561276436
1686426297430467000,7.644467041015625,-0.006505569908767939,-3.0987138748168945,-0.016524648293852806
1686426297440412200,7.654412109375,0.10815070569515228,-3.437358856201172,-0.15483778715133667
1686426297450357200,7.664357177734375,0.22023995220661163,-3.3934218883514404,-0.3139600455760956
1686426297460302300,7.67430224609375,0.2724493741989136,-2.9971745014190674,-0.47392842173576355
1686426297470247200,7.6842470703125,0.25042980909347534,-2.307587146759033,-0.5913423895835876
1686426297480192300,7.694192138671875,0.1601172387599945,-1.3916329145431519,-0.6040539145469666
1686426297490137300,7.704137451171875,0.030426349490880966,-0.5938151478767395,-0.39468899369239807
1686426297500082200,7.714082275390625,-0.12374244630336761,-0.23136770725250244,0.015122493728995323
1686426297510027300,7.72402734375,-0.24737490713596344,-0.2660026550292969,0.5394477844238281
1686426297519972400,7.733972412109375,-0.29548731446266174,-0.5343494415283203,1.055930256843567
1686426297529917200,7.743917236328125,-0.26198261976242065,-0.8809347748756409,1.4100327491760254
1686426297539862300,7.7538623046875,-0.20898517966270447,-1.1809532642364502,1.4760348796844482
1686426297549806300,7.763806396484375,-0.1591489017009735,-1.3781658411026,1.2524420022964478
1686426297559751200,7.773751220703125,-0.1261930912733078,-1.4688504934310913,0.7853390574455261
1686426297569696300,7.7836962890625,-0.11492365598678589,-1.4196124076843262,0.20849116146564484
1686426297579641300,7.793641357421875,-0.04098178818821907,-1.2245944738388062,-0.2809445858001709
1686426297589586200,7.803586181640625,0.11675937473773956,-1.0470689535140991,-0.5390715003013611
1686426297599531300,7.81353125,0.29281216859817505,-0.9538372159004211,-0.6411994099617004
1686426297609476400,7.823476318359375,0.4405752718448639,-0.8105514645576477,-0.6152506470680237
1686426297619421200,7.833421142578125,0.4886319935321808,-0.4991315007209778,-0.49751603603363037
1686426297629366300,7.8433662109375,0.46534717082977295,-0.16714611649513245,-0.3359966576099396
1686426297639311400,7.853311279296875,0.40627187490463257,-0.011140535585582256,-0.22029055655002594
1686426297649256200,7.863256103515625,0.3168719708919525,0.051908738911151886,-0.16136997938156128
1686426297659201000,7.873200927734375,0.23897236585617065,0.2473067343235016,-0.09785332530736923
1686426297669146400,7.883146484375,0.20681069791316986,0.40776485204696655,-0.06784189492464066
1686426297679091200,7.89309130859375,0.21320389211177826,0.422679603099823,-0.13202807307243347
1686426297689036000,7.9030361328125,0.2820766866207123,0.3488573133945465,-0.3017747700214386
1686426297698981400,7.9129814453125,0.4428999423980713,0.16565580666065216,-0.5169283747673035
1686426297708926200,7.92292626953125,0.615294337272644,-0.10836082696914673,-0.730286717414856
1686426297718870300,7.932870361328125,0.7827823758125305,-0.35636478662490845,-0.9204281568527222
1686426297728815400,7.9428154296875,0.8903336524963379,-0.4996713399887085,-1.1141738891601562
1686426297738760200,7.95276025390625,0.9462565183639526,-0.49075400829315186,-1.2696402072906494
1686426297748705000,7.962705078125,0.9668827056884766,-0.26075461506843567,-1.3047587871551514
1686426297758650400,7.972650390625,0.9968811273574829,0.17702670395374298,-1.1853489875793457
1686426297768595200,7.98259521484375,0.941595196723938,0.6722217798233032,-0.9432397484779358
1686426297778540000,7.9925400390625,0.7476031184196472,1.0380713939666748,-0.6349104046821594
1686426297788485400,8.0024853515625,0.45670363306999207,1.1929965019226074,-0.31058451533317566
1686426297798430200,8.01243017578125,0.09300770610570908,1.0926151275634766,-0.00698014535009861
1686426297808375300,8.022375244140624,-0.3482871353626251,0.7474417090415955,0.25986939668655396
1686426297818320400,8.0323203125,-0.7199536561965942,0.29119589924812317,0.42354968190193176
1686426297828265200,8.04226513671875,-0.8914535045623779,-0.05402834713459015,0.4170435667037964
1686426297838210300,8.052210205078126,-0.8318790793418884,-0.14757373929023743,0.2610859274864197
1686426297848155100,8.062155029296875,-0.6694853901863098,-0.06641045212745667,0.046734217554330826
1686426297858100200,8.072100341796874,-0.4854916036128998,0.10483986139297485,-0.14584508538246155
1686426297868045300,8.08204541015625,-0.31933164596557617,0.40297913551330566,-0.3341982066631317
1686426297877990100,8.091990234375,-0.1579534113407135,0.8367337584495544,-0.5377888679504395
1686426297887935200,8.101935302734375,0.042749594897031784,1.4695583581924438,-0.7759668231010437
1686426297897880300,8.11188037109375,0.2869611978530884,2.2314677238464355,-0.9686475992202759
1686426297907824400,8.121824462890626,0.5780692100524902,3.0031633377075195,-0.9759387969970703
1686426297917769200,8.131769287109375,0.8980866074562073,3.706390142440796,-0.7442706823348999
1686426297927714300,8.14171435546875,1.1904308795928955,4.2567219734191895,-0.3810597360134125
1686426297937659100,8.1516591796875,1.3907514810562134,4.415006637573242,-0.0613645575940609
1686426297947604200,8.161604248046874,1.4153598546981812,4.118462085723877,0.08426640927791595
1686426297957549300,8.17154931640625,1.2120310068130493,3.4208250045776367,0.01942509599030018
1686426297967494100,8.181494140625,0.8710680603981018,2.5578386783599854,-0.16952325403690338
1686426297977439200,8.191439208984375,0.4526873230934143,1.6555029153823853,-0.38590243458747864
1686426297987384300,8.20138427734375,0.02215403877198696,0.8169225454330444,-0.5552472472190857
1686426297997329200,8.2113291015625,-0.3561330735683441,0.2640167474746704,-0.610444188117981
1686426298007274200,8.221274169921875,-0.5779131650924683,0.12184867262840271,-0.5444902181625366
1686426298017219300,8.23121923828125,-0.6661964058876038,0.30064478516578674,-0.4211839735507965
1686426298027164200,8.2411640625,-0.7349892854690552,0.7665770649909973,-0.31040021777153015
1686426298037109200,8.251109130859374,-0.8086113333702087,1.4607877731323242,-0.2461668998003006
1686426298047054300,8.261054443359376,-0.8812423944473267,2.271745443344116,-0.24631257355213165
1686426298056998400,8.270998291015625,-0.9092020988464355,3.0889627933502197,-0.27962419390678406
1686426298066943500,8.280943603515626,-0.8741005659103394,3.590287685394287,-0.20873190462589264
1686426298076888300,8.290888427734375,-0.7807104587554932,3.531053066253662,0.005313538946211338
1686426298086833400,8.30083349609375,-0.7225358486175537,2.7616710662841797,0.16594262421131134
1686426298096778500,8.310778564453125,-0.7681238055229187,1.992803692817688,-0.0006596649764105678
1686426298106722300,8.320722412109374,-0.9419893622398376,1.5982871055603027,-0.2843795418739319
1686426298116667400,8.33066748046875,-1.2105385065078735,1.0444281101226807,-0.2894001305103302
1686426298126612500,8.340612548828124,-1.4547775983810425,0.18947619199752808,0.14866749942302704
1686426298136557300,8.350557373046875,-1.31569242477417,-0.4053994417190552,0.6509857773780823
1686426298146502400,8.36050244140625,-0.9620871543884277,-0.4452224671840668,0.746210515499115
1686426298156447500,8.370447509765626,-0.5677284002304077,-0.27115774154663086,0.48534566164016724
1686426298166392300,8.380392333984375,-0.31169477105140686,-0.18635256588459015,0.17305992543697357
1686426298176337400,8.39033740234375,-0.2061193436384201,-0.24396765232086182,-0.03203330188989639
1686426298186282500,8.400282470703125,-0.1706463098526001,0.09893830120563507,-0.2846541106700897
1686426298196227300,8.410227294921874,-0.11500781029462814,0.6878710389137268,-0.5799067616462708
1686426298206172400,8.42017236328125,-0.017226124182343483,1.0637991428375244,-0.8500663638114929
1686426298216117500,8.430117431640625,0.03851649910211563,0.8824594616889954,-1.0299519300460815
1686426298226062300,8.440062255859376,0.007562578655779362,0.16180434823036194,-0.9971327781677246
1686426298236007400,8.45000732421875,-0.13064242899417877,-1.0567939281463623,-0.6113153100013733
1686426298245952300,8.4599521484375,-0.2763293385505676,-2.330979347229004,0.022183865308761597
1686426298255897600,8.469897705078125,-0.35638129711151123,-3.266859769821167,0.5716738700866699
1686426298265842400,8.479842529296874,-0.5543583035469055,-3.725874423980713,0.8878235816955566
1686426298275787300,8.489787353515625,-0.7983419299125671,-3.435065984725952,0.9220300316810608
1686426298285731300,8.4997314453125,-0.9450743794441223,-2.23128342628479,0.5208474397659302
1686426298295676400,8.509676513671875,-0.937857449054718,-0.6899834871292114,-0.1542697250843048
1686426298305621500,8.51962158203125,-0.8336538076400757,0.3274518847465515,-0.7151474356651306
1686426298315566300,8.52956640625,-0.6654533743858337,0.6966933012008667,-0.8748449683189392
1686426298325511400,8.539511474609375,-0.42726850509643555,0.5314950346946716,-0.5658266544342041
1686426298335456300,8.549456298828124,-0.1687575876712799,0.09112058579921722,0.04994199424982071
1686426298345401600,8.559401611328125,0.07902850210666656,-0.12699763476848602,0.7580277919769287
1686426298355346400,8.569346435546874,0.3514848053455353,0.020349746569991112,1.4444119930267334
1686426298365291300,8.579291259765625,0.7172569036483765,0.38463157415390015,2.0623514652252197
1686426298375236600,8.589236572265625,1.1816141605377197,0.7667317986488342,2.559694290161133
1686426298385181400,8.599181396484376,1.6260137557983398,1.1481486558914185,2.7788279056549072
1686426298395126300,8.609126220703125,1.8187371492385864,1.7317801713943481,2.505432605743408
1686426298405071600,8.619071533203124,1.7617318630218506,2.163505792617798,1.842839241027832
1686426298415016400,8.629016357421875,1.4678959846496582,2.040311813354492,1.1249951124191284
1686426298424961300,8.638961181640624,1.1181095838546753,1.643104076385498,0.5823142528533936
1686426298434906400,8.64890625,0.8058043718338013,0.9677181839942932,0.2508934736251831
1686426298444851500,8.6588515625,0.5225455164909363,-0.03388659283518791,0.15836673974990845
1686426298454796300,8.66879638671875,0.2939320206642151,-1.200857400894165,0.21867002546787262
1686426298464741400,8.678741455078125,0.2571156919002533,-2.2330901622772217,0.25285330414772034
1686426298474686500,8.6886865234375,0.354836642742157,-2.967179536819458,0.1947343349456787
1686426298484631300,8.69863134765625,0.45750975608825684,-3.322436809539795,0.02924523688852787
1686426298494575600,8.70857568359375,0.5149272680282593,-3.3146817684173584,-0.22337476909160614
1686426298504520400,8.7185205078125,0.47110068798065186,-2.9749770164489746,-0.44448158144950867
1686426298514465300,8.72846533203125,0.37492167949676514,-2.4013452529907227,-0.5644082427024841
1686426298524410400,8.738410400390626,0.2346591055393219,-1.7235970497131348,-0.5164644122123718
1686426298534355500,8.74835546875,0.08056514710187912,-1.151997447013855,-0.27672961354255676
1686426298544300300,8.75830029296875,-0.08417799323797226,-0.8963528871536255,0.14414039254188538
1686426298554245400,8.768245361328125,-0.2063015103340149,-0.9118375778198242,0.6707967519760132
1686426298564190500,8.7781904296875,-0.2781762182712555,-1.0878562927246094,1.162166714668274
1686426298574135300,8.78813525390625,-0.2896885275840759,-1.3093804121017456,1.4639633893966675
1686426298584080400,8.798080322265625,-0.2595178484916687,-1.5212726593017578,1.4673508405685425
1686426298594025500,8.808025390625,-0.22783023118972778,-1.7125118970870972,1.2132840156555176
1686426298603970300,8.81797021484375,-0.20347189903259277,-1.9228019714355469,0.7993941307067871
1686426298613915400,8.827915283203126,-0.17625544965267181,-2.072463274002075,0.39027878642082214
1686426298623860500,8.837860595703125,-0.13769182562828064,-1.9178162813186646,0.13294340670108795
1686426298633805600,8.8478056640625,-0.08680440485477448,-1.5090935230255127,0.05627578869462013
1686426298643750400,8.85775048828125,0.022821692749857903,-1.0577564239501953,0.04157034680247307
1686426298653695200,8.8676953125,0.17781446874141693,-0.7623293399810791,-0.015860721468925476
1686426298663640600,8.877640625,0.32108375430107117,-0.703238844871521,-0.14915673434734344
1686426298673585400,8.88758544921875,0.4208281934261322,-0.6216939091682434,-0.25351482629776
1686426298683530200,8.8975302734375,0.42782244086265564,-0.3354283273220062,-0.21505345404148102
1686426298693475600,8.9074755859375,0.38804733753204346,-0.02701111137866974,-0.06223354861140251
1686426298703420400,8.91742041015625,0.33953893184661865,0.11182480305433273,0.08590185642242432
1686426298713364500,8.927364501953125,0.29066139459609985,0.15794888138771057,0.17082394659519196
1686426298723309600,8.9373095703125,0.2197672426700592,0.22352896630764008,0.2091553509235382
1686426298733254400,8.94725439453125,0.19887235760688782,0.23435337841510773,0.22042344510555267
1686426298743199200,8.95719921875,0.24072526395320892,0.22642993927001953,0.17170864343643188
1686426298753144600,8.96714453125,0.30378013849258423,0.22112572193145752,0.03567064553499222
1686426298763089400,8.97708935546875,0.3742702603340149,0.11636043339967728,-0.200504332780838
1686426298773034200,8.9870341796875,0.46686598658561707,-0.10745135694742203,-0.4404466152191162
1686426298782979600,8.9969794921875,0.596167802810669,-0.436795175075531,-0.6257813572883606
1686426298792924400,9.00692431640625,0.7329517006874084,-0.7537726163864136,-0.8089199662208557
1686426298802869200,9.016869140625,0.8333824872970581,-0.8872230648994446,-0.9990156292915344
1686426298812814600,9.026814697265625,0.8944638967514038,-0.8035340309143066,-1.128463864326477
1686426298822759400,9.036759521484376,0.9274692535400391,-0.5834168195724487,-1.134721040725708
1686426298832704300,9.046704345703125,0.907964825630188,-0.33480915427207947,-1.0734914541244507
1686426298842649300,9.0566494140625,0.7312201261520386,-0.11323174834251404,-0.9585340023040771
1686426298852594400,9.066594482421875,0.3569711744785309,0.07171866297721863,-0.7528221011161804
1686426298862539300,9.076539306640624,-0.12847861647605896,0.18619570136070251,-0.44571807980537415
1686426298872484400,9.086484375,-0.6712542772293091,0.09061458706855774,-0.0679585412144661
1686426298882429400,9.096429443359375,-1.2249890565872192,-0.35658740997314453,0.3125224709510803
1686426298892374500,9.10637451171875,-1.5070101022720337,-0.8871884346008301,0.5784628391265869
1686426298902319400,9.1163193359375,-1.3636261224746704,-1.2391853332519531,0.6217564940452576
1686426298912264400,9.126264404296874,-0.9498198628425598,-1.35738205909729,0.5543188452720642
1686426298922209500,9.13620947265625,-0.6140357255935669,-1.1566388607025146,0.4116160571575165
1686426298932154400,9.146154296875,-0.3967539966106415,-0.6828962564468384,0.20795239508152008
1686426298942098400,9.156098388671875,-0.2284688651561737,-0.06734335422515869,-0.034862641245126724
1686426298952043300,9.166043212890624,-0.014948323369026184,0.6082928776741028,-0.30526137351989746
1686426298961988400,9.17598828125,0.2774222791194916,1.4403685331344604,-0.6402226090431213
1686426298971933400,9.185933349609375,0.6370880603790283,2.299722671508789,-0.9080796241760254
1686426298981878500,9.19587841796875,1.0083245038986206,2.996253490447998,-0.9569603204727173
1686426298991823400,9.2058232421875,1.377945065498352,3.4742679595947266,-0.7560429573059082
1686426299001768400,9.2157685546875,1.683061122894287,3.7648420333862305,-0.40375760197639465
1686426299011713500,9.225713623046875,1.8902584314346313,3.63131046295166,-0.039689622819423676
1686426299021658400,9.235658447265624,1.86451256275177,3.0904431343078613,0.13689127564430237
1686426299031603500,9.245603515625,1.627505898475647,2.3355815410614014,0.04917846620082855
1686426299041548500,9.255548583984375,1.3112664222717285,1.517799735069275,-0.18645057082176208
1686426299051493400,9.265493408203126,0.9302522540092468,0.743447482585907,-0.47621768712997437
1686426299061438700,9.275438720703125,0.5854440331459045,0.10480444133281708,-0.716162919998169
1686426299071384000,9.285384033203124,0.32439565658569336,-0.26878511905670166,-0.8622479438781738
1686426299081329000,9.295328857421875,0.08928913623094559,-0.2813107669353485,-0.886676013469696
1686426299091273700,9.305273681640625,-0.15361912548542023,0.05186159908771515,-0.8182852864265442
1686426299101218800,9.31521875,-0.3666831851005554,0.6526012420654297,-0.7136086821556091
1686426299111164000,9.325163818359375,-0.46472054719924927,1.278709053993225,-0.5134859681129456
1686426299121108700,9.335108642578126,-0.4853496551513672,1.8443140983581543,-0.22371645271778107
1686426299131053800,9.3450537109375,-0.42605090141296387,2.231055974960327,0.1583598107099533
1686426299140999000,9.3549990234375,-0.3316493034362793,2.4977457523345947,0.3528725802898407
1686426299150943700,9.36494384765625,-0.2562914490699768,2.5423598289489746,0.204372838139534
1686426299160888800,9.374888916015625,-0.19202856719493866,2.4436652660369873,-0.11601102352142334
1686426299170834000,9.384833984375,-0.23962616920471191,2.458441734313965,-0.4889198839664459
1686426299180777700,9.39477783203125,-0.4937375485897064,2.281102180480957,-0.6300650238990784
1686426299190722800,9.404722900390626,-0.9160837531089783,1.3648847341537476,-0.26433658599853516
1686426299200668000,9.41466796875,-1.2325385808944702,-0.0710853636264801,0.5005802512168884
1686426299210612700,9.42461279296875,-1.3848896026611328,-0.835259735584259,0.9536470770835876
1686426299220557800,9.434557861328125,-1.4396039247512817,-0.7278898358345032,0.8300822973251343
1686426299230503000,9.4445029296875,-1.5563417673110962,-0.3216126561164856,0.41494473814964294
1686426299240447700,9.45444775390625,-1.6300992965698242,-0.29038122296333313,0.06317391246557236
1686426299250392800,9.464392822265625,-1.454222559928894,-0.0911426916718483,-0.29757362604141235
1686426299260338000,9.474337890625,-1.1546664237976074,0.5127543807029724,-0.5978381037712097
1686426299270283000,9.484282958984375,-0.9185903072357178,0.9284120202064514,-0.7296294569969177
1686426299280227800,9.494227783203126,-0.8507257699966431,0.7618366479873657,-0.6539921760559082
1686426299290173000,9.5041728515625,-0.8594593405723572,-0.17942434549331665,-0.36147964000701904
1686426299300118000,9.514117919921874,-0.8658027052879333,-1.7748756408691406,0.1803032010793686
1686426299310062800,9.524062744140625,-0.8074887990951538,-3.39043927192688,0.7955732941627502
1686426299320007700,9.534007568359375,-0.7521815896034241,-4.296703338623047,1.1090869903564453
1686426299329953000,9.543953125,-0.7965008616447449,-4.365410804748535,1.0644547939300537
1686426299339897900,9.55389794921875,-0.7869052290916443,-3.669419765472412,0.6881376504898071
1686426299349842700,9.5638427734375,-0.655641496181488,-2.3936374187469482,0.06474490463733673
1686426299359788000,9.5737880859375,-0.42698994278907776,-1.2044439315795898,-0.5407490134239197
1686426299369732900,9.58373291015625,-0.2294827252626419,-0.5852610468864441,-0.8167243599891663
1686426299379677700,9.593677734375,-0.10964073985815048,-0.3449406027793884,-0.6368337273597717
1686426299389623000,9.603623046875,0.007399326656013727,-0.21198922395706177,-0.06976496428251266
1686426299399568000,9.61356787109375,0.151749849319458,-0.050820834934711456,0.7146190404891968
1686426299409512700,9.6235126953125,0.36936259269714355,0.24659539759159088,1.5544759035110474
1686426299419457800,9.633457763671874,0.6422953009605408,0.693233847618103,2.334486246109009
1686426299429403000,9.64340283203125,0.9582096338272095,1.186579942703247,2.950005292892456
1686426299439346700,9.6533466796875,1.232682228088379,1.6074877977371216,3.207002639770508
1686426299449292000,9.6632919921875,1.2707126140594482,2.080857753753662,2.8791544437408447
1686426299459236900,9.67323681640625,1.097975254058838,2.547650098800659,2.013211727142334
1686426299469181700,9.683181640625,0.8501654267311096,2.727931499481201,1.030073642730713
1686426299479127000,9.693126953125,0.6475263237953186,2.4639811515808105,0.3379724621772766
1686426299489071900,9.70307177734375,0.5253130197525024,1.8362865447998047,-0.02437777817249298
1686426299499016700,9.7130166015625,0.44124850630760193,0.9324062466621399,-0.17442665994167328
1686426299508961800,9.7229619140625,0.3229548931121826,-0.15154078602790833,-0.1722434014081955
1686426299518907000,9.732906982421875,0.23773106932640076,-1.378157377243042,-0.08173268288373947
1686426299528851700,9.742851806640624,0.15639972686767578,-2.5706851482391357,0.009345298632979393
1686426299538796800,9.752796875,0.19782227277755737,-3.526920795440674,0.012093680910766125
1686426299548742000,9.762741943359375,0.2225441187620163,-4.012111186981201,-0.037581462413072586
1686426299558687000,9.77268701171875,0.21764178574085236,-3.9363787174224854,-0.155465230345726
1686426299568631800,9.7826318359375,0.10903327912092209,-3.3777029514312744,-0.34039485454559326
1686426299578577000,9.792576904296874,0.0035025894176214933,-2.5721473693847656,-0.5485528707504272
1686426299588522000,9.80252197265625,-0.055991362780332565,-1.5912909507751465,-0.657358705997467
1686426299598466800,9.812466796875,-0.09221994131803513,-0.6018280386924744,-0.5735173225402832
1686426299608412000,9.822411865234375,-0.16269969940185547,-0.043480366468429565,-0.2864232361316681
1686426299618357000,9.83235693359375,-0.23887382447719574,-0.0027744811959564686,0.11502832174301147
1686426299628301800,9.8423017578125,-0.2650734782218933,-0.2582626938819885,0.5450899600982666
1686426299638246700,9.85224658203125,-0.24975843727588654,-0.6362736821174622,0.9077805280685425
1686426299648192000,9.86219189453125,-0.20345404744148254,-1.0337107181549072,1.0996527671813965
1686426299658136800,9.87213671875,-0.17041754722595215,-1.4077365398406982,1.0859148502349854
1686426299668081700,9.88208154296875,-0.18157272040843964,-1.6889724731445312,0.9058798551559448
1686426299678027000,9.892027099609376,-0.18072184920310974,-1.7901358604431152,0.6419163346290588
1686426299687970800,9.901970703125,-0.12668603658676147,-1.6169099807739258,0.3695005476474762
1686426299697916000,9.911916015625,-0.033061545342206955,-1.2392621040344238,0.15489637851715088
1686426299707861000,9.921861083984375,0.09787969291210175,-0.8549021482467651,0.011138937436044216
1686426299717805800,9.931805908203126,0.26792892813682556,-0.5884922742843628,-0.10957150161266327
1686426299727750700,9.941750732421875,0.3828648328781128,-0.4849959909915924,-0.2155919373035431
1686426299737696000,9.951696044921874,0.4032782316207886,-0.3770942986011505,-0.2311096489429474
1686426299747640800,9.961640869140625,0.39630046486854553,-0.16972485184669495,-0.15358157455921173
1686426299757585700,9.971585693359375,0.3736580014228821,0.04433470591902733,-0.044135767966508865
1686426299767531000,9.981531005859376,0.33684486150741577,0.23000895977020264,0.04029868543148041
1686426299777475800,9.991475830078125,0.3080430328845978,0.3750724196434021,0.06566130369901657
1686426299787420700,10.001420654296876,0.30296918749809265,0.4016648828983307,0.0211819838732481
1686426299797366000,10.011365966796875,0.3366539180278778,0.316128134727478,-0.0819939374923706
1686426299807310800,10.021310791015624,0.33380407094955444,0.21185286343097687,-0.26152482628822327
1686426299817256000,10.031255859375,0.38697540760040283,-0.006339654792100191,-0.4802646040916443
1686426299827200800,10.04120068359375,0.5706496238708496,-0.36582884192466736,-0.6819990873336792
1686426299837145900,10.051145751953126,0.7555092573165894,-0.6777795553207397,-0.873520016670227
1686426299847091000,10.061091064453125,0.9052241444587708,-0.814049482345581,-1.0368037223815918
1686426299857035800,10.071035888671876,0.982613205909729,-0.7213613986968994,-1.1190818548202515
1686426299866980900,10.08098095703125,0.9885243773460388,-0.4480491578578949,-1.0997790098190308
1686426299876926000,10.090926025390624,0.9173170328140259,-0.05573703348636627,-0.9598663449287415
1686426299886870800,10.100870849609375,0.7322172522544861,0.3003832697868347,-0.7128384709358215
1686426299896815900,10.11081591796875,0.4215158224105835,0.5059348344802856,-0.4188108444213867
1686426299906761000,10.120760986328126,0.021697837859392166,0.564647912979126,-0.10447660833597183
1686426299916705800,10.130705810546875,-0.4746096432209015,0.43063315749168396,0.2504282295703888
1686426299926651000,10.14065087890625,-0.9821775555610657,0.0956498235464096,0.5994259119033813
1686426299936596000,10.150595947265625,-1.3732088804244995,-0.34633931517601013,0.8383010625839233
1686426299946540800,10.160540771484374,-1.4412535429000854,-0.6425584554672241,0.8891741037368774
1686426299956485600,10.170485595703125,-1.2207973003387451,-0.771080493927002,0.7341368198394775
1686426299966431000,10.180430908203125,-0.8450345993041992,-0.6811231374740601,0.4308094382286072
1686426299976375800,10.190375732421876,-0.5278622508049011,-0.41635221242904663,0.10475384443998337
1686426299986320000,10.20031982421875,-0.3206278085708618,0.02490082196891308,-0.19272097945213318
1686426299996265000,10.210264892578126,-0.1474997103214264,0.5593226552009583,-0.50965416431427
1686426300006209800,10.220209716796875,0.053289055824279785,1.215135931968689,-0.9025610089302063
1686426300016155000,10.23015478515625,0.29131653904914856,1.8427276611328125,-1.3008750677108765
1686426300026100000,10.240099853515625,0.5448923707008362,2.252497911453247,-1.5541212558746338
1686426300036044800,10.250044921875,0.8207204341888428,2.442249298095703,-1.5658223628997803
1686426300045989600,10.25998974609375,1.1207258701324463,2.5065011978149414,-1.2786281108856201
1686426300055934500,10.2699345703125,1.3496551513671875,2.4345250129699707,-0.7688740491867065
1686426300065879600,10.279879638671876,1.4609936475753784,2.1241681575775146,-0.2180231362581253
1686426300075824400,10.289824462890625,1.4579291343688965,1.6722089052200317,0.16433382034301758
1686426300085769500,10.29976953125,1.3160895109176636,1.1058323383331299,0.29650115966796875
1686426300095714600,10.309714599609375,1.024088978767395,0.47561153769493103,0.18070559203624725
1686426300105659400,10.319659423828124,0.6746005415916443,-0.04704980179667473,-0.05197851359844208
1686426300115604700,10.329604736328125,0.3864148259162903,-0.40532299876213074,-0.2943096458911896
1686426300125549600,10.339549560546875,0.1931217908859253,-0.4997592270374298,-0.484463632106781
1686426300135494400,10.349494384765626,0.02989824488759041,-0.2598116099834442,-0.5886390209197998
1686426300145439700,10.359439697265625,-0.14041250944137573,0.2906781733036041,-0.6019780039787292
1686426300155384600,10.369384521484376,-0.2713660001754761,1.0892927646636963,-0.5398219227790833
1686426300165329400,10.379329345703125,-0.3715727627277374,2.0466105937957764,-0.4894237518310547
1686426300175274500,10.3892744140625,-0.4445124864578247,2.9758965969085693,-0.5131916999816895
1686426300185219600,10.399219482421875,-0.4510902166366577,3.7013821601867676,-0.5467429757118225
1686426300195164400,10.409164306640625,-0.40813156962394714,3.8685176372528076,-0.44776207208633423
1686426300205109500,10.419109619140626,-0.389278769493103,3.6177804470062256,-0.3795827329158783
1686426300215054600,10.4290546875,-0.43018680810928345,3.3029556274414062,-0.5492128133773804
1686426300224999400,10.43899951171875,-0.4879888594150543,2.8784239292144775,-0.8005651235580444
1686426300234944500,10.448944580078125,-0.6395512223243713,1.935933232307434,-0.7821069955825806
1686426300244889600,10.4588896484375,-0.8946929574012756,0.4565789997577667,-0.25964754819869995
1686426300254834400,10.46883447265625,-1.1225605010986328,-0.743511974811554,0.4255608916282654
1686426300264779500,10.478779541015625,-1.2376271486282349,-0.9712963700294495,0.7299796342849731
1686426300274724600,10.488724609375,-1.27310311794281,-0.5435498356819153,0.6504778861999512
1686426300284669700,10.498669677734375,-1.197190761566162,-0.11803209781646729,0.3712875247001648
1686426300294613500,10.508613525390626,-0.9785686731338501,0.02178465761244297,-0.003029612125828862
1686426300304558600,10.51855859375,-0.6671301126480103,0.24790753424167633,-0.41801267862319946
1686426300314503400,10.52850341796875,-0.380575031042099,0.6354512572288513,-0.7297652363777161
1686426300324448500,10.538448486328125,-0.29976141452789307,0.7235108017921448,-0.8646663427352905
1686426300334393600,10.5483935546875,-0.39814817905426025,0.29568517208099365,-0.7977043390274048
1686426300344338400,10.55833837890625,-0.5270675420761108,-0.6324701309204102,-0.4702484607696533
1686426300354283500,10.568283447265625,-0.5513260364532471,-1.9455832242965698,0.10232184082269669
1686426300364228600,10.578228515625,-0.48981523513793945,-3.0074620246887207,0.5480979681015015
1686426300374173700,10.588173583984375,-0.6491473913192749,-3.672607421875,0.7683624625205994
1686426300384118500,10.598118408203124,-0.9336147904396057,-3.7807106971740723,0.7571374773979187
1686426300394063400,10.6080634765625,-1.0653208494186401,-3.0933849811553955,0.46078333258628845
1686426300404008700,10.6180087890625,-1.014872670173645,-1.8704948425292969,-0.06299068033695221
1686426300413953500,10.62795361328125,-0.7787852883338928,-0.8670458793640137,-0.5551719069480896
1686426300423898400,10.6378984375,-0.5281175971031189,-0.41268983483314514,-0.7671189904212952
1686426300433843700,10.64784375,-0.36040744185447693,-0.3641776740550995,-0.6071397662162781
1686426300443788500,10.65778857421875,-0.24386858940124512,-0.4891393184661865,-0.13182753324508667
1686426300453733400,10.6677333984375,-0.090781569480896,-0.5351342558860779,0.5182902812957764
1686426300463678700,10.6776787109375,0.13615837693214417,-0.36311614513397217,1.2093771696090698
1686426300473623600,10.68762353515625,0.41085943579673767,0.008169513195753098,1.8581516742706299
1686426300483568400,10.697568359375,0.7371600270271301,0.4310395419597626,2.419145107269287
1686426300493513500,10.707513427734375,1.0729622840881348,0.7844692468643188,2.822841167449951
1686426300503458600,10.71745849609375,1.1788991689682007,1.094072937965393,2.896078586578369
1686426300513403400,10.7274033203125,1.0762633085250854,1.431382179260254,2.6297805309295654
1686426300523348500,10.737348388671874,0.9762333631515503,1.7308871746063232,2.098031520843506
1686426300533293600,10.74729345703125,0.8847098350524902,1.7994319200515747,1.440989375114441
1686426300543238700,10.75723876953125,0.7818481922149658,1.5245227813720703,0.8621826767921448
1686426300553183500,10.76718359375,0.6332142353057861,0.8666168451309204,0.481966108083725
1686426300563128600,10.777128662109375,0.4267691671848297,0.014415957033634186,0.2780182957649231
1686426300573073700,10.78707373046875,0.2672439515590668,-0.834747314453125,0.17688769102096558
1686426300583018500,10.7970185546875,0.19110657274723053,-1.6137504577636719,0.10247444361448288
1686426300592963600,10.806963623046874,0.204295352101326,-2.197439432144165,0.010922955349087715
1686426300602908700,10.81690869140625,0.28247883915901184,-2.5294623374938965,-0.1057991310954094
1686426300612853500,10.826853515625,0.3923256993293762,-2.5846662521362305,-0.2289452999830246
1686426300622798300,10.83679833984375,0.45460930466651917,-2.377643346786499,-0.34861069917678833
1686426300632743700,10.84674365234375,0.4417465031147003,-2.0085649490356445,-0.4510958194732666
1686426300642688500,10.8566884765625,0.3526419401168823,-1.5709222555160522,-0.4939087927341461
1686426300652633300,10.86663330078125,0.20223325490951538,-1.0761802196502686,-0.4522731900215149
1686426300662577700,10.87657763671875,0.017763817682862282,-0.6423848271369934,-0.28820064663887024
1686426300672522500,10.8865224609375,-0.1890639364719391,-0.37132933735847473,0.0008042746339924634
1686426300682467600,10.896467529296874,-0.3512350022792816,-0.33422431349754333,0.37466147541999817
1686426300692412700,10.90641259765625,-0.42213740944862366,-0.5439445376396179,0.7428402900695801
1686426300702357500,10.916357421875,-0.4267353415489197,-0.9235687851905823,1.001589059829712
1686426300712302300,10.92630224609375,-0.3803308308124542,-1.3794074058532715,1.0809690952301025
1686426300722247700,10.93624755859375,-0.28305381536483765,-1.769140601158142,0.939491868019104
1686426300732192500,10.946192626953126,-0.17600885033607483,-1.9400784969329834,0.5965752601623535
1686426300742137300,10.956137451171875,-0.09080953150987625,-1.732532262802124,0.19989873468875885
1686426300752082700,10.966082763671874,0.04544790834188461,-1.2775782346725464,-0.07081957906484604
1686426300762027500,10.976027587890625,0.2504979968070984,-0.8697980046272278,-0.18445426225662231
1686426300771972400,10.985972412109374,0.47509515285491943,-0.6847549080848694,-0.20819607377052307
1686426300781917700,10.995917724609376,0.6368417143821716,-0.6353839039802551,-0.18449340760707855
1686426300791862500,11.005862548828125,0.6644608378410339,-0.48178979754447937,-0.13364754617214203
1686426300801807600,11.0158076171875,0.6150282621383667,-0.21543481945991516,-0.06289400905370712
1686426300811752400,11.02575244140625,0.5270907282829285,-0.00824807584285736,0.002493784064427018
1686426300821697500,11.035697509765624,0.40984025597572327,0.08940311521291733,0.05074254050850868
1686426300831642600,11.045642578125,0.2794763743877411,0.22260378301143646,0.1301923543214798
1686426300841587500,11.05558740234375,0.1821463704109192,0.3921307623386383,0.21435198187828064
1686426300851532500,11.065532470703126,0.17273661494255066,0.5002846717834473,0.2086256444454193
1686426300861477600,11.0754775390625,0.24340227246284485,0.5399615168571472,0.05859886482357979
1686426300871422500,11.08542236328125,0.32756561040878296,0.5546213984489441,-0.1668475717306137
1686426300881367600,11.095367431640625,0.4007743299007416,0.4261837899684906,-0.4142429828643799
1686426300891312600,11.105312744140624,0.4734322726726532,0.12879419326782227,-0.6065146923065186
1686426300901257500,11.115257568359375,0.5621360540390015,-0.20282182097434998,-0.762345016002655
1686426300911202300,11.125202392578124,0.6757278442382812,-0.4479072093963623,-0.9502614140510559
1686426300921147600,11.135147705078126,0.7822889089584351,-0.5428752899169922,-1.1739429235458374
1686426300931092500,11.145092529296875,0.8507843613624573,-0.46904709935188293,-1.3275229930877686
1686426300941037300,11.155037353515626,0.8646200299263,-0.29568785429000854,-1.3262736797332764
1686426300950982700,11.164982666015625,0.8336693048477173,-0.1483290195465088,-1.201012134552002
1686426300960927500,11.174927490234374,0.6879986524581909,-0.08869178593158722,-0.9860920906066895
1686426300970872600,11.18487255859375,0.42038822174072266,-0.021744975820183754,-0.6960027813911438
1686426300980817700,11.194817626953125,0.05387255176901817,0.0934242233633995,-0.35928067564964294
1686426300990762500,11.204762451171876,-0.39080876111984253,0.14386528730392456,-0.008674981072545052
1686426301000707600,11.21470751953125,-0.919317901134491,-0.005409678909927607,0.33039042353630066
1686426301010652400,11.22465234375,-1.3679516315460205,-0.21661965548992157,0.5852818489074707
1686426301020597500,11.234597412109375,-1.5069403648376465,-0.22099390625953674,0.661329448223114
1686426301030542600,11.24454248046875,-1.3421084880828857,0.06143353506922722,0.5456518530845642
1686426301040487400,11.2544873046875,-1.039188027381897,0.3566736876964569,0.3147129416465759
1686426301050432500,11.2644326171875,-0.7517709732055664,0.6190424561500549,0.07324279099702835
1686426301060377300,11.27437744140625,-0.5176418423652649,0.9632794857025146,-0.16125494241714478
1686426301070322200,11.284322265625,-0.29403430223464966,1.5466779470443726,-0.48495471477508545
1686426301080267300,11.294267333984376,-0.02406565472483635,2.2322328090667725,-0.9031223654747009
1686426301090212400,11.30421240234375,0.2241223156452179,2.715996265411377,-1.246799111366272
1686426301100157200,11.3141572265625,0.49942338466644287,2.993387222290039,-1.4037082195281982
1686426301110102300,11.324102294921875,0.8708022832870483,3.168558359146118,-1.2611881494522095
1686426301120047400,11.33404736328125,1.274972677230835,3.2648282051086426,-0.8453927636146545
1686426301129992200,11.3439921875,1.5622187852859497,3.0723958015441895,-0.35937759280204773
1686426301139937300,11.353937255859375,1.6017729043960571,2.547711133956909,-0.022733541205525398
1686426301149882400,11.36388232421875,1.3923799991607666,1.9056984186172485,0.016109993681311607
1686426301159827200,11.3738271484375,1.0600579977035522,1.310389757156372,-0.1630706787109375
1686426301169772000,11.38377197265625,0.6650000810623169,0.7065893411636353,-0.4047251045703888
1686426301179717400,11.39371728515625,0.24405500292778015,0.19377905130386353,-0.5795576572418213
1686426301189662200,11.403662109375,-0.1185799092054367,-0.1117720678448677,-0.6168437600135803
1686426301199607000,11.41360693359375,-0.36941081285476685,-0.16776344180107117,-0.5478404760360718
1686426301209552400,11.423552490234375,-0.5483760237693787,0.04615471139550209,-0.4482920467853546
1686426301219497200,11.433497314453126,-0.7103726267814636,0.5559806823730469,-0.3724918067455292
1686426301229442300,11.4434423828125,-0.8523838520050049,1.2691326141357422,-0.3166397213935852
1686426301239387400,11.453387451171874,-0.9731590151786804,1.9759362936019897,-0.2047100067138672
1686426301249332200,11.463332275390625,-1.0088962316513062,2.5554404258728027,-0.06267909705638885
1686426301259277300,11.47327734375,-0.939348042011261,2.740006685256958,0.06867626309394836
1686426301269222100,11.48322216796875,-0.7788302898406982,2.3686537742614746,0.04225318133831024
1686426301279167200,11.493167236328125,-0.6163164377212524,2.001986265182495,-0.24967268109321594
1686426301289112300,11.5031123046875,-0.4716434180736542,1.8162561655044556,-0.5688642263412476
1686426301299057200,11.51305712890625,-0.31982487440109253,1.6971443891525269,-0.7021520137786865
1686426301309002200,11.523002197265624,-0.23758912086486816,1.3558323383331299,-0.47350549697875977
1686426301318947300,11.532947265625,-0.24513545632362366,0.5678594708442688,0.09090087562799454
1686426301328892200,11.54289208984375,-0.360403448343277,-0.1183258444070816,0.6056941747665405
1686426301338837200,11.552837158203126,-0.5340644717216492,-0.39632683992385864,0.7397531867027283
1686426301348782300,11.5627822265625,-0.6397022008895874,-0.37775155901908875,0.49002349376678467
1686426301358727200,11.57272705078125,-0.685005784034729,-0.2929948568344116,0.024211863055825233
1686426301368672300,11.58267236328125,-0.6333409547805786,-0.2731812000274658,-0.4242120087146759
1686426301378617300,11.592617431640624,-0.4380795955657959,0.17849783599376678,-0.7139860391616821
1686426301388562200,11.602562255859375,-0.1545237898826599,0.6812432408332825,-0.8454391360282898
1686426301398507300,11.61250732421875,0.06241810321807861,0.5608270764350891,-0.8380877375602722
1686426301408452400,11.622452392578126,0.08335854113101959,-0.02954297885298729,-0.7648391127586365
1686426301418397200,11.632397216796875,0.0005784385721199214,-0.9993666410446167,-0.5235543251037598
1686426301428342300,11.64234228515625,-0.19230632483959198,-2.157343864440918,-0.08538014441728592
1686426301438287400,11.652287353515625,-0.3922162353992462,-3.0838329792022705,0.3659830391407013
1686426301448232200,11.662232177734374,-0.6019473671913147,-3.620605230331421,0.6491543054580688
1686426301458177300,11.67217724609375,-0.9307204484939575,-3.7664315700531006,0.7998971939086914
1686426301468122400,11.682122314453125,-1.1337987184524536,-3.2376513481140137,0.7355954647064209
1686426301478067200,11.692067138671876,-1.0563076734542847,-2.088146686553955,0.4439292550086975
1686426301488012300,11.70201220703125,-0.8017014861106873,-0.8544832468032837,0.06937721371650696
1686426301497957000,11.71195703125,-0.5556278228759766,0.009639311581850052,-0.19074171781539917
1686426301507902200,11.721902099609375,-0.3601131737232208,0.3950525224208832,-0.14630980789661407
1686426301517847300,11.731847412109374,-0.21958188712596893,0.3575533330440521,0.24259719252586365
1686426301527792000,11.741792236328125,-0.048953160643577576,0.27680736780166626,0.8326008319854736
1686426301537737200,11.7517373046875,0.19653329253196716,0.44657161831855774,1.4686968326568604
1686426301547682300,11.761682373046876,0.5202866196632385,0.8048309683799744,2.0669682025909424
1686426301557626400,11.77162646484375,0.9343175888061523,1.1878883838653564,2.532982110977173
1686426301567571200,11.7815712890625,1.386007308959961,1.4882633686065674,2.745966672897339
1686426301577516300,11.791516357421875,1.6195018291473389,1.8321794271469116,2.4833552837371826
1686426301587461000,11.801461181640626,1.4979751110076904,2.229355812072754,1.721659541130066
1686426301597406200,11.81140625,1.2503045797348022,2.37367582321167,0.9202305674552917
1686426301607351300,11.821351318359374,0.9908099174499512,2.1261069774627686,0.36833542585372925
1686426301617296100,11.831296142578125,0.7523658871650696,1.5533281564712524,0.0654357299208641
1686426301627241200,11.8412412109375,0.49082431197166443,0.6553019285202026,-0.012133628129959106
1686426301637186300,11.851186279296876,0.2214951068162918,-0.5023068189620972,0.05938396602869034
1686426301647131100,11.861131103515625,0.026340527459979057,-1.7281705141067505,0.1782863885164261
1686426301657076500,11.871076416015624,-0.01369503978639841,-2.718024969100952,0.2500540316104889
1686426301667021300,11.881021240234375,0.044067591428756714,-3.264132022857666,0.23699922859668732
1686426301676966100,11.890966064453124,0.11053210496902466,-3.371469736099243,0.12142549455165863
1686426301686911200,11.9009111328125,0.13526754081249237,-3.089651584625244,-0.07764552533626556
1686426301696856300,11.910856201171875,0.1037391796708107,-2.554304361343384,-0.30273643136024475
1686426301706801200,11.92080126953125,0.078433558344841,-1.8070552349090576,-0.45815905928611755
1686426301716746200,11.930746337890625,0.0722329169511795,-1.0279333591461182,-0.4578748941421509
1686426301726691300,11.94069140625,0.007714378647506237,-0.5611445307731628,-0.2692708969116211
1686426301736636200,11.95063623046875,-0.08599400520324707,-0.5113764405250549,0.04987301677465439
1686426301746581200,11.960581298828124,-0.15108059346675873,-0.7405811548233032,0.4383848011493683
1686426301756526300,11.9705263671875,-0.17989732325077057,-1.074514389038086,0.8135616183280945
1686426301766471200,11.98047119140625,-0.16934721171855927,-1.3089334964752197,1.0609482526779175
1686426301776416300,11.990416259765626,-0.16513782739639282,-1.4107930660247803,1.0949757099151611
1686426301786361300,12.000361328125,-0.16387149691581726,-1.4649406671524048,0.9375301599502563
1686426301796306200,12.01030615234375,-0.15600638091564178,-1.4920471906661987,0.6895992159843445
1686426301806251300,12.020251220703125,-0.12727193534374237,-1.4050902128219604,0.43443453311920166
1686426301816196000,12.030196044921874,-0.06522800773382187,-1.163940668106079,0.2298387885093689
1686426301826141400,12.040141357421875,0.03574494644999504,-0.838035523891449,0.13555675745010376
1686426301836086300,12.050086181640625,0.15179911255836487,-0.5866749286651611,0.10786308348178864
1686426301846031000,12.060031005859376,0.2592076063156128,-0.46408963203430176,0.08694661408662796
1686426301855976400,12.0699765625,0.3014402687549591,-0.3895173966884613,0.05848488211631775
1686426301865921300,12.07992138671875,0.31827837228775024,-0.32219934463500977,-0.004718055948615074
1686426301875866000,12.0898662109375,0.3316493034362793,-0.30845504999160767,-0.12794971466064453
1686426301885811500,12.0998115234375,0.2969943881034851,-0.355541855096817,-0.27750563621520996
1686426301895756300,12.10975634765625,0.2474023401737213,-0.2644556164741516,-0.34444740414619446
1686426301905701000,12.119701171875,0.1853216588497162,-0.08373750746250153,-0.33752530813217163
1686426301915646200,12.129646240234376,0.16427922248840332,0.07282467186450958,-0.33443018794059753
1686426301925591300,12.13959130859375,0.1766781061887741,0.1450115144252777,-0.40454375743865967
1686426301935536000,12.1495361328125,0.18874461948871613,0.08558787405490875,-0.5668604969978333
1686426301945481200,12.159481201171875,0.2826801538467407,-0.07443748414516449,-0.7484808564186096
1686426301955426300,12.16942626953125,0.46096229553222656,-0.307689368724823,-0.8910662531852722
1686426301965371100,12.17937109375,0.6553823947906494,-0.5545244812965393,-0.9745297431945801
1686426301975316200,12.189316162109375,0.8477749824523926,-0.7422645092010498,-1.0470023155212402
1686426301985261300,12.19926123046875,1.0297458171844482,-0.8999199271202087,-1.125910997390747
1686426301995206400,12.209206298828125,1.14226496219635,-0.9551698565483093,-1.1355534791946411
1686426302005151200,12.219151123046874,1.1856456995010376,-0.8355582356452942,-1.0110105276107788
1686426302015096000,12.229095947265625,1.1103852987289429,-0.5819007158279419,-0.8064669370651245
1686426302025041400,12.23904150390625,0.8693439364433289,-0.2980588674545288,-0.5745210647583008
1686426302034986200,12.248986328125,0.4838188588619232,-0.00794527493417263,-0.3289869427680969
1686426302044931000,12.25893115234375,0.06904404610395432,0.2666758894920349,-0.0829438865184784
1686426302054876400,12.26887646484375,-0.39326712489128113,0.29303479194641113,0.1339101344347
1686426302064821200,12.2788212890625,-0.9404364824295044,0.03906138241291046,0.3299528658390045
1686426302074766000,12.28876611328125,-1.3727012872695923,-0.3331068456172943,0.4428221583366394
1686426302084711200,12.298711181640625,-1.4869424104690552,-0.5071681141853333,0.41498681902885437
1686426302094656300,12.30865625,-1.227535367012024,-0.4742591977119446,0.2692205607891083
1686426302104601000,12.31860107421875,-0.9103398323059082,-0.3966650664806366,0.1258641928434372
1686426302114546200,12.328546142578125,-0.6844238638877869,-0.125340074300766,-0.03158429265022278
1686426302124491300,12.3384912109375,-0.4828454852104187,0.2953927516937256,-0.27005332708358765
1686426302134436000,12.34843603515625,-0.19949819147586823,0.9482552409172058,-0.6624194979667664
1686426302144381000,12.358380859375,0.16156946122646332,1.6999468803405762,-1.1421887874603271
1686426302154326300,12.368326171875,0.526235818862915,2.265734910964966,-1.4642360210418701
1686426302164271000,12.37827099609375,0.8835617303848267,2.5875113010406494,-1.529591679573059
1686426302174216200,12.38821630859375,1.2650712728500366,2.797358512878418,-1.286026120185852
1686426302184161300,12.398161376953125,1.5827698707580566,2.954153299331665,-0.7996362447738647
1686426302194105000,12.40810498046875,1.7787108421325684,2.8974173069000244,-0.2224692851305008
1686426302204051200,12.41805126953125,1.803521990776062,2.550907850265503,0.21626172959804535
1686426302213995300,12.427995361328126,1.6398228406906128,2.0576696395874023,0.352439820766449
1686426302223940000,12.437940185546875,1.3400616645812988,1.5470571517944336,0.26961734890937805
1686426302233885000,12.447885009765624,1.0463796854019165,1.0264283418655396,0.05513276159763336
1686426302243830300,12.457830322265625,0.8216296434402466,0.5462926030158997,-0.15233148634433746
1686426302253775000,12.467775146484374,0.5484487414360046,0.25807762145996094,-0.32441723346710205
