"Time (s)","Acceleration x (m/s^2)","Acceleration y (m/s^2)","Acceleration z (m/s^2)"
3.919938600E-2,-2.256132603E0,-4.505086899E0,-5.011766911E0
4.172183400E-2,-2.162513494E0,-4.804488659E0,-5.016552448E0
4.424704200E-2,-2.105085611E0,-5.017749310E0,-4.975874901E0
4.677225100E-2,-2.062014818E0,-5.180759907E0,-4.879862785E0
4.930021900E-2,-2.050050735E0,-5.353342533E0,-4.815256596E0
5.182537600E-2,-2.097907305E0,-5.523232937E0,-4.908576488E0
5.441490700E-2,-2.112264156E0,-5.710172176E0,-4.939982414E0
5.694006300E-2,-2.107478619E0,-5.892325878E0,-5.066802025E0
5.946521900E-2,-2.155334949E0,-6.050251961E0,-5.306383133E0
6.199042800E-2,-2.203191519E0,-6.184549332E0,-5.624927998E0
6.199048000E-2,-2.227418661E0,-6.282654762E0,-5.919544220E0
6.693813600E-2,-2.289632082E0,-6.411867142E0,-6.226124287E0
6.946876100E-2,-2.370988131E0,-6.538986206E0,-6.549753666E0
7.199396900E-2,-2.394916296E0,-6.584449768E0,-6.774679184E0
7.451652200E-2,-2.339881420E0,-6.721139908E0,-7.033402920E0
7.704178200E-2,-2.270489693E0,-6.752246380E0,-7.299305439E0
7.960605300E-2,-2.311167479E0,-6.759424686E0,-7.447959423E0
8.213131300E-2,-2.361416817E0,-6.764210701E0,-7.598707199E0
8.465657400E-2,-2.404487610E0,-6.704390049E0,-7.615756035E0
8.716048000E-2,-2.591426849E0,-6.617949009E0,-7.488637447E0
8.972933400E-2,-2.792723179E0,-6.534200668E0,-7.256234646E0
9.229813600E-2,-2.912364244E0,-6.402296066E0,-6.944868565E0
9.475740700E-2,-3.118446112E0,-6.239583969E0,-6.496812344E0
9.728261500E-2,-3.257229805E0,-6.098108292E0,-6.099305153E0
9.978652200E-2,-3.482454300E0,-5.921039581E0,-6.187839508E0
1.023540220E-1,-3.748356581E0,-5.774778366E0,-6.628716946E0
1.049214690E-1,-4.076472282E0,-5.606981754E0,-7.642077446E0
1.073442820E-1,-4.447957993E0,-5.499304771E0,-9.024231911E0
1.099086570E-1,-4.963013172E0,-5.425127029E0,-1.067228794E1
1.124338650E-1,-5.657529831E0,-5.398806095E0,-1.268196011E1
1.149377720E-1,-6.412166595E0,-5.506483078E0,-1.486929893E1
1.175094900E-1,-7.102196693E0,-5.805884838E0,-1.700609016E1
1.200812090E-1,-7.583752155E0,-6.323332787E0,-1.847438622E1
1.225346990E-1,-7.914260864E0,-6.883851528E0,-1.850788498E1
1.250599070E-1,-8.254341125E0,-7.379764080E0,-1.639262962E1
1.275638130E-1,-8.848359108E0,-7.832605839E0,-1.266999626E1
1.301842820E-1,-9.677172661E0,-8.273183823E0,-7.788039684E0
1.326355320E-1,-1.028824043E1,-8.886644363E0,-3.356531858E0
1.351607400E-1,-1.052064323E1,-9.679565430E0,-8.075776696E-1
1.376859490E-1,-1.035284615E1,-1.061127090E1,-3.284149170E-1
1.402111570E-1,-9.852148056E0,-1.167248821E1,-1.650748491E0
1.427363650E-1,-9.241379738E0,-1.281027508E1,-4.084548473E0
1.453789170E-1,-8.716753960E0,-1.402014637E1,-7.026224613E0
1.479041260E-1,-8.520243645E0,-1.517468262E1,-1.004477024E1
1.504293340E-1,-8.728717804E0,-1.625264931E1,-1.248335552E1
1.529545420E-1,-9.186345100E0,-1.727318764E1,-1.363310719E1
1.554797510E-1,-9.452247620E0,-1.814507294E1,-1.353500175E1
1.580049590E-1,-9.305986404E0,-1.892363739E1,-1.250728416E1
1.605301670E-1,-8.603992462E0,-1.943869209E1,-1.081107140E1
1.630553760E-1,-7.485347271E0,-1.958974075E1,-8.755936623E0
1.655805840E-1,-6.143871307E0,-1.918475533E1,-6.583253384E0
1.681057920E-1,-4.754538536E0,-1.785524178E1,-4.398307323E0
1.706310010E-1,-3.377170086E0,-1.568495274E1,-2.251945257E0
1.731562610E-1,-2.186441660E0,-1.344766331E1,-4.244269133E-1
1.756814170E-1,-1.328913927E0,-1.146162033E1,7.399803996E-1
1.782066260E-1,-8.521439433E-1,-9.686744690E0,1.142273664E0
1.807318340E-1,-6.678966284E-1,-8.043473244E0,1.020239711E0
1.832570420E-1,-7.875377536E-1,-6.572485447E0,6.726822853E-1
1.857822510E-1,-1.118046403E0,-5.319543839E0,3.948157430E-1
1.883074590E-1,-1.470389485E0,-4.251148701E0,1.890329868E-1
1.908326670E-1,-1.839183331E0,-3.362514019E0,1.289133132E-1
1.933579280E-1,-2.186441660E0,-2.672483683E0,1.698904037E-1
1.958831360E-1,-2.471486807E0,-2.196012974E0,1.408774406E-1
1.984082920E-1,-2.656033039E0,-1.802991867E0,1.884347759E-2
2.009335530E-1,-2.819044113E0,-1.520339727E0,-3.643072546E-1
2.034587610E-1,-2.878864765E0,-1.436590910E0,-1.030409217E0
2.059839690E-1,-2.845365286E0,-1.436590910E0,-1.804188251E0
2.085091780E-1,-2.742174864E0,-1.474876046E0,-2.479562521E0
2.110343860E-1,-2.507678032E0,-1.633101463E0,-2.946761131E0
2.135595940E-1,-2.244168520E0,-1.802991867E0,-3.308376312E0
2.160848030E-1,-2.002194405E0,-1.966002941E0,-3.538386583E0
2.186100110E-1,-1.853540182E0,-2.135893345E0,-3.545564890E0
2.211352190E-1,-1.786541224E0,-2.368296146E0,-3.464209080E0
2.236604280E-1,-1.812862277E0,-2.720639229E0,-3.205485106E0
2.261856360E-1,-1.973480463E0,-3.130111217E0,-2.989831924E0
2.287108440E-1,-2.198405743E0,-3.676272869E0,-2.855833769E0
2.312360530E-1,-2.452344179E0,-4.349553585E0,-2.872583628E0
2.337612610E-1,-2.713460922E0,-5.060820103E0,-2.982653379E0
2.363255840E-1,-3.046661377E0,-5.791528225E0,-3.174378395E0
2.388116780E-1,-3.422633648E0,-6.629913330E0,-3.454637766E0
2.413368860E-1,-3.757927895E0,-7.489833832E0,-3.684647799E0
2.438620940E-1,-4.131806374E0,-8.359624863E0,-3.931407690E0
2.463873030E-1,-4.445565224E0,-9.238688469E0,-3.991228104E0
2.489125110E-1,-4.699503899E0,-1.020179939E1,-4.132404804E0
2.514377190E-1,-4.919942379E0,-1.125344467E1,-4.185346127E0
2.539629280E-1,-5.137689114E0,-1.232184029E1,-4.223630905E0
2.565272510E-1,-5.338985443E0,-1.338036537E1,-4.187738895E0
2.590133440E-1,-5.360520840E0,-1.446580887E1,-4.156631947E0
2.615385530E-1,-5.252843857E0,-1.550997734E1,-4.139882088E0
2.640637610E-1,-5.001298428E0,-1.639173317E1,-4.060619831E0
2.665889690E-1,-4.584349155E0,-1.714636803E1,-3.945764542E0
2.691142300E-1,-4.103092670E0,-1.759891129E1,-3.593421459E0
2.716394380E-1,-3.559323788E0,-1.769970894E1,-3.124129057E0
2.741646470E-1,-3.058625460E0,-1.752473450E1,-2.656930447E0
2.766898030E-1,-2.421237469E0,-1.721815300E1,-2.232802629E0
2.792150630E-1,-1.753041744E0,-1.677966881E1,-2.034198284E0
2.817402720E-1,-1.151844978E0,-1.625025749E1,-1.789831281E0
2.842654800E-1,-4.642075896E-1,-1.576630878E1,-1.806581140E0
2.867906880E-1,4.845465720E-2,-1.509811306E1,-2.117947102E0
2.893158970E-1,3.430709541E-1,-1.436261845E1,-2.314457655E0
2.918411050E-1,5.730810165E-1,-1.356969738E1,-2.477169752E0
2.943663130E-1,6.544370055E-1,-1.283898926E1,-2.671287298E0
2.968915220E-1,7.118647099E-1,-1.208704472E1,-2.932404041E0
2.994167300E-1,6.879364848E-1,-1.150708389E1,-3.267698526E0
3.019419380E-1,5.994020700E-1,-1.092024422E1,-3.545564890E0
3.044671470E-1,4.821537733E-1,-1.040040398E1,-3.794717550E0
3.069923550E-1,3.598206937E-1,-9.926325798E0,-3.917050600E0
3.095175630E-1,1.537388563E-1,-9.576375008E0,-3.974478483E0
3.120427720E-1,-6.161518395E-2,-9.233902931E0,-3.993621111E0
3.145679800E-1,-3.155534863E-1,-8.932107925E0,-3.888336897E0
3.170931880E-1,-5.742774606E-1,-8.752346992E0,-3.849752426E0
3.196183970E-1,-8.859425783E-1,-8.599205971E0,-3.758825302E0
3.221827190E-1,-1.257129192E0,-8.436195374E0,-3.699004650E0
3.246688130E-1,-1.568495274E0,-8.318946838E0,-3.639184237E0
3.271940220E-1,-1.853540182E0,-8.206185341E0,-3.519243956E0
3.297192300E-1,-2.145763636E0,-8.158329010E0,-3.421138287E0
3.322444380E-1,-2.402094841E0,-8.088936806E0,-3.301198006E0
3.347696470E-1,-2.550748825E0,-8.100900650E0,-3.227020502E0
3.372948550E-1,-2.713460922E0,-8.155936241E0,-3.162414312E0
3.398201150E-1,-2.852543592E0,-8.266005516E0,-3.157628536E0
3.423452720E-1,-2.969791889E0,-8.333304405E0,-3.140878916E0
3.448704800E-1,-3.089732170E0,-8.407481194E0,-3.171985626E0
3.473957400E-1,-3.123231649E0,-8.539086342E0,-3.145664454E0
3.499209490E-1,-3.108874798E0,-8.642276764E0,-3.100200891E0
3.524461050E-1,-3.099303484E0,-8.740383148E0,-3.030509949E0
3.549713650E-1,-3.068196774E0,-8.816953659E0,-3.097808123E0
3.574965740E-1,-3.039483070E0,-8.889037132E0,-3.195913792E0
3.600217820E-1,-2.859722137E0,-8.932107925E0,-3.354139090E0
3.625469900E-1,-2.725425005E0,-8.917751312E0,-3.471387386E0
3.650721990E-1,-2.536391973E0,-8.932107925E0,-3.591028690E0
3.675974070E-1,-2.356631279E0,-8.886644363E0,-3.622434378E0
3.701226150E-1,-2.073979139E0,-8.690134048E0,-3.430709362E0
3.726478240E-1,-1.901396751E0,-8.498408318E0,-3.071486950E0
3.751730320E-1,-1.815255046E0,-8.373981476E0,-2.755036116E0
3.776982400E-1,-1.709970832E0,-8.234899521E0,-2.434098721E0
3.802234490E-1,-1.566102386E0,-8.108079910E0,-2.091626167E0
3.827486570E-1,-1.369591832E0,-7.954639912E0,-1.696212173E0
3.852738650E-1,-1.197308660E0,-7.870891094E0,-1.277169108E0
3.877990740E-1,-1.051047325E0,-7.777570724E0,-9.610173702E-1
3.903242820E-1,-8.497511148E-1,-7.636095047E0,-9.466604590E-1
3.928494900E-1,-5.359922647E-1,-7.542775154E0,-1.030409217E0
3.953746990E-1,-2.509472668E-1,-7.521239758E0,-1.037587762E0
3.978999590E-1,-2.093719877E-2,-7.441977501E0,-1.039980531E0
4.004251670E-1,2.449652255E-1,-7.427620411E0,-9.418748021E-1
4.029894900E-1,5.443671346E-1,-7.384549618E0,-9.152546525E-1
4.054755840E-1,8.318049908E-1,-7.432406425E0,-8.075776696E-1
4.080007920E-1,1.119242787E0,-7.461120129E0,-9.128618240E-1
4.105259490E-1,1.198205948E0,-7.444370270E0,-9.729815125E-1
4.130511570E-1,1.229312658E0,-7.408477783E0,-1.025623560E0
4.155764170E-1,1.236491084E0,-7.439584732E0,-1.054337502E0
4.181016260E-1,1.238883972E0,-7.439584732E0,-1.030409217E0
4.206268340E-1,1.133599758E0,-7.451549053E0,-1.013659477E0
4.231520420E-1,9.442676306E-1,-7.576274872E0,-1.042373419E0
4.256772510E-1,7.863413692E-1,-7.621738434E0,-1.097408295E0
4.282024590E-1,5.994020700E-1,-7.657630444E0,-1.011266708E0
4.307276670E-1,4.603192508E-1,-7.676773071E0,-1.023230791E0
4.332528760E-1,3.023929596E-1,-7.727022648E0,-1.056730270E0
4.357780840E-1,9.631111473E-2,-7.760521889E0,-1.114158034E0
4.383032920E-1,-1.025922745E-1,-7.808677673E0,-1.171585798E0
4.408285010E-1,-2.102692872E-1,-7.913961887E0,-1.370489120E0
4.433537090E-1,-3.732803464E-1,-7.997710705E0,-1.514357686E0
4.458789170E-1,-5.431707501E-1,-8.074580193E0,-1.653141379E0
4.484041260E-1,-6.655037999E-1,-8.120043755E0,-1.770688772E0
4.509293340E-1,-7.660023570E-1,-8.189435959E0,-1.938186288E0
4.534545420E-1,-8.641080856E-1,-8.227720261E0,-2.115554333E0
4.559797510E-1,-9.290133715E-1,-8.289934158E0,-2.273779631E0
4.585050110E-1,-9.696913958E-1,-8.299804688E0,-2.402992249E0
4.610302190E-1,-1.012762189E0,-8.246863365E0,-2.479562521E0
4.635553760E-1,-1.043868899E0,-8.244470596E0,-2.496312141E0
4.660806360E-1,-1.015154958E0,-8.225327492E0,-2.539682150E0
4.686058440E-1,-9.649057388E-1,-8.184649467E0,-2.455634356E0
4.711310530E-1,-9.050851464E-1,-8.151150703E0,-2.393420935E0
4.736562610E-1,-8.715856671E-1,-8.096115112E0,-2.388635159E0
4.761814690E-1,-8.931210637E-1,-8.002495766E0,-2.391027927E0
4.787066780E-1,-9.601200819E-1,-7.942675591E0,-2.412563324E0
4.812318860E-1,-9.888339639E-1,-7.911569118E0,-2.458027124E0
4.837570940E-1,-1.029511929E0,-7.815855980E0,-2.527418852E0
4.862823030E-1,-1.154237866E0,-7.679165840E0,-2.532503605E0
4.888075110E-1,-1.252343535E0,-7.650452137E0,-2.498705149E0
4.913327190E-1,-1.350449324E0,-7.561917782E0,-2.489133835E0
4.938579280E-1,-1.523031592E0,-7.530810833E0,-2.534896374E0
4.963831360E-1,-1.654636860E0,-7.502097130E0,-2.582752943E0
4.989083440E-1,-1.762612939E0,-7.441977501E0,-2.589931488E0
5.014335530E-1,-1.937289000E0,-7.379764080E0,-2.594717026E0
5.039978760E-1,-2.105085611E0,-7.341478825E0,-2.685644388E0
5.064839690E-1,-2.275275230E0,-7.296015263E0,-2.764607430E0
5.090091780E-1,-2.373380899E0,-7.250551701E0,-2.877369165E0
5.115343860E-1,-2.505285263E0,-7.197610378E0,-2.920439959E0
5.140595940E-1,-2.644068956E0,-7.180860519E0,-3.056830883E0
5.165848550E-1,-2.747259617E0,-7.106683254E0,-3.186342478E0
5.191100110E-1,-2.864507914E0,-7.082755089E0,-3.342175007E0
5.216352190E-1,-2.962613583E0,-7.130611420E0,-3.476173162E0
5.241604280E-1,-3.027518749E0,-7.152146816E0,-3.598206997E0
5.266856880E-1,-3.106482029E0,-7.204789162E0,-3.739682674E0
5.292108970E-1,-3.166302681E0,-7.307979584E0,-3.854538202E0
5.317361050E-1,-3.257229805E0,-7.420442104E0,-4.000799656E0
5.342613130E-1,-3.233301640E0,-7.557132244E0,-4.187738895E0
5.367865220E-1,-3.195016384E0,-7.729415417E0,-4.408177376E0
5.393117300E-1,-3.125624657E0,-7.887640953E0,-4.537389755E0
5.418369380E-1,-3.017947674E0,-8.124829292E0,-4.772185802E0
5.443621470E-1,-2.866900682E0,-8.345268250E0,-4.980660439E0
5.468873550E-1,-2.648854733E0,-8.613563538E0,-5.148158073E0
5.494125630E-1,-2.411666155E0,-8.819346428E0,-5.268098354E0
5.519377720E-1,-2.205584288E0,-9.032606125E0,-5.426024437E0
5.544629800E-1,-1.990230203E0,-9.226723671E0,-5.488536835E0
5.569881880E-1,-1.796112537E0,-9.310472488E0,-5.567500114E0
5.595133970E-1,-1.674078584E0,-9.435198784E0,-5.534000397E0
5.620386050E-1,-1.609173179E0,-9.499805450E0,-5.461916924E0
5.645638130E-1,-1.530210137E0,-9.518947601E0,-5.344668388E0
5.670890220E-1,-1.532602906E0,-9.480662346E0,-5.188836098E0
5.696533440E-1,-1.613958836E0,-9.430413246E0,-4.959125042E0
5.721785530E-1,-1.733899117E0,-9.298508644E0,-4.654638290E0
5.746646470E-1,-1.848754644E0,-9.229117393E0,-4.400700092E0
5.771898550E-1,-1.978266120E0,-9.104690552E0,-4.070191383E0
5.797151150E-1,-2.083550215E0,-8.977571487E0,-3.789932013E0
5.822794380E-1,-2.162513494E0,-8.932107925E0,-3.433102369E0
5.847655320E-1,-2.232204437E0,-8.898608208E0,-3.133700371E0
5.872907400E-1,-2.256132603E0,-8.889037132E0,-2.846262455E0
5.898159490E-1,-2.330310106E0,-8.860322952E0,-2.587538481E0
5.923411050E-1,-2.339881420E0,-8.896215439E0,-2.376671076E0
5.948663650E-1,-2.390130758E0,-8.948857307E0,-2.211267233E0
5.973915740E-1,-2.380559444E0,-9.039784431E0,-2.058126688E0
5.999167300E-1,-2.375773668E0,-9.111868858E0,-1.945364833E0
6.024419900E-1,-2.339881420E0,-9.241081238E0,-1.835294962E0
6.049671990E-1,-2.263311148E0,-9.423234940E0,-1.816152334E0
6.074924070E-1,-2.145763636E0,-9.619445801E0,-1.799402595E0
6.100176150E-1,-1.985444546E0,-9.854242325E0,-1.818545222E0
6.125428240E-1,-1.808076620E0,-1.009621620E1,-1.813759565E0
6.150680320E-1,-1.585245013E0,-1.037408257E1,-1.832902193E0
6.175932400E-1,-1.237986565E0,-1.068544865E1,-1.856830359E0
6.201184490E-1,-8.955138922E-1,-1.099950695E1,-1.883151412E0
6.226417300E-1,-5.312066078E-1,-1.132044411E1,-1.892722726E0
6.251631360E-1,-1.935195327E-1,-1.164616680E1,-1.880758643E0
6.276845940E-1,1.058823988E-1,-1.186660576E1,-1.873580098E0
6.302060010E-1,3.454637825E-1,-1.211336517E1,-1.878365755E0
6.327274590E-1,5.467599630E-1,-1.229522038E1,-1.854437590E0
6.352488650E-1,6.640082598E-1,-1.241755295E1,-1.942971945E0
6.377703240E-1,7.384848595E-1,-1.248933792E1,-1.957328916E0
6.402917300E-1,7.190431952E-1,-1.257069397E1,-1.986042738E0
6.428131880E-1,6.999006271E-1,-1.257787228E1,-2.065304995E0
6.453345940E-1,7.142575383E-1,-1.259492111E1,-2.060519457E0
6.478560010E-1,7.166503668E-1,-1.259731388E1,-2.125125647E0
6.503774590E-1,7.070791125E-1,-1.259492111E1,-2.122732878E0
6.529442820E-1,7.719843984E-1,-1.261645603E1,-2.170589209E0
6.554656880E-1,7.911269665E-1,-1.259252834E1,-2.213660002E0
6.579871470E-1,7.695915699E-1,-1.255633640E1,-2.276172638E0
6.605085530E-1,7.118647099E-1,-1.258774281E1,-2.350350142E0
6.630300110E-1,6.640082598E-1,-1.259252834E1,-2.489133835E0
6.655514170E-1,5.395814776E-1,-1.263799191E1,-2.611466885E0
6.680728760E-1,4.411766827E-1,-1.271456242E1,-2.774178743E0
6.705942820E-1,3.454637825E-1,-1.286560917E1,-2.901297569E0
6.731157400E-1,1.513460279E-1,-1.302832127E1,-2.989831924E0
6.756371470E-1,5.383851007E-3,-1.315543938E1,-3.097808123E0
6.781585530E-1,-9.541380405E-2,-1.332054424E1,-3.186342478E0
6.806800110E-1,-1.767697781E-1,-1.346919823E1,-3.229413271E0
6.832467820E-1,-2.054836452E-1,-1.370399475E1,-3.183949709E0
6.857681880E-1,-2.437688112E-1,-1.389063454E1,-3.097808123E0
6.882896470E-1,-2.437688112E-1,-1.411346626E1,-2.958725214E0
6.908110530E-1,-2.294118702E-1,-1.440329647E1,-2.858226538E0
6.933325110E-1,-2.365903407E-1,-1.469073486E1,-2.714358091E0
6.958539170E-1,-1.528415531E-1,-1.500000668E1,-2.628216505E0
6.983753760E-1,-6.400800496E-2,-1.536401463E1,-2.441277266E0
7.008967820E-1,3.649054468E-2,-1.566102409E1,-2.264208317E0
7.034182400E-1,1.154536903E-1,-1.601067543E1,-2.127518415E0
7.059396470E-1,1.728814393E-1,-1.634626961E1,-1.966900229E0
7.084610530E-1,2.617149651E-1,-1.663849258E1,-1.782652855E0
7.109825110E-1,2.976073027E-1,-1.678206253E1,-1.624427438E0
7.135492820E-1,2.808575630E-1,-1.681077576E1,-1.356132269E0
7.160706880E-1,2.880360186E-1,-1.670788383E1,-9.969097376E-1
7.185921470E-1,2.904288471E-1,-1.659033585E1,-7.166503668E-1
7.211135530E-1,2.593221664E-1,-1.629332733E1,-4.196412563E-1
7.236350110E-1,2.377867550E-1,-1.589103413E1,-2.662015148E-2
7.261564170E-1,2.114657015E-1,-1.550997734E1,3.804588020E-1
7.286778760E-1,1.345962733E-1,-1.511246967E1,6.655037999E-1
7.311992820E-1,-4.247260094E-2,-1.478674698E1,8.356932998E-1
7.337207400E-1,-3.299104273E-1,-1.457348633E1,9.508479238E-1
7.362421470E-1,-6.774678826E-1,-1.453520107E1,1.015454054E0
7.387635530E-1,-1.168594718E0,-1.459023571E1,1.046560764E0
7.412850110E-1,-1.666600943E0,-1.466680622E1,9.409775138E-1
7.438518340E-1,-2.164906263E0,-1.482503223E1,7.734799385E-1
7.463732400E-1,-2.691925526E0,-1.497338676E1,5.434698462E-1
7.488946990E-1,-3.240479946E0,-1.506700611E1,1.938186288E-1
7.514161050E-1,-3.664607763E0,-1.523689651E1,-1.561316848E-1
7.539375630E-1,-3.971188307E0,-1.536162186E1,-4.914259613E-1
7.564589690E-1,-4.347160339E0,-1.549083424E1,-8.386843204E-1
7.589804280E-1,-4.637290478E0,-1.557727528E1,-1.157228827E0
7.615018340E-1,-4.903192520E0,-1.562991714E1,-1.531107426E0
7.640232920E-1,-5.053940296E0,-1.563948917E1,-1.887937069E0
7.665446990E-1,-5.092225552E0,-1.560120392E1,-2.137089729E0
7.690661050E-1,-5.058726311E0,-1.550519180E1,-2.371885538E0
7.715875630E-1,-5.070690155E0,-1.525873089E1,-2.601895571E0
7.741543860E-1,-5.013262749E0,-1.499522114E1,-2.762214661E0
7.766757920E-1,-4.922335148E0,-1.463091373E1,-2.949153900E0
7.791972510E-1,-4.915156841E0,-1.421665668E1,-3.073879719E0
7.817186570E-1,-4.939085007E0,-1.377577877E1,-3.215056419E0
7.842401150E-1,-4.924727917E0,-1.336361504E1,-3.387638569E0
7.867615220E-1,-4.876572609E0,-1.301875019E1,-3.540779352E0
7.892829800E-1,-4.948656559E0,-1.272174072E1,-3.636791229E0
7.918043860E-1,-4.965405941E0,-1.248215961E1,-3.763610840E0
7.943258440E-1,-4.948656559E0,-1.228325558E1,-3.847359657E0
7.968472510E-1,-4.943870544E0,-1.214925766E1,-3.902693748E0
7.993686570E-1,-4.972584724E0,-1.199103260E1,-4.015156269E0
8.018901150E-1,-4.955834866E0,-1.187856960E1,-4.106083870E0
8.044568860E-1,-4.893621445E0,-1.179482079E1,-4.204488277E0
8.069782920E-1,-4.764110088E0,-1.175623703E1,-4.374378681E0
8.094997510E-1,-4.627718925E0,-1.174666500E1,-4.561318398E0
8.120211570E-1,-4.488636017E0,-1.168205929E1,-4.709972382E0
8.145426150E-1,-4.339982033E0,-1.163659573E1,-4.915754795E0
8.170640220E-1,-4.215555191E0,-1.154566860E1,-5.140979290E0
8.195854800E-1,-4.076472282E0,-1.139462185E1,-5.335097313E0
8.221068860E-1,-3.913760424E0,-1.130369377E1,-5.490929604E0
8.246283440E-1,-3.800998688E0,-1.116461182E1,-5.696712494E0
8.271497510E-1,-3.738785267E0,-1.098993492E1,-5.881258965E0
8.296711570E-1,-3.702893019E0,-1.085324574E1,-6.008078575E0
8.321926150E-1,-3.607180119E0,-1.069980526E1,-6.072983742E0
8.347594380E-1,-3.566502094E0,-1.049880886E1,-6.154339790E0
8.372808440E-1,-3.535096407E0,-1.027119160E1,-6.183053493E0
8.398023030E-1,-3.576073408E0,-1.005793095E1,-6.262016773E0
8.423237090E-1,-3.714857101E0,-9.777671814E0,-6.343671799E0
8.448451670E-1,-3.853940010E0,-9.509376526E0,-6.484848499E0
8.473665740E-1,-4.064508438E0,-9.286544800E0,-6.690930367E0
8.498880320E-1,-4.258625984E0,-9.097212791E0,-6.908976078E0
8.524094380E-1,-4.397708893E0,-9.008678436E0,-7.098308563E0
8.549308970E-1,-4.584349155E0,-8.946464539E0,-7.344769001E0
8.574523030E-1,-4.780859470E0,-8.984749794E0,-7.654041290E0
8.599737090E-1,-4.840680122E0,-9.269794464E0,-8.085048676E0
8.624951670E-1,-4.924727917E0,-9.638887405E0,-8.554639816E0
8.650619380E-1,-4.994120121E0,-1.000528908E1,-8.894720078E0
8.675833440E-1,-5.039583683E0,-1.043898773E1,-9.060123444E0
8.701048030E-1,-4.994120121E0,-1.096570778E1,-8.990732193E0
8.726262090E-1,-4.783252239E0,-1.154566860E1,-8.753543854E0
8.751476670E-1,-4.512564182E0,-1.209661579E1,-8.336593628E0
8.776690740E-1,-4.184448719E0,-1.271456242E1,-7.835896015E0
8.801905320E-1,-3.844368696E0,-1.324876022E1,-7.234699249E0
8.827119380E-1,-3.511168242E0,-1.378056431E1,-6.662216663E0
8.852333970E-1,-3.223730326E0,-1.421904945E1,-6.089733601E0
8.877548030E-1,-2.747259617E0,-1.451366615E1,-5.560321808E0
8.902762090E-1,-2.100300074E0,-1.498804283E1,-4.781756878E0
8.927976670E-1,-1.403091431E0,-1.556531143E1,-3.785146236E0
8.953644900E-1,-1.017547846E0,-1.604895973E1,-2.793321371E0
8.978858970E-1,-7.420741320E-1,-1.642523193E1,-1.897508383E0
9.004073550E-1,-7.420741320E-1,-1.660020638E1,-1.145264745E0
9.029287610E-1,-7.636095285E-1,-1.664806366E1,-3.068794906E-1
9.054502190E-1,-4.522434771E-1,-1.677966881E1,5.937191248E-1
9.079716260E-1,8.434699476E-2,-1.681316757E1,1.472782373E0
9.104930840E-1,6.520441771E-1,-1.669831276E1,2.208276272E0
9.130144900E-1,1.045065284E0,-1.646830368E1,2.594118834E0
9.155359490E-1,1.306182027E0,-1.602981758E1,2.735295296E0
9.180573550E-1,1.476072431E0,-1.552941895E1,2.603690147E0
9.205787610E-1,1.658226132E0,-1.493510151E1,2.469393015E0
9.231002190E-1,1.859522343E0,-1.436501122E1,2.383251429E0
9.256669900E-1,2.072483540E0,-1.382602787E1,2.478964329E0
9.281883970E-1,2.314457655E0,-1.336840057E1,2.804687262E0
9.307098550E-1,2.522932291E0,-1.297807217E1,3.274278641E0
9.332312610E-1,2.685943365E0,-1.262363529E1,3.772583961E0
9.357640220E-1,2.731407166E0,-1.237926769E1,4.266103745E0
9.382854280E-1,2.721835852E0,-1.205115223E1,4.601397991E0
9.408068860E-1,2.570788860E0,-1.168923759E1,4.862514496E0
9.433968860E-1,2.345863581E0,-1.135155106E1,4.915156841E0
9.459183440E-1,2.084746838E0,-1.101625633E1,4.764409065E0
9.484397510E-1,1.794616938E0,-1.075035381E1,4.543970108E0
9.509612090E-1,1.430608869E0,-1.060169983E1,4.199104786E0
9.534826150E-1,1.112064362E0,-1.056580734E1,3.815654755E0
9.560040740E-1,9.011968374E-1,-1.057537842E1,3.307778120E0
9.585254800E-1,6.472585201E-1,-1.065194893E1,2.819044113E0
9.610469380E-1,2.832503915E-1,-1.074317551E1,2.337787628E0
9.635683440E-1,-1.073779166E-1,-1.083410263E1,1.729113460E0
9.660897510E-1,-5.383850932E-1,-1.092981529E1,1.072881818E0
9.686112090E-1,-1.074975610E0,-1.089392376E1,2.775674164E-1
9.711207400E-1,-1.681257010E0,-1.079821014E1,-4.459623098E-1
9.736421470E-1,-2.256132603E0,-1.063759232E1,-1.032802105E0
9.761636050E-1,-2.667997360E0,-1.044855881E1,-1.633998752E0
9.786850110E-1,-3.032304525E0,-1.018983555E1,-2.007877350E0
9.812064690E-1,-3.362813234E0,-9.830313683E0,-2.077269077E0
9.837278760E-1,-3.671786308E0,-9.423234940E0,-2.194517374E0
9.862493340E-1,-3.928117514E0,-9.015856743E0,-2.192124605E0
9.887707400E-1,-4.160520554E0,-8.488837242E0,-2.201695919E0
9.912921990E-1,-4.414458752E0,-8.004889488E0,-2.324028969E0
9.938136050E-1,-4.591527462E0,-7.566703320E0,-2.453241348E0
9.963350110E-1,-4.661218643E0,-7.087540627E0,-2.640180588E0
9.988564690E-1,-4.692325115E0,-6.684948444E0,-2.767000198E0
1.001423292E0,-4.670789719E0,-6.325725555E0,-2.882154942E0
1.003944699E0,-4.627718925E0,-6.011966705E0,-3.013760090E0
1.006466157E0,-4.601099014E0,-5.674279690E0,-3.107379198E0
1.008987563E0,-4.426422596E0,-5.348257542E0,-3.289233923E0
1.011509022E0,-4.241876125E0,-5.120939732E0,-3.610470295E0
1.014030428E0,-4.086342812E0,-4.929214478E0,-3.940979004E0
1.016551886E0,-3.980759621E0,-4.744668007E0,-4.321736813E0
1.019073292E0,-3.731606960E0,-4.625027180E0,-4.721936226E0
1.021594751E0,-3.369991541E0,-4.526622295E0,-5.126622677E0
1.024116157E0,-2.929114103E0,-4.457230568E0,-5.550750256E0
1.026637563E0,-2.627319336E0,-4.373481750E0,-5.874080658E0
1.029159022E0,-2.296810627E0,-4.260719776E0,-5.981757641E0
1.031725792E0,-1.954337835E0,-4.188935280E0,-5.950650692E0
1.034247199E0,-1.625923038E0,-4.193720818E0,-5.828616619E0
1.036768657E0,-1.381555915E0,-4.176970959E0,-5.596213818E0
1.039290063E0,-1.051047325E0,-4.153042793E0,-5.215456009E0
1.041811522E0,-8.306085467E-1,-4.155435562E0,-4.681258202E0
1.044332928E0,-7.372884750E-1,-4.109972000E0,-4.082155228E0
1.046854386E0,-7.109674215E-1,-3.992424488E0,-3.480958700E0
1.049375792E0,-6.559324861E-1,-3.836891174E0,-2.827120066E0
1.051897251E0,-6.343970895E-1,-3.602095366E0,-2.297708035E0
1.054418657E0,-6.846463680E-1,-3.451048374E0,-1.792224169E0
1.056940063E0,-7.588238716E-1,-3.240479946E0,-1.413560033E0
1.059461522E0,-8.377870321E-1,-3.029612541E0,-1.097408295E0
1.062028292E0,-9.936196208E-1,-2.732603550E0,-8.793623447E-1
1.064549699E0,-1.118046403E0,-2.519343138E0,-6.397809386E-1
1.067071157E0,-1.237986565E0,-2.306082726E0,-4.746761918E-1
1.069592563E0,-1.400698543E0,-2.107179403E0,-2.446661144E-1
1.072114022E0,-1.539781332E0,-1.932503343E0,-1.944168471E-2
1.074635428E0,-1.724327803E0,-1.795813441E0,1.360917836E-1
1.077156886E0,-1.937289000E0,-1.570588946E0,1.746760458E-1
1.079678292E0,-2.160120726E0,-1.393520117E0,1.698904037E-1
1.082199751E0,-2.313560486E0,-1.364806175E0,1.555334777E-1
1.084721157E0,-2.454736948E0,-1.309472203E0,1.603191197E-1
1.087242563E0,-2.600998163E0,-1.304686546E0,7.627122104E-2
1.089764022E0,-2.715853691E0,-1.297508121E0,-2.901297435E-2
1.092330844E0,-2.823829889E0,-1.314257860E0,-1.103689447E-1
1.094852251E0,-2.835793972E0,-1.467697620E0,-1.776670814E-1
1.097373709E0,-2.866900682E0,-1.601695657E0,-3.140579760E-1
1.099895115E0,-2.943470955E0,-1.556231976E0,-4.722833633E-1
1.102416574E0,-2.924328327E0,-1.690529227E0,-5.727819204E-1
1.104937980E0,-2.886043310E0,-1.838884234E0,-6.254240274E-1
1.107459438E0,-2.895614386E0,-1.913360834E0,-7.118647099E-1
1.109980844E0,-3.005684376E0,-2.059323072E0,-7.956135273E-1
1.112502303E0,-3.087339401E0,-2.200798512E0,-9.777671695E-1
1.115023709E0,-3.025125980E0,-2.334796667E0,-1.025623560E0
1.117545115E0,-2.955435038E0,-2.435594320E0,-1.025623560E0
1.120066574E0,-2.957827806E0,-2.528914452E0,-1.092622638E0
1.122633344E0,-3.070589542E0,-2.569592476E0,-1.243669510E0
1.125154751E0,-3.056232691E0,-2.677568436E0,-1.351346612E0
1.127676209E0,-3.080160856E0,-2.708675146E0,-1.502393484E0
1.130197615E0,-3.037090063E0,-2.770888567E0,-1.674676776E0
1.132719074E0,-3.082553864E0,-2.830709219E0,-1.799402595E0
1.135240480E0,-3.149552822E0,-2.902493954E0,-1.873580098E0
1.137761938E0,-3.283849955E0,-2.993720293E0,-1.935793519E0
1.140283344E0,-3.386741400E0,-3.005684376E0,-2.048555374E0
1.142804803E0,-3.592823267E0,-2.998505831E0,-2.196910381E0
1.145326209E0,-3.705285788E0,-3.010469913E0,-2.335993052E0
1.147847615E0,-3.750749588E0,-3.094218731E0,-2.448455811E0
1.150369074E0,-3.861118555E0,-3.115754128E0,-2.570788860E0
1.152935844E0,-3.983152390E0,-3.041576624E0,-2.747857809E0
1.155457251E0,-4.078865528E0,-2.979363203E0,-2.872583628E0
1.157978709E0,-4.234697819E0,-2.957827806E0,-3.095415115E0
1.160500115E0,-4.392923355E0,-2.790031195E0,-3.279662609E0
1.163021574E0,-4.435994148E0,-2.684746981E0,-3.428316593E0
1.165542980E0,-4.421637058E0,-2.586342096E0,-3.538386583E0
1.168064438E0,-4.409673214E0,-2.466701031E0,-3.648755312E0
1.170585844E0,-4.380959034E0,-2.282154560E0,-3.749253988E0
1.173107303E0,-4.342374802E0,-2.179263115E0,-3.837788343E0
1.175628709E0,-4.301696777E0,-2.009073734E0,-4.003192425E0
1.178150115E0,-4.284946918E0,-1.922932148E0,-4.108476639E0
1.180671574E0,-4.155734539E0,-1.896611094E0,-4.247559071E0
1.183238344E0,-4.107878208E0,-1.862812400E0,-4.324129581E0
1.185759751E0,-4.021437645E0,-1.899003863E0,-4.422534466E0
1.188281209E0,-3.887439489E0,-1.908575177E0,-4.491926193E0
1.190802615E0,-3.818047523E0,-2.028216362E0,-4.499104977E0
1.193324074E0,-3.733999729E0,-2.097608089E0,-4.594817638E0
1.195845480E0,-3.669393539E0,-2.135893345E0,-4.637888432E0
1.198366938E0,-3.635894060E0,-2.203191519E0,-4.630710125E0
1.200888344E0,-3.602394581E0,-2.308475733E0,-4.647459984E0
1.203409803E0,-3.573680639E0,-2.392224550E0,-4.623531342E0
1.205931209E0,-3.542274714E0,-2.538485765E0,-4.668995380E0
1.208452615E0,-3.554538012E0,-2.665305376E0,-4.772185802E0
1.210974074E0,-3.556930780E0,-2.761317253E0,-4.829613209E0
1.213540844E0,-3.585644722E0,-2.931207657E0,-5.047659397E0
1.216062251E0,-3.588037491E0,-3.087040424E0,-5.258526802E0
1.218583709E0,-3.592823267E0,-3.276372433E0,-5.536393166E0
1.221105115E0,-3.604787350E0,-3.537489176E0,-5.929115295E0
1.223626574E0,-3.561716557E0,-3.817748547E0,-6.425027847E0
1.226147980E0,-3.597608805E0,-4.016652107E0,-7.062117100E0
1.228669438E0,-3.607180119E0,-4.236791611E0,-7.663612843E0
1.231190844E0,-3.554538012E0,-4.495515347E0,-8.260024071E0
1.233712303E0,-3.523132324E0,-4.742275238E0,-8.827720642E0
1.236233709E0,-3.530310631E0,-4.972285271E0,-9.369096756E0
1.238755115E0,-3.564109325E0,-5.207081318E0,-9.860223770E0
1.241276574E0,-3.621536970E0,-5.413163185E0,-1.052602673E1
1.243843344E0,-3.662214994E0,-5.604588985E0,-1.131894875E1
1.246364751E0,-3.659822226E0,-5.872884274E0,-1.223659611E1
1.248886209E0,-3.693321705E0,-6.138786316E0,-1.334327602E1
1.251407615E0,-3.995116472E0,-6.380760670E0,-1.432792282E1
1.253929074E0,-4.584349155E0,-6.352046967E0,-1.501286793E1
1.256450480E0,-5.360520840E0,-6.443273067E0,-1.580100441E1
1.258971938E0,-6.141478539E0,-6.725925446E0,-1.655803299E1
1.261493344E0,-6.893722057E0,-7.077969551E0,-1.691964912E1
1.264014803E0,-7.617251873E0,-7.585845947E0,-1.637348747E1
1.266536209E0,-8.395816803E0,-8.129614830E0,-1.437338638E1
1.269057615E0,-9.375378609E0,-8.531908035E0,-1.120409298E1
1.271579074E0,-1.032173920E1,-8.752346992E0,-7.416852951E0
1.274145844E0,-1.074796104E1,-9.272188187E0,-3.869194269E0
1.276667251E0,-1.062831974E1,-9.998110771E0,-1.308275819E0
1.279188709E0,-1.019222832E1,-1.085803127E1,-4.576273263E-2
1.281710115E0,-9.643673897E0,-1.169641590E1,-1.680957973E-1
1.284231574E0,-9.277272224E0,-1.255872917E1,-1.703390598E0
1.286752980E0,-9.080761909E0,-1.330140209E1,-4.463212490E0
1.289274438E0,-8.908478737E0,-1.401536083E1,-7.682755470E0
1.291795844E0,-8.673683167E0,-1.471974754E1,-1.084726334E1
1.294317303E0,-8.618349075E0,-1.532573032E1,-1.312762356E1
1.296838709E0,-8.903693199E0,-1.578545094E1,-1.407398415E1
1.299360115E0,-9.145368576E0,-1.612104416E1,-1.403540039E1
1.301881574E0,-9.198308945E0,-1.628614998E1,-1.386790276E1
1.304448344E0,-9.186345100E0,-1.615454292E1,-1.390618801E1
1.306969751E0,-9.064012527E0,-1.588146305E1,-1.375274849E1
1.309491209E0,-8.527421951E0,-1.533769417E1,-1.280189991E1
1.312012615E0,-7.595716476E0,-1.433629799E1,-1.087597752E1
1.314534074E0,-6.354738712E0,-1.283181095E1,-8.360522270E0
1.317055480E0,-4.835894585E0,-1.111914730E1,-5.694319725E0
1.319576938E0,-3.391526937E0,-9.466305733E0,-3.399602890E0
1.322098344E0,-2.107478619E0,-7.947461128E0,-1.904686809E0
1.324619803E0,-1.036690354E0,-6.627520561E0,-1.236491084E0
1.327141209E0,-3.972085714E-1,-5.487340450E0,-1.207777262E0
1.329662615E0,-2.054836452E-1,-4.603491783E0,-1.425524116E0
1.332184074E0,-2.724826932E-1,-3.894318819E0,-1.686640859E0
1.334750844E0,-5.814558864E-1,-3.324228764E0,-1.854437590E0
1.337272251E0,-8.955138922E-1,-3.005684376E0,-1.928615093E0
1.339793709E0,-1.132403374E0,-2.852244616E0,-1.792224169E0
1.342315115E0,-1.293021560E0,-2.797209740E0,-1.545464277E0
1.344836574E0,-1.439282775E0,-2.773281336E0,-1.238883972E0
1.347357980E0,-1.561316729E0,-2.766103029E0,-1.173978567E0
1.349879438E0,-1.712363720E0,-2.782852650E0,-1.384846091E0
1.352400844E0,-1.985444546E0,-2.907279491E0,-1.832902193E0
1.354922303E0,-2.275275230E0,-3.137289524E0,-2.376671076E0
1.357443709E0,-2.598605394E0,-3.441477060E0,-2.920439959E0
1.359965115E0,-2.960220814E0,-3.745664835E0,-3.356531858E0
1.362486574E0,-3.326920748E0,-4.133900166E0,-3.588635683E0
1.365053397E0,-3.664607763E0,-4.603491783E0,-3.660719633E0
1.367574803E0,-3.880260944E0,-5.108975410E0,-3.593421459E0
1.370096261E0,-3.923331738E0,-5.681458473E0,-3.406781197E0
1.372617667E0,-3.837190151E0,-6.337689877E0,-3.183949709E0
1.375139126E0,-3.647858143E0,-7.022934437E0,-2.889333248E0
1.377660532E0,-3.436990738E0,-7.765606880E0,-2.733500719E0
1.380181990E0,-3.250051260E0,-8.472087860E0,-2.585145712E0
1.382703397E0,-3.075375319E0,-9.178867340E0,-2.434098721E0
1.385224855E0,-2.835793972E0,-9.921540260E0,-2.345564365E0
1.387746261E0,-2.675175667E0,-1.058016396E1,-2.276172638E0
1.390267667E0,-2.574677229E0,-1.121246815E1,-2.276172638E0
1.392789126E0,-2.526820660E0,-1.179482079E1,-2.180160522E0
1.395355897E0,-2.452344179E0,-1.230239868E1,-2.024626970E0
1.397877303E0,-2.481357098E0,-1.277677536E1,-1.952543259E0
1.400398761E0,-2.541177750E0,-1.314586830E1,-1.969292998E0
1.402920167E0,-2.624926329E0,-1.342612743E1,-2.074876308E0
1.405441626E0,-2.795115948E0,-1.361276817E1,-2.230409861E0
1.407963032E0,-2.914757013E0,-1.374228001E1,-2.462812662E0
1.410484490E0,-3.010469913E0,-1.391964722E1,-2.805584431E0
1.413005897E0,-3.013161898E0,-1.386909962E1,-3.025724173E0
1.415527355E0,-2.993720293E0,-1.383320713E1,-3.308376312E0
1.418048761E0,-2.921935558E0,-1.377099323E1,-3.550350666E0
1.420570167E0,-2.804687262E0,-1.356969738E1,-3.799503326E0
1.423091626E0,-2.569891453E0,-1.337079430E1,-3.998406649E0
1.425658397E0,-2.270489693E0,-1.322004604E1,-4.149453640E0
1.428179803E0,-2.006979942E0,-1.294696522E1,-4.185346127E0
1.430701261E0,-1.776969910E0,-1.268106270E1,-4.273880482E0
1.433222667E0,-1.546959877E0,-1.242951679E1,-4.338486671E0
1.435744126E0,-1.304985642E0,-1.206790161E1,-4.420141697E0
1.438265532E0,-1.036690354E0,-1.177567863E1,-4.511068821E0
1.440786990E0,-7.468597889E-1,-1.154566860E1,-4.582853794E0
1.443308397E0,-5.144568682E-1,-1.124148083E1,-4.621138573E0
1.445829855E0,-2.820539773E-1,-1.100189972E1,-4.587639332E0
1.448351261E0,-2.093719877E-2,-1.076471043E1,-4.534996986E0
1.450872667E0,2.210369855E-1,-1.046291637E1,-4.448855400E0
1.453394126E0,4.701896608E-1,-1.027836990E1,-4.328915119E0
1.455960584E0,5.946164131E-1,-1.011057281E1,-4.206881523E0
1.458484803E0,5.970092416E-1,-9.894919395E0,-4.149453640E0
1.461009022E0,5.874379873E-1,-9.717850685E0,-4.094119549E0
1.463533292E0,5.778666735E-1,-9.535696983E0,-4.005585194E0
1.466057511E0,5.491527915E-1,-9.456734657E0,-3.929014683E0
1.468581730E0,4.244269133E-1,-9.372985840E0,-3.840181351E0
1.471105949E0,3.478565812E-1,-9.305686951E0,-3.720540047E0
1.473630219E0,1.968096644E-1,-9.243474007E0,-3.667897940E0
1.476154438E0,-4.247260094E-2,-9.195617676E0,-3.734897137E0
1.478678657E0,-2.078764737E-1,-9.195617676E0,-3.821038723E0
1.481202876E0,-3.373879790E-1,-9.164510727E0,-3.852145433E0
1.483727147E0,-5.670989752E-1,-9.142974854E0,-3.847359657E0
1.486263136E0,-8.042874932E-1,-9.078069687E0,-3.835395575E0
1.488787355E0,-1.041476011E0,-9.104690552E0,-3.794717550E0
1.491311574E0,-1.297807217E0,-9.111868858E0,-3.823431492E0
1.493835844E0,-1.558923960E0,-9.082855225E0,-3.751646757E0
1.496360063E0,-1.803290963E0,-9.090034485E0,-3.646362543E0
1.498884282E0,-1.992623091E0,-9.207581520E0,-3.461816072E0
1.501408501E0,-2.157727718E0,-9.281759262E0,-3.234198809E0
1.503932772E0,-2.256132603E0,-9.332008362E0,-2.977867842E0
1.506456990E0,-2.335095882E0,-9.382556915E0,-2.618645191E0
1.508981209E0,-2.327917337E0,-9.435198784E0,-2.216052771E0
1.511505428E0,-2.299203396E0,-9.466305733E0,-1.892722726E0
1.514029699E0,-2.370988131E0,-9.468698502E0,-1.660319805E0
1.516605063E0,-2.486142635E0,-9.475876808E0,-1.552642822E0
1.519129282E0,-2.536391973E0,-9.495018959E0,-1.418345571E0
1.521653553E0,-2.555534601E0,-9.461520195E0,-1.238883972E0
1.524177772E0,-2.553141832E0,-9.401699066E0,-9.729815125E-1
1.526701990E0,-2.562713146E0,-9.351150513E0,-1.020837903E0
1.529226209E0,-2.610569477E0,-9.315258980E0,-1.140479088E0
1.531750480E0,-2.612962246E0,-9.300901413E0,-1.272383451E0
1.534274699E0,-2.591426849E0,-9.248259544E0,-1.344168067E0
1.536798917E0,-2.512463808E0,-9.226723671E0,-1.464108348E0
1.539323136E0,-2.473879576E0,-9.135796547E0,-1.571785331E0
1.541847407E0,-2.375773668E0,-9.039784431E0,-1.600499272E0
1.544371626E0,-2.289632082E0,-8.936893463E0,-1.595713615E0
1.546868136E0,-2.215454578E0,-8.848359108E0,-1.624427438E0
1.549392355E0,-2.071586132E0,-8.769096375E0,-1.612463355E0
1.551916574E0,-1.944766641E0,-8.627920151E0,-1.600499272E0
1.554440844E0,-1.822433591E0,-8.498408318E0,-1.559821248E0
1.556965063E0,-1.693221092E0,-8.395517349E0,-1.521536112E0
1.559489282E0,-1.566102386E0,-8.294719696E0,-1.392024517E0
1.562013501E0,-1.434497118E0,-8.153543472E0,-1.281954765E0
1.564537772E0,-1.357627749E0,-8.069794655E0,-1.106979609E0
1.567061990E0,-1.379163146E0,-7.949853897E0,-9.442676306E-1
1.569586209E0,-1.367199063E0,-7.803892136E0,-8.171489239E-1
1.572110428E0,-1.417747378E0,-7.683951855E0,-6.759724021E-1
1.574634699E0,-1.463211060E0,-7.607381344E0,-5.632106066E-1
1.577170636E0,-1.479960799E0,-7.552346706E0,-3.810569942E-1
1.579694855E0,-1.530210137E0,-7.545167923E0,-2.901297510E-1
1.582219074E0,-1.597209096E0,-7.444370270E0,-1.250249892E-1
1.584743344E0,-1.652244091E0,-7.384549618E0,6.909275055E-2
1.587267563E0,-1.630708575E0,-7.444370270E0,2.823530734E-1
1.589791782E0,-1.597209096E0,-7.489833832E0,3.469592929E-1
1.592316001E0,-1.558923960E0,-7.535596848E0,2.584248483E-1
1.594840272E0,-1.503889084E0,-7.600203037E0,3.320041299E-2
1.597364490E0,-1.549352646E0,-7.703094482E0,-2.566302419E-1
1.599888709E0,-1.537388563E0,-7.755736351E0,-5.416752100E-1
1.602412928E0,-1.580459356E0,-7.758129120E0,-8.458628058E-1
1.604937199E0,-1.647458434E0,-7.753343582E0,-1.116550922E0
1.607473188E0,-1.592423439E0,-7.811070442E0,-1.375274777E0
1.609997407E0,-1.556531072E0,-7.854141235E0,-1.559821248E0
1.612521626E0,-1.448854089E0,-7.918747425E0,-1.693819284E0
1.615045897E0,-1.360020518E0,-7.961818218E0,-1.811366796E0
1.617570115E0,-1.302592874E0,-7.961818218E0,-1.897508383E0
1.620094334E0,-1.168594718E0,-7.906783104E0,-2.036591291E0
1.622618553E0,-1.084546804E0,-7.937890053E0,-2.182553291E0
1.625142824E0,-1.036690354E0,-7.925925732E0,-2.321636200E0
1.627667042E0,-1.058225870E0,-7.801498890E0,-2.460419893E0
1.630191261E0,-1.094118118E0,-7.710272789E0,-2.652144909E0
1.632715480E0,-1.132403374E0,-7.633702278E0,-2.807977438E0
1.635239751E0,-1.163809061E0,-7.566703320E0,-2.975475073E0
1.637775688E0,-1.233201027E0,-7.451549053E0,-3.037688255E0
1.640299907E0,-1.259521961E0,-7.370193005E0,-3.145664454E0
1.642824126E0,-1.348056436E0,-7.293622494E0,-3.088236809E0
1.645348397E0,-1.362413406E0,-7.262516022E0,-3.109772205E0
1.647872615E0,-1.412961721E0,-7.173682213E0,-3.088236809E0
1.650396834E0,-1.513460279E0,-7.097112179E0,-3.073879719E0
1.652921053E0,-1.637887120E0,-6.994220734E0,-2.980260611E0
1.655445324E0,-1.678864241E0,-6.895815849E0,-2.853441000E0
1.657969542E0,-1.724327803E0,-6.855137825E0,-2.860619545E0
1.660493761E0,-1.848754644E0,-6.785746098E0,-2.858226538E0
1.663017980E0,-1.973480463E0,-6.699604511E0,-2.803191662E0
1.665542251E0,-2.023729801E0,-6.608377934E0,-2.793321371E0
1.668078188E0,-2.054836512E0,-6.558128834E0,-2.771785975E0
1.670602407E0,-2.148156643E0,-6.572485447E0,-2.781357288E0
1.673126626E0,-2.150549412E0,-6.560521603E0,-2.848655462E0
1.675650897E0,-2.169692039E0,-6.558128834E0,-2.855833769E0
1.678175115E0,-2.244168520E0,-6.548557281E0,-2.925225735E0
1.680699334E0,-2.380559444E0,-6.558128834E0,-2.982653379E0
1.683223553E0,-2.356631279E0,-6.613163471E0,-3.104986429E0
1.685747824E0,-2.390130758E0,-6.694818497E0,-3.212663412E0
1.688272042E0,-2.392523527E0,-6.833602428E0,-3.320340633E0
1.690796261E0,-2.349452734E0,-7.003791809E0,-3.442673683E0
1.693320480E0,-2.306381941E0,-7.147361279E0,-3.557528973E0
1.695844751E0,-2.241775751E0,-7.284051418E0,-3.648755312E0
1.698380688E0,-2.200798512E0,-7.463512897E0,-3.768396616E0
1.700904907E0,-2.066800594E0,-7.607381344E0,-3.859323740E0
1.703429126E0,-1.932503343E0,-7.782356739E0,-3.962514400E0
1.705953397E0,-1.817647934E0,-7.988139153E0,-4.015156269E0
1.708477615E0,-1.664208174E0,-8.251648903E0,-4.058227062E0
1.711001834E0,-1.482353687E0,-8.429017067E0,-4.060619831E0
1.713526053E0,-1.249950767E0,-8.699705124E0,-4.043870449E0
1.716050324E0,-1.065404296E0,-8.996713638E0,-4.010370731E0
1.718574542E0,-9.457631707E-1,-9.241081238E0,-3.938585997E0
1.721098761E0,-8.545367718E-1,-9.526125908E0,-3.852145433E0
1.723622980E0,-7.779664397E-1,-9.780064583E0,-3.818645954E0
1.726147251E0,-7.181459069E-1,-1.006032372E1,-3.734897137E0
1.728683240E0,-7.181459069E-1,-1.027119160E1,-3.646362543E0
1.731207459E0,-7.037889361E-1,-1.045095158E1,-3.504886866E0
1.733731678E0,-6.128616929E-1,-1.061366367E1,-3.404388428E0
1.736255949E0,-5.455635786E-1,-1.073599720E1,-3.291626692E0
1.738780167E0,-4.570291340E-1,-1.087956619E1,-3.128914595E0
1.741304386E0,-4.091726840E-1,-1.100189972E1,-2.944368362E0
1.743828605E0,-3.179463148E-1,-1.108804131E1,-2.771785975E0
1.746352876E0,-2.341975123E-1,-1.114786148E1,-2.580360174E0
1.748877094E0,-1.791625917E-1,-1.114307594E1,-2.292922258E0
1.751401313E0,-1.432702541E-1,-1.116221809E1,-2.127518415E0
1.753925532E0,-1.025922745E-1,-1.115025425E1,-1.914258122E0
1.756449803E0,-5.204389244E-2,-1.109521961E1,-1.741974831E0
1.758985740E0,-4.007977992E-2,-1.102582741E1,-1.545464277E0
1.761509959E0,-3.290131316E-2,-1.090110207E1,-1.439880967E0
1.764034178E0,-8.584251255E-2,-1.079581738E1,-1.377667665E0
1.766558449E0,-1.480558962E-1,-1.074078274E1,-1.370489120E0
1.769082667E0,-2.485544533E-1,-1.060409260E1,-1.325025558E0
1.771606886E0,-4.019941986E-1,-1.056820011E1,-1.339382529E0
1.774131105E0,-5.407779217E-1,-1.057298565E1,-1.291526079E0
1.776655376E0,-6.942176819E-1,-1.061605644E1,-1.231705427E0
1.779179594E0,-9.050851464E-1,-1.067109203E1,-1.236491084E0
1.781703813E0,-1.012762189E0,-1.073838997E1,-1.193420291E0
1.784228032E0,-1.127617717E0,-1.086281681E1,-1.116550922E0
1.786752303E0,-1.180558920E0,-1.102582741E1,-1.059123158E0
1.789288240E0,-1.166201949E0,-1.120050335E1,-9.873384237E-1
1.791812459E0,-1.147059321E0,-1.141615677E1,-9.299107194E-1
1.794336678E0,-1.036690354E0,-1.164616680E1,-9.658030272E-1
1.796860949E0,-9.266205430E-1,-1.185942745E1,-9.801599979E-1
1.799385167E0,-8.282157183E-1,-1.205593777E1,-1.049551845E0
1.801909386E0,-6.750751138E-1,-1.223061371E1,-1.140479088E0
1.804433605E0,-5.407779217E-1,-1.240080357E1,-1.253240824E0
1.806957876E0,-4.211367965E-1,-1.259970665E1,-1.377667665E0
1.809482094E0,-2.820539773E-1,-1.277916813E1,-1.497607827E0
1.812006313E0,-1.600200087E-1,-1.297089291E1,-1.629213095E0
1.814530532E0,-1.854437590E-2,-1.309053421E1,-1.669891119E0
1.817054803E0,1.130608693E-1,-1.327508068E1,-1.773081541E0
1.819590740E0,2.449652255E-1,-1.337318707E1,-1.830509305E0
1.822114959E0,3.957130313E-1,-1.352184105E1,-1.875972986E0
1.824639178E0,5.802595019E-1,-1.362233925E1,-1.902294040E0
1.827163449E0,7.357929349E-1,-1.369202995E1,-1.928615093E0
1.829687667E0,8.461619020E-1,-1.376142216E1,-1.923829436E0
1.832211886E0,9.825528264E-1,-1.377817154E1,-1.954936147E0
1.834736105E0,1.059422255E0,-1.375185108E1,-1.933400750E0
1.837260376E0,1.121635556E0,-1.368485165E1,-1.947757602E0
1.839784594E0,1.088136077E0,-1.368006611E1,-1.923829436E0
1.842308813E0,9.562317729E-1,-1.363908863E1,-1.911865234E0
1.844833032E0,7.815557122E-1,-1.355294704E1,-1.895115495E0
1.847357303E0,5.395814776E-1,-1.355773354E1,-1.789831281E0
1.849893292E0,1.704886109E-1,-1.365613747E1,-1.734796405E0
1.852417511E0,-2.246262282E-1,-1.375902939E1,-1.605284929E0
1.854941730E0,-7.516453862E-1,-1.390499115E1,-1.509572029E0
1.857466001E0,-1.266700506E0,-1.403450298E1,-1.284347534E0
1.859990219E0,-1.664208174E0,-1.430279827E1,-9.897312522E-1
1.862514438E0,-1.947159410E0,-1.449930859E1,-6.110670567E-1
1.865038657E0,-2.169692039E0,-1.472931862E1,-3.212364316E-1
1.867562928E0,-2.378166676E0,-1.500957870E1,-2.691925503E-3
1.870087147E0,-2.447558403E0,-1.521536064E1,4.115654826E-1
1.872611365E0,-2.531606436E0,-1.535922909E1,8.213363886E-1
1.875135584E0,-2.610569477E0,-1.546451378E1,1.132702470E0
1.877659855E0,-2.543570518E0,-1.560359669E1,1.322034478E0
1.880195792E0,-2.402094841E0,-1.563470268E1,1.497009635E0
1.882720011E0,-2.220240355E0,-1.561556053E1,1.583151340E0
1.885244230E0,-2.004587173E0,-1.549562073E1,1.595115423E0
1.887768501E0,-1.776969910E0,-1.542622852E1,1.587936878E0
1.890292719E0,-1.551745534E0,-1.531615829E1,1.475175142E0
1.892816938E0,-1.316949725E0,-1.527069473E1,1.286142230E0
1.895341157E0,-1.161416292E0,-1.532333755E1,1.027418256E0
1.897865428E0,-1.163809061E0,-1.549562073E1,7.184450030E-1
1.900389647E0,-1.376770377E0,-1.574716568E1,3.972085714E-1
1.902913865E0,-1.623530149E0,-1.607318878E1,-4.576273263E-2
1.905438084E0,-1.908575177E0,-1.643480301E1,-5.153541565E-1
1.907962355E0,-2.256132603E0,-1.672941971E1,-9.729815125E-1
1.910498344E0,-2.557927370E0,-1.697139359E1,-1.488036633E0
1.913022563E0,-2.651247501E0,-1.713440514E1,-1.947757602E0
1.915546782E0,-2.711068153E0,-1.713201141E1,-2.400599241E0
1.918071053E0,-2.723032236E0,-1.700250053E1,-2.788535595E0
1.920595272E0,-2.711068153E0,-1.676291847E1,-3.109772205E0
1.923119490E0,-2.663211584E0,-1.630050659E1,-3.483351469E0
1.925643709E0,-2.660818815E0,-1.576152229E1,-3.761218071E0
1.928167980E0,-2.598605394E0,-1.517468262E1,-4.024727821E0
1.930692199E0,-2.600998163E0,-1.447059536E1,-4.309772491E0
1.933216417E0,-2.596212626E0,-1.379731464E1,-4.537389755E0
1.935740636E0,-2.529213428E0,-1.311715508E1,-4.805685043E0
1.938264907E0,-2.437987089E0,-1.243191051E1,-5.083551884E0
1.940800844E0,-2.318346024E0,-1.182832050E1,-5.289633751E0
1.943325063E0,-2.229811668E0,-1.118136120E1,-5.478965759E0
1.945849282E0,-2.140978098E0,-1.052034378E1,-5.622535229E0
1.948373553E0,-1.983051777E0,-9.959825516E0,-5.792724609E0
1.950897772E0,-1.937289000E0,-9.437591553E0,-5.917151451E0
1.953421990E0,-1.796112537E0,-9.011071205E0,-6.080162525E0
1.955946209E0,-1.812862277E0,-8.555836678E0,-6.245266914E0
1.958470480E0,-1.709970832E0,-8.251648903E0,-6.415456772E0
1.960994699E0,-1.681257010E0,-8.050651550E0,-6.616752625E0
1.963518917E0,-1.606780410E0,-7.983353615E0,-6.784250259E0
1.966043136E0,-1.554138303E0,-7.966603756E0,-6.877869606E0
1.968567407E0,-1.503889084E0,-8.048258781E0,-6.959225655E0
1.971103240E0,-1.525424480E0,-8.220541954E0,-7.093522549E0
1.973628240E0,-1.537388563E0,-8.474480629E0,-7.131807804E0
1.976153292E0,-1.484746456E0,-8.776275635E0,-7.136593342E0
1.978678292E0,-1.412961721E0,-9.116654396E0,-7.091129780E0
1.981203292E0,-1.343270779E0,-9.432806015E0,-7.076473713E0
1.983728292E0,-1.214058399E0,-9.842277527E0,-6.978368282E0
1.986253344E0,-1.077368379E0,-1.020658493E1,-6.849155903E0
1.988778344E0,-8.811569214E-1,-1.049641609E1,-6.681358814E0
1.991303344E0,-7.564310431E-1,-1.076710415E1,-6.635895252E0
1.993828344E0,-6.655037999E-1,-1.096331501E1,-6.496812344E0
1.996353397E0,-5.599204898E-1,-1.103300571E1,-6.436992168E0
1.998878397E0,-4.163511395E-1,-1.111436176E1,-6.396314144E0
2.001405740E0,-1.959123611E-1,-1.117657566E1,-6.300601006E0
2.003930740E0,4.845465720E-2,-1.122203922E1,-6.283851147E0
2.006455792E0,2.282154560E-1,-1.133480072E1,-6.386742592E0
2.008980792E0,3.981058598E-1,-1.152413273E1,-6.559325218E0
2.011505792E0,5.515456200E-1,-1.167009544E1,-6.762714863E0
2.014030792E0,7.190431952E-1,-1.197188950E1,-6.961618423E0
2.016555844E0,9.083753228E-1,-1.227847004E1,-7.241877556E0
2.019080844E0,1.147956610E0,-1.267149162E1,-7.529315472E0
2.021605844E0,1.385145187E0,-1.309053421E1,-7.780860901E0
2.024130844E0,1.593619823E0,-1.359362507E1,-7.967800140E0
2.026655897E0,1.801795483E0,-1.401536083E1,-8.049156189E0
2.029180897E0,1.876272082E0,-1.442483234E1,-8.032406807E0
2.031708292E0,2.003091574E0,-1.472692585E1,-7.881359577E0
2.034233292E0,2.101496458E0,-1.502393532E1,-7.565207958E0
2.036758344E0,2.182852507E0,-1.527548027E1,-7.033402920E0
2.039283344E0,2.321636200E0,-1.542622852E1,-6.312565327E0
2.041808344E0,2.494218588E0,-1.545254993E1,-5.373382568E0
2.044333344E0,2.764906645E0,-1.533290863E1,-4.206881523E0
2.046858397E0,3.093022346E0,-1.517468262E1,-2.949153900E0
2.049383397E0,3.442972660E0,-1.488724518E1,-1.665105462E0
2.051908397E0,3.792623997E0,-1.453041553E1,-4.651049078E-1
2.054433397E0,4.175774574E0,-1.418554974E1,6.032904387E-1
2.056958449E0,4.597509384E0,-1.391964722E1,1.532902002E0
2.059483449E0,4.990231514E0,-1.373510075E1,2.280060768E0
2.062010792E0,5.316253662E0,-1.352184105E1,2.929413080E0
2.064535792E0,5.596513271E0,-1.335404396E1,3.363112211E0
2.067060844E0,5.828916073E0,-1.321286774E1,3.681656837E0
2.069585844E0,5.967699528E0,-1.304746342E1,3.763012648E0
2.072110844E0,6.034698486E0,-1.285603809E1,3.751048565E0
2.074635844E0,6.027520180E0,-1.263559914E1,3.609572887E0
2.077160897E0,5.979663849E0,-1.245583820E1,3.466003656E0
2.079685897E0,5.924628735E0,-1.218515015E1,3.350848913E0
2.082210897E0,5.771189213E0,-1.203171062E1,3.245564699E0
2.084735897E0,5.594120026E0,-1.184267712E1,3.247957706E0
2.087260949E0,5.337789059E0,-1.158156109E1,3.216850996E0
2.089785949E0,5.110171795E0,-1.135633659E1,3.269493103E0
2.092352772E0,4.805984497E0,-1.118853951E1,3.353241920E0
2.094877772E0,4.595116615E0,-1.106889820E1,3.523431301E0
2.097402772E0,4.460819721E0,-1.102582741E1,3.614358664E0
2.099927772E0,4.231108665E0,-1.096570778E1,3.648157120E0
2.102452824E0,3.909872293E0,-1.099950695E1,3.571287870E0
2.104977824E0,3.655933857E0,-1.110000515E1,3.604787350E0
2.107502824E0,3.378067255E0,-1.122443199E1,3.681656837E0
2.110027824E0,3.047558784E0,-1.142333508E1,3.786941051E0
2.112552876E0,2.650051117E0,-1.162223911E1,3.969094515E0
2.115077876E0,2.161317110E0,-1.174427223E1,4.330709934E0
2.117602876E0,1.749153376E0,-1.194556904E1,4.709373951E0
2.120127928E0,1.310967684E0,-1.206072330E1,4.984847546E0
2.122615792E0,8.437690735E-1,-1.217079353E1,5.245964527E0
2.125140792E0,3.885345757E-1,-1.226172066E1,5.415854931E0
2.127665844E0,-8.344969153E-2,-1.232184029E1,5.442175865E0
2.130190844E0,-5.910272002E-1,-1.239841080E1,5.351248741E0
2.132715844E0,-1.108475089E0,-1.240319633E1,5.231607437E0
2.135240844E0,-1.796112537E0,-1.227129173E1,5.075775146E0
2.137765897E0,-2.442772865E0,-1.209661579E1,4.807479858E0
2.140290897E0,-3.005684376E0,-1.190010548E1,4.515256405E0
2.142815897E0,-3.508775234E0,-1.162223911E1,4.366602421E0
2.145340897E0,-3.846761465E0,-1.134437180E1,3.935595036E0
2.147865949E0,-4.076472282E0,-1.113111210E1,3.477967739E0
2.150390949E0,-4.222733974E0,-1.089153004E1,2.903092146E0
2.152918292E0,-4.284946918E0,-1.057777119E1,2.256132603E0
2.155443292E0,-4.210769653E0,-1.026879883E1,1.607079506E0
2.157968344E0,-4.182055950E0,-1.005793095E1,9.457631707E-1
2.160493344E0,-4.251447678E0,-9.768099785E0,4.019941986E-1
2.163018344E0,-4.335196495E0,-9.473484039E0,-9.122636169E-2
2.165543344E0,-4.402494431E0,-9.260223389E0,-4.962115884E-1
2.168068397E0,-4.447957993E0,-9.066105843E0,-8.291130662E-1
2.170593397E0,-4.428815842E0,-8.917751312E0,-1.173978567E0
2.173118397E0,-4.412065983E0,-8.816953659E0,-1.528714538E0
2.175643397E0,-4.400101662E0,-8.682954788E0,-1.897508383E0
2.178168449E0,-4.359423637E0,-8.577671051E0,-2.239981174E0
2.180693449E0,-4.361816406E0,-8.400302887E0,-2.515454769E0
2.183220844E0,-4.510171413E0,-8.194221497E0,-2.671287298E0
2.185745844E0,-4.723432064E0,-7.897212029E0,-2.551646233E0
2.188270897E0,-4.869394302E0,-7.559525013E0,-2.328814745E0
2.190795897E0,-5.027619362E0,-7.255337238E0,-2.273779631E0
2.193320897E0,-5.101797104E0,-6.967899323E0,-2.249552488E0
2.195845897E0,-5.144867897E0,-6.684948444E0,-2.355135679E0
2.198370949E0,-5.240880013E0,-6.424130440E0,-2.798406124E0
2.200895949E0,-5.202594757E0,-6.186942101E0,-3.524029493E0
2.203420949E0,-5.228915691E0,-5.921039581E0,-4.503890514E0
2.205945949E0,-5.204987526E0,-5.631208897E0,-5.699105263E0
2.208471001E0,-5.123332500E0,-5.329114914E0,-6.877869606E0
2.210996001E0,-4.907978535E0,-5.106582642E0,-7.888837337E0
2.213523344E0,-4.620540619E0,-4.907679081E0,-8.662317276E0
2.216048344E0,-4.215555191E0,-4.720739841E0,-9.084052086E0
2.218573397E0,-3.846761465E0,-4.538586140E0,-9.268598557E0
2.221098397E0,-3.657429457E0,-4.368695736E0,-9.040981293E0
2.223623397E0,-3.496811152E0,-4.138685703E0,-8.600103378E0
2.226148397E0,-3.295814037E0,-3.997210264E0,-7.907979965E0
2.228673449E0,-2.976970434E0,-3.966103554E0,-6.966403961E0
2.231198449E0,-2.569891453E0,-4.013959885E0,-5.850152493E0
2.233723449E0,-1.985444546E0,-4.193720818E0,-4.647459984E0
2.236248449E0,-1.460818172E0,-4.354339123E0,-3.658326626E0
2.238773501E0,-1.127617717E0,-4.342374802E0,-2.671287298E0
2.241298501E0,-8.138588071E-1,-4.299304008E0,-1.519143224E0
2.243825844E0,-5.288137794E-1,-4.430909157E0,-4.507479668E-1
2.246350844E0,-2.509472668E-1,-4.620241642E0,3.637090325E-1
2.248875897E0,-2.198405862E-1,-4.747061253E0,1.058524966E0
2.251400897E0,-2.700898647E-1,-4.835894585E0,1.621436477E0
2.253925897E0,-2.700898647E-1,-4.890929699E0,2.081456661E0
2.256450897E0,-3.541377485E-1,-4.929214478E0,2.455035925E0
2.258975949E0,-2.916252613E-1,-4.874179840E0,2.720938444E0
2.261500949E0,-2.126621157E-1,-4.835894585E0,2.970091105E0
2.264025949E0,-1.911267042E-1,-4.756632328E0,3.094816923E0
2.266550949E0,-1.719841212E-1,-4.680061817E0,3.140280724E0
2.269076001E0,-1.767697781E-1,-4.500301361E0,3.434896946E0
2.271601001E0,-2.126621157E-1,-4.342374802E0,3.334099293E0
2.274128397E0,-2.102692872E-1,-4.227220535E0,2.912663460E0
2.276653397E0,-1.935195327E-1,-4.141078472E0,2.512463808E0
2.279178449E0,-8.105687052E-2,-4.069293976E0,2.055135489E0
2.281703449E0,4.366901144E-2,-4.074079514E0,1.654935956E0
2.284228449E0,1.728814393E-1,-4.059722900E0,1.206879973E0
2.286753449E0,3.167499006E-1,-4.083651066E0,7.351947427E-1
2.289278501E0,3.837489188E-1,-4.153042793E0,3.397808075E-1
2.291803501E0,5.012963414E-1,-4.253541470E0,-1.465603895E-2
2.294328501E0,5.371887088E-1,-4.375874519E0,-3.068794906E-1
2.296853501E0,5.682953596E-1,-4.445266247E0,-5.297111273E-1
2.299378553E0,5.563312769E-1,-4.577170849E0,-7.166503668E-1
2.301903553E0,5.132604837E-1,-4.687240601E0,-8.482556343E-1
2.304430897E0,5.108676553E-1,-4.811667442E0,-9.251250625E-1
2.306955897E0,4.459623098E-1,-4.941178799E0,-9.299107194E-1
2.309480949E0,3.334996700E-1,-5.034498692E0,-9.152546525E-1
2.312005949E0,1.920240223E-1,-5.063212872E0,-7.956135273E-1
2.314530949E0,7.956135273E-2,-5.106582642E0,-7.070791125E-1
2.317055949E0,-1.001994461E-1,-5.058426857E0,-6.086742878E-1
2.319581001E0,-2.820539773E-1,-5.060820103E0,-4.435695112E-1
2.322106001E0,-4.881358147E-1,-4.969892502E0,-3.403790295E-1
2.324631001E0,-6.894320250E-1,-4.874179840E0,-2.805584669E-1
2.327156001E0,-9.457631707E-1,-4.787738800E0,-1.896311939E-1
2.329681053E0,-1.168594718E0,-4.653740883E0,-1.680957973E-1
2.332206053E0,-1.448854089E0,-4.430909157E0,-2.015953064E-1
2.334733397E0,-1.767398596E0,-4.191328049E0,-2.949153781E-1
2.337258397E0,-1.966302037E0,-3.946960926E0,-3.595215976E-1
2.339783449E0,-2.145763636E0,-3.716950893E0,-3.981058598E-1
2.342308449E0,-2.280060768E0,-3.561417341E0,-4.483551383E-1
2.344833449E0,-2.416451693E0,-3.362514019E0,-4.842474759E-1
2.347358449E0,-2.543570518E0,-3.271586657E0,-5.249254704E-1
2.349883501E0,-2.670390129E0,-3.132503986E0,-5.632106066E-1
2.352408501E0,-2.840579510E0,-2.991327524E0,-6.783652306E-1
2.354933501E0,-2.955435038E0,-2.900100946E0,-7.884350419E-1
2.357458501E0,-3.015554667E0,-2.854637384E0,-9.008977413E-1
2.359983553E0,-3.087339401E0,-2.799602509E0,-1.001695395E0
2.362508553E0,-3.142374277E0,-2.723032236E0,-1.185942769E0
2.365035897E0,-3.190230846E0,-2.730210543E0,-1.250848055E0
2.367560897E0,-3.202194929E0,-2.684746981E0,-1.320239902E0
2.370085949E0,-3.190230846E0,-2.756531715E0,-1.389631748E0
2.372610949E0,-3.175873756E0,-2.770888567E0,-1.425524116E0
2.375135949E0,-3.192623615E0,-2.969791889E0,-1.531107426E0
2.377660949E0,-3.139981508E0,-3.108575821E0,-1.559821248E0
2.380186001E0,-3.056232691E0,-3.271586657E0,-1.633998752E0
2.382711001E0,-2.972184896E0,-3.463012457E0,-1.636391640E0
2.385236001E0,-2.821436882E0,-3.712165117E0,-1.648355722E0
2.387761001E0,-2.612962246E0,-3.944568157E0,-1.674676776E0
2.390286053E0,-2.459522486E0,-4.153042793E0,-1.744367719E0
2.392811053E0,-2.258525372E0,-4.409373760E0,-1.854437590E0
2.395338449E0,-2.021337032E0,-4.663312435E0,-1.962114573E0
2.397863449E0,-1.855933070E0,-4.914857864E0,-2.208874464E0
2.400388501E0,-1.714756489E0,-5.231009483E0,-2.515454769E0
2.402913501E0,-1.546959877E0,-5.561518192E0,-2.829512835E0
2.405438501E0,-1.309771299E0,-5.899504185E0,-3.162414312E0
2.407963501E0,-1.170987606E0,-6.308976173E0,-3.555136204E0
2.410488553E0,-1.079761267E0,-6.670591354E0,-3.996013880E0
2.413013553E0,-1.082154036E0,-7.042077065E0,-4.429712772E0
2.415538553E0,-1.130010486E0,-7.410871029E0,-4.891826630E0
2.418063553E0,-1.173380375E0,-7.719843864E0,-5.339882851E0
2.420588605E0,-1.259521961E0,-8.074580193E0,-5.790331841E0
2.423113605E0,-1.398305774E0,-8.426624298E0,-6.183053493E0
2.425640949E0,-1.578066587E0,-8.797810555E0,-6.595217228E0
2.428165949E0,-1.803290963E0,-9.037391663E0,-7.028617382E0
2.430691001E0,-2.002194405E0,-9.265008926E0,-7.486244678E0
2.433216001E0,-2.126621008E0,-9.492626190E0,-7.900801182E0
2.435741001E0,-2.220240355E0,-9.619445801E0,-8.334200859E0
2.438266001E0,-2.268096685E0,-9.758528709E0,-8.758329391E0
2.440791053E0,-2.289632082E0,-9.882955551E0,-9.067302704E0
2.443316053E0,-2.318346024E0,-9.882955551E0,-9.428917885E0
2.445841053E0,-2.311167479E0,-9.830313683E0,-9.723533630E0
2.448366053E0,-2.282453775E0,-9.799206734E0,-9.991828918E0
2.450891105E0,-2.301596165E0,-9.669994354E0,-1.027208805E1
2.453416105E0,-2.244168520E0,-9.633803368E0,-1.047099209E1
2.455943449E0,-2.172084808E0,-9.535696983E0,-1.064596748E1
2.458468449E0,-2.030908108E0,-9.454340935E0,-1.081825066E1
2.460993501E0,-2.002194405E0,-9.255437851E0,-1.098604679E1
2.463518501E0,-1.925324917E0,-9.003892899E0,-1.106501007E1
2.466043501E0,-1.755434513E0,-8.785846710E0,-1.112512970E1
2.468568501E0,-1.558923960E0,-8.575278282E0,-1.113948631E1
2.471093553E0,-1.333699465E0,-8.433802605E0,-1.117059326E1
2.473618553E0,-1.077368379E0,-8.390731812E0,-1.107458115E1
2.476143553E0,-8.473583460E-1,-8.357232094E0,-1.100279713E1
2.478668553E0,-6.798607111E-1,-8.405088425E0,-1.085444164E1
2.481193605E0,-4.785645306E-1,-8.438588142E0,-1.062443161E1
2.483718605E0,-3.107678294E-1,-8.592027664E0,-1.035852909E1
2.486246001E0,-9.302098304E-2,-8.804988861E0,-1.009980488E1
2.488771157E0,4.366901144E-2,-8.903393745E0,-9.725926399E0
2.491296365E0,1.154536903E-1,-8.901000977E0,-9.256634712E0
2.493821522E0,2.018944174E-1,-8.996713638E0,-8.995517731E0
2.496346678E0,2.138585299E-1,-9.166903496E0,-8.662317276E0
2.498871834E0,1.537388563E-1,-9.291330338E0,-8.327022552E0
2.501397042E0,-3.050848842E-2,-9.437591553E0,-8.123333931E0
2.503922199E0,-3.251247704E-1,-9.461520195E0,-7.869395256E0
2.506447355E0,-7.133602500E-1,-9.478269577E0,-7.654041290E0
2.508972563E0,-1.161416292E0,-9.530911446E0,-7.562815189E0
2.511497719E0,-1.652244091E0,-9.595518112E0,-7.445566654E0
2.514022876E0,-2.155334949E0,-9.768099785E0,-7.402495861E0
2.516548501E0,-2.632104874E0,-9.907182693E0,-7.270591736E0
2.519073657E0,-3.125624657E0,-1.012014389E1,-6.997510910E0
2.521598865E0,-3.573680639E0,-1.031186962E1,-6.700501442E0
2.524124022E0,-4.119842529E0,-1.056580734E1,-6.475276947E0
2.526649178E0,-4.562813759E0,-1.091545868E1,-6.456134796E0
2.529174334E0,-4.874179840E0,-1.138026428E1,-6.611967087E0
2.531699542E0,-5.065904617E0,-1.191206932E1,-6.925725937E0
2.534224699E0,-5.130510807E0,-1.252523041E1,-7.304090977E0
2.536749855E0,-5.111368179E0,-1.334208012E1,-7.706683636E0
2.539275063E0,-4.982155800E0,-1.424776363E1,-8.068299294E0
2.541800219E0,-4.800002098E0,-1.533290863E1,-8.394021988E0
2.544325376E0,-4.502993107E0,-1.644437408E1,-8.652746201E0
2.546851001E0,-4.081557274E0,-1.761566162E1,-8.810971260E0
2.549376157E0,-3.583251953E0,-1.867927170E1,-8.858827591E0
2.551901365E0,-3.027518749E0,-1.952244186E1,-8.631210327E0
2.554426522E0,-2.402094841E0,-2.016222191E1,-7.878966808E0
2.556951678E0,-1.657029629E0,-2.058365822E1,-6.669394970E0
2.559476834E0,-1.024726272E0,-2.079213333E1,-5.303990364E0
2.562002042E0,-5.431707501E-1,-2.070599174E1,-4.005585194E0
2.564527199E0,-2.844468057E-1,-2.034916115E1,-2.625823736E0
2.567052355E0,-2.174477577E-1,-1.979552269E1,-1.315454245E0
2.569577563E0,-3.155534863E-1,-1.884467506E1,1.674975902E-1
2.572102719E0,-5.288137794E-1,-1.766112518E1,1.837089539E0
2.574627876E0,-8.787640929E-1,-1.640369606E1,3.533002615E0
2.577153553E0,-1.499103427E0,-1.512204075E1,4.958227634E0
2.579678709E0,-2.253739834E0,-1.391725445E1,6.093921185E0
2.582203917E0,-3.125624657E0,-1.286560917E1,6.896413803E0
2.584729074E0,-4.095914364E0,-1.189292717E1,7.195816040E0
2.587254230E0,-5.120939732E0,-1.100668526E1,7.059125900E0
2.589779386E0,-6.067300797E0,-1.018505001E1,6.510571480E0
2.592304594E0,-6.939185619E0,-9.492626190E0,5.502295494E0
2.594829751E0,-7.667500973E0,-8.941679001E0,4.119842529E0
2.597354907E0,-8.386244774E0,-8.328517914E0,2.828914642E0
2.599880115E0,-8.961120605E0,-7.655237675E0,1.463211060E0
2.602405272E0,-9.377771378E0,-6.960721016E0,2.392822653E-1
2.604930428E0,-9.766006470E0,-6.107679844E0,-7.429714203E-1
2.607456053E0,-9.993623734E0,-5.314758301E0,-1.411167145E0
2.609981209E0,-9.864111900E0,-4.601099014E0,-1.825723648E0
2.612506417E0,-9.512067795E0,-4.095614910E0,-1.875972986E0
2.615031574E0,-8.987442017E0,-3.743271828E0,-1.837687731E0
2.617556730E0,-8.352446556E0,-3.503989697E0,-1.753939033E0
2.620081886E0,-7.705786228E0,-3.415156126E0,-1.643570065E0
2.622607094E0,-7.078268528E0,-3.434298754E0,-1.466501236E0
2.625132251E0,-6.452844620E0,-3.422334671E0,-1.190728426E0
2.627657407E0,-5.897111416E0,-3.424727440E0,-9.705886841E-1
2.630182615E0,-5.432604790E0,-3.489632607E0,-7.022934556E-1
2.632707772E0,-5.013262749E0,-3.539881945E0,-4.555336237E-1
2.635232928E0,-4.495814800E0,-3.649951935E0,-2.997010350E-1
2.637758605E0,-4.031008720E0,-3.798605919E0,-1.465603858E-1
2.640283761E0,-3.525525093E0,-4.033401489E0,3.559323773E-2
2.642808969E0,-2.907578707E0,-4.337589264E0,2.201396823E-1
2.645334126E0,-2.263311148E0,-4.694418907E0,3.589234054E-1
2.647859282E0,-1.587637782E0,-5.079962254E0,4.525425732E-1
2.650384438E0,-8.979067206E-1,-5.551946640E0,5.985047817E-1
2.652909647E0,-2.605185509E-1,-6.064609051E0,6.487540603E-1
2.655434803E0,3.191427290E-1,-6.663413048E0,7.112665176E-1
2.657959959E0,8.940183520E-1,-7.267301559E0,7.136593461E-1
2.660485167E0,1.433001637E0,-7.897212029E0,7.256234884E-1
2.663010324E0,1.936092615E0,-8.529515266E0,6.993024349E-1
2.665535480E0,2.412862539E0,-9.336793900E0,6.945167780E-1
2.668061105E0,2.913560629E0,-1.018265629E1,7.328019142E-1
2.670586261E0,3.406781197E0,-1.112632656E1,7.112665176E-1
2.673111469E0,3.945764542E0,-1.209422302E1,7.710871100E-1
2.675636626E0,4.633401871E0,-1.308574867E1,8.237292171E-1
2.678161782E0,5.400002480E0,-1.415175152E1,9.314061999E-1
2.680686938E0,6.161817551E0,-1.522493267E1,1.027418256E0
2.683212147E0,6.918846607E0,-1.628375626E1,1.075274706E0
2.685737303E0,7.702197075E0,-1.722533226E1,1.127916813E0
2.688262459E0,8.432605743E0,-1.796561241E1,1.259821177E0
2.690787667E0,9.098708153E0,-1.840379715E1,1.331605792E0
2.693312824E0,9.709476471E0,-1.862423515E1,1.511366606E0
2.695837980E0,1.022931671E1,-1.861944962E1,1.767697692E0
2.698363657E0,1.056700420E1,-1.823151398E1,1.942373753E0
2.700888813E0,1.048564816E1,-1.746730614E1,2.026421785E0
2.703414022E0,9.932307243E0,-1.638694763E1,1.995015860E0
2.705939178E0,9.055637360E0,-1.509572029E1,1.822732687E0
2.708464334E0,8.049455643E0,-1.389063454E1,1.638186216E0
2.710989490E0,7.110272408E0,-1.284138203E1,1.690828323E0
2.713514699E0,6.178566933E0,-1.202692509E1,1.770090580E0
2.716039855E0,5.213063240E0,-1.146401310E1,1.951945066E0
2.718565011E0,4.305285931E0,-1.098036385E1,2.126920223E0
2.721090219E0,3.370888948E0,-1.066391277E1,2.258525372E0
2.723615376E0,2.443969250E0,-1.050120163E1,2.390429735E0
2.726140532E0,1.476072431E0,-1.046052361E1,2.411965132E0
2.728666157E0,4.797609448E-1,-1.046052361E1,2.280060768E0
2.731191313E0,-4.737788737E-1,-1.052034378E1,2.083849430E0
2.733716522E0,-1.345663667E0,-1.058016396E1,1.808375716E0
2.736241678E0,-2.191227436E0,-1.051077271E1,1.511366606E0
2.738766834E0,-2.941078186E0,-1.044138050E1,1.252642632E0
2.741291990E0,-3.595216036E0,-1.036451149E1,9.122636318E-1
2.743817199E0,-4.210769653E0,-1.025683403E1,5.626124144E-1
2.746342355E0,-4.728217602E0,-1.013450146E1,1.938186288E-1
2.748867511E0,-5.087440014E0,-1.000050354E1,-1.800599098E-1
2.751392719E0,-5.343770981E0,-9.890133858E0,-6.254240274E-1
2.753917876E0,-5.511568069E0,-9.748957634E0,-1.092622638E0
2.756443032E0,-5.856433392E0,-9.571589470E0,-1.667498231E0
2.758968709E0,-6.148656845E0,-9.351150513E0,-2.005484581E0
2.761493865E0,-6.333203316E0,-9.262616158E0,-2.345564365E0
2.764019074E0,-6.436094761E0,-9.099904060E0,-2.793321371E0
2.766544230E0,-6.404987812E0,-8.929715157E0,-3.411566973E0
2.769069386E0,-6.565606117E0,-8.726025581E0,-3.974478483E0
2.771594542E0,-6.618248463E0,-8.467302322E0,-4.345664978E0
2.774119751E0,-6.685247421E0,-8.115258217E0,-4.451248169E0
2.776644907E0,-6.455237389E0,-7.916354656E0,-4.403092861E0
2.779170063E0,-6.019444466E0,-7.799106121E0,-4.441677094E0
2.781695272E0,-5.607280731E0,-7.638488293E0,-4.520640373E0
2.784220428E0,-5.118546963E0,-7.621738434E0,-4.549354076E0
2.786745584E0,-4.591527462E0,-7.705487251E0,-4.621138573E0
2.789271209E0,-4.167698860E0,-7.813463211E0,-4.796113968E0
2.791796365E0,-3.702893019E0,-7.966603756E0,-4.954339504E0
2.794321574E0,-3.295814037E0,-8.134400368E0,-4.961517811E0
2.796846730E0,-2.955435038E0,-8.321339607E0,-4.922933578E0
2.799371886E0,-2.711068153E0,-8.529515266E0,-4.745864391E0
2.801897042E0,-2.421237469E0,-8.745168686E0,-4.544568539E0
2.804422251E0,-2.296810627E0,-8.917751312E0,-4.257130623E0
2.806947407E0,-2.152942181E0,-9.097212791E0,-3.952943087E0
2.809472563E0,-2.073979139E0,-9.274580956E0,-3.696611881E0
2.811997772E0,-1.963909149E0,-9.355937004E0,-3.356531858E0
2.814522928E0,-1.762612939E0,-9.530911446E0,-3.032902718E0
2.817048084E0,-1.601994753E0,-9.626625061E0,-2.714358091E0
2.819573761E0,-1.484746456E0,-9.732208252E0,-2.395813704E0
2.822098917E0,-1.400698543E0,-9.782457352E0,-2.050948143E0
2.824624126E0,-1.266700506E0,-9.787242889E0,-1.712961912E0
2.827149282E0,-1.185344458E0,-9.727422714E0,-1.293918848E0
2.829674438E0,-1.187737346E0,-9.705886841E0,-8.793623447E-1
2.832199594E0,-1.106082320E0,-9.583553314E0,-5.584250093E-1
2.834724803E0,-1.063011408E0,-9.430413246E0,-2.015953064E-1
2.837249959E0,-1.055832982E0,-9.312865257E0,1.627119333E-1
2.839775115E0,-9.840483069E-1,-9.265008926E0,5.769693851E-1
2.842300324E0,-8.907282352E-1,-9.174081802E0,8.907282352E-1
2.844825480E0,-8.018946648E-1,-9.131011009E0,1.163809061E0
2.847350636E0,-7.516453862E-1,-9.042177200E0,1.408176184E0
2.849876261E0,-6.774678826E-1,-9.001500130E0,1.657328725E0
2.852401417E0,-6.702894568E-1,-8.905786514E0,1.801197290E0
2.854926626E0,-7.253243923E-1,-8.853144646E0,2.018944025E0
2.857451782E0,-8.665009141E-1,-8.795417786E0,2.117348909E0
2.859976938E0,-1.034297585E0,-8.733204842E0,2.143670082E0
2.862502094E0,-1.154237866E0,-8.618349075E0,2.225025892E0
2.865027303E0,-1.247557878E0,-8.613563538E0,2.246561289E0
2.867552459E0,-1.393520117E0,-8.555836678E0,2.258525372E0
2.870077615E0,-1.460818172E0,-8.440980911E0,2.265703917E0
2.872602824E0,-1.587637782E0,-8.352446556E0,2.234597206E0
2.875127980E0,-1.637887120E0,-8.309375763E0,2.150848389E0
2.877653136E0,-1.726720691E0,-8.254041672E0,2.067099571E0
2.880178813E0,-1.827219248E0,-8.191828728E0,2.033600092E0
2.882703969E0,-1.829612017E0,-8.151150703E0,1.892124534E0
2.885229178E0,-1.774577141E0,-8.172685623E0,1.779661894E0
2.887754334E0,-1.719542146E0,-8.239685059E0,1.662114382E0
2.890279490E0,-1.664208174E0,-8.275577545E0,1.552044630E0
2.892804647E0,-1.649851203E0,-8.302197456E0,1.317248821E0
2.895329855E0,-1.592423439E0,-8.402695656E0,1.178166032E0
2.897855011E0,-1.573280931E0,-8.491230011E0,1.008275628E0
2.900380167E0,-1.558923960E0,-8.572885513E0,7.471588850E-1
2.902905376E0,-1.518245935E0,-8.685347557E0,5.315057039E-1
2.905430532E0,-1.494317770E0,-8.816953659E0,3.158525825E-1
2.907955688E0,-1.460818172E0,-8.867501259E0,5.234299600E-2
2.910481313E0,-1.381555915E0,-9.006285667E0,-2.111666054E-1
2.913006469E0,-1.314556956E0,-9.138189316E0,-4.363910258E-1
2.915531678E0,-1.288235903E0,-9.267401695E0,-7.022934556E-1
2.918056834E0,-1.233201027E0,-9.392127991E0,-9.777671695E-1
2.920581990E0,-1.168594718E0,-9.435198784E0,-1.241276741E0
2.923107147E0,-1.010369420E0,-9.590732574E0,-1.483250976E0
2.925632355E0,-8.425726891E-1,-9.665208817E0,-1.751546144E0
2.928157511E0,-7.731808424E-1,-9.701101303E0,-1.969292998E0
2.930682667E0,-7.157530785E-1,-9.763314247E0,-2.156232357E0
2.933207876E0,-6.296114326E-1,-9.789635658E0,-2.343171597E0
2.935733032E0,-5.982056856E-1,-9.787242889E0,-2.520240545E0
2.938258188E0,-5.168496966E-1,-9.849455833E0,-2.690429926E0
2.940783865E0,-4.139583111E-1,-9.861420631E0,-2.786142826E0
2.943309022E0,-3.565305769E-1,-9.899705887E0,-2.898904562E0
2.945834230E0,-2.868396044E-1,-9.868598938E0,-2.884547710E0
2.948359386E0,-2.174477577E-1,-9.849455833E0,-2.843869686E0
2.950884542E0,-1.049850956E-1,-9.827920914E0,-2.877369165E0
2.953409699E0,7.238288224E-2,-9.789635658E0,-2.824727058E0
2.955934907E0,1.537388563E-1,-9.775279045E0,-2.714358091E0
2.958460063E0,2.521436810E-1,-9.751350403E0,-2.554039001E0
2.960985219E0,3.263211846E-1,-9.713065147E0,-2.388635159E0
2.963510428E0,4.435695112E-1,-9.722636223E0,-2.122732878E0
2.966035584E0,5.946164131E-1,-9.753743172E0,-1.928615093E0
2.968560740E0,6.281159520E-1,-9.751350403E0,-1.667498231E0
2.971086365E0,6.903293133E-1,-9.746564865E0,-1.358525038E0
2.973611522E0,7.648059130E-1,-9.760921478E0,-9.753743410E-1
2.976136730E0,8.174480200E-1,-9.705886841E0,-6.421737671E-1
2.978661886E0,8.605188727E-1,-9.621838570E0,-4.052843451E-1
2.981187042E0,9.753743410E-1,-9.554840088E0,-1.274178028E-1
2.983712199E0,1.045065284E0,-9.547661781E0,1.408774406E-1
2.986237407E0,1.107278705E0,-9.416056633E0,4.621138871E-1
2.988762563E0,1.057029366E0,-9.229117393E0,7.567301393E-1
2.991287719E0,9.993025661E-1,-9.171689034E0,9.628120065E-1
2.993812928E0,9.179465771E-1,-9.131011009E0,1.137488008E0
2.996338084E0,7.624131441E-1,-9.121439934E0,1.336391449E0
2.998863240E0,5.970092416E-1,-9.233902931E0,1.417747378E0
3.001388917E0,4.244269133E-1,-9.346364975E0,1.408176184E0
3.003914126E0,2.042872310E-1,-9.533304214E0,1.386640668E0
3.006439334E0,-1.169492081E-1,-9.681958199E0,1.293320656E0
3.008964542E0,-4.498506486E-1,-9.892526627E0,1.257428288E0
3.011489751E0,-6.798607111E-1,-1.003639507E1,1.123131156E0
3.014014907E0,-9.864411354E-1,-1.024726295E1,9.457631707E-1
3.016540115E0,-1.257129192E0,-1.044138050E1,7.136593461E-1
3.019065324E0,-1.458425403E0,-1.068066311E1,4.214358926E-1
3.021590532E0,-1.690828323E0,-1.092263699E1,8.105687052E-2
3.024115740E0,-1.887039781E0,-1.108564854E1,-3.403790295E-1
3.026640949E0,-1.990230203E0,-1.127258778E1,-6.759724021E-1
3.029166157E0,-2.152942181E0,-1.147597694E1,-1.116550922E0
3.031691417E0,-2.315953255E0,-1.168445206E1,-1.669891119E0
3.034216626E0,-2.370988131E0,-1.180199909E1,-2.242373943E0
3.036741834E0,-2.435594320E0,-1.194078350E1,-2.798406124E0
3.039267042E0,-2.478964329E0,-1.207986641E1,-3.401995659E0
3.041792251E0,-2.409273386E0,-1.216122246E1,-3.952943087E0
3.044317407E0,-2.301596165E0,-1.218036461E1,-4.458426952E0
3.046842615E0,-2.066800594E0,-1.220189953E1,-4.975874901E0
3.049367824E0,-1.903789520E0,-1.214925766E1,-5.356632710E0
3.051893032E0,-1.659422517E0,-1.207268715E1,-5.734997749E0
3.054418240E0,-1.343270779E0,-1.200778198E1,-6.017949104E0
3.056943449E0,-1.012762189E0,-1.187139130E1,-6.144768715E0
3.059468657E0,-6.463612318E-1,-1.183549881E1,-6.190232277E0
3.061993969E0,-4.067798555E-1,-1.179960632E1,-6.168696880E0
3.064519178E0,-1.600200087E-1,-1.179482079E1,-5.965007782E0
3.067044386E0,9.631111473E-2,-1.176102257E1,-5.727818966E0
3.069569594E0,3.622135222E-1,-1.169402313E1,-5.332704544E0
3.072094803E0,6.305087805E-1,-1.163181019E1,-4.822434902E0
3.074619959E0,8.629116416E-1,-1.155763245E1,-4.264308929E0
3.077145167E0,1.124028444E0,-1.145204926E1,-3.675076485E0
3.079670376E0,1.303789258E0,-1.131805134E1,-3.020938635E0
3.082195584E0,1.409073472E0,-1.116221809E1,-2.477169752E0
3.084720792E0,1.548156261E0,-1.096570778E1,-1.892722726E0
3.087246001E0,1.562513232E0,-1.083410263E1,-1.370489120E0
3.089771209E0,1.480858088E0,-1.065912724E1,-7.860422134E-1
3.092335949E0,1.366002679E0,-1.061605644E1,-3.667000830E-1
3.094861157E0,1.205384374E0,-1.054427242E1,1.405783277E-2
3.097386313E0,9.777671695E-1,-1.056341457E1,3.014956415E-1
3.099911522E0,7.983054519E-1,-1.063759232E1,4.166502357E-1
3.102436730E0,6.017948985E-1,-1.079581738E1,3.876372576E-1
3.104961938E0,3.598206937E-1,-1.096810055E1,2.799602449E-1
3.107487147E0,1.992024779E-1,-1.115503979E1,-4.097708687E-2
3.110012355E0,1.489532143E-1,-1.135394382E1,-3.643072546E-1
3.112537563E0,1.585244983E-1,-1.149033451E1,-7.812566161E-1
3.115062772E0,2.018944174E-1,-1.158634663E1,-1.296311617E0
3.117587928E0,2.928216755E-1,-1.174427223E1,-1.832902193E0
3.120113136E0,4.052843451E-1,-1.188814068E1,-2.407777786E0
3.122599022E0,6.017948985E-1,-1.204128170E1,-2.910868645E0
3.125124230E0,8.294121623E-1,-1.223300648E1,-3.433102369E0
3.127649438E0,1.121635556E0,-1.246062374E1,-3.948157310E0
3.130174647E0,1.413859129E0,-1.264995575E1,-4.439284325E0
3.132699855E0,1.686939955E0,-1.291585827E1,-4.956732273E0
3.135225011E0,1.960020900E0,-1.322004604E1,-5.474180222E0
3.137750219E0,2.276172638E0,-1.346201992E1,-5.929115295E0
3.140275428E0,2.635694027E0,-1.361276817E1,-6.336493492E0
3.142800636E0,2.994916677E0,-1.370638752E1,-6.688537598E0
3.145325844E0,3.303889751E0,-1.375424385E1,-7.004689217E0
3.147851053E0,3.600898981E0,-1.369202995E1,-7.165307522E0
3.150376261E0,3.878765583E0,-1.366092396E1,-7.227520943E0
3.152901574E0,4.051347733E0,-1.358644676E1,-7.205985546E0
3.155426782E0,4.187738895E0,-1.348594856E1,-7.093522549E0
3.157951990E0,4.276572227E0,-1.337318707E1,-6.913762093E0
3.160477199E0,4.341178417E0,-1.321526051E1,-6.576074600E0
3.163002407E0,4.278964996E0,-1.309292698E1,-6.187839508E0
3.165527563E0,4.137489319E0,-1.292303658E1,-5.730212212E0
3.168052772E0,3.878765583E0,-1.277916813E1,-5.306383133E0
3.170577980E0,3.634398460E0,-1.268106270E1,-4.848755836E0
3.173103188E0,3.339782238E0,-1.255872917E1,-4.300201416E0
3.175628397E0,3.076272726E0,-1.251565838E1,-3.758825302E0
3.178153605E0,2.798406124E0,-1.241037464E1,-3.262912750E0
3.180678813E0,2.470290184E0,-1.224018478E1,-2.664108992E0
3.183204126E0,2.240280151E0,-1.216600800E1,-2.027019978E0
3.185729334E0,2.034198284E0,-1.206790161E1,-1.432702541E0
3.188254542E0,1.720439434E0,-1.193599796E1,-9.370891452E-1
3.190779751E0,1.399502158E0,-1.178524971E1,-5.392823815E-1
3.193304959E0,1.155135155E0,-1.172273731E1,-1.489532143E-1
3.195830115E0,9.299107194E-1,-1.165334511E1,1.962114573E-1
3.198355324E0,7.528418303E-1,-1.165334511E1,5.673980713E-1
3.200880532E0,6.759724021E-1,-1.174905872E1,9.481559992E-1
3.203405740E0,6.448656917E-1,-1.198385429E1,1.295713425E0
3.205930949E0,7.887341380E-1,-1.228804111E1,1.573580027E0
3.208456157E0,1.049850941E0,-1.271216965E1,1.844268084E0
3.210981365E0,1.370788217E0,-1.317218971E1,2.112563372E0
3.213506678E0,1.562513232E0,-1.364148235E1,2.306680918E0
3.216031886E0,1.895414591E0,-1.401536083E1,2.493321180E0
3.218557094E0,2.278565407E0,-1.442483234E1,2.641975403E0
3.221082303E0,2.719442844E0,-1.482981777E1,2.744866610E0
3.223607511E0,3.109772205E0,-1.523211098E1,2.601297379E0
3.226132667E0,3.438187122E0,-1.550758457E1,2.426322222E0
3.228657876E0,3.775874138E0,-1.565145302E1,2.193919182E0
3.231183084E0,3.909872293E0,-1.576152229E1,1.997408748E0
3.233708292E0,4.161417484E0,-1.593889046E1,1.784447432E0
3.236233501E0,4.214059830E0,-1.591017723E1,1.774876237E0
3.238758709E0,3.811766386E0,-1.580728531E1,1.731506228E0
3.241283917E0,3.550649643E0,-1.584796333E1,1.827518344E0
3.243809178E0,3.615255833E0,-1.599631882E1,1.851446509E0
3.246334386E0,3.818944931E0,-1.619761467E1,1.592722535E0
3.248859594E0,4.084847450E0,-1.634387589E1,1.125523925E0
3.251384803E0,4.336392879E0,-1.662892151E1,7.758727670E-1
3.253910011E0,4.439284325E0,-1.695225143E1,4.597210586E-1
3.256435167E0,4.357928276E0,-1.707667732E1,-1.007976532E-1
3.258960376E0,4.166203499E0,-1.711974907E1,-7.214360237E-1
3.261485584E0,3.905086517E0,-1.707907104E1,-1.243669510E0
3.264010792E0,3.643969774E0,-1.699771500E1,-1.785045743E0
3.266536001E0,3.368496180E0,-1.697378731E1,-2.343171597E0
3.269061209E0,3.215355396E0,-1.695225143E1,-2.683251381E0
3.271586417E0,3.258426189E0,-1.708864212E1,-2.843869686E0
3.274111730E0,3.462115288E0,-1.718943977E1,-2.987439156E0
3.276636938E0,3.672683716E0,-1.721576118E1,-3.181556702E0
3.279162147E0,3.732803345E0,-1.720619011E1,-3.171985626E0
3.281687355E0,3.838087559E0,-1.716072655E1,-2.985046148E0
3.284212563E0,4.060919285E0,-1.711735535E1,-2.800798893E0
3.286737719E0,4.312464714E0,-1.711496353E1,-2.539682150E0
3.289262928E0,4.542474747E0,-1.706232071E1,-2.199303150E0
3.291788136E0,4.709972382E0,-1.695942879E1,-2.010270119E0
3.294313344E0,4.997410297E0,-1.687089539E1,-2.182553291E0
3.296838553E0,5.181956768E0,-1.670549202E1,-2.280958176E0
3.299363761E0,5.165206909E0,-1.648744583E1,-2.278565407E0
3.301888969E0,5.268098354E0,-1.635823250E1,-2.264208317E0
3.304414230E0,5.423930645E0,-1.626700592E1,-1.945364833E0
3.306939438E0,5.498108387E0,-1.620000839E1,-1.437488198E0
3.309464647E0,5.395216942E0,-1.605613899E1,-7.549355626E-1
3.311989855E0,5.469394207E0,-1.603221130E1,-1.465603895E-2
3.314515063E0,5.392824173E0,-1.591735554E1,8.285148144E-1
3.317040219E0,5.402395248E0,-1.587667751E1,1.743470430E0
3.319565428E0,5.299503803E0,-1.574955845E1,2.553141832E0
3.322090636E0,4.908875465E0,-1.541665745E1,3.341277838E0
3.324615844E0,4.518546581E0,-1.525633812E1,4.129413605E0
3.327141053E0,4.005884171E0,-1.507896996E1,4.733302116E0
3.329666261E0,3.404388428E0,-1.478674698E1,4.874478817E0
3.332191469E0,2.824727058E0,-1.447777367E1,4.563112736E0
3.334716782E0,2.178066730E0,-1.413739395E1,3.937987804E0
3.337241990E0,1.526321769E0,-1.379013634E1,3.214458227E0
3.339767199E0,8.365905881E-1,-1.347159195E1,2.325823545E0
3.342292407E0,1.872383654E-1,-1.319611740E1,1.398604870E0
3.344817615E0,-4.091726840E-1,-1.292303658E1,5.769693851E-1
3.347342772E0,-8.763712645E-1,-1.273370457E1,-1.992024779E-1
3.349867980E0,-1.290628672E0,-1.253958702E1,-8.434699774E-1
3.352393188E0,-1.698006749E0,-1.248215961E1,-1.281954765E0
3.354918397E0,-2.002194405E0,-1.248933792E1,-1.588535190E0
3.357443605E0,-2.397309303E0,-1.253480148E1,-1.746760488E0
3.359968813E0,-2.689532757E0,-1.274327564E1,-1.624427438E0
3.362494022E0,-3.053839922E0,-1.295175076E1,-1.461715579E0
3.365019282E0,-3.429812193E0,-1.309531975E1,-1.277169108E0
3.367544490E0,-3.798605919E0,-1.323679543E1,-1.049551845E0
3.370069699E0,-4.110270977E0,-1.342134190E1,-8.147560954E-1
3.372594907E0,-4.407280445E0,-1.355055428E1,-6.373881102E-1
3.375120115E0,-4.680361271E0,-1.359123230E1,-3.595215976E-1
3.377645272E0,-4.943870544E0,-1.352901936E1,-6.251249462E-2
3.380170480E0,-5.262415409E0,-1.337557983E1,3.469592929E-1
3.382695688E0,-5.664708614E0,-1.316979694E1,5.243272781E-1
3.385220897E0,-5.971588135E0,-1.291585827E1,5.889334679E-1
3.387746105E0,-6.235097408E0,-1.268584824E1,5.745765567E-1
3.390271313E0,-6.400202274E0,-1.240319633E1,5.434698462E-1
3.392796522E0,-6.496214390E0,-1.204128170E1,5.482555032E-1
3.395321834E0,-6.558427811E0,-1.182114220E1,5.602195859E-1
3.397847042E0,-6.567998886E0,-1.156720352E1,3.780659735E-1
3.400372251E0,-6.469594002E0,-1.133240795E1,1.483550072E-1
3.402897459E0,-6.357131481E0,-1.113111210E1,-1.369891018E-1
3.405422667E0,-6.174977779E0,-1.091306591E1,-5.344967842E-1
3.407947824E0,-6.057729721E0,-1.064955616E1,-1.059123158E0
3.410473032E0,-5.952146530E0,-1.045573807E1,-1.586142302E0
3.412998240E0,-5.791827202E0,-1.018505001E1,-2.034198284E0
3.415523449E0,-5.696114540E0,-9.926325798E0,-2.443670034E0
3.418048657E0,-5.681458473E0,-9.629017830E0,-2.884547710E0
3.420573865E0,-5.669494152E0,-9.305686951E0,-3.317947626E0
3.423099074E0,-5.662315845E0,-8.956035614E0,-3.722932816E0
3.425624334E0,-5.659923077E0,-8.596813202E0,-4.096512318E0
3.428149542E0,-5.655137062E0,-8.258827209E0,-4.369593143E0
3.430674751E0,-5.597709656E0,-7.880462170E0,-4.542175770E0
3.433199959E0,-5.626423359E0,-7.514061451E0,-4.592424870E0
3.435725167E0,-5.628816128E0,-7.154539585E0,-4.537389755E0
3.438250324E0,-5.614459038E0,-6.874280453E0,-4.383950233E0
3.440775532E0,-5.511568069E0,-6.627520561E0,-4.144668102E0
3.443300740E0,-5.329414368E0,-6.399903297E0,-3.907479286E0
3.445825949E0,-5.154737949E0,-6.287440777E0,-3.663112402E0
3.448351157E0,-5.075475693E0,-6.215655804E0,-3.423531055E0
3.450876365E0,-4.771288395E0,-6.232405663E0,-3.136093140E0
3.453401574E0,-4.452744007E0,-6.184549332E0,-2.757428885E0
3.455926886E0,-4.272983074E0,-6.093322754E0,-2.362314224E0
3.458452094E0,-4.162913322E0,-6.052644730E0,-2.096411705E0
3.460977303E0,-4.011866093E0,-6.035895348E0,-1.902294040E0
3.463502511E0,-3.858725548E0,-5.906682491E0,-1.818545222E0
3.466027719E0,-3.757927895E0,-5.767600060E0,-1.710569143E0
3.468552876E0,-3.683750391E0,-5.667101383E0,-1.686640859E0
3.471078084E0,-3.600001574E0,-5.587839127E0,-1.691426516E0
3.473603292E0,-3.537489176E0,-5.475376606E0,-1.559821248E0
3.476128501E0,-3.425026417E0,-5.374877930E0,-1.478465319E0
3.478653709E0,-3.322135210E0,-5.324329376E0,-1.595713615E0
3.481178917E0,-3.120838881E0,-5.367699623E0,-1.657927036E0
3.483704126E0,-3.077768087E0,-5.293222904E0,-1.730010748E0
3.486229386E0,-2.965006351E0,-5.199902534E0,-1.801795483E0
3.488754594E0,-2.823829889E0,-5.233402252E0,-1.806581140E0
3.491279803E0,-2.691925526E0,-5.199902534E0,-1.842473388E0
3.493805011E0,-2.557927370E0,-5.173581600E0,-1.806581140E0
3.496330219E0,-2.447558403E0,-5.116153717E0,-1.696212173E0
3.498855376E0,-2.473879576E0,-4.989035130E0,-1.636391640E0
3.501380584E0,-2.430808783E0,-4.934000492E0,-1.598106384E0
3.503905792E0,-2.421237469E0,-4.847858906E0,-1.540678620E0
3.506431001E0,-2.430808783E0,-4.708775997E0,-1.473679662E0
3.508956209E0,-2.449951172E0,-4.493122578E0,-1.411167145E0
3.511481417E0,-2.541177750E0,-4.236791611E0,-1.437488198E0
3.514006626E0,-2.622533560E0,-4.038187504E0,-1.488036633E0
3.516531938E0,-2.768795013E0,-3.836891174E0,-1.519143224E0
3.519057147E0,-2.866900682E0,-3.580559969E0,-1.533500195E0
3.521582355E0,-3.013161898E0,-3.412763357E0,-1.521536112E0
3.524107563E0,-3.197409153E0,-3.146860838E0,-1.538285851E0
3.526632772E0,-3.369991541E0,-2.864208698E0,-1.660319805E0
3.529157980E0,-3.559323788E0,-2.691925526E0,-1.540678620E0
3.531683188E0,-3.607180119E0,-2.540878534E0,-1.569392562E0
3.534208397E0,-3.733999729E0,-2.334796667E0,-1.705783486E0
3.536733605E0,-3.916153431E0,-2.212762833E0,-1.775474429E0
3.539258813E0,-3.901796341E0,-2.128714800E0,-1.787438512E0
3.541784022E0,-3.818047523E0,-2.191227436E0,-1.926222205E0
3.544309230E0,-3.880260944E0,-2.061715841E0,-1.986042738E0
3.546834438E0,-3.923331738E0,-1.848455548E0,-2.086840391E0
3.549359647E0,-3.851547241E0,-1.757528186E0,-2.168196440E0
3.551884855E0,-3.882653952E0,-1.572981834E0,-2.383849621E0
3.554410063E0,-3.935296059E0,-1.412662625E0,-2.551646233E0
3.556935272E0,-3.906582117E0,-1.350449324E0,-2.678465843E0
3.559460480E0,-3.863511324E0,-1.249651670E0,-2.915654421E0
3.561985688E0,-3.810570002E0,-1.264008522E0,-3.124129057E0
3.564510897E0,-3.681357622E0,-1.268794179E0,-3.317947626E0
3.567036105E0,-3.552145243E0,-1.252044439E0,-3.490530014E0
3.569561313E0,-3.537489176E0,-1.208973646E0,-3.610470295E0
3.572086522E0,-3.552145243E0,-1.153938770E0,-3.739682674E0
3.574611730E0,-3.631108284E0,-1.163509965E0,-3.890729666E0
3.577136990E0,-3.839582920E0,-1.130010486E0,-4.017549038E0
3.579662199E0,-3.975973845E0,-1.127617717E0,-4.108476639E0
3.582187407E0,-4.100699902E0,-1.091725349E0,-4.149453640E0
3.584712615E0,-4.256233215E0,-1.106082320E0,-4.235595226E0
3.587237824E0,-4.392923355E0,-1.101296663E0,-4.240380764E0
3.589763032E0,-4.502993107E0,-1.091725349E0,-4.273880482E0
3.592288240E0,-4.608277321E0,-1.118046403E0,-4.405784607E0
3.594813449E0,-4.756931305E0,-1.089332461E0,-4.525425911E0
3.597338657E0,-4.826323509E0,-1.144367456E0,-4.640281200E0
3.599863865E0,-4.878965378E0,-1.153938770E0,-4.784149647E0
3.602389074E0,-4.917549610E0,-1.220937729E0,-4.918148041E0
3.604914282E0,-4.910371304E0,-1.333400369E0,-5.009374142E0
3.607439490E0,-4.792823792E0,-1.489233017E0,-5.078765869E0
3.609964699E0,-4.740181446E0,-1.623530149E0,-5.169693470E0
3.612489907E0,-4.661218643E0,-1.762313843E0,-5.287240505E0
3.615015115E0,-4.572384834E0,-1.891825438E0,-5.385346413E0
3.617540324E0,-4.407280445E0,-2.023430586E0,-5.421238899E0
3.620065532E0,-4.316053867E0,-2.095215321E0,-5.490929604E0
3.622590740E0,-4.220340729E0,-2.133500576E0,-5.620141983E0
3.625115949E0,-4.129413605E0,-2.174477577E0,-5.708676815E0
3.627641157E0,-4.112663746E0,-2.248655081E0,-5.811867237E0
3.630166365E0,-4.083950043E0,-2.310868502E0,-5.943472385E0
3.632691574E0,-4.071686745E0,-2.387438774E0,-6.063412666E0
3.635216782E0,-4.040580273E0,-2.497807741E0,-6.238088608E0
3.637742042E0,-4.045365810E0,-2.638984203E0,-6.477670193E0
3.640267251E0,-4.016652107E0,-2.790031195E0,-6.693323135E0
3.642792459E0,-4.011866093E0,-2.948256493E0,-6.892226696E0
3.645317667E0,-4.038187504E0,-3.103790045E0,-7.122236729E0
3.647842876E0,-4.093521118E0,-3.228515863E0,-7.335197926E0
3.650368084E0,-4.117449760E0,-3.331407309E0,-7.459923744E0
3.652893292E0,-4.165306091E0,-3.412763357E0,-7.627720356E0
3.655418501E0,-4.270590305E0,-3.453441381E0,-7.716254711E0
3.657943709E0,-4.366602421E0,-3.513561010E0,-7.764111042E0
3.660468917E0,-4.462315083E0,-3.544667721E0,-7.814360619E0
3.662994126E0,-4.605884552E0,-3.556631804E0,-7.835896015E0
3.665519334E0,-4.713860512E0,-3.499203920E0,-7.797610760E0
3.668044542E0,-4.862215519E0,-3.453441381E0,-7.718647480E0
3.670569751E0,-4.951049328E0,-3.384049416E0,-7.634898663E0
3.673094959E0,-5.018048286E0,-3.235694408E0,-7.579565048E0
3.675620167E0,-5.073082924E0,-3.151646614E0,-7.558029652E0
3.678145376E0,-5.142475128E0,-3.103790045E0,-7.512565613E0
3.680670584E0,-5.166702271E0,-3.034398317E0,-7.538887024E0
3.683195792E0,-5.183452129E0,-2.969791889E0,-7.663612843E0
3.685721001E0,-5.243272781E0,-2.871387243E0,-7.835896015E0
3.688246209E0,-5.231308460E0,-2.873780012E0,-8.063512802E0
3.690771417E0,-5.288736343E0,-2.854637384E0,-8.420641899E0
3.693296626E0,-5.312664509E0,-2.806781054E0,-8.755936623E0
3.695821834E0,-5.401198864E0,-2.828316450E0,-9.112766266E0
3.698347094E0,-5.480461121E0,-2.880958557E0,-9.354740143E0
3.700872303E0,-5.578567028E0,-2.928814888E0,-9.534501076E0
3.703397511E0,-5.659923077E0,-2.967399120E0,-9.620642662E0
3.705922719E0,-5.739185333E0,-3.091825962E0,-9.558428764E0
3.708447928E0,-5.765506268E0,-3.175574780E0,-9.311669350E0
3.710973136E0,-5.758327484E0,-3.247658491E0,-8.839685440E0
3.713498344E0,-5.832505226E0,-3.333800077E0,-8.046763420E0
3.716023553E0,-5.837290764E0,-3.441477060E0,-6.978368282E0
3.718548761E0,-5.794219971E0,-3.484847069E0,-5.826223850E0
3.721073969E0,-5.676672459E0,-3.585345745E0,-5.026124001E0
3.723599178E0,-5.583352566E0,-3.884747505E0,-4.369593143E0
3.726124386E0,-5.571388245E0,-4.217648983E0,-4.590032101E0
3.728649594E0,-5.722435474E0,-4.505086899E0,-5.581857204E0
3.731174803E0,-6.029015541E0,-4.782953262E0,-7.117451191E0
3.733700011E0,-6.565606117E0,-5.166403294E0,-9.769296646E0
3.736225219E0,-7.207480907E0,-5.671886921E0,-1.258146191E1
3.738750428E0,-7.847261906E0,-6.399903297E0,-1.569571972E1
3.741275636E0,-8.618349075E0,-7.363014221E0,-1.878814507E1
3.743800844E0,-9.626923561E0,-8.381160736E0,-2.135145569E1
3.746326053E0,-1.083918762E1,-9.442377090E0,-2.226880455E1
3.748851261E0,-1.257338524E1,-1.039801121E1,-1.960738754E1
3.751376469E0,-1.453550053E1,-1.116461182E1,-1.319701481E1
3.753901678E0,-1.574746513E1,-1.189053345E1,-4.273880482E0
3.756426886E0,-1.522283840E1,-1.262124252E1,3.161816120E0
3.758952147E0,-1.299751377E1,-1.344766331E1,7.538288593E0
3.761477355E0,-1.021376324E1,-1.427647686E1,8.043772697E0
3.764002563E0,-8.350053787E0,-1.508854103E1,5.224130154E0
3.766527772E0,-7.842476368E0,-1.573520184E1,4.262215197E-1
3.769052980E0,-8.204091072E0,-1.639173317E1,-4.637888432E0
3.771578188E0,-8.769395828E0,-1.693071556E1,-8.286344528E0
3.774103397E0,-9.212666512E0,-1.728515244E1,-1.051645565E1
3.776628605E0,-9.250951767E0,-1.737847328E1,-1.120170021E1
3.779153813E0,-8.781359673E0,-1.712453461E1,-1.065553856E1
3.781679022E0,-8.076972961E0,-1.647308922E1,-9.428917885E0
3.784204230E0,-7.470990658E0,-1.545972824E1,-8.056334496E0
3.786729438E0,-7.346563816E0,-1.405843163E1,-6.882655144E0
3.789254647E0,-7.744071484E0,-1.238405323E1,-5.984150410E0
3.791779855E0,-8.503493309E0,-1.049402237E1,-5.121836662E0
3.794305063E0,-9.267701149E0,-8.592027664E0,-4.216452599E0
3.796830272E0,-9.777970314E0,-6.835995197E0,-3.219841957E0
3.799355480E0,-1.000319481E1,-5.370092392E0,-2.314457655E0
3.801880688E0,-1.015394306E1,-4.241577148E0,-1.799402595E0
3.804405897E0,-1.032413197E1,-3.463012457E0,-1.777867198E0
3.806931105E0,-1.048684406E1,-3.053540707E0,-2.273779631E0
3.809456313E0,-1.045334530E1,-2.945863724E0,-3.104986429E0
3.811981522E0,-1.008215809E1,-3.087040424E0,-4.120440483E0
3.814506730E0,-9.404091835E0,-3.458226919E0,-5.023731232E0
3.817031938E0,-8.388637543E0,-3.937389612E0,-5.725426197E0
3.819557199E0,-7.267301559E0,-4.457230568E0,-6.053841114E0
3.822082407E0,-6.244668961E0,-4.969892502E0,-5.967400551E0
3.824607615E0,-5.319842815E0,-5.504090309E0,-5.562714577E0
3.827132824E0,-4.529314041E0,-5.990431309E0,-5.200799942E0
3.829658032E0,-3.753142357E0,-6.428916454E0,-5.244169712E0
3.832183240E0,-3.125624657E0,-6.905386925E0,-5.493322372E0
3.834708449E0,-2.584248543E0,-7.389335632E0,-5.589035511E0
3.837233657E0,-2.073979139E0,-7.890033722E0,-5.210670471E0
3.839758865E0,-1.585245013E0,-8.400302887E0,-4.613960266E0
3.842284074E0,-1.216451168E0,-8.936893463E0,-4.010370731E0
3.844809282E0,-9.577272534E-1,-9.511769295E0,-3.559921980E0
3.847334490E0,-8.617152572E-1,-1.003160954E1,-3.305983543E0
3.849859699E0,-8.425726891E-1,-1.054187965E1,-3.155235767E0
3.852384907E0,-7.588238716E-1,-1.108086300E1,-3.020938635E0
3.854910115E0,-6.870391965E-1,-1.156720352E1,-2.879761934E0
3.857435324E0,-5.599204898E-1,-1.205593777E1,-2.762214661E0
3.859960532E0,-2.988037169E-1,-1.258535004E1,-2.664108992E0
3.862485740E0,-9.062815458E-2,-1.304985619E1,-2.635395050E0
3.865010949E0,1.034895778E-1,-1.349791241E1,-2.750250578E0
3.867536157E0,2.665006220E-1,-1.386909962E1,-3.040081263E0
3.870061365E0,3.191427290E-1,-1.424776363E1,-3.488137245E0
3.872586574E0,3.933202326E-1,-1.445863056E1,-3.957728624E0
3.875111782E0,3.574278951E-1,-1.467637730E1,-4.154239178E0
3.877636990E0,5.802594870E-2,-1.483938885E1,-4.161417484E0
3.880162251E0,-3.275175989E-1,-1.477956772E1,-4.106083870E0
3.882687459E0,-8.186444640E-1,-1.460459328E1,-3.929014683E0
3.885212667E0,-1.364806175E0,-1.430519104E1,-3.689433336E0
3.887737876E0,-1.843968987E0,-1.395793247E1,-3.571886063E0
3.890263084E0,-2.236989975E0,-1.351705551E1,-3.543172121E0
3.892788292E0,-2.402094841E0,-1.301157093E1,-3.454637766E0
3.895313501E0,-2.543570518E0,-1.248455238E1,-3.476173162E0
3.897838709E0,-2.634497643E0,-1.196949673E1,-3.550350666E0
3.900363917E0,-2.742174864E0,-1.142333508E1,-3.504886866E0
3.902889126E0,-2.819044113E0,-1.087956619E1,-3.504886866E0
3.905414334E0,-2.955435038E0,-1.030708313E1,-3.552743435E0
3.907939542E0,-3.041875839E0,-9.806385040E0,-3.552743435E0
3.910464803E0,-3.128017426E0,-9.303294182E0,-3.416352510E0
3.912990011E0,-3.230908871E0,-8.834002495E0,-3.332304716E0
3.915515219E0,-3.374777317E0,-8.388339043E0,-3.203092098E0
3.918040428E0,-3.535096407E0,-8.060222626E0,-3.222234726E0
3.920565636E0,-3.638286829E0,-7.703094482E0,-3.231806040E0
3.923090844E0,-3.781856298E0,-7.329514980E0,-3.284448147E0
3.925616053E0,-3.887439489E0,-7.020541668E0,-3.382853031E0
3.928141261E0,-3.877868176E0,-6.797709942E0,-3.504886866E0
3.930666469E0,-3.877868176E0,-6.546164513E0,-3.533600807E0
3.933191678E0,-3.851547241E0,-6.383153439E0,-3.632005692E0
3.935716886E0,-3.791427374E0,-6.304190159E0,-3.734897137E0
3.938242094E0,-3.726821184E0,-6.220441341E0,-3.856930971E0
3.940767355E0,-3.607180119E0,-6.170192242E0,-3.893122435E0
3.943292563E0,-3.525525093E0,-6.189334869E0,-3.945764542E0
3.945817772E0,-3.465704441E0,-6.215655804E0,-3.974478483E0
3.948342980E0,-3.451347589E0,-6.308976173E0,-4.072584152E0
3.950868188E0,-3.441776276E0,-6.416653156E0,-4.110869408E0
3.953393397E0,-3.446561813E0,-6.486343861E0,-4.072584152E0
3.955918605E0,-3.422633648E0,-6.572485447E0,-4.108476639E0
3.958443813E0,-3.451347589E0,-6.711568356E0,-4.120440483E0
3.960969022E0,-3.369991541E0,-6.869494915E0,-4.063013077E0
3.963494230E0,-3.353241920E0,-7.022934437E0,-4.019941807E0
3.966019438E0,-3.298206806E0,-7.166503906E0,-3.972085476E0
3.968544647E0,-3.211766243E0,-7.336693287E0,-3.777967930E0
3.971069855E0,-3.120838881E0,-7.547560692E0,-3.593421459E0
3.973595063E0,-3.034697294E0,-7.710272789E0,-3.452244759E0
3.976120272E0,-2.981756210E0,-7.772785187E0,-3.298804998E0
3.978645480E0,-2.888436079E0,-7.858926773E0,-3.128914595E0
3.981170688E0,-2.711068153E0,-8.060222626E0,-2.874976397E0
3.983695897E0,-2.596212626E0,-8.177471161E0,-2.640180588E0
3.986221105E0,-2.536391973E0,-8.287541389E0,-2.407777786E0
3.988746313E0,-2.378166676E0,-8.395517349E0,-2.184946060E0
3.991271522E0,-2.193620205E0,-8.500801086E0,-1.909472466E0
3.993796730E0,-2.117049932E0,-8.491230011E0,-1.588535190E0
3.996321938E0,-1.877468467E0,-8.474480629E0,-1.164407372E0
3.998847147E0,-1.542174220E0,-8.572885513E0,-8.769695163E-1
4.001372407E0,-1.472782373E0,-8.580063820E0,-7.429714203E-1
4.003897615E0,-1.470389485E0,-8.637491226E0,-7.118647099E-1
4.006422824E0,-1.530210137E0,-8.690134048E0,-6.711867452E-1
4.008948032E0,-1.479960799E0,-8.685347557E0,-5.751747489E-1
4.011473240E0,-1.300199986E0,-8.814560890E0,-3.523431420E-1
4.013998449E0,-9.529415965E-1,-9.001500130E0,-8.644071966E-2
4.016523657E0,-7.253243923E-1,-9.037391663E0,2.009970993E-1
4.019048865E0,-4.929214716E-1,-9.145368576E0,3.589234054E-1
4.021574074E0,-3.373879790E-1,-9.327222824E0,4.334000051E-1
4.024099282E0,-3.493520916E-1,-9.392127991E0,5.051847100E-1
4.026624490E0,-5.096712112E-1,-9.380164146E0,5.889334679E-1
4.029149699E0,-6.152545214E-1,-9.291330338E0,5.721837282E-1
4.031674959E0,-7.133602500E-1,-9.140582085E0,4.812564552E-1
4.034200167E0,-7.636095285E-1,-9.011071205E0,4.142574072E-1
4.036725376E0,-6.248258352E-1,-8.999106407E0,1.938186288E-1
4.039250584E0,-5.096712112E-1,-9.078069687E0,-1.728814393E-1
4.041775792E0,-3.780659735E-1,-9.123832703E0,-5.560321808E-1
4.044301001E0,-1.983051747E-1,-9.186046600E0,-9.251250625E-1
4.046826209E0,-1.001994461E-1,-9.286544800E0,-1.313061476E0
4.049351417E0,6.759724021E-2,-9.351150513E0,-1.588535190E0
4.051876626E0,1.992024779E-1,-9.389735222E0,-1.861616015E0
4.054401886E0,2.832503915E-1,-9.461520195E0,-2.094018936E0
4.056927094E0,3.334996700E-1,-9.459127426E0,-2.232802629E0
4.059452303E0,3.239283562E-1,-9.533304214E0,-2.326421738E0
4.061977511E0,3.095714152E-1,-9.552447319E0,-2.237588167E0
4.064502719E0,2.306082845E-1,-9.516554832E0,-2.149053812E0
4.067027928E0,7.477571070E-2,-9.492626190E0,-1.962114573E0
4.069553136E0,-1.169492081E-1,-9.404091835E0,-1.808973908E0
4.072078344E0,-1.767697781E-1,-9.332008362E0,-1.667498231E0
4.074603553E0,-1.719841212E-1,-9.221938133E0,-1.566999674E0
4.077128761E0,-2.844468057E-1,-9.061320305E0,-1.432702541E0
4.079653969E0,-3.828516304E-1,-8.886644363E0,-1.327418327E0
4.082179178E0,-4.642075896E-1,-8.692526817E0,-1.171585798E0
4.084704438E0,-5.192425251E-1,-8.469695091E0,-1.066301584E0
4.087229647E0,-6.152545214E-1,-8.270791054E0,-9.152546525E-1
4.089754855E0,-7.612167001E-1,-8.038687706E0,-7.668996453E-1
4.092280115E0,-1.017547846E0,-7.712665558E0,-9.251250625E-1
4.094805324E0,-1.321735382E0,-7.360621452E0,-1.322632670E0
4.097330532E0,-1.678864241E0,-6.975078106E0,-1.808973908E0
4.099855740E0,-2.021337032E0,-6.615556240E0,-2.412563324E0
4.102380949E0,-2.339881420E0,-6.285048008E0,-3.112164974E0
4.104906157E0,-2.667997360E0,-5.971288681E0,-3.809074640E0
4.107431365E0,-3.037090063E0,-5.691029549E0,-4.405784607E0
4.109956574E0,-3.434597731E0,-5.468197823E0,-4.910969257E0
4.112481782E0,-3.767499208E0,-5.269294739E0,-5.339882851E0
4.115007042E0,-4.057330132E0,-5.082355499E0,-5.653641701E0
4.117532251E0,-4.275375843E0,-4.953142643E0,-5.842973709E0
4.120057459E0,-4.419244289E0,-4.962714195E0,-5.924329758E0
4.122582667E0,-4.546063900E0,-4.953142643E0,-5.957829475E0
4.125107876E0,-4.632504463E0,-5.036891460E0,-6.044270039E0
4.127633084E0,-4.627718925E0,-5.140082359E0,-6.116054535E0
4.130158292E0,-4.649254322E0,-5.257330418E0,-6.108876228E0
4.132683501E0,-4.654039860E0,-5.456233978E0,-6.111268997E0
4.135208709E0,-4.555634975E0,-5.681458473E0,-6.034698486E0
4.137733917E0,-4.452744007E0,-5.980860233E0,-5.986543179E0
4.140259126E0,-4.344767570E0,-6.253941059E0,-5.938686848E0
4.142784334E0,-4.148556232E0,-6.574878216E0,-5.778367519E0
4.145309594E0,-3.925724745E0,-6.946064949E0,-5.648856163E0
4.147834803E0,-3.693321705E0,-7.300800800E0,-5.507679462E0
4.150360011E0,-3.463311672E0,-7.679165840E0,-5.296812057E0
4.152885219E0,-3.178266764E0,-7.988139153E0,-5.097908497E0
4.155410428E0,-2.845365286E0,-8.364410400E0,-4.877470016E0
4.157935636E0,-2.495713949E0,-8.694919586E0,-4.640281200E0
4.160460844E0,-2.157727718E0,-9.020642281E0,-4.415356159E0
4.162986053E0,-1.808076620E0,-9.332008362E0,-4.237987995E0
4.165511261E0,-1.484746456E0,-9.619445801E0,-4.046263218E0
4.168036469E0,-1.163809061E0,-9.870991707E0,-3.856930971E0
4.170561678E0,-8.545367718E-1,-1.015603638E1,-3.679862022E0
4.173086886E0,-5.742774606E-1,-1.038126087E1,-3.545564890E0
4.175612147E0,-3.469592929E-1,-1.063759232E1,-3.361317635E0
4.178137355E0,-1.169492081E-1,-1.087238789E1,-3.193521023E0
4.180662563E0,1.322034448E-1,-1.102822018E1,-3.097808123E0
4.183187772E0,3.454637825E-1,-1.116461182E1,-3.035295486E0
4.185712980E0,4.845465720E-1,-1.125105190E1,-2.944368362E0
4.188238188E0,6.305087805E-1,-1.130608654E1,-2.910868645E0
4.190763397E0,7.791628838E-1,-1.134437180E1,-2.901297569E0
4.193288605E0,8.772686124E-1,-1.133480072E1,-2.927618504E0
4.195813813E0,9.753743410E-1,-1.128455162E1,-2.982653379E0
4.198339022E0,1.016351461E0,-1.117896843E1,-3.037688255E0
4.200864230E0,9.275178909E-1,-1.102343464E1,-3.160021305E0
4.203389438E0,8.653044701E-1,-1.086281681E1,-3.332304716E0
4.205914699E0,7.839485407E-1,-1.069023418E1,-3.509672642E0
4.208439907E0,6.544370055E-1,-1.057537842E1,-3.694219112E0
4.210965115E0,5.659025311E-1,-1.046770191E1,-3.909872293E0
4.213490324E0,4.627120793E-1,-1.037408257E1,-4.072584152E0
4.216015532E0,3.789632916E-1,-1.033579731E1,-4.216452599E0
4.218540740E0,3.334996700E-1,-1.025683403E1,-4.312165737E0
4.221065949E0,2.856431901E-1,-1.026640511E1,-4.395914078E0
4.223591157E0,2.377867550E-1,-1.032622623E1,-4.352843285E0
4.226116365E0,2.234298140E-1,-1.041954613E1,-4.307379723E0
4.228641574E0,1.633101404E-1,-1.052273655E1,-4.223630905E0
4.231166782E0,2.258226424E-1,-1.065194893E1,-4.043870449E0
4.233691990E0,3.047857881E-1,-1.084128094E1,-3.893122435E0
4.236217251E0,4.292125702E-1,-1.106650543E1,-3.725325823E0
4.238742459E0,5.826523304E-1,-1.127737331E1,-3.591028690E0
4.241267667E0,7.094719410E-1,-1.147358418E1,-3.445066452E0
4.243792876E0,8.988040090E-1,-1.161745262E1,-3.298804998E0
4.246318084E0,1.035493970E0,-1.178524971E1,-3.176771164E0
4.248843292E0,1.210170031E0,-1.190728378E1,-3.066701412E0
4.251368501E0,1.366002679E0,-1.199821091E1,-2.973082066E0
4.253893709E0,1.440180182E0,-1.206311607E1,-2.906083107E0
4.256418917E0,1.514357686E0,-1.210379410E1,-2.790928602E0
4.258944126E0,1.574477315E0,-1.215643597E1,-2.731107950E0
4.261469334E0,1.545763373E0,-1.224497032E1,-2.659323215E0
4.263994542E0,1.516750455E0,-1.233141136E1,-2.554039001E0
4.266519803E0,1.421037555E0,-1.238166046E1,-2.469991207E0
4.269045011E0,1.337288737E0,-1.245105267E1,-2.446063042E0
4.271570219E0,1.188634634E0,-1.253001595E1,-2.345564365E0
4.274095428E0,1.030708313E0,-1.257308674E1,-2.228017092E0
4.276620636E0,8.389834166E-1,-1.265952682E1,-2.122732878E0
4.279145844E0,5.994020700E-1,-1.269302654E1,-2.060519457E0
4.281671053E0,3.765704632E-1,-1.270738411E1,-1.950150490E0
4.284196261E0,3.409772366E-2,-1.272652626E1,-1.864008784E0
4.286721469E0,-2.700898647E-1,-1.272652626E1,-1.775474429E0
4.289246678E0,-6.296114326E-1,-1.272174072E1,-1.681855202E0
4.291771886E0,-1.233201027E0,-1.268824100E1,-1.540678620E0
4.294297094E0,-1.855933070E0,-1.264038467E1,-1.425524116E0
4.296822355E0,-2.327917337E0,-1.262124252E1,-1.334596872E0
4.299347563E0,-2.831008196E0,-1.268824100E1,-1.188335538E0
4.301872772E0,-3.329313517E0,-1.279352570E1,-1.030409217E0
4.304397980E0,-3.822833300E0,-1.299482155E1,-9.658030272E-1
4.306923188E0,-4.308875561E0,-1.318415356E1,-8.865407705E-1
4.309448397E0,-4.828716278E0,-1.340937805E1,-7.908278704E-1
4.311973605E0,-5.200201988E0,-1.367767334E1,-7.884350419E-1
4.314498813E0,-5.509174824E0,-1.398664665E1,-8.315058947E-1
4.317024022E0,-5.755934715E0,-1.428365612E1,-8.961120844E-1
4.319549230E0,-5.885147095E0,-1.462373543E1,-1.030409217E0
4.322074438E0,-5.861218929E0,-1.499522114E1,-1.229312658E0
4.324599647E0,-5.753541946E0,-1.539033604E1,-1.449452281E0
4.327124907E0,-5.602495193E0,-1.574477291E1,-1.653141379E0
4.329650115E0,-5.365306377E0,-1.609950829E1,-1.897508383E0
4.332175324E0,-5.094618320E0,-1.644915962E1,-2.077269077E0
4.334700584E0,-4.766502857E0,-1.669113350E1,-2.259123564E0
4.337225792E0,-4.376173496E0,-1.683709717E1,-2.484348059E0
4.339751001E0,-3.964009762E0,-1.687328720E1,-2.599502802E0
4.342276209E0,-3.657429457E0,-1.677009773E1,-2.704786777E0
4.344801417E0,-3.381955624E0,-1.665045547E1,-2.774178743E0
4.347326626E0,-3.137588739E0,-1.662174225E1,-2.673680305E0
4.349851834E0,-3.037090063E0,-1.653530121E1,-2.467598438E0
4.352377042E0,-3.084946632E0,-1.634148407E1,-2.206481695E0
4.354902251E0,-3.185445070E0,-1.612343788E1,-1.998306036E0
4.357427511E0,-3.302992582E0,-1.590539074E1,-1.753939033E0
4.359952719E0,-3.389134169E0,-1.571845150E1,-1.464108348E0
4.362477928E0,-3.499203920E0,-1.547887039E1,-1.118943691E0
4.365003136E0,-3.645465374E0,-1.518186188E1,-6.927221417E-1
4.367528344E0,-3.762713671E0,-1.489203072E1,-3.355933726E-1
4.370053553E0,-3.815654755E0,-1.455195045E1,-7.926224917E-2
4.372578761E0,-3.930510283E0,-1.412782288E1,2.602194622E-2
4.375103969E0,-4.122235298E0,-1.350509071E1,1.483550072E-1
4.377629178E0,-4.339982033E0,-1.280070400E1,1.432702541E-1
4.380154386E0,-4.481457710E0,-1.210618687E1,6.909275055E-2
4.382679594E0,-4.507778645E0,-1.149033451E1,-1.127617657E-1
4.385204803E0,-4.491028786E0,-1.101864910E1,-2.853440940E-1
4.387730063E0,-4.383351803E0,-1.063280678E1,-4.483551383E-1
4.390255272E0,-4.210769653E0,-1.039322472E1,-6.975077987E-1
4.392780480E0,-4.059722900E0,-1.031665516E1,-9.032905698E-1
4.395305688E0,-3.916153431E0,-1.033579731E1,-1.202991605E0
4.397830897E0,-3.781856298E0,-1.041236782E1,-1.488036633E0
4.400356105E0,-3.609572887E0,-1.057298565E1,-1.782652855E0
4.402881313E0,-3.475275755E0,-1.069501972E1,-2.094018936E0
4.405406522E0,-3.329313517E0,-1.085563850E1,-2.367099762E0
4.407931730E0,-3.171088219E0,-1.101386356E1,-2.664108992E0
4.410456938E0,-3.096910715E0,-1.119093227E1,-2.944368362E0
4.412982147E0,-2.917150021E0,-1.134197903E1,-3.250948668E0
4.415507355E0,-2.819044113E0,-1.150708389E1,-3.603291750E0
4.418032615E0,-2.742174864E0,-1.161505985E1,-3.912265062E0
4.420557824E0,-2.701496840E0,-1.169163036E1,-4.271487713E0
4.423083032E0,-2.723032236E0,-1.174905872E1,-4.590032101E0
4.425608292E0,-2.660818815E0,-1.179482079E1,-4.951946259E0
4.428133501E0,-2.612962246E0,-1.181396389E1,-5.210670471E0
4.430658709E0,-2.703889608E0,-1.177567863E1,-5.418846130E0
4.433183917E0,-2.684746981E0,-1.176580811E1,-5.596213818E0
4.435709126E0,-2.699103832E0,-1.173709393E1,-5.799902916E0
4.438234334E0,-2.727817774E0,-1.170120144E1,-5.929115295E0
4.440759542E0,-2.792723179E0,-1.171795177E1,-6.111268997E0
4.443284751E0,-2.921935558E0,-1.177298641E1,-6.329315186E0
4.445809959E0,-3.111267567E0,-1.185703468E1,-6.544968128E0
4.448335219E0,-3.355634689E0,-1.192164040E1,-6.736393929E0
4.450860428E0,-3.568894863E0,-1.204875946E1,-6.916154861E0
4.453385636E0,-3.805784464E0,-1.215165043E1,-7.038188934E0
4.455910844E0,-3.935296059E0,-1.227607727E1,-7.160521984E0
4.458436053E0,-4.083950043E0,-1.241276741E1,-7.311269760E0
4.460961261E0,-4.129413605E0,-1.258535004E1,-7.455138206E0
4.463486469E0,-4.100699902E0,-1.276241875E1,-7.488637447E0
4.466011678E0,-4.028615952E0,-1.281984615E1,-7.265805721E0
4.468536886E0,-3.894618034E0,-1.287757301E1,-7.136593342E0
4.471062094E0,-3.731606960E0,-1.296850014E1,-6.944868565E0
4.473587303E0,-3.628715515E0,-1.293739414E1,-6.767500877E0
4.476112511E0,-3.365206003E0,-1.279352570E1,-6.588038921E0
4.478637772E0,-2.902792931E0,-1.277198982E1,-6.398706913E0
4.481162980E0,-2.213061810E0,-1.283420372E1,-6.154339790E0
4.483688188E0,-1.520638824E0,-1.295892906E1,-5.895616055E0
4.486213397E0,-1.043868899E0,-1.299003601E1,-5.449952602E0
4.488738605E0,-6.583253145E-1,-1.301875019E1,-4.925326347E0
4.491263813E0,-3.852444589E-1,-1.299721432E1,-4.391128540E0
4.493789022E0,-1.863410622E-1,-1.299482155E1,-3.849752426E0
4.496314230E0,-1.743769497E-1,-1.290867996E1,-3.248555899E0
4.498839438E0,1.489532143E-1,-1.286321640E1,-2.635395050E0
4.501364647E0,5.300102234E-1,-1.284377480E1,-2.158625126E0
4.503889855E0,7.983054519E-1,-1.271934795E1,-1.667498231E0
4.506415063E0,8.964111805E-1,-1.255155087E1,-1.212562919E0
4.508940324E0,9.131609201E-1,-1.243908882E1,-8.602197170E-1
4.511465532E0,9.634101987E-1,-1.229522038E1,-5.727819204E-1
4.513990740E0,9.179465771E-1,-1.212054443E1,-3.116651475E-1
4.516515949E0,8.629116416E-1,-1.199821091E1,-7.926224917E-2
4.519041157E0,7.887341380E-1,-1.189771271E1,1.432702541E-1
4.521566365E0,6.951149702E-1,-1.169163036E1,4.286143482E-1
4.524091574E0,5.324030519E-1,-1.156720352E1,6.969096065E-1
4.526616782E0,3.167499006E-1,-1.148554897E1,1.039382339E0
4.529141990E0,9.631111473E-2,-1.138026428E1,1.312463164E0
4.531667199E0,-1.241276711E-1,-1.130130100E1,1.652543187E0
4.534192407E0,-3.299104273E-1,-1.124865913E1,2.062314034E0
4.536717615E0,-5.072783828E-1,-1.125583744E1,2.589333296E0
4.539242876E0,-5.958128572E-1,-1.132044411E1,3.053839922E0
4.541768084E0,-7.516453862E-1,-1.137069321E1,3.509074450E0
4.544293292E0,-9.481559992E-1,-1.143051338E1,3.983451605E0
4.546818553E0,-1.202094316E0,-1.147597694E1,4.357030869E0
4.549343761E0,-1.482353687E0,-1.146640587E1,4.565505505E0
4.551868969E0,-1.609173179E0,-1.144965649E1,4.766801834E0
4.554394178E0,-1.738684773E0,-1.143529987E1,4.850550652E0
4.556919386E0,-1.872682810E0,-1.139940739E1,4.907978535E0
4.559444647E0,-2.078764677E0,-1.127498055E1,4.788337231E0
4.561969855E0,-2.263311148E0,-1.112154007E1,4.548755646E0
4.564495063E0,-2.461915493E0,-1.099711418E1,4.254139423E0
4.567020272E0,-2.615355253E0,-1.078624630E1,3.892225027E0
4.569545480E0,-2.783151865E0,-1.055384350E1,3.511467218E0
4.572070688E0,-2.909971476E0,-1.034776115E1,3.072982550E0
4.574595897E0,-3.058625460E0,-1.013450146E1,2.455035925E0
4.577121105E0,-3.202194929E0,-9.866206169E0,1.590329766E0
4.579646313E0,-3.262015581E0,-9.609874725E0,7.974081635E-1
4.582171522E0,-3.230908871E0,-9.480662346E0,-5.772684515E-2
4.584696730E0,-3.279064417E0,-9.279366493E0,-8.171489239E-1
4.587221938E0,-3.257229805E0,-9.049356461E0,-1.473679662E0
4.589747199E0,-3.159124136E0,-8.922536850E0,-2.304886341E0
4.592272407E0,-3.077768087E0,-8.788239479E0,-3.181556702E0
4.594797615E0,-3.025125980E0,-8.692526817E0,-4.067798615E0
4.597322824E0,-2.871686220E0,-8.642276764E0,-4.817649364E0
4.599848032E0,-2.682354212E0,-8.587242126E0,-5.498108387E0
4.602373240E0,-2.560320139E0,-8.486444473E0,-6.154339790E0
4.604898449E0,-2.433201551E0,-8.362017632E0,-6.748358250E0
4.607423657E0,-2.210669041E0,-8.256434441E0,-7.246663570E0
4.609948865E0,-2.004587173E0,-8.115258217E0,-7.658827305E0
4.612474074E0,-1.803290963E0,-7.966603756E0,-8.058727264E0
4.614999282E0,-1.671386600E0,-7.791927814E0,-8.228917122E0
4.617524490E0,-1.549352646E0,-7.528418064E0,-8.350951195E0
4.620049751E0,-1.482353687E0,-7.307979584E0,-8.470890999E0
4.622574959E0,-1.410568953E0,-7.025327206E0,-8.386843681E0
4.625100167E0,-1.422533035E0,-6.653841496E0,-8.142476082E0
4.627625376E0,-1.467996716E0,-6.292226315E0,-7.819146156E0
4.630150584E0,-1.578066587E0,-5.935396671E0,-7.359425068E0
4.632675792E0,-1.640279889E0,-5.640780449E0,-6.803392887E0
4.635201001E0,-1.693221092E0,-5.355735302E0,-6.089733601E0
4.637726261E0,-1.762612939E0,-5.044070244E0,-5.339882851E0
4.640251469E0,-1.846361756E0,-4.730311394E0,-4.597210407E0
4.642776678E0,-1.870290041E0,-4.466801643E0,-3.852145433E0
4.645301886E0,-1.870290041E0,-4.239184380E0,-3.102593660E0
4.647827094E0,-1.846361756E0,-3.992424488E0,-2.402992249E0
4.650352355E0,-1.853540182E0,-3.709772348E0,-1.813759565E0
4.652877563E0,-1.860718727E0,-3.436691523E0,-1.322632670E0
4.655402772E0,-1.870290041E0,-3.115754128E0,-8.482556343E-1
4.657927980E0,-1.920539260E0,-2.837887764E0,-4.890331328E-1
4.660453188E0,-1.942373753E0,-2.615056038E0,-3.068794906E-1
4.662978397E0,-1.930110574E0,-2.406581402E0,-2.207378894E-1
4.665503605E0,-1.915753603E0,-2.174477577E0,-1.992024779E-1
4.668028813E0,-1.879861236E0,-1.985145450E0,-2.733799815E-1
4.670554022E0,-1.808076620E0,-1.817348838E0,-3.858426511E-1
4.673079230E0,-1.786541224E0,-1.606780410E0,-5.225326419E-1
4.675604438E0,-1.822433591E0,-1.379163146E0,-6.711867452E-1
4.678129647E0,-1.815255046E0,-1.225723386E0,-7.956135273E-1
4.680654907E0,-1.750648856E0,-1.149153113E0,-9.753743410E-1
4.683180115E0,-1.652244091E0,-1.106082320E0,-1.116550922E0
4.685705324E0,-1.668993831E0,-1.033998489E0,-1.277169108E0
4.688230532E0,-1.642672777E0,-1.048355460E0,-1.413560033E0
4.690755740E0,-1.649851203E0,-1.014855862E0,-1.456630826E0
4.693280949E0,-1.647458434E0,-1.110867858E0,-1.540678620E0
4.695806157E0,-1.676471353E0,-1.125224829E0,-1.581356645E0
4.698331365E0,-1.765005827E0,-1.173081279E0,-1.617249012E0
4.700856574E0,-1.887039781E0,-1.249651670E0,-1.667498231E0
4.703381782E0,-1.983051777E0,-1.352842093E0,-1.703390598E0
4.705906990E0,-2.186441660E0,-1.434198022E0,-1.734796405E0
4.708432199E0,-2.361416817E0,-1.546660781E0,-1.816152334E0
4.710957459E0,-2.469093800E0,-1.633101463E0,-1.785045743E0
4.713482667E0,-2.622533560E0,-1.695314884E0,-1.837687731E0
4.716007876E0,-2.713460922E0,-1.841277003E0,-1.933400750E0
4.718533084E0,-2.775973320E0,-2.018645048E0,-1.964507341E0
4.721058292E0,-2.866900682E0,-2.198405743E0,-1.993221283E0
4.723583501E0,-2.900400162E0,-2.375474691E0,-1.998306036E0
4.726108709E0,-3.061018467E0,-2.514557600E0,-2.019841433E0
4.728633969E0,-3.147160053E0,-2.627020121E0,-2.091626167E0
4.731159178E0,-3.195016384E0,-2.816352367E0,-2.094018936E0
4.733684386E0,-3.358027458E0,-2.861815929E0,-2.048555374E0
4.736209594E0,-3.487239838E0,-2.876172781E0,-1.952543259E0
4.738734803E0,-3.415455103E0,-2.935993433E0,-1.904686809E0
4.741260063E0,-3.372384310E0,-2.960220814E0,-1.797009826E0
4.743785272E0,-3.319742203E0,-3.000898600E0,-1.763510346E0
4.746310480E0,-3.226123095E0,-3.029612541E0,-1.722533226E0
4.748835688E0,-3.238087177E0,-2.988934517E0,-1.708176255E0
4.751360897E0,-3.300599813E0,-2.931207657E0,-1.749153376E0
4.753886105E0,-3.381955624E0,-2.849851847E0,-1.830509305E0
4.756411313E0,-3.420240879E0,-2.840280533E0,-1.899901152E0
4.758936522E0,-3.568894863E0,-2.723032236E0,-2.053340912E0
4.761461730E0,-3.657429457E0,-2.655734062E0,-2.254338026E0
4.763986938E0,-3.789034605E0,-2.605484724E0,-2.402992249E0
4.766512147E0,-3.906582117E0,-2.533699989E0,-2.532503605E0
4.769037355E0,-4.033401489E0,-2.471486807E0,-2.685644388E0
4.771562615E0,-4.141377926E0,-2.418844700E0,-2.925225735E0
4.774087824E0,-4.301696777E0,-2.358724833E0,-3.222234726E0
4.776613032E0,-4.380959034E0,-2.303689957E0,-3.421138287E0
4.779138240E0,-4.361816406E0,-2.231905222E0,-3.567100286E0
4.781663449E0,-4.366602421E0,-2.143370867E0,-3.763610840E0
4.784188657E0,-4.328018188E0,-2.114357948E0,-3.960121393E0
4.786713865E0,-4.177269936E0,-2.056930065E0,-4.106083870E0
4.789239074E0,-3.975973845E0,-2.114357948E0,-4.345664978E0
4.791764282E0,-3.743571043E0,-2.121536493E0,-4.597210407E0
4.794289490E0,-3.554538012E0,-2.176870346E0,-4.798506737E0
4.796814699E0,-3.338884830E0,-2.265404940E0,-5.028516769E0
4.799339907E0,-3.039483070E0,-2.414058924E0,-5.244169712E0
4.801865167E0,-2.744866610E0,-2.586342096E0,-5.471487999E0
4.804390376E0,-2.442772865E0,-2.718246460E0,-5.670391560E0
4.806915584E0,-2.256132603E0,-2.854637384E0,-5.835795403E0
4.809440792E0,-2.179263115E0,-2.895315409E0,-6.027520180E0
4.811966001E0,-2.117049932E0,-2.974577665E0,-6.163911343E0
4.814491209E0,-2.114656925E0,-3.096611500E0,-6.238088608E0
4.817016417E0,-2.126621008E0,-3.166003466E0,-6.336493492E0
4.819541626E0,-2.277667999E0,-3.226123095E0,-6.482455730E0
4.822066834E0,-2.392523527E0,-3.235694408E0,-6.609574318E0
4.824592042E0,-2.529213428E0,-3.288336515E0,-6.791429043E0
4.827117251E0,-2.701496840E0,-3.314657450E0,-7.064509869E0
4.829642459E0,-2.909971476E0,-3.336193085E0,-7.385746002E0
4.832167719E0,-3.029911757E0,-3.396013498E0,-7.819146156E0
4.834692928E0,-3.056232691E0,-3.460619688E0,-8.362915039E0
4.837218136E0,-3.142374277E0,-3.573381424E0,-8.964410782E0
4.839743344E0,-3.247658491E0,-3.671487331E0,-9.570393562E0
4.842268553E0,-3.319742203E0,-3.731307745E0,-1.005434132E1
4.844793761E0,-3.386741400E0,-3.800998688E0,-1.032742214E1
4.847318969E0,-3.496811152E0,-3.903890133E0,-1.033460140E1
4.849844178E0,-3.515953779E0,-3.946960926E0,-1.012851906E1
4.852369386E0,-3.432204962E0,-4.035794258E0,-9.769296646E0
4.854894594E0,-3.372384310E0,-4.074079514E0,-9.210871696E0
4.857419803E0,-3.276372433E0,-4.107579231E0,-8.659924507E0
4.859945011E0,-3.242872953E0,-4.162613869E0,-8.142476082E0
4.862470272E0,-3.358027458E0,-4.263112545E0,-7.740182877E0
4.864995480E0,-3.580859184E0,-4.318446636E0,-7.943871975E0
4.867520688E0,-3.894618034E0,-4.385445595E0,-8.911469460E0
4.870045897E0,-4.311268330E0,-4.538586140E0,-1.086879826E1
4.872571105E0,-4.963013172E0,-4.660919189E0,-1.343898964E1
4.875096313E0,-5.882754326E0,-4.934000492E0,-1.644796371E1
4.877621522E0,-6.917650223E0,-5.326722145E0,-2.033570290E1
4.880146782E0,-7.715357304E0,-5.971288681E0,-2.422134781E1
4.882671990E0,-8.414958954E0,-6.658627033E0,-2.564896584E1
4.885197199E0,-9.567103386E0,-7.101897717E0,-2.351456642E1
4.887722407E0,-1.129651546E1,-7.329514980E0,-1.722383690E1
4.890247615E0,-1.264546967E1,-7.750950813E0,-9.496215820E0
4.892772876E0,-1.262842083E1,-8.879466057E0,-2.839084148E0
4.895298084E0,-1.163928795E1,-1.052512932E1,1.436890006E0
4.897823292E0,-1.019940662E1,-1.217318630E1,2.888735056E0
4.900348501E0,-8.860322952E0,-1.364148235E1,1.884945989E0
4.902873709E0,-7.887939930E0,-1.493749428E1,-7.597211599E-1
4.905398917E0,-7.066304207E0,-1.617129326E1,-4.000799656E0
4.907924126E0,-6.438487530E0,-1.729472351E1,-7.115057945E0
4.910449334E0,-6.151049614E0,-1.824108505E1,-9.407382011E0
4.912974542E0,-6.395416737E0,-1.890688896E1,-1.043988514E1
4.915499751E0,-7.078268528E0,-1.931905174E1,-1.088554859E1
4.918024959E0,-7.736892700E0,-1.957777596E1,-1.085922718E1
4.920550167E0,-8.060222626E0,-1.956102562E1,-1.065314579E1
4.923075428E0,-7.947760582E0,-1.935972977E1,-9.960722923E0
4.925600636E0,-7.586144924E0,-1.881595993E1,-8.669495583E0
4.928125844E0,-6.989434719E0,-1.777388573E1,-6.798607349E0
4.930651053E0,-6.223133564E0,-1.608275986E1,-4.501497746E0
4.933176261E0,-5.322235584E0,-1.374467278E1,-2.391027927E0
4.935701469E0,-4.517350197E0,-1.111675453E1,-1.176371455E0
4.938226678E0,-4.019044876E0,-8.877073288E0,-1.083051324E0
4.940751886E0,-3.877868176E0,-6.948457718E0,-1.799402595E0
4.943277094E0,-4.155734539E0,-5.269294739E0,-2.525026083E0
4.945802303E0,-4.505385876E0,-3.896711588E0,-2.790928602E0
4.948327511E0,-4.934299469E0,-2.763710260E0,-2.805584431E0
4.950852719E0,-5.468497276E0,-1.793420553E0,-2.951546669E0
4.953377980E0,-5.875576019E0,-1.057926655E0,-3.265305519E0
4.955903188E0,-6.052944183E0,-6.317051649E-1,-3.739682674E0
4.958428397E0,-6.122335911E0,-4.495515525E-1,-4.257130623E0
4.960953605E0,-6.105586052E0,-5.383850932E-1,-4.618745804E0
4.963478813E0,-5.897111416E0,-8.760721684E-1,-4.927719116E0
4.966004022E0,-5.394020557E0,-1.299900889E0,-5.303990364E0
4.968529230E0,-4.656432629E0,-1.848455548E0,-5.519643784E0
4.971054490E0,-3.712464333E0,-2.476272345E0,-5.447559834E0
4.973579699E0,-2.764009237E0,-3.180360317E0,-5.119443893E0
4.976104907E0,-2.002194405E0,-3.908675671E0,-4.767399788E0
4.978630115E0,-1.496710539E0,-4.653740883E0,-4.501497746E0
4.981155324E0,-1.223629713E0,-5.489733219E0,-4.410570145E0
4.983680584E0,-1.005583763E0,-6.325725555E0,-4.422534466E0
4.986205792E0,-7.995018363E-1,-7.226623535E0,-4.429712772E0
4.988731001E0,-6.080760360E-1,-8.143971443E0,-4.391128540E0
4.991256209E0,-5.312066078E-1,-9.008678436E0,-4.170989037E0
4.993781417E0,-5.168496966E-1,-9.811170578E0,-3.756432533E0
4.996306626E0,-5.647061467E-1,-1.057537842E1,-3.320340633E0
4.998831834E0,-7.013961077E-1,-1.123161030E1,-3.107379198E0
5.001357042E0,-9.218349457E-1,-1.184267712E1,-3.133700371E0
5.003882251E0,-1.242772222E0,-1.239601803E1,-3.378067255E0
5.006407459E0,-1.585245013E0,-1.282941818E1,-3.761218071E0
5.008932667E0,-2.011765718E0,-1.318176079E1,-4.170989037E0
5.011457876E0,-2.502892494E0,-1.340459251E1,-4.482355118E0
5.013983136E0,-3.025125980E0,-1.350269794E1,-4.661816597E0
5.016508344E0,-3.530310631E0,-1.356491184E1,-4.755435944E0
5.019033553E0,-3.930510283E0,-1.351705551E1,-4.786542416E0
5.021558761E0,-4.239483356E0,-1.342852020E1,-4.743471622E0
5.024083969E0,-4.450351238E0,-1.329900932E1,-4.695615292E0
5.026609178E0,-4.608277321E0,-1.304507065E1,-4.582853794E0
5.029134386E0,-4.651647091E0,-1.273849010E1,-4.408177376E0
5.031659594E0,-4.675575256E0,-1.238644600E1,-4.230809689E0
5.034184803E0,-4.685146809E0,-1.191685486E1,-4.101297855E0
5.036710011E0,-4.725824833E0,-1.137069321E1,-3.948157310E0
5.039235219E0,-4.728217602E0,-1.080778122E1,-3.940979004E0
5.041760428E0,-4.725824833E0,-1.017069244E1,-3.988835335E0
5.044285688E0,-4.699503899E0,-9.559625626E0,-4.070191383E0
5.046810897E0,-4.656432629E0,-8.989535332E0,-4.216452599E0
5.049336105E0,-4.586741924E0,-8.378767967E0,-4.357629299E0
5.051861313E0,-4.481457710E0,-7.973782539E0,-4.513461590E0
5.054386522E0,-4.320839405E0,-7.557132244E0,-4.640281200E0
5.056911730E0,-4.167698860E0,-7.135396957E0,-4.695615292E0
5.059436938E0,-4.091128349E0,-6.790531635E0,-4.863112926E0
5.061962199E0,-3.964009762E0,-6.543771744E0,-4.959125042E0
5.064487407E0,-3.762713671E0,-6.301797390E0,-4.980660439E0
5.067012615E0,-3.554538012E0,-6.117250919E0,-4.992624283E0
5.069537824E0,-3.341277838E0,-6.004788399E0,-4.985445976E0
5.072063032E0,-3.144767046E0,-5.913861275E0,-4.937290192E0
5.074588292E0,-2.917150021E0,-5.959324837E0,-4.872684002E0
5.077113501E0,-2.667997360E0,-6.011966705E0,-4.686044216E0
5.079638709E0,-2.411666155E0,-6.098108292E0,-4.496711731E0
5.082163917E0,-2.253739834E0,-6.282654762E0,-4.266701698E0
5.084689126E0,-2.042872429E0,-6.541378975E0,-4.039084435E0
5.087214334E0,-1.832004786E0,-6.776174545E0,-3.852145433E0
5.089739542E0,-1.616351724E0,-7.066005230E0,-3.612863064E0
5.092264751E0,-1.489532113E0,-7.370193005E0,-3.394817114E0
5.094789959E0,-1.295414329E0,-7.736593723E0,-3.215056419E0
5.097315167E0,-1.043868899E0,-8.079365730E0,-2.951546669E0
5.099840376E0,-7.923234105E-1,-8.405088425E0,-2.711965322E0
5.102365584E0,-5.599204898E-1,-8.761918068E0,-2.501097918E0
5.104890844E0,-2.724826932E-1,-9.138189316E0,-2.220838547E0
5.107416053E0,3.649054468E-2,-9.475876808E0,-2.015055656E0
5.109941261E0,2.282154560E-1,-9.746564865E0,-1.904686809E0
5.112466469E0,3.909274042E-1,-9.978967667E0,-1.828116536E0
5.114991678E0,4.917250574E-1,-1.020179939E1,-1.777867198E0
5.117516886E0,5.730810165E-1,-1.037886810E1,-1.794616938E0
5.120042094E0,6.041877270E-1,-1.049402237E1,-1.875972986E0
5.122567355E0,6.855437160E-1,-1.060169983E1,-1.954936147E0
5.125092563E0,6.903293133E-1,-1.065194893E1,-2.120339870E0
5.127617772E0,7.142575383E-1,-1.071446133E1,-2.343171597E0
5.130142980E0,7.528418303E-1,-1.072642612E1,-2.549253464E0
5.132668188E0,7.791628838E-1,-1.064237785E1,-2.755036116E0
5.135193449E0,7.863413692E-1,-1.052273655E1,-2.944368362E0
5.137718657E0,7.022934556E-1,-1.044138050E1,-3.076272726E0
5.140243865E0,6.376872063E-1,-1.025922680E1,-3.157628536E0
5.142769074E0,4.749752879E-1,-1.009860897E1,-3.253341436E0
5.145294282E0,3.239283562E-1,-9.832706451E0,-3.380460262E0
5.147819490E0,1.106680483E-1,-9.550054550E0,-3.576671600E0
5.150344699E0,-1.887338907E-1,-9.272188187E0,-3.703790426E0
