"Time (s)","Gyroscope x (rad/s)","Gyroscope y (rad/s)","Gyroscope z (rad/s)"
7.044396900E-2,6.517894268E-1,3.331516385E-1,-8.600425124E-1
7.296652200E-2,7.145050764E-1,2.447372824E-1,-1.052849650E0
7.549178200E-2,7.134398222E-1,2.394111156E-1,-1.098654747E0
7.805605300E-2,7.326140404E-1,1.936061084E-1,-1.188134313E0
8.058131300E-2,7.560491562E-1,1.552577168E-1,-1.274418116E0
8.310657400E-2,7.698971629E-1,1.243659556E-1,-1.356441140E0
8.561048000E-2,7.858756781E-1,9.453943372E-2,-1.434069991E0
8.817933400E-2,8.093107939E-1,6.897383928E-2,-1.506505847E0
9.074813600E-2,8.455287218E-1,4.766917601E-2,-1.574680686E0
9.320740700E-2,8.806813955E-1,2.103835158E-2,-1.640725136E0
9.573261500E-2,9.296821356E-1,-1.304910425E-2,-1.693986773E0
9.823652200E-2,9.840090275E-1,-5.459319428E-2,-1.744052768E0
1.008040220E-1,1.035140157E0,-9.507204592E-2,-1.785596848E0
1.033714690E-1,1.077749491E0,-1.259638071E-1,-1.810097218E0
1.057942820E-1,1.101184607E0,-1.387466043E-1,-1.815423369E0
1.083586570E-1,1.092662811E0,-1.312899739E-1,-1.812227726E0
1.108838650E-1,1.046857715E0,-8.655018359E-2,-1.786662102E0
1.133877720E-1,9.541825056E-1,-1.331541222E-3,-1.736596107E0
1.159594900E-1,8.082455397E-1,1.296921223E-1,-1.667356014E0
1.185312090E-1,6.113106012E-1,3.022598624E-1,-1.576811194E0
1.209846990E-1,3.865464330E-1,4.938686490E-1,-1.479874969E0
1.235099070E-1,1.820216924E-1,6.728277802E-1,-1.380941510E0
1.260138130E-1,4.260931909E-2,7.953296304E-1,-1.279744267E0
1.286342820E-1,1.065232977E-2,8.677654266E-1,-1.170025349E0
1.310855320E-1,1.053249165E-1,8.645697236E-1,-1.044327855E0
1.336107400E-1,2.991973162E-1,7.846772671E-1,-9.143694043E-1
1.361359490E-1,5.442008972E-1,6.749582887E-1,-7.920007706E-1
1.386611570E-1,7.762885690E-1,5.503259897E-1,-6.801512837E-1
1.411863650E-1,9.509868026E-1,4.384765327E-1,-5.970631242E-1
1.438289170E-1,1.035140157E0,3.576519787E-1,-5.406057835E-1
1.463541260E-1,1.026618361E0,3.033251166E-1,-5.022573471E-1
1.488793340E-1,9.328778386E-1,2.724333405E-1,-4.766917825E-1
1.514045420E-1,7.720276117E-1,2.170412242E-1,-4.553871155E-1
1.539297510E-1,5.708317757E-1,8.069140464E-2,-4.298215210E-1
1.564549590E-1,3.577851355E-1,-1.493989378E-1,-4.031907022E-1
1.589801670E-1,1.692388952E-1,-4.166392684E-1,-3.840165138E-1
1.615053760E-1,3.195698932E-2,-6.563166976E-1,-3.808208108E-1
1.640305840E-1,-2.023942769E-2,-8.054493070E-1,-4.042559266E-1
1.665557920E-1,2.343512699E-2,-8.266208172E-1,-4.447347820E-1
1.690810010E-1,1.521951705E-1,-7.319482565E-1,-4.990616739E-1
1.716062610E-1,3.471328020E-1,-5.668371320E-1,-5.661713481E-1
1.741314170E-1,5.825493336E-1,-3.740299344E-1,-6.481943130E-1
1.766566260E-1,8.274197578E-1,-1.749645174E-1,-7.504566908E-1
1.791818340E-1,1.060705781E0,2.210358530E-2,-8.536511064E-1
1.817070420E-1,1.260969639E0,2.149107605E-1,-9.569787383E-1
1.842322510E-1,1.422751904E0,3.949351311E-1,-1.052849650E0
1.867574590E-1,1.554840803E0,5.567173958E-1,-1.140198827E0
1.892826670E-1,1.652842164E0,6.909367442E-1,-1.204112768E0
1.918079280E-1,1.731669426E0,7.921339273E-1,-1.257374406E0
1.943331360E-1,1.789191961E0,8.624392748E-1,-1.295722842E0
1.968582920E-1,1.836062312E0,8.986572027E-1,-1.325549364E0
1.993835530E-1,1.863758326E0,9.061138630E-1,-1.345788717E0
2.019087610E-1,1.876541138E0,8.901353478E-1,-1.356441140E0
2.044339690E-1,1.864823580E0,8.485912681E-1,-1.360702038E0
2.069591780E-1,1.831801295E0,7.931991220E-1,-1.361767292E0
2.094843860E-1,1.777474403E0,7.324808836E-1,-1.371354342E0
2.120095940E-1,1.709299564E0,6.770887375E-1,-1.383071899E0
2.145348030E-1,1.641124606E0,6.408708096E-1,-1.397985220E0
2.170600110E-1,1.580406308E0,6.302185059E-1,-1.410768032E0
2.195852190E-1,1.526079416E0,6.579145193E-1,-1.423550725E0
2.221104280E-1,1.488796353E0,7.122414112E-1,-1.429942131E0
2.246356360E-1,1.473883033E0,7.804163694E-1,-1.421420336E0
2.271608440E-1,1.468556881E0,8.475260139E-1,-1.399050474E0
2.296860530E-1,1.468556881E0,8.975919485E-1,-1.361767292E0
2.322112610E-1,1.472817779E0,9.220923185E-1,-1.306375146E0
2.347755840E-1,1.457904577E0,9.125052094E-1,-1.236069798E0
2.372616780E-1,1.423817039E0,8.635045290E-1,-1.149785876E0
2.397868860E-1,1.380142570E0,7.825468183E-1,-1.048588753E0
2.423120940E-1,1.318359017E0,6.738930345E-1,-9.292826653E-1
2.448373030E-1,1.246056318E0,5.481955409E-1,-7.951964736E-1
2.473625110E-1,1.169359565E0,4.267589748E-1,-6.513900161E-1
2.498877190E-1,1.097988963E0,3.278254569E-1,-4.990616739E-1
2.524129280E-1,1.033009768E0,2.607157826E-1,-3.424724042E-1
2.549772510E-1,9.765523672E-1,2.298240215E-1,-1.924077123E-1
2.574633440E-1,9.328778386E-1,2.234326303E-1,-5.286218971E-2
2.599885530E-1,9.041165113E-1,2.404763550E-1,7.070484012E-2
2.625137610E-1,8.860075474E-1,2.766942680E-1,1.623148769E-1
2.650389690E-1,8.838770986E-1,3.235645294E-1,2.262288630E-1
2.675642300E-1,8.945294023E-1,3.683043122E-1,2.592510879E-1
2.700894380E-1,9.222254753E-1,4.033238590E-1,2.613815665E-1
2.726146470E-1,9.669652581E-1,4.033238590E-1,2.336854935E-1
2.751398030E-1,1.022357345E0,3.619129062E-1,1.857500076E-1
2.776650630E-1,1.084140897E0,2.916075289E-1,1.143793985E-1
2.801902720E-1,1.153381109E0,2.095845938E-1,2.703028731E-2
2.827154800E-1,1.225816846E0,1.190397888E-1,-7.203638554E-2
2.852406880E-1,1.297054410E0,4.021254554E-2,-1.838858575E-1
2.877658970E-1,1.367359757E0,-6.657706574E-3,-2.956021726E-1
2.902911050E-1,1.429143310E0,-2.796236612E-2,-4.010602236E-1
2.928163130E-1,1.490926743E0,-3.648423031E-2,-4.990616739E-1
2.953415220E-1,1.551645041E0,-1.837527007E-2,-5.832150578E-1
2.978667300E-1,1.609167695E0,2.423405088E-2,-6.567161679E-1
3.003919380E-1,1.663494468E0,9.240896255E-2,-7.302172184E-1
3.029171470E-1,1.713560462E0,1.904104054E-1,-7.930659652E-1
3.054423550E-1,1.762561202E0,3.161078990E-1,-8.557815552E-1
3.079675630E-1,1.807300925E0,4.544550478E-1,-9.186303020E-1
3.104927720E-1,1.853106022E0,6.003919840E-1,-9.793485999E-1
3.130179800E-1,1.897845745E0,7.441984415E-1,-1.034740686E0
3.155431880E-1,1.937126279E0,8.730916381E-1,-1.085871935E0
3.180683970E-1,1.972278953E0,9.860063195E-1,-1.137003064E0
3.206327190E-1,2.001040220E0,1.083874583E0,-1.175351501E0
3.231188130E-1,2.028736353E0,1.159506202E0,-1.203047514E0
3.256440220E-1,2.056432247E0,1.219159245E0,-1.221156478E0
3.281692300E-1,2.072410822E0,1.260703325E0,-1.227547884E0
3.306944380E-1,2.086258888E0,1.290529847E0,-1.226482630E0
3.332196470E-1,2.095845938E0,1.305443048E0,-1.214765072E0
3.357448550E-1,2.102237463E0,1.312899709E0,-1.199851871E0
3.382701150E-1,2.096911192E0,1.310769200E0,-1.180677652E0
3.407952720E-1,2.087324142E0,1.305443048E0,-1.152981639E0
3.433204800E-1,2.078802347E0,1.302247405E0,-1.130611658E0
3.458457400E-1,2.063889027E0,1.301182151E0,-1.102915645E0
3.483709490E-1,2.048975706E0,1.301182151E0,-1.073089123E0
3.508961050E-1,2.031931877E0,1.301182151E0,-1.044327855E0
3.534213650E-1,2.011692524E0,1.301182151E0,-1.014501333E0
3.559465740E-1,1.994648814E0,1.308638811E0,-9.868052602E-1
3.584717820E-1,1.971213698E0,1.327812910E0,-9.580439329E-1
3.609969900E-1,1.948843837E0,1.354443789E0,-9.303479195E-1
3.635221990E-1,1.921147704E0,1.388531208E0,-9.047822952E-1
3.660474070E-1,1.886128187E0,1.430075288E0,-8.824124336E-1
3.685726150E-1,1.858432174E0,1.470554233E0,-8.621729612E-1
3.710978240E-1,1.840323210E0,1.505706906E0,-8.398030996E-1
3.736230320E-1,1.820083737E0,1.534468174E0,-8.165011406E-1
3.761482400E-1,1.810496688E0,1.540859580E0,-7.930659652E-1
3.786734490E-1,1.806235790E0,1.524881124E0,-7.653699517E-1
3.811986570E-1,1.801974773E0,1.495054603E0,-7.387390733E-1
3.837238650E-1,1.806235790E0,1.449249506E0,-7.153039575E-1
3.862490740E-1,1.822214246E0,1.390661716E0,-6.929340959E-1
3.887742820E-1,1.831801295E0,1.323552012E0,-6.716294289E-1
3.912994900E-1,1.838192701E0,1.259638071E0,-6.503247619E-1
3.938246990E-1,1.841388464E0,1.207441688E0,-6.354115009E-1
3.963499590E-1,1.837127447E0,1.150984287E0,-6.226286888E-1
3.988751670E-1,1.829670906E0,1.091331244E0,-6.173025370E-1
4.014394900E-1,1.822214246E0,1.031678200E0,-6.119763851E-1
4.039255840E-1,1.814757586E0,9.721583128E-1,-6.109111309E-1
4.064507920E-1,1.807300925E0,9.093095660E-1,-6.141068339E-1
4.089759490E-1,1.796648622E0,8.539174199E-1,-6.194329858E-1
4.115011570E-1,1.785996318E0,8.038514853E-1,-6.279548407E-1
4.140264170E-1,1.778539658E0,7.623074055E-1,-6.332810521E-1
4.165516260E-1,1.768952608E0,7.239589691E-1,-6.386072040E-1
4.190768340E-1,1.757235050E0,6.792191863E-1,-6.396724582E-1
4.216020420E-1,1.746582747E0,6.408708096E-1,-6.364767551E-1
4.241272510E-1,1.734865189E0,5.982614756E-1,-6.311505437E-1
4.266524590E-1,1.722082376E0,5.492607951E-1,-6.290200949E-1
4.291776670E-1,1.708234310E0,4.938686490E-1,-6.236939430E-1
4.317028760E-1,1.692255855E0,4.363460839E-1,-6.151720881E-1
4.342280840E-1,1.675212026E0,3.778914213E-1,-6.066502333E-1
4.367532920E-1,1.657103181E0,3.203688264E-1,-5.981283188E-1
4.392785010E-1,1.632602811E0,2.660419345E-1,-5.874760151E-1
4.418037090E-1,1.602776289E0,2.095845938E-1,-5.768237114E-1
4.443289170E-1,1.572949767E0,1.659100503E-1,-5.672366023E-1
4.468541260E-1,1.542057991E0,1.233007237E-1,-5.523233414E-1
4.493793340E-1,1.503709555E0,8.175663650E-2,-5.395405293E-1
4.519045420E-1,1.461100221E0,4.234301299E-2,-5.235620141E-1
4.544297510E-1,1.418490887E0,9.320789017E-3,-5.065183043E-1
4.569550110E-1,1.373751163E0,-2.157096937E-2,-4.958659708E-1
4.594802190E-1,1.326880932E0,-4.607132822E-2,-4.766917825E-1
4.620053760E-1,1.278013349E0,-7.483261824E-2,-4.628437459E-1
4.645306360E-1,1.233273506E0,-9.720251709E-2,-4.489957094E-1
4.670558440E-1,1.197055578E0,-1.195724085E-1,-4.351477027E-1
4.695810530E-1,1.158707261E0,-1.387466043E-1,-4.244953692E-1
4.721062610E-1,1.123554587E0,-1.557903290E-1,-4.149082601E-1
4.746314690E-1,1.089467049E0,-1.621817350E-1,-4.063864052E-1
4.771566780E-1,1.060705781E0,-1.600512564E-1,-3.999949992E-1
4.796818860E-1,1.037270665E0,-1.515294015E-1,-3.914731443E-1
4.822070940E-1,1.017031193E0,-1.344856620E-1,-3.840165138E-1
4.847323030E-1,9.935960770E-1,-1.099853069E-1,-3.776251078E-1
4.872575110E-1,9.754871130E-1,-8.335448056E-2,-3.744294047E-1
4.897827190E-1,9.595086575E-1,-5.033225939E-2,-3.669727743E-1
4.923079280E-1,9.456605911E-1,-1.944050193E-2,-3.584509194E-1
4.948331360E-1,9.328778386E-1,1.251648832E-2,-3.531247377E-1
4.973583440E-1,9.190297723E-1,4.447348043E-2,-3.467333615E-1
4.998835530E-1,9.051817656E-1,7.749570161E-2,-3.382114768E-1
5.024478760E-1,8.913337588E-1,1.051917598E-1,-3.307548463E-1
5.049339690E-1,8.785509467E-1,1.360835135E-1,-3.179720640E-1
5.074591780E-1,8.668333888E-1,1.616491079E-1,-3.041240275E-1
5.099843860E-1,8.487244248E-1,1.861494780E-1,-2.902759910E-1
5.125095940E-1,8.338111639E-1,2.042584270E-1,-2.711018026E-1
5.150348550E-1,8.146369457E-1,2.191716880E-1,-2.529928386E-1
5.175600110E-1,7.901365757E-1,2.266283184E-1,-2.327534109E-1
5.200852190E-1,7.667014599E-1,2.298240215E-1,-2.157096863E-1
5.226104280E-1,7.411358953E-1,2.255630940E-1,-1.966686398E-1
5.251356880E-1,7.145050764E-1,2.181064636E-1,-1.753639877E-1
5.276608970E-1,6.910699010E-1,2.053236663E-1,-1.529940963E-1
5.301861050E-1,6.667027473E-1,1.936061084E-1,-1.306242049E-1
5.327113130E-1,6.379414201E-1,1.754971445E-1,-1.071890742E-1
5.352365220E-1,6.113106012E-1,1.531272531E-1,-8.588441461E-2
5.377617300E-1,5.878754854E-1,1.264964193E-1,-6.777545065E-2
5.402869380E-1,5.623098612E-1,9.986559302E-2,-4.434032366E-2
5.428121470E-1,5.356790423E-1,7.643046975E-2,-2.303566411E-2
5.453373550E-1,5.175700784E-1,5.832150951E-2,-2.796236658E-3
5.478625630E-1,4.930697381E-1,5.512581021E-2,2.170412242E-2
5.503877720E-1,4.728302956E-1,6.471290439E-2,4.087831825E-2
5.529129800E-1,4.557865858E-1,8.814803511E-2,5.898727849E-2
5.554381880E-1,4.408733249E-1,1.392792165E-1,7.390054315E-2
5.579633970E-1,4.248948097E-1,2.031932026E-1,8.561810106E-2
5.604886050E-1,4.131772518E-1,2.798899710E-1,1.026618332E-1
5.630138130E-1,4.014596939E-1,3.661738634E-1,1.154446304E-1
5.655390220E-1,3.950682878E-1,4.693683088E-1,1.303578913E-1
5.681033440E-1,3.886769116E-1,5.780220628E-1,1.452711523E-1
5.706285530E-1,3.844159544E-1,6.834801435E-1,1.601844132E-1
5.731146470E-1,3.844159544E-1,7.868077159E-1,1.772281379E-1
5.756398550E-1,3.876116574E-1,8.837439418E-1,2.017285079E-1
5.781651150E-1,3.908073604E-1,9.678973556E-1,2.251636237E-1
5.807294380E-1,3.950682878E-1,1.046591401E0,2.496639937E-1
5.832155320E-1,4.014596939E-1,1.115831614E0,2.837514579E-1
5.857407400E-1,4.163729548E-1,1.171223760E0,3.103822768E-1
5.882659490E-1,4.323514402E-1,1.215963483E0,3.380783200E-1
5.907911050E-1,4.472647011E-1,1.250050902E0,3.636439145E-1
5.933163650E-1,4.632432163E-1,1.267094731E0,3.913399875E-1
5.958415740E-1,4.845478833E-1,1.267094731E0,4.199681282E-1
5.983667300E-1,5.037220716E-1,1.254311919E0,4.412727654E-1
6.008919900E-1,5.207657814E-1,1.221289635E0,4.615122080E-1
6.034171990E-1,5.378095508E-1,1.173354149E0,4.785559475E-1
6.059424070E-1,5.548532605E-1,1.116896868E0,4.977301359E-1
6.084676150E-1,5.740274191E-1,1.049787164E0,5.083824396E-1
6.109928240E-1,5.921363831E-1,9.753540158E-1,5.137086511E-1
6.135180320E-1,6.049191952E-1,8.922657967E-1,5.115781426E-1
6.160432400E-1,6.208977103E-1,8.091776371E-1,5.062519908E-1
6.185684490E-1,6.379414201E-1,7.260894775E-1,4.934692085E-1
6.210917300E-1,6.539199352E-1,6.451317668E-1,4.721645415E-1
6.236131360E-1,6.773550510E-1,5.652392507E-1,4.465989470E-1
6.261345940E-1,7.038527131E-1,4.928034246E-1,4.103810191E-1
6.286560010E-1,7.294183373E-1,4.246285260E-1,3.742962480E-1
6.311774590E-1,7.635057569E-1,3.619129062E-1,3.370130956E-1
6.336988650E-1,7.912018299E-1,3.129121959E-1,2.933385372E-1
6.362203240E-1,8.263545036E-1,2.660419345E-1,2.528596818E-1
6.387417300E-1,8.647028804E-1,2.351501882E-1,2.123808414E-1
6.412631880E-1,9.030513167E-1,2.181064636E-1,1.761629134E-1
6.437845940E-1,9.445953965E-1,2.117150575E-1,1.388797611E-1
6.463060010E-1,9.850742221E-1,2.138455361E-1,1.005313694E-1
6.488274590E-1,1.027683616E0,2.287587970E-1,6.644391268E-2
6.513942820E-1,1.071358085E0,2.575200796E-1,3.342168778E-2
6.539156880E-1,1.112902164E0,2.969337106E-1,-1.731003635E-3
6.564371470E-1,1.151250601E0,3.395430148E-1,-4.220985994E-2
6.589585530E-1,1.188533783E0,3.906742036E-1,-8.055824786E-2
6.614800110E-1,1.220490694E0,4.459331632E-1,-1.157109365E-1
6.640014170E-1,1.240730166E0,4.970643520E-1,-1.519288570E-1
6.665228760E-1,1.255643368E0,5.449998379E-1,-1.828206182E-1
6.690442820E-1,1.266295791E0,5.844134688E-1,-2.157096863E-1
6.715657400E-1,1.259904385E0,6.163704395E-1,-2.508623898E-1
6.740871470E-1,1.243925810E0,6.398055553E-1,-2.817541361E-1
6.766085530E-1,1.224751711E0,6.525883675E-1,-3.105154335E-1
6.791300110E-1,1.199186087E0,6.600450277E-1,-3.360810280E-1
6.816967820E-1,1.168294311E0,6.685668826E-1,-3.595161438E-1
6.842181880E-1,1.132076383E0,6.717625856E-1,-3.840165138E-1
6.867396470E-1,1.094793200E0,6.749582887E-1,-4.021254778E-1
6.892610530E-1,1.060705781E0,6.770887375E-1,-4.159734845E-1
6.917825110E-1,1.023422599E0,6.856105924E-1,-4.298215210E-1
6.943039170E-1,9.893351793E-1,6.930672526E-1,-4.394086301E-1
6.968253760E-1,9.531172514E-1,7.101109624E-1,-4.436695576E-1
6.993467820E-1,9.179645777E-1,7.282199264E-1,-4.489957094E-1
7.018682400E-1,8.753552437E-1,7.505898476E-1,-4.543218911E-1
7.043896470E-1,8.380720615E-1,7.729597092E-1,-4.607132971E-1
7.069110530E-1,7.954627872E-1,7.995905280E-1,-4.639089704E-1
7.094325110E-1,7.517881989E-1,8.262213469E-1,-4.692351520E-1
7.119992820E-1,7.091788650E-1,8.539174199E-1,-4.734960794E-1
7.145206880E-1,6.709636450E-1,8.816134930E-1,-4.766917825E-1
7.170421470E-1,6.358109713E-1,9.007876515E-1,-4.671046734E-1
7.195635530E-1,6.091801524E-1,9.178314209E-1,-4.575175941E-1
7.220850110E-1,5.889406800E-1,9.231575727E-1,-4.436695576E-1
7.246064170E-1,5.750926733E-1,9.135704637E-1,-4.287562966E-1
7.271278760E-1,5.676360726E-1,8.837439418E-1,-4.138430357E-1
7.296492820E-1,5.655055642E-1,8.390041590E-1,-3.999949992E-1
7.321707400E-1,5.697665215E-1,7.825468183E-1,-3.882774413E-1
7.346921470E-1,5.772231221E-1,7.260894775E-1,-3.722989559E-1
7.372135530E-1,5.825493336E-1,6.664364338E-1,-3.541899920E-1
7.397350110E-1,5.921363831E-1,6.099790335E-1,-3.307548463E-1
7.423018340E-1,6.006582975E-1,5.545869470E-1,-2.956021726E-1
7.448232400E-1,6.017234921E-1,4.970643520E-1,-2.540580630E-1
7.473446990E-1,5.985277891E-1,4.352808297E-1,-2.041252851E-1
7.498661050E-1,5.953320861E-1,3.768261969E-1,-1.487331539E-1
7.523875630E-1,5.761579275E-1,3.193036020E-1,-9.121058136E-2
7.549089690E-1,5.484618545E-1,2.660419345E-1,-3.475322574E-2
7.574304280E-1,5.143743753E-1,2.159759998E-1,2.703028731E-2
7.599518340E-1,4.643084407E-1,1.691057384E-1,8.987903595E-2
7.624732920E-1,4.025249183E-1,1.233007237E-1,1.516625583E-1
7.649946990E-1,3.354152441E-1,8.814803511E-2,2.081198990E-1
7.675161050E-1,2.565880120E-1,5.086487532E-2,2.603163123E-1
7.700375630E-1,1.734998226E-1,1.997311972E-2,3.103822768E-1
7.726043860E-1,8.615072072E-2,-1.517957076E-2,3.540568352E-1
7.751257920E-1,-1.065232977E-2,-5.246272683E-2,3.954677582E-1
7.776472510E-1,-1.118494645E-1,-9.400681406E-2,4.338161349E-1
7.801686570E-1,-2.130466104E-1,-1.355509013E-1,4.753602445E-1
7.826901150E-1,-3.185046613E-1,-1.802906841E-1,5.232957006E-1
7.852115220E-1,-4.282236695E-1,-2.323539555E-1,5.744268894E-1
7.877329800E-1,-5.431357026E-1,-2.834851444E-1,6.223623753E-1
7.902543860E-1,-6.613765359E-1,-3.388772607E-1,6.766892672E-1
7.927758440E-1,-7.796174288E-1,-3.932041526E-1,7.331466079E-1
7.952972510E-1,-9.010539651E-1,-4.507267177E-1,7.842777967E-1
7.978186570E-1,-1.022490501E0,-5.103797913E-1,8.375394940E-1
8.003401150E-1,-1.143793941E0,-5.753589869E-1,8.876054287E-1
8.029068860E-1,-1.269491434E0,-6.328815818E-1,9.355409145E-1
8.054282920E-1,-1.391993284E0,-7.031869292E-1,9.792154431E-1
8.079497510E-1,-1.520886421E0,-7.702966332E-1,1.018495917E0
8.104711570E-1,-1.655105829E0,-8.415340781E-1,1.054713845E0
8.129926150E-1,-1.790257215E0,-9.150351882E-1,1.088801265E0
8.155140220E-1,-1.925541878E0,-9.810796380E-1,1.117562652E0
8.180354800E-1,-2.056565523E0,-1.041797876E0,1.148454309E0
8.205568860E-1,-2.195045710E0,-1.097190022E0,1.175085187E0
8.230783440E-1,-2.331395626E0,-1.148321152E0,1.204911709E0
8.255997510E-1,-2.466547012E0,-1.190930486E0,1.231542587E0
8.281211570E-1,-2.593309879E0,-1.227148414E0,1.262434244E0
8.306426150E-1,-2.719007254E0,-1.253779292E0,1.297586918E0
8.332094380E-1,-2.838313341E0,-1.279344916E0,1.333804846E0
8.357308440E-1,-2.948032379E0,-1.296388626E0,1.371088028E0
8.382523030E-1,-3.052292109E0,-1.308106184E0,1.407305956E0
8.407737090E-1,-3.141771555E0,-1.313432336E0,1.440328240E0
8.432951670E-1,-3.226990223E0,-1.309171438E0,1.482937574E0
8.458165740E-1,-3.303687096E0,-1.296388626E0,1.526612043E0
8.483380320E-1,-3.376122952E0,-1.278279662E0,1.575612783E0
8.508594380E-1,-3.445363045E0,-1.252714038E0,1.633002281E0
8.533808970E-1,-3.517798901E0,-1.226083159E0,1.699046731E0
8.559023030E-1,-3.591166735E0,-1.184539080E0,1.767221570E0
8.584237090E-1,-3.661472321E0,-1.124886036E0,1.841787934E0
8.609451670E-1,-3.740299463E0,-1.051385045E0,1.922745585E0
8.635119380E-1,-3.822322369E0,-9.565792680E-1,2.011159897E0
8.660333440E-1,-3.908606291E0,-8.457950354E-1,2.101704836E0
8.685548030E-1,-3.991694450E0,-7.234264016E-1,2.185858250E0
8.710762090E-1,-4.063065052E0,-6.019898057E-1,2.266682625E0
8.735976670E-1,-4.120587826E0,-4.848141670E-1,2.335922956E0
8.761190740E-1,-4.162131786E0,-3.697690070E-1,2.396641254E0
8.786405320E-1,-4.183436394E0,-2.621804774E-1,2.440315723E0
8.811619380E-1,-4.191824913E0,-1.632469594E-1,2.470142126E0
8.836833970E-1,-4.180240631E0,-6.631075591E-2,2.487185955E0
8.862048030E-1,-4.149348736E0,2.956021577E-2,2.496773005E0
8.887262090E-1,-4.105674267E0,1.328878254E-1,2.491446972E0
8.912476670E-1,-4.033238411E0,2.404763550E-1,2.466946602E0
8.938144900E-1,-3.936302423E0,3.448691964E-1,2.419011116E0
8.963358970E-1,-3.812735319E0,4.491288662E-1,2.358292818E0
8.988573550E-1,-3.665733099E0,5.609783530E-1,2.283726454E0
9.013787610E-1,-3.498624802E0,6.781539917E-1,2.209293365E0
9.039002190E-1,-3.322861195E0,7.878729701E-1,2.134727001E0
9.064216260E-1,-3.131119251E0,8.752220869E-1,2.048443079E0
9.089430840E-1,-2.925662518E0,9.380708337E-1,1.946180701E0
9.114644900E-1,-2.719007254E0,9.955934286E-1,1.823678970E0
9.139859490E-1,-2.518743515E0,1.048721910E0,1.693720460E0
9.165073550E-1,-2.327134609E0,1.119027257E0,1.564960480E0
9.190287610E-1,-2.158827782E0,1.204245925E0,1.441393495E0
9.215502190E-1,-2.010760546E0,1.309703946E0,1.324217796E0
9.241169900E-1,-1.890389204E0,1.419422984E0,1.208107352E0
9.266383970E-1,-1.783865809E0,1.534468174E0,1.097323179E0
9.291598550E-1,-1.694519401E0,1.639793038E0,9.909330010E-1
9.316812610E-1,-1.615692139E0,1.722881317E0,8.822792768E-1
9.342140220E-1,-1.552843451E0,1.779338598E0,7.810820937E-1
9.367354280E-1,-1.501712203E0,1.809165120E0,6.894720793E-1
9.392568860E-1,-1.463363886E0,1.814491272E0,5.989272594E-1
9.418468860E-1,-1.443124413E0,1.795317054E0,5.200999975E-1
9.443683440E-1,-1.440994024E0,1.743120670E0,4.497946501E-1
9.468897510E-1,-1.456972480E0,1.668554425E0,3.913399875E-1
9.494112090E-1,-1.497451305E0,1.566425204E0,3.434045017E-1
9.519326150E-1,-1.553908706E0,1.447119117E0,3.029256463E-1
9.544540740E-1,-1.628474951E0,1.305443048E0,2.709686458E-1
9.569754800E-1,-1.721150279E0,1.128614426E0,2.390116602E-1
9.594969380E-1,-1.830736160E0,9.050486088E-1,2.102503628E-1
9.620183440E-1,-1.954303145E0,6.366099119E-1,1.910761744E-1
9.645397510E-1,-2.093848705E0,3.224993050E-1,1.761629134E-1
9.670612090E-1,-2.247242212E0,-1.944050193E-2,1.665758193E-1
9.695707400E-1,-2.412220240E0,-3.718994856E-1,1.665758193E-1
9.720921470E-1,-2.575200796E0,-7.308830023E-1,1.804238409E-1
9.746136050E-1,-2.740311861E0,-1.090798616E0,2.027937323E-1
9.771350110E-1,-2.892640352E0,-1.438996673E0,2.358159572E-1
9.796564690E-1,-3.030987501E0,-1.770284176E0,2.656424940E-1
9.821778760E-1,-3.138576031E0,-2.083329439E0,2.975994647E-1
9.846993340E-1,-3.218468428E0,-2.367746592E0,3.316869438E-1
9.872207400E-1,-3.274925709E0,-2.615946054E0,3.700353205E-1
9.897421990E-1,-3.309013128E0,-2.823533297E0,4.125114977E-1
9.922636050E-1,-3.320730686E0,-2.993970633E0,4.593817294E-1
9.947850110E-1,-3.323926449E0,-3.116472483E0,5.019910336E-1
9.973064690E-1,-3.317535162E0,-3.200625658E0,5.467308760E-1
9.998732920E-1,-3.305817604E0,-3.259080410E0,5.914706588E-1
1.002394699E0,-3.280251980E0,-3.295298338E0,6.362104416E-1
1.004916157E0,-3.254686356E0,-3.312342167E0,6.788197160E-1
1.007437563E0,-3.225924969E0,-3.311276913E0,7.235595584E-1
1.009959022E0,-3.191837549E0,-3.288907051E0,7.619079351E-1
1.012480428E0,-3.151358843E0,-3.241104603E0,7.991910577E-1
1.015001886E0,-3.107684135E0,-3.162277460E0,8.364742398E-1
1.017523292E0,-3.061879158E0,-3.062145472E0,8.758878708E-1
1.020044751E0,-3.016074181E0,-2.933252335E0,9.142362475E-1
1.022566157E0,-2.969203949E0,-2.777728319E0,9.419323206E-1
1.025087563E0,-2.928858280E0,-2.597836971E0,9.611064792E-1
1.027609022E0,-2.883053064E0,-2.396507978E0,9.738892913E-1
1.030175792E0,-2.832987309E0,-2.184526682E0,9.866721034E-1
1.032697199E0,-2.783986568E0,-1.965221763E0,9.898678064E-1
1.035218657E0,-2.731790066E0,-1.747914195E0,9.866721034E-1
1.037740063E0,-2.685985088E0,-1.541259050E0,9.760197401E-1
1.040261522E0,-2.634853840E0,-1.356041670E0,9.579107761E-1
1.042782928E0,-2.585853100E0,-1.190930486E0,9.376713634E-1
1.045304386E0,-2.540048122E0,-1.062037349E0,9.131709933E-1
1.047825792E0,-2.487851620E0,-9.651011229E-1,8.865401745E-1
1.050347251E0,-2.433524847E0,-8.990566730E-1,8.631050587E-1
1.052868657E0,-2.372806549E0,-8.660344481E-1,8.407351375E-1
1.055390063E0,-2.310091019E0,-8.564473391E-1,8.226261735E-1
1.057911522E0,-2.241915941E0,-8.617734909E-1,8.066477180E-1
1.060478292E0,-2.172675848E0,-8.724258542E-1,7.927996516E-1
1.062999699E0,-2.102370501E0,-8.905348182E-1,7.842777967E-1
1.065521157E0,-2.028869390E0,-9.150351882E-1,7.746906877E-1
1.068042563E0,-1.964955449E0,-9.384703040E-1,7.725602388E-1
1.070564022E0,-1.906367660E0,-9.640358686E-1,7.682993412E-1
1.073085428E0,-1.849910259E0,-9.938623905E-1,7.672340870E-1
1.075606886E0,-1.800909638E0,-1.020493269E0,7.672340870E-1
1.078128292E0,-1.756169796E0,-1.046058774E0,7.736254930E-1
1.080649751E0,-1.720085025E0,-1.059906840E0,7.810820937E-1
1.083171157E0,-1.692389011E0,-1.068428755E0,7.927996516E-1
1.085692563E0,-1.665758133E0,-1.071624398E0,8.087781668E-1
1.088214022E0,-1.645518661E0,-1.065232992E0,8.236914277E-1
1.090780844E0,-1.633801103E0,-1.056711197E0,8.364742398E-1
1.093302251E0,-1.624214053E0,-1.055645943E0,8.481917977E-1
1.095823709E0,-1.614627004E0,-1.055645943E0,8.609746099E-1
1.098345115E0,-1.608235598E0,-1.047124028E0,8.652355075E-1
1.100866574E0,-1.598648429E0,-1.025819421E0,8.705616593E-1
1.103387980E0,-1.590126634E0,-1.002384305E0,8.684312105E-1
1.105909438E0,-1.580539465E0,-9.832100868E-1,8.631050587E-1
1.108430844E0,-1.566691518E0,-9.619054198E-1,8.513875008E-1
1.110952303E0,-1.544321537E0,-9.469921589E-1,8.396699429E-1
1.113473709E0,-1.521951675E0,-9.288831949E-1,8.226261735E-1
1.115995115E0,-1.489994645E0,-9.139699340E-1,7.991910577E-1
1.118516574E0,-1.459102988E0,-9.065132737E-1,7.682993412E-1
1.121083344E0,-1.419689298E0,-9.043828249E-1,7.342118621E-1
1.123604751E0,-1.379210472E0,-8.947957158E-1,6.979939342E-1
1.126126209E0,-1.331274986E0,-8.777520061E-1,6.553846002E-1
1.128647615E0,-1.273752332E0,-8.543168902E-1,6.117100716E-1
1.131169074E0,-1.210903645E0,-8.266208172E-1,5.584484339E-1
1.133690480E0,-1.142728686E0,-7.916013002E-1,5.051867366E-1
1.136211938E0,-1.070425987E0,-7.564486265E-1,4.444684684E-1
1.138733344E0,-1.002251148E0,-7.170349956E-1,3.849485815E-1
1.141254803E0,-9.287500381E-1,-6.776213646E-1,3.242303133E-1
1.143776209E0,-8.563141823E-1,-6.318163276E-1,2.677729428E-1
1.146297615E0,-7.849435806E-1,-5.860112906E-1,2.155765295E-1
1.148819074E0,-7.146382332E-1,-5.380758047E-1,1.580539495E-1
1.151385844E0,-6.411371231E-1,-4.912055731E-1,9.627043456E-2
1.153907251E0,-5.665708184E-1,-4.390091598E-1,4.194355011E-2
1.156428709E0,-4.963985980E-1,-3.793561161E-1,-1.238333434E-2
1.158950115E0,-4.314193726E-1,-3.218335211E-1,-6.671021879E-2
1.161471574E0,-3.621792197E-1,-2.600499988E-1,-1.157109365E-1
1.163992980E0,-2.972000241E-1,-1.994648874E-1,-1.657768935E-1
1.166514438E0,-2.311555594E-1,-1.355509013E-1,-2.157096863E-1
1.169035844E0,-1.661763489E-1,-7.589785010E-2,-2.679060996E-1
1.171557303E0,-1.054580659E-1,-2.263620123E-2,-3.158415854E-1
1.174078709E0,-4.154408723E-2,2.849498391E-2,-3.595161438E-1
1.176600115E0,2.236989327E-2,8.601756394E-2,-4.053211510E-1
1.179121574E0,7.975932211E-2,1.382139921E-1,-4.553871155E-1
1.181688344E0,1.415428370E-1,1.840189993E-1,-5.022573471E-1
1.184209751E0,2.054568231E-1,2.308892608E-1,-5.448666811E-1
1.186731209E0,2.661750913E-1,2.756290436E-1,-5.906717181E-1
1.189252615E0,3.268933892E-1,3.139774203E-1,-6.386072040E-1
1.191774074E0,3.876116574E-1,3.533910513E-1,-6.854774356E-1
1.194295480E0,4.461994767E-1,3.906742036E-1,-7.302172184E-1
1.196816938E0,5.058525205E-1,4.267589748E-1,-7.824136615E-1
1.199338344E0,5.676360726E-1,4.565854967E-1,-8.355421424E-1
1.201859803E0,6.326152682E-1,4.853467941E-1,-8.866733313E-1
1.204381209E0,7.006570101E-1,5.130428672E-1,-9.367392659E-1
1.206902615E0,7.698971629E-1,5.386084318E-1,-9.889357090E-1
1.209424074E0,8.412677646E-1,5.599130988E-1,-1.042197347E0
1.211990844E0,9.147688746E-1,5.780220628E-1,-1.092263341E0
1.214512251E0,9.850742221E-1,5.961310267E-1,-1.140198827E0
1.217033709E0,1.056444883E0,6.089138389E-1,-1.188134313E0
1.219555115E0,1.124619722E0,6.216966510E-1,-1.235004544E0
1.222076574E0,1.191729426E0,6.302185059E-1,-1.289331436E0
1.224597980E0,1.254578233E0,6.398055553E-1,-1.345788717E0
1.227119438E0,1.305576205E0,6.430012584E-1,-1.396919966E0
1.229640844E0,1.347120285E0,6.440665126E-1,-1.445787549E0
1.232162303E0,1.373751163E0,6.387403607E-1,-1.492657781E0
1.234683709E0,1.387599111E0,6.270228028E-1,-1.538462758E0
1.237205115E0,1.389729619E0,6.014571786E-1,-1.584267855E0
1.239726574E0,1.379077315E0,5.652392507E-1,-1.619420528E0
1.242293344E0,1.352446437E0,5.194342732E-1,-1.647116542E0
1.244814751E0,1.299184799E0,4.778901637E-1,-1.666290760E0
1.247336209E0,1.216229796E0,4.427374899E-1,-1.680138826E0
1.249857615E0,1.106510758E0,4.118457139E-1,-1.682269216E0
1.252379074E0,9.680305123E-1,3.979976773E-1,-1.666290760E0
1.254900480E0,8.039846420E-1,3.906742036E-1,-1.621550918E0
1.257421938E0,6.027887464E-1,3.864132762E-1,-1.550180316E0
1.259943344E0,3.737636507E-1,3.864132762E-1,-1.459635496E0
1.262464803E0,1.426080763E-1,3.990629315E-1,-1.355375886E0
1.264986209E0,-6.071828306E-2,4.097152650E-1,-1.247787356E0
1.267507615E0,-2.034595013E-1,3.896089792E-1,-1.145524979E0
1.270029074E0,-2.492645234E-1,3.203688264E-1,-1.029414535E0
1.272595844E0,-1.938724071E-1,1.936061084E-1,-9.015865922E-1
1.275117251E0,-4.260931909E-2,3.062544949E-2,-7.834789157E-1
1.277638709E0,1.798912287E-1,-1.472684592E-1,-6.854774356E-1
1.280160115E0,4.376776218E-1,-3.239639997E-1,-6.109111309E-1
1.282681574E0,6.974613070E-1,-4.485962689E-1,-5.597799420E-1
1.285202980E0,9.168993235E-1,-4.773575366E-1,-5.193011165E-1
1.287724438E0,1.076684237E0,-3.580514491E-1,-4.884093404E-1
1.290245844E0,1.153381109E0,-1.121157780E-1,-4.671046734E-1
1.292767303E0,1.149120092E0,2.117150575E-1,-4.575175941E-1
1.295288709E0,1.084140897E0,5.173037648E-1,-4.607132971E-1
1.297810115E0,9.840090275E-1,7.218285203E-1,-4.639089704E-1
1.300331574E0,8.668333888E-1,7.676335573E-1,-4.713656008E-1
1.302898344E0,7.272878289E-1,6.632407308E-1,-4.905398190E-1
1.305419751E0,5.697665215E-1,4.533897936E-1,-5.182358623E-1
1.307941209E0,4.142425060E-1,1.968017966E-1,-5.480623841E-1
1.310462615E0,2.991973162E-1,-7.163692266E-2,-5.800193548E-1
1.312984074E0,2.587184608E-1,-3.101159632E-1,-6.077154279E-1
1.315505480E0,3.034582436E-1,-4.826837182E-1,-6.343462467E-1
1.318026938E0,4.259600639E-1,-5.604457259E-1,-6.652380228E-1
1.320548344E0,6.091801524E-1,-5.412715077E-1,-7.163692117E-1
1.323069803E0,8.220936060E-1,-4.347482324E-1,-7.781527042E-1
1.325591209E0,1.029814005E0,-2.664414048E-1,-8.589772582E-1
1.328112615E0,1.213034153E0,-6.631075591E-2,-9.484568238E-1
1.330634074E0,1.370555401E0,1.509967744E-1,-1.034740686E0
1.333200844E0,1.498383403E0,3.746957183E-1,-1.110372305E0
1.335722251E0,1.609167695E0,5.971962810E-1,-1.175351501E0
1.338243709E0,1.712495208E0,8.070471883E-1,-1.225417495E0
1.340765115E0,1.804105282E0,9.913324714E-1,-1.268026710E0
1.343286574E0,1.893584847E0,1.146723390E0,-1.309570789E0
1.345807980E0,1.978670359E0,1.260703325E0,-1.344723582E0
1.348329438E0,2.047910452E0,1.329943419E0,-1.368158698E0
1.350850844E0,2.094780684E0,1.360835195E0,-1.383071899E0
1.353372303E0,2.112889767E0,1.346987128E0,-1.387332916E0
1.355893709E0,2.100106955E0,1.293725491E0,-1.375615239E0
1.358415115E0,2.061758518E0,1.208506823E0,-1.355375886E0
1.360936574E0,2.006366491E0,1.098787904E0,-1.317027450E0
1.363503397E0,1.942452431E0,9.806801677E-1,-1.261635303E0
1.366024803E0,1.877606392E0,8.624392748E-1,-1.193460464E0
1.368546261E0,1.814757586E0,7.473941445E-1,-1.117828846E0
1.371067667E0,1.762561202E0,6.376751065E-1,-1.036871195E0
1.373589126E0,1.714625716E0,5.375432372E-1,-9.633701444E-1
1.376110532E0,1.666690230E0,4.416722357E-1,-8.941299915E-1
1.378631990E0,1.625146151E0,3.555215299E-1,-8.248898387E-1
1.381153397E0,1.587862968E0,2.905423045E-1,-7.589785457E-1
1.383674855E0,1.553775549E0,2.426068187E-1,-6.939992905E-1
1.386196261E0,1.521818519E0,2.085193694E-1,-6.332810521E-1
1.388717667E0,1.487731099E0,1.904104054E-1,-5.746932030E-1
1.391239126E0,1.461100221E0,1.712362021E-1,-5.171706080E-1
1.393805897E0,1.437665105E0,1.573881805E-1,-4.660394490E-1
1.396327303E0,1.422751904E0,1.435401440E-1,-4.234301150E-1
1.398848761E0,1.408903837E0,1.169093251E-1,-3.840165138E-1
1.401370167E0,1.396121025E0,7.643046975E-2,-3.563204408E-1
1.403891626E0,1.386533976E0,2.956021577E-2,-3.328853250E-1
1.406413032E0,1.378012061E0,-2.370143496E-2,-3.126458824E-1
1.408934490E0,1.371620655E0,-7.163692266E-2,-3.019935489E-1
1.411455897E0,1.366294503E0,-1.131810099E-1,-2.998631001E-1
1.413977355E0,1.366294503E0,-1.515294015E-1,-3.083849549E-1
1.416498761E0,1.370555401E0,-1.760297567E-1,-3.243634701E-1
1.419020167E0,1.380142570E0,-1.845516264E-1,-3.477985859E-1
1.421541626E0,1.398251534E0,-1.813559234E-1,-3.840165138E-1
1.424108397E0,1.422751904E0,-1.621817350E-1,-4.244953692E-1
1.426629803E0,1.449382663E0,-1.217028722E-1,-4.703003764E-1
1.429151261E0,1.480274439E0,-7.376738638E-2,-5.203663111E-1
1.431672667E0,1.513296723E0,-1.837527007E-2,-5.736280084E-1
1.434194126E0,1.549514532E0,4.340824485E-2,-6.258243918E-1
1.436715532E0,1.581471562E0,1.083874628E-1,-6.726946831E-1
1.439236990E0,1.615558982E0,1.786928326E-1,-7.238258123E-1
1.441758397E0,1.649646521E0,2.489982247E-1,-7.717612982E-1
1.444279855E0,1.680538297E0,3.246297538E-1,-8.216941357E-1
1.446801261E0,1.713560462E0,4.065195620E-1,-8.685643673E-1
1.449322667E0,1.745517492E0,4.896077216E-1,-9.164998531E-1
1.451844126E0,1.776409268E0,5.705654621E-1,-9.601744413E-1
1.454410584E0,1.807300925E0,6.419360638E-1,-1.005979419E0
1.456934803E0,1.833931804E0,7.090457082E-1,-1.049654007E0
1.459459022E0,1.858432174E0,7.676335573E-1,-1.088002324E0
1.461983292E0,1.878671646E0,8.187647462E-1,-1.122089863E0
1.464507511E0,1.897845745E0,8.603088260E-1,-1.156177282E0
1.467031730E0,1.911560655E0,8.933310509E-1,-1.180677652E0
1.469555949E0,1.919017315E0,9.231575727E-1,-1.204112768E0
1.472080219E0,1.930734873E0,9.391360879E-1,-1.221156478E0
1.474604438E0,1.936061025E0,9.497883916E-1,-1.233939290E0
1.477128657E0,1.940321922E0,9.583102465E-1,-1.237135053E0
1.479652876E0,1.940321922E0,9.678973556E-1,-1.242461205E0
1.482177147E0,1.940321922E0,9.806801677E-1,-1.242461205E0
1.484713136E0,1.941387177E0,9.892020226E-1,-1.243526459E0
1.487237355E0,1.941387177E0,9.945281744E-1,-1.242461205E0
1.489761574E0,1.940321922E0,9.923977256E-1,-1.238200188E0
1.492285844E0,1.939256668E0,9.966586232E-1,-1.229678392E0
1.494810063E0,1.937126279E0,1.000919580E0,-1.220091224E0
1.497334282E0,1.939256668E0,1.003050089E0,-1.207308531E0
1.499858501E0,1.946713328E0,1.001984835E0,-1.192395210E0
1.502382772E0,1.956300497E0,9.998543262E-1,-1.179612398E0
1.504906990E0,1.964822292E0,9.977238774E-1,-1.165764332E0
1.507431209E0,1.979735613E0,9.870715737E-1,-1.149785876E0
1.509955428E0,2.001040220E0,9.647016525E-1,-1.132742167E0
1.512479699E0,2.021279573E0,9.433969855E-1,-1.110372305E0
1.515055063E0,2.043649673E0,9.231575727E-1,-1.090132833E0
1.517579282E0,2.063889027E0,9.093095660E-1,-1.065632463E0
1.520103553E0,2.076671839E0,9.007876515E-1,-1.042197347E0
1.522627772E0,2.093715429E0,8.943963051E-1,-1.016631722E0
1.525151990E0,2.109694004E0,8.794830441E-1,-9.910661578E-1
1.527676209E0,2.117150545E0,8.667002320E-1,-9.708267450E-1
1.530200480E0,2.119281054E0,8.560478687E-1,-9.559134841E-1
1.532724699E0,2.112889767E0,8.411346078E-1,-9.441959262E-1
1.535248917E0,2.101172209E0,8.304823041E-1,-9.346088171E-1
1.537773136E0,2.085193634E0,8.155690432E-1,-9.260869622E-1
1.540297407E0,2.066019535E0,7.995905280E-1,-9.250217080E-1
1.542821626E0,2.044714689E0,7.761554122E-1,-9.303479195E-1
1.545318136E0,2.021279573E0,7.495245934E-1,-9.303479195E-1
1.547842355E0,1.996779323E0,7.271546721E-1,-9.324783683E-1
1.550366574E0,1.972278953E0,7.026543617E-1,-9.335435629E-1
1.552890844E0,1.952039480E0,6.717625856E-1,-9.314131141E-1
1.555415063E0,1.926473975E0,6.398055553E-1,-9.314131141E-1
1.557939282E0,1.905169249E0,6.067833900E-1,-9.292826653E-1
1.560463501E0,1.891454339E0,5.758916140E-1,-9.250217080E-1
1.562987772E0,1.879736781E0,5.396736860E-1,-9.239565134E-1
1.565511990E0,1.871214986E0,5.045210123E-1,-9.175651073E-1
1.568036209E0,1.869084477E0,4.672378302E-1,-9.111737013E-1
1.570560428E0,1.868019223E0,4.331503808E-1,-8.994561434E-1
1.573084699E0,1.872280240E0,3.938699067E-1,-8.813471794E-1
1.575620636E0,1.878671646E0,3.512606025E-1,-8.632382154E-1
1.578144855E0,1.890389204E0,3.043903410E-1,-8.419335485E-1
1.580669074E0,1.901973605E0,2.521939278E-1,-8.216941357E-1
1.583193344E0,1.908365011E0,1.925408691E-1,-7.994573712E-1
1.585717563E0,1.916886806E0,1.211702600E-1,-7.760222554E-1
1.588241782E0,1.925408721E0,3.275591508E-2,-7.568480372E-1
1.590766001E0,1.927539110E0,-6.098458916E-2,-7.387390733E-1
1.593290272E0,1.923278213E0,-1.632469594E-1,-7.291520238E-1
1.595814490E0,1.915821552E0,-2.600499988E-1,-7.184996605E-1
1.598338709E0,1.889323950E0,-3.473991156E-1,-7.099778056E-1
1.600862928E0,1.850975513E0,-4.251611233E-1,-6.993255019E-1
1.603387199E0,1.815822840E0,-4.933360517E-1,-6.886731386E-1
1.605923188E0,1.773213506E0,-5.476629138E-1,-6.737598777E-1
1.608447407E0,1.722082376E0,-5.934679508E-1,-6.556509137E-1
1.610971626E0,1.667755485E0,-6.286206245E-1,-6.428681016E-1
1.613495897E0,1.616624236E0,-6.573819518E-1,-6.300853491E-1
1.616020115E0,1.566558361E0,-6.818822622E-1,-6.173025370E-1
1.618544334E0,1.517557621E0,-6.935998797E-1,-6.087806821E-1
1.621068553E0,1.472817779E0,-6.893389225E-1,-6.023892760E-1
1.623592824E0,1.423817039E0,-6.818822622E-1,-5.938674212E-1
1.626117042E0,1.378012061E0,-6.648385525E-1,-5.864107609E-1
1.628641261E0,1.333272338E0,-6.360772848E-1,-5.778889060E-1
1.631165480E0,1.292926550E0,-5.998593569E-1,-5.693670511E-1
1.633689751E0,1.247121572E0,-5.593804717E-1,-5.587147474E-1
1.636225688E0,1.204512239E0,-5.114449859E-1,-5.448666811E-1
1.638749907E0,1.159772396E0,-4.581833482E-1,-5.320838690E-1
1.641274126E0,1.125684977E0,-4.017260075E-1,-5.193011165E-1
1.643798397E0,1.099054217E0,-3.442034125E-1,-5.001268983E-1
1.646322615E0,1.071358085E0,-2.866808474E-1,-4.852136374E-1
1.648846834E0,1.052183867E0,-2.376801223E-1,-4.681699276E-1
1.651371053E0,1.034074903E0,-1.898777932E-1,-4.500609636E-1
1.653895324E0,1.026618361E0,-1.430075318E-1,-4.287562966E-1
1.656419542E0,1.022357345E0,-1.099853069E-1,-4.053211510E-1
1.658943761E0,1.021292210E0,-7.909355313E-2,-3.786903322E-1
1.661467980E0,1.013835549E0,-6.098458916E-2,-3.509942889E-1
1.663992251E0,1.010639787E0,-4.500609636E-2,-3.222329915E-1
1.666528188E0,1.012770295E0,-3.009283356E-2,-2.913412452E-1
1.669052407E0,1.007444143E0,-2.583190054E-2,-2.583190203E-1
1.671576626E0,1.003183246E0,-3.115806542E-2,-2.221010923E-1
1.674100897E0,9.946613312E-1,-4.287562892E-2,-1.924077123E-1
1.676625115E0,9.850742221E-1,-5.352795869E-2,-1.572550237E-1
1.679149334E0,9.733566642E-1,-6.844121963E-2,-1.242327988E-1
1.681673553E0,9.573782086E-1,-8.228924870E-2,-8.694964647E-2
1.684197824E0,9.413996935E-1,-9.400681406E-2,-5.179695413E-2
1.686722042E0,9.200950265E-1,-1.025286764E-1,-1.451379992E-2
1.689246261E0,8.987903595E-1,-1.078548431E-1,2.596505545E-2
1.691770480E0,8.721595407E-1,-1.078548431E-1,5.898727849E-2
1.694294751E0,8.444634676E-1,-1.025286764E-1,9.200949967E-2
1.696830688E0,8.125064969E-1,-9.400681406E-2,1.239664927E-1
1.699354907E0,7.826799750E-1,-7.909355313E-2,1.548582464E-1
1.701879126E0,7.464620471E-1,-5.885412544E-2,1.804238409E-1
1.704403397E0,7.081136703E-1,-4.074516147E-2,2.049241960E-1
1.706927615E0,6.677679420E-1,-1.731003635E-2,2.240983993E-1
1.709451834E0,6.315500140E-1,1.677742042E-2,2.390116602E-1
1.711976053E0,5.942668915E-1,5.832150951E-2,2.528596818E-1
1.714500324E0,5.591141582E-1,1.030612960E-1,2.581858635E-1
1.717024542E0,5.271571875E-1,1.520620137E-1,2.592510879E-1
1.719548761E0,5.026568174E-1,2.053236663E-1,2.603163123E-1
1.722072980E0,4.760259986E-1,2.585853040E-1,2.539249361E-1
1.724597251E0,4.525908828E-1,3.065207899E-1,2.432725877E-1
1.727133240E0,4.344819188E-1,3.555215299E-1,2.326202542E-1
1.729657459E0,4.206338823E-1,4.001281559E-1,2.219679356E-1
1.732181678E0,4.089163244E-1,4.448679388E-1,2.123808414E-1
1.734705949E0,4.089163244E-1,4.821510911E-1,2.006632686E-1
1.737230167E0,4.099815488E-1,5.141080618E-1,1.900109351E-1
1.739754386E0,4.142425060E-1,5.439345837E-1,1.846847683E-1
1.742278605E0,4.206338823E-1,5.641740561E-1,1.729672104E-1
1.744802876E0,4.366123974E-1,5.822830200E-1,1.623148769E-1
1.747327094E0,4.600475132E-1,5.929353237E-1,1.516625583E-1
1.749851313E0,4.856131077E-1,5.982614756E-1,1.452711523E-1
1.752375532E0,5.165048838E-1,5.982614756E-1,1.378145218E-1
1.754899803E0,5.516575575E-1,5.897396207E-1,1.271621883E-1
1.757435740E0,5.868102312E-1,5.801525116E-1,1.207707971E-1
1.759959959E0,6.240934134E-1,5.599130988E-1,1.175750941E-1
1.762484178E0,6.592460871E-1,5.364779830E-1,1.143793985E-1
1.765008449E0,6.953308582E-1,5.109124184E-1,1.111836955E-1
1.767532667E0,7.262226343E-1,4.864120185E-1,1.111836955E-1
1.770056886E0,7.539186478E-1,4.608464241E-1,1.090532318E-1
1.772581105E0,7.858756781E-1,4.427374899E-1,1.090532318E-1
1.775105376E0,8.135717511E-1,4.320851564E-1,1.111836955E-1
1.777629594E0,8.380720615E-1,4.246285260E-1,1.047922969E-1
1.780153813E0,8.678985834E-1,4.256937504E-1,1.047922969E-1
1.782678032E0,9.009208083E-1,4.288894534E-1,1.069227681E-1
1.785202303E0,9.339430332E-1,4.342156053E-1,1.079879999E-1
1.787738240E0,9.701609612E-1,4.352808297E-1,1.047922969E-1
1.790262459E0,1.003183246E0,4.224980474E-1,9.946613014E-2
1.792786678E0,1.035140157E0,3.958672285E-1,9.520520270E-2
1.795310949E0,1.060705781E0,3.469996452E-1,8.561810106E-2
1.797835167E0,1.086271405E0,2.841508985E-1,7.283531129E-2
1.800359386E0,1.103315115E0,2.031932026E-1,5.472634733E-2
1.802883605E0,1.113967419E0,1.073222235E-1,3.661738336E-2
1.805407876E0,1.116097927E0,1.251648832E-2,1.957365684E-2
1.807932094E0,1.119293571E0,-8.441971987E-2,3.994623839E-4
1.810456313E0,1.120358825E0,-1.696383655E-1,-2.623136342E-2
1.812980532E0,1.120358825E0,-2.408758104E-1,-5.179695413E-2
1.815504803E0,1.123554587E0,-2.920069993E-1,-7.523208112E-2
1.818040740E0,1.126750231E0,-3.133116663E-1,-1.029281393E-1
1.820564959E0,1.135272145E0,-3.122464418E-1,-1.295589656E-1
1.823089178E0,1.144859195E0,-2.888112962E-1,-1.593854874E-1
1.825613449E0,1.158707261E0,-2.419410497E-1,-1.913424879E-1
1.828137667E0,1.174685717E0,-1.728340536E-1,-2.210358530E-1
1.830661886E0,1.186403275E0,-8.655018359E-2,-2.615146935E-1
1.833186105E0,1.202381730E0,1.038602181E-2,-3.041240275E-1
1.835710376E0,1.210903645E0,1.201050207E-1,-3.467333615E-1
1.838234594E0,1.220490694E0,2.372806519E-1,-3.936035931E-1
1.840758813E0,1.227947354E0,3.576519787E-1,-4.394086301E-1
1.843283032E0,1.227947354E0,4.864120185E-1,-4.862788618E-1
1.845807303E0,1.222621202E0,6.142399907E-1,-5.310186744E-1
1.848343292E0,1.216229796E0,7.420679331E-1,-5.778889060E-1
1.850867511E0,1.209838390E0,8.603088260E-1,-6.151720881E-1
1.853391730E0,1.199186087E0,9.742887616E-1,-6.386072040E-1
1.855916001E0,1.187468529E0,1.075352788E0,-6.577813625E-1
1.858440219E0,1.174685717E0,1.163767099E0,-6.652380228E-1
1.860964438E0,1.165098667E0,1.229811549E0,-6.652380228E-1
1.863488657E0,1.155511498E0,1.269225121E0,-6.599118710E-1
1.866012928E0,1.146989703E0,1.285203695E0,-6.535204649E-1
1.868537147E0,1.142728686E0,1.273486137E0,-6.407376528E-1
1.871061365E0,1.138467789E0,1.239398599E0,-6.215634942E-1
1.873585584E0,1.134206891E0,1.173354149E0,-5.906717181E-1
1.876109855E0,1.127815485E0,1.083874583E0,-5.533885360E-1
1.878645792E0,1.117163181E0,9.764192104E-1,-5.129097104E-1
1.881170011E0,1.097988963E0,8.507217169E-1,-4.639089704E-1
1.883694230E0,1.071358085E0,7.207632661E-1,-4.138430357E-1
1.886218501E0,1.037270665E0,5.748263597E-1,-3.563204408E-1
1.888742719E0,9.967917800E-1,4.267589748E-1,-2.860150635E-1
1.891266938E0,9.552477002E-1,2.820204496E-1,-2.157096863E-1
1.893791157E0,9.168993235E-1,1.446053833E-1,-1.487331539E-1
1.896315428E0,8.817466497E-1,1.571218669E-2,-7.629731297E-2
1.898839647E0,8.551158309E-1,-9.826774895E-2,-8.122402243E-3
1.901363865E0,8.295502067E-1,-1.962691844E-1,6.324820966E-2
1.903888084E0,8.093107939E-1,-2.749632597E-1,1.346188188E-1
1.906412355E0,7.858756781E-1,-3.378120363E-1,2.113156021E-1
1.908948344E0,7.635057569E-1,-3.889431953E-1,2.922733128E-1
1.911472563E0,7.379401922E-1,-4.262263775E-1,3.668396175E-1
1.913996782E0,7.027874589E-1,-4.539224207E-1,4.327509105E-1
1.916521053E0,6.635070443E-1,-4.805532396E-1,4.945344329E-1
1.919045272E0,6.198324561E-1,-5.071840882E-1,5.509917736E-1
1.921569490E0,5.697665215E-1,-5.316844583E-1,6.010577083E-1
1.924093709E0,5.165048838E-1,-5.561847687E-1,6.468627453E-1
1.926617980E0,4.589822888E-1,-5.796199441E-1,6.937330365E-1
1.929142199E0,3.918725848E-1,-6.019898057E-1,7.384728193E-1
1.931666417E0,3.205019832E-1,-6.328815818E-1,7.864083052E-1
1.934190636E0,2.438052148E-1,-6.605776548E-1,8.364742398E-1
1.936714907E0,1.575213373E-1,-6.978607774E-1,8.844097257E-1
1.939250844E0,6.284874678E-2,-7.404701114E-1,9.355409145E-1
1.941775063E0,-3.621792421E-2,-7.916013002E-1,9.813459516E-1
1.944299282E0,-1.427412182E-1,-8.479254842E-1,1.029148221E0
1.946823553E0,-2.588516176E-1,-9.118394852E-1,1.074953318E0
1.949347772E0,-3.792229593E-1,-9.810796380E-1,1.119693041E0
1.951871990E0,-5.049204826E-1,-1.056711197E0,1.161237121E0
1.954396209E0,-6.368761659E-1,-1.124886036E0,1.199585557E0
1.956920480E0,-7.678998709E-1,-1.181343436E0,1.243260145E0
1.959444699E0,-8.999887705E-1,-1.222887516E0,1.289065123E0
1.961968917E0,-1.029947162E0,-1.248453140E0,1.337000608E0
1.964493136E0,-1.159772396E0,-1.258040190E0,1.382805586E0
1.967017407E0,-1.285470009E0,-1.246322632E0,1.431806326E0
1.969553240E0,-1.405841231E0,-1.213300467E0,1.488263726E0
1.972078240E0,-1.520886421E0,-1.161103964E0,1.538329601E0
1.974603292E0,-1.628474951E0,-1.091863871E0,1.590526104E0
1.977128292E0,-1.731802583E0,-1.015167117E0,1.644719839E0
1.979653292E0,-1.831801295E0,-9.320788980E-1,1.692655325E0
1.982178292E0,-1.924476624E0,-8.489907384E-1,1.733134151E0
1.984703344E0,-2.011825800E0,-7.756227851E-1,1.764025927E0
1.987228344E0,-2.094913960E0,-7.191654444E-1,1.786395788E0
1.989753344E0,-2.179067373E0,-6.690995097E-1,1.800243855E0
1.992278344E0,-2.263220787E0,-6.392729878E-1,1.810896158E0
1.994803397E0,-2.349504471E0,-6.243597269E-1,1.822613716E0
1.997328397E0,-2.444177151E0,-6.243597269E-1,1.829005122E0
1.999855740E0,-2.545374393E0,-6.318163276E-1,1.831135511E0
2.002380740E0,-2.639114857E0,-6.552514434E-1,1.827939868E0
2.004905792E0,-2.741377115E0,-6.946650743E-1,1.820483208E0
2.007430792E0,-2.853226662E0,-7.404701114E-1,1.808765650E0
2.009955792E0,-2.956554174E0,-7.916013002E-1,1.797048092E0
2.012480792E0,-3.072531462E0,-8.489907384E-1,1.784265280E0
2.015005844E0,-3.192902803E0,-9.075785279E-1,1.765091062E0
2.017530844E0,-3.315404654E0,-9.736229777E-1,1.743786454E0
2.020055844E0,-3.441102028E0,-1.037536979E0,1.716090441E0
2.022580844E0,-3.566799641E0,-1.101450920E0,1.682002902E0
2.025105897E0,-3.690233469E0,-1.157908320E0,1.641524076E0
2.027630897E0,-3.803148270E0,-1.204778552E0,1.597982645E0
2.030158292E0,-3.904345274E0,-1.242061734E0,1.552177668E0
2.032683292E0,-3.992759705E0,-1.267627239E0,1.501046538E0
2.035208344E0,-4.051347733E0,-1.271888256E0,1.445654392E0
2.037733344E0,-4.083304405E0,-1.250583529E0,1.383870840E0
2.040258344E0,-4.075847626E0,-1.211169958E0,1.322087288E0
2.042783344E0,-4.031107903E0,-1.142995000E0,1.251781940E0
2.045308397E0,-3.938432693E0,-1.036471725E0,1.181476593E0
2.047833397E0,-3.791430712E0,-8.926652670E-1,1.106910229E0
2.050358397E0,-3.610341072E0,-7.106435895E-1,1.019561172E0
2.052883397E0,-3.397427559E0,-5.018579364E-1,9.280842543E-1
2.055408449E0,-3.155619621E0,-2.664414048E-1,8.300828338E-1
2.057933449E0,-2.904357910E0,-1.731003635E-2,7.267552018E-1
2.060460792E0,-2.647636652E0,2.415415943E-1,6.117100716E-1
2.062985792E0,-2.394111156E0,5.066514611E-1,4.966649115E-1
2.065510844E0,-2.150305986E0,7.750901580E-1,3.785571754E-1
2.068035844E0,-1.922346115E0,1.040199995E0,2.645772398E-1
2.070560844E0,-1.720085025E0,1.296921253E0,1.548582464E-1
2.073085844E0,-1.544321537E0,1.544055223E0,5.472634733E-2
2.075610897E0,-1.403710842E0,1.775077701E0,-4.327509180E-2
2.078135897E0,-1.292926550E0,1.985993862E0,-1.306242049E-1
2.080660897E0,-1.209838390E0,2.168148756E0,-2.094514370E-1
2.083185897E0,-1.156576753E0,2.308626175E0,-2.817541361E-1
2.085710949E0,-1.130079031E0,2.401301622E0,-3.488638103E-1
2.088235949E0,-1.119426727E0,2.449237108E0,-4.063864052E-1
2.090802772E0,-1.125818133E0,2.451367378E0,-4.564523399E-1
2.093327772E0,-1.153381109E0,2.395975351E0,-4.990616739E-1
2.095852772E0,-1.193859935E0,2.296908617E0,-5.427362323E-1
2.098377772E0,-1.240730166E0,2.157496452E0,-5.853455663E-1
2.100902824E0,-1.299317956E0,1.980667710E0,-6.300853491E-1
2.103427824E0,-1.363232017E0,1.788925767E0,-6.769555807E-1
2.105952824E0,-1.432472110E0,1.578142762E0,-7.248910666E-1
2.108477824E0,-1.494255662E0,1.352313280E0,-7.856093645E-1
2.111002876E0,-1.551778197E0,1.104114056E0,-8.493902087E-1
2.113527876E0,-1.607170343E0,8.283518553E-1,-9.133041501E-1
2.116052876E0,-1.646583915E0,5.173037648E-1,-9.825443029E-1
2.118577928E0,-1.677475691E0,1.637795717E-1,-1.050719261E0
2.121065792E0,-1.696649909E0,-2.366148829E-1,-1.119959354E0
2.123590792E0,-1.711563110E0,-6.904041767E-1,-1.188134313E0
2.126115844E0,-1.725411177E0,-1.178147674E0,-1.252048254E0
2.128640844E0,-1.734998345E0,-1.695717812E0,-1.311701298E0
2.131165844E0,-1.748846292E0,-2.219679356E0,-1.360702038E0
2.133690844E0,-1.764691710E0,-2.732988596E0,-1.404376626E0
2.136215897E0,-1.782800674E0,-3.216604233E0,-1.430874228E0
2.138740897E0,-1.799844384E0,-3.659608126E0,-1.441526532E0
2.141265897E0,-1.814757586E0,-4.047219753E0,-1.441526532E0
2.143790897E0,-1.823279500E0,-4.382768154E0,-1.430874228E0
2.146315949E0,-1.837127447E0,-4.667052269E0,-1.413963675E0
2.148840949E0,-1.853106022E0,-4.892881393E0,-1.391593814E0
2.151368292E0,-1.875475883E0,-5.067579746E0,-1.371354342E0
2.153893292E0,-1.915954709E0,-5.203796387E0,-1.353245378E0
2.156418344E0,-1.964955449E0,-5.303928375E0,-1.340462565E0
2.158943344E0,-2.020347595E0,-5.384886265E0,-1.327679753E0
2.161468344E0,-2.089587688E0,-5.458387375E0,-1.315962195E0
2.163993344E0,-2.173741102E0,-5.522301197E0,-1.297853231E0
2.166518397E0,-2.262155533E0,-5.586215019E0,-1.276548624E0
2.169043397E0,-2.356961250E0,-5.655455112E0,-1.249917746E0
2.171568397E0,-2.451633692E0,-5.737345219E0,-1.224352241E0
2.174093397E0,-2.552830935E0,-5.828955173E0,-1.200917125E0
2.176618449E0,-2.658288956E0,-5.929087162E0,-1.175351501E0
2.179143449E0,-2.757355690E0,-6.023892879E0,-1.145524979E0
2.181670844E0,-2.848965645E0,-6.101654530E0,-1.118894100E0
2.184195844E0,-2.923532009E0,-6.155981541E0,-1.088002324E0
2.186720897E0,-2.964010954E0,-6.189003944E0,-1.052849650E0
2.189245897E0,-2.957619429E0,-6.203917027E0,-1.020892739E0
2.191770897E0,-2.910749197E0,-6.186873436E0,-9.868052602E-1
2.194295897E0,-2.820204496E0,-6.132546425E0,-9.623048902E-1
2.196820949E0,-2.691311121E0,-6.035610199E0,-9.441959262E-1
2.199345949E0,-2.531526327E0,-5.876890659E0,-9.282174110E-1
2.201870949E0,-2.355895996E0,-5.642672539E0,-9.175651073E-1
2.204395949E0,-2.184393406E0,-5.328428745E0,-9.079779983E-1
2.206921001E0,-2.023543358E0,-4.941882133E0,-9.015865922E-1
2.209446001E0,-1.882932544E0,-4.485962391E0,-8.888037801E-1
2.211973344E0,-1.766822100E0,-3.965196848E0,-8.706948161E-1
2.214498344E0,-1.684932351E0,-3.403952122E0,-8.525858521E-1
2.217023397E0,-1.628474951E0,-2.819272280E0,-8.302159905E-1
2.219548397E0,-1.606105089E0,-2.244179726E0,-7.951964736E-1
2.222073397E0,-1.609300733E0,-1.694652557E0,-7.536523938E-1
2.224598397E0,-1.622083545E0,-1.176017284E0,-7.078473568E-1
2.227123449E0,-1.639127374E0,-7.074478865E-1,-6.631075740E-1
2.229648449E0,-1.658301473E0,-3.005288541E-1,-6.247591972E-1
2.232173449E0,-1.664692879E0,2.956021577E-2,-5.949326158E-1
2.234698449E0,-1.659366727E0,2.788247466E-1,-5.757584572E-1
2.237223501E0,-1.651910067E0,4.661726058E-1,-5.661713481E-1
2.239748501E0,-1.634866357E0,5.993267298E-1,-5.533885360E-1
2.242275844E0,-1.613561749E0,6.685668826E-1,-5.501928329E-1
2.244800844E0,-1.586930871E0,6.813496947E-1,-5.523233414E-1
2.247325897E0,-1.562430501E0,6.419360638E-1,-5.608451962E-1
2.249850897E0,-1.541125894E0,5.599130988E-1,-5.714974999E-1
2.252375897E0,-1.521951675E0,4.448679388E-1,-5.757584572E-1
2.254900897E0,-1.504907966E0,2.916075289E-1,-5.789541602E-1
2.257425949E0,-1.501712203E0,1.169093251E-1,-5.768237114E-1
2.259950949E0,-1.505973220E0,-7.589785010E-2,-5.746932030E-1
2.262475949E0,-1.513429761E0,-2.813546658E-1,-5.736280084E-1
2.265000949E0,-1.530473590E0,-4.912055731E-1,-5.704323053E-1
2.267526001E0,-1.552843451E0,-7.127740383E-1,-5.683017969E-1
2.270051001E0,-1.582669973E0,-9.544488192E-1,-5.576494932E-1
2.272578397E0,-1.621018410E0,-1.184539080E0,-5.384752750E-1
2.275103397E0,-1.662562490E0,-1.381607175E0,-5.161054134E-1
2.277628449E0,-1.708367467E0,-1.555107117E0,-4.894745648E-1
2.280153449E0,-1.749778390E0,-1.698913574E0,-4.607132971E-1
2.282678449E0,-1.785996318E0,-1.817154408E0,-4.372781515E-1
2.285203449E0,-1.808366179E0,-1.904503465E0,-4.159734845E-1
2.287728501E0,-1.825409889E0,-1.972678423E0,-4.031907022E-1
2.290253501E0,-1.839257956E0,-2.015287638E0,-3.904078901E-1
2.292778501E0,-1.833931804E0,-2.025939941E0,-3.818860352E-1
2.295303501E0,-1.820083737E0,-2.007831097E0,-3.776251078E-1
2.297828553E0,-1.795583367E0,-1.968417525E0,-3.776251078E-1
2.300353553E0,-1.759365439E0,-1.911960125E0,-3.829512596E-1
2.302880897E0,-1.713693619E0,-1.845915675E0,-3.936035931E-1
2.305405897E0,-1.662562490E0,-1.773479819E0,-4.095821083E-1
2.307930949E0,-1.608235598E0,-1.698913574E0,-4.362129271E-1
2.310455949E0,-1.551778197E0,-1.627542853E0,-4.575175941E-1
2.312980949E0,-1.493190408E0,-1.559368014E0,-4.830831885E-1
2.315505949E0,-1.437798262E0,-1.507171631E0,-5.182358623E-1
2.318031001E0,-1.387732267E0,-1.469888449E0,-5.544537902E-1
2.320556001E0,-1.334470630E0,-1.448583722E0,-5.800193548E-1
2.323081001E0,-1.281208992E0,-1.438996673E0,-6.119763851E-1
2.325606001E0,-1.230077863E0,-1.438996673E0,-6.407376528E-1
2.328131053E0,-1.180011868E0,-1.450714231E0,-6.631075740E-1
2.330656053E0,-1.126883388E0,-1.470953703E0,-6.886731386E-1
2.333183397E0,-1.074687004E0,-1.489062667E0,-7.110430598E-1
2.335708397E0,-1.023555756E0,-1.502910614E0,-7.206301689E-1
2.338233449E0,-9.734898210E-1,-1.506106377E0,-7.334129214E-1
2.340758449E0,-9.234238863E-1,-1.508236766E0,-7.461957335E-1
2.343283449E0,-8.733579516E-1,-1.511432528E0,-7.536523938E-1
2.345808449E0,-8.190310597E-1,-1.511432528E0,-7.632394433E-1
2.348333501E0,-7.668346167E-1,-1.509302020E0,-7.728265524E-1
2.350858501E0,-7.125077248E-1,-1.508236766E0,-7.749570012E-1
2.353383501E0,-6.698983908E-1,-1.495453954E0,-7.685656548E-1
2.355908501E0,-6.177020073E-1,-1.469888449E0,-7.632394433E-1
2.358433553E0,-5.665708184E-1,-1.430474758E0,-7.568480372E-1
2.360958553E0,-5.177032351E-1,-1.379476786E0,-7.461957335E-1
2.363485897E0,-4.708330035E-1,-1.319823742E0,-7.387390733E-1
2.366010897E0,-4.143756330E-1,-1.253779292E0,-7.280867696E-1
2.368535949E0,-3.600487709E-1,-1.182408690E0,-7.153039575E-1
2.371060949E0,-3.078523576E-1,-1.107842326E0,-7.089125514E-1
2.373585949E0,-2.545906901E-1,-1.035406470E0,-7.014559507E-1
2.376110949E0,-2.055899799E-1,-9.629706740E-1,-6.961297989E-1
2.378636001E0,-1.555240154E-1,-8.937305212E-1,-6.929340959E-1
2.381161001E0,-1.043928340E-1,-8.372731805E-1,-6.886731386E-1
2.383686001E0,-5.539211631E-2,-7.884055972E-1,-6.844122410E-1
2.386211001E0,-1.171756350E-2,-7.543181181E-1,-6.833469868E-1
2.388736053E0,3.408745676E-2,-7.351439595E-1,-6.897383928E-1
2.391261053E0,8.188978583E-2,-7.298177481E-1,-6.908035874E-1
2.393788449E0,1.298252791E-1,-7.330134511E-1,-6.918688416E-1
2.396313449E0,1.798912287E-1,-7.447310090E-1,-6.897383928E-1
2.398838501E0,2.331528813E-1,-7.553833723E-1,-6.908035874E-1
2.401363501E0,2.853493094E-1,-7.649704814E-1,-6.961297989E-1
2.403888501E0,3.439370990E-1,-7.681661844E-1,-7.121082544E-1
2.406413501E0,3.971987665E-1,-7.702966332E-1,-7.302172184E-1
2.408938553E0,4.568518102E-1,-7.702966332E-1,-7.557828426E-1
2.411463553E0,5.133091807E-1,-7.692313790E-1,-7.888050675E-1
2.413988553E0,5.655055642E-1,-7.671009302E-1,-8.270202875E-1
2.416513553E0,6.187672615E-1,-7.702966332E-1,-8.643034697E-1
2.419038605E0,6.677679420E-1,-7.798837423E-1,-9.026518464E-1
2.421563605E0,7.166355252E-1,-8.054493070E-1,-9.441959262E-1
2.424090949E0,7.592448592E-1,-8.457950354E-1,-9.900009632E-1
2.426615949E0,8.029193878E-1,-9.001219273E-1,-1.030479789E0
2.429141001E0,8.380720615E-1,-9.725577235E-1,-1.065632463E0
2.431666001E0,8.732247949E-1,-1.058841586E0,-1.097589493E0
2.434191001E0,9.041165113E-1,-1.157908320E0,-1.127416015E0
2.436716001E0,9.328778386E-1,-1.265496850E0,-1.154046774E0
2.439241053E0,9.541825056E-1,-1.376281023E0,-1.176416755E0
2.441766053E0,9.733566642E-1,-1.491193056E0,-1.199851871E0
2.444291053E0,9.840090275E-1,-1.610499144E0,-1.213699818E0
2.446816053E0,9.872047305E-1,-1.735131383E0,-1.217960835E0
2.449341105E0,9.797480702E-1,-1.866155148E0,-1.219026089E0
2.451866105E0,9.627043605E-1,-2.003570080E0,-1.213699818E0
2.454393449E0,9.382039905E-1,-2.144047737E0,-1.195590973E0
2.456918449E0,9.030513167E-1,-2.280397654E0,-1.173220992E0
2.459443501E0,8.583115339E-1,-2.417812586E0,-1.145524979E0
2.461968501E0,7.997236848E-1,-2.544575453E0,-1.105046153E0
2.464493501E0,7.336792350E-1,-2.664813519E0,-1.053914905E0
2.467018501E0,6.539199352E-1,-2.768141270E0,-9.963923693E-1
2.469543553E0,5.633751154E-1,-2.853359699E0,-9.378045201E-1
2.472068553E0,4.675041437E-1,-2.914077997E0,-8.856080770E-1
2.474593553E0,3.652417660E-1,-2.953491688E0,-8.398030996E-1
2.477118553E0,2.565880120E-1,-2.974796295E0,-8.026530743E-1
2.479643605E0,1.362166703E-1,-2.980122566E0,-7.728265524E-1
2.482168605E0,1.704372838E-2,-2.981187820E0,-7.557828426E-1
2.484696001E0,-1.033276021E-1,-2.968405008E0,-7.430000305E-1
2.487221157E0,-2.215684652E-1,-2.948165655E0,-7.440652847E-1
2.489746365E0,-3.323526978E-1,-2.917273760E0,-7.547175884E-1
2.492271522E0,-4.367455542E-1,-2.877860069E0,-7.653699517E-1
2.494796678E0,-5.251598954E-1,-2.815011501E0,-7.888050675E-1
2.497321834E0,-5.953320861E-1,-2.736184120E0,-8.207620382E-1
2.499847042E0,-6.485937834E-1,-2.634054899E0,-8.568468094E-1
2.502372199E0,-6.848116517E-1,-2.515814066E0,-9.026518464E-1
2.504897355E0,-7.061163187E-1,-2.382659912E0,-9.463263750E-1
2.507422563E0,-7.093120217E-1,-2.239918709E0,-9.889357090E-1
2.509947719E0,-6.933335662E-1,-2.090786219E0,-1.030479789E0
2.512472876E0,-6.656374931E-1,-1.944982290E0,-1.066697717E0
2.514998501E0,-6.262238622E-1,-1.808632493E0,-1.096524239E0
2.517523657E0,-5.761579275E-1,-1.693587303E0,-1.122089863E0
2.520048865E0,-5.113118291E-1,-1.603042603E0,-1.140198827E0
2.522574022E0,-4.356803000E-1,-1.542324305E0,-1.147655487E0
2.525099178E0,-3.493964374E-1,-1.516758680E0,-1.143394470E0
2.527624334E0,-2.577863932E-1,-1.527410984E0,-1.127416015E0
2.530149542E0,-1.746982187E-1,-1.576411724E0,-1.102915645E0
2.532674699E0,-9.906667471E-2,-1.652043223E0,-1.067762971E0
2.535199855E0,-4.367455468E-2,-1.746849060E0,-1.021957874E0
2.537725063E0,-8.521864191E-3,-1.852307081E0,-9.729571939E-1
2.540250219E0,1.704372838E-2,-1.958830357E0,-9.207608104E-1
2.542775376E0,2.343512699E-2,-2.043915749E0,-8.611077666E-1
2.545301001E0,2.343512699E-2,-2.082264185E0,-8.079792261E-1
2.547826157E0,1.384802908E-2,-2.056698561E0,-7.611089945E-1
2.550351365E0,-6.391398143E-3,-1.937525749E0,-7.259563208E-1
2.552876522E0,-2.556559257E-2,-1.706370115E0,-6.993255019E-1
2.555401678E0,-3.834838793E-2,-1.375215888E0,-6.844122410E-1
2.557926834E0,-3.941362351E-2,-9.757534266E-1,-6.865426898E-1
2.560452042E0,-3.728315607E-2,-5.423367620E-1,-7.035863996E-1
2.562977199E0,-2.663082629E-2,-1.067896113E-1,-7.334129214E-1
2.565502355E0,-1.597849466E-2,2.990641594E-1,-7.792179585E-1
2.568027563E0,-3.195699072E-3,6.461969614E-1,-8.302159905E-1
2.570552719E0,1.810896210E-2,9.039833546E-1,-8.792167306E-1
2.573077876E0,6.178351492E-2,1.059374213E0,-9.282174110E-1
2.575603553E0,1.383471340E-1,1.119027257E0,-9.761528969E-1
2.578128709E0,2.416747361E-1,1.095592141E0,-1.019827485E0
2.580653917E0,3.684374690E-1,9.955934286E-1,-1.061371565E0
2.583179074E0,5.069177747E-1,8.326127529E-1,-1.092263341E0
2.585704230E0,6.507242322E-1,5.918700695E-1,-1.101850390E0
2.588229386E0,7.816147208E-1,2.745638192E-1,-1.100785136E0
2.590754594E0,8.849423528E-1,-1.185071766E-1,-1.072023869E0
2.593279751E0,9.563129544E-1,-5.689675808E-1,-1.027284145E0
2.595804907E0,9.904004335E-1,-1.042863131E0,-9.591091871E-1
2.598330115E0,9.914656281E-1,-1.515693426E0,-8.674991727E-1
2.600855272E0,9.616391063E-1,-1.956699967E0,-7.547175884E-1
2.603380428E0,9.073122144E-1,-2.333659172E0,-6.258243918E-1
2.605906053E0,8.444634676E-1,-2.627663612E0,-4.788222313E-1
2.608431209E0,7.816147208E-1,-2.832055092E0,-3.222329915E-1
2.610956417E0,7.326140404E-1,-2.927926064E0,-1.593854874E-1
2.613481574E0,7.059831619E-1,-2.922600031E0,3.994623839E-4
2.616006730E0,6.974613070E-1,-2.832055092E0,1.463363916E-1
2.618531886E0,7.091788650E-1,-2.677596331E0,2.805557549E-1
2.621057094E0,7.326140404E-1,-2.476400375E0,3.954677582E-1
2.623582251E0,7.656362653E-1,-2.238853455E0,4.913387299E-1
2.626107407E0,8.157021999E-1,-1.976939321E0,5.808182955E-1
2.628632615E0,8.753552437E-1,-1.688261151E0,6.532541513E-1
2.631157772E0,9.488562942E-1,-1.381607175E0,7.203638554E-1
2.633682928E0,1.028748751E0,-1.066298246E0,7.800168991E-1
2.636208605E0,1.111836910E0,-7.489919662E-1,8.332785368E-1
2.638733761E0,1.200251341E0,-4.304873049E-1,8.790835738E-1
2.641258969E0,1.288665652E0,-1.195724085E-1,9.206276536E-1
2.643784126E0,1.379077315E0,1.733666807E-1,9.557803273E-1
2.646309282E0,1.467491627E0,4.427374899E-1,9.760197401E-1
2.648834438E0,1.544188380E0,6.792191863E-1,9.877372980E-1
2.651359647E0,1.619819999E0,8.869396448E-1,9.898678064E-1
2.653884803E0,1.685864449E0,1.064700365E0,9.845415950E-1
2.656409959E0,1.735930324E0,1.203180671E0,9.717588425E-1
2.658935167E0,1.775344014E0,1.310769200E0,9.536498785E-1
2.661460324E0,1.808366179E0,1.397053123E0,9.280842543E-1
2.663985480E0,1.834997058E0,1.455640912E0,9.046491385E-1
2.666511105E0,1.847779870E0,1.480141282E0,8.790835738E-1
2.669036261E0,1.854171276E0,1.480141282E0,8.492570519E-1
2.671561469E0,1.857366920E0,1.453510404E0,8.162348270E-1
2.674086626E0,1.852040768E0,1.394922614E0,7.832126021E-1
2.676611782E0,1.844584107E0,1.306508303E0,7.310161591E-1
2.679136938E0,1.832866549E0,1.173354149E0,6.702978611E-1
2.681662147E0,1.816888094E0,1.016764879E0,5.967968106E-1
2.684187303E0,1.794518232E0,8.326127529E-1,5.030562878E-1
2.686712459E0,1.763626456E0,6.334142089E-1,3.965329826E-1
2.689237667E0,1.729538918E0,4.278241992E-1,2.805557549E-1
2.691762824E0,1.685864449E0,2.234326303E-1,1.452711523E-1
2.694287980E0,1.640059352E0,2.742975019E-2,1.464695437E-3
2.696813657E0,1.588928223E0,-1.536598653E-1,-1.508636326E-1
2.699338813E0,1.536731839E0,-3.175725937E-1,-3.073197305E-1
2.701864022E0,1.482404947E0,-4.603138268E-1,-4.617785215E-1
2.704389178E0,1.414229989E0,-5.828156471E-1,-5.970631242E-1
2.706914334E0,1.341794133E0,-6.786866188E-1,-7.057169080E-1
2.709439490E0,1.258839130E0,-7.575138211E-1,-7.951964736E-1
2.711964699E0,1.170424819E0,-8.266208172E-1,-8.717600703E-1
2.714489855E0,1.080945253E0,-8.916000128E-1,-9.399349689E-1
2.717015011E0,1.003183246E0,-9.640358686E-1,-1.003849030E0
2.719540219E0,9.339430332E-1,-1.042863131E0,-1.065632463E0
2.722065376E0,8.742899895E-1,-1.125951290E0,-1.121024609E0
2.724590532E0,8.391373158E-1,-1.214365602E0,-1.171090603E0
2.727116157E0,8.210283518E-1,-1.303845167E0,-1.211569428E0
2.729641313E0,8.188979030E-1,-1.384802938E0,-1.253113508E0
2.732166522E0,8.327459097E-1,-1.449648976E0,-1.292527080E0
2.734691678E0,8.636376858E-1,-1.502910614E0,-1.326614618E0
2.737216834E0,9.094427228E-1,-1.551911354E0,-1.354310632E0
2.739741990E0,9.733566642E-1,-1.598781586E0,-1.374550104E0
2.742267199E0,1.042596817E0,-1.646717072E0,-1.391593814E0
2.744792355E0,1.122489333E0,-1.693587303E0,-1.396919966E0
2.747317511E0,1.203446984E0,-1.752175212E0,-1.395854712E0
2.749842719E0,1.279078603E0,-1.820350051E0,-1.391593814E0
2.752367876E0,1.349250793E0,-1.899177313E0,-1.376680493E0
2.754893032E0,1.408903837E0,-1.986526489E0,-1.351114988E0
2.757418709E0,1.455774069E0,-2.079068661E0,-1.313831806E0
2.759943865E0,1.490926743E0,-2.173874378E0,-1.262700558E0
2.762469074E0,1.517557621E0,-2.256962538E0,-1.206243277E0
2.764994230E0,1.528209925E0,-2.316615582E0,-1.143394470E0
2.767519386E0,1.531405568E0,-2.350703001E0,-1.077350020E0
2.770044542E0,1.521818519E0,-2.364551067E0,-1.008109927E0
2.772569751E0,1.502644300E0,-2.364551067E0,-9.367392659E-1
2.775094907E0,1.482404947E0,-2.351768255E0,-8.568468094E-1
2.777620063E0,1.458969831E0,-2.330463648E0,-7.834789157E-1
2.780145272E0,1.438730359E0,-2.299571753E0,-7.216953635E-1
2.782670428E0,1.413164735E0,-2.254832029E0,-6.726946831E-1
2.785195584E0,1.381207824E0,-2.191983223E0,-6.343462467E-1
2.787721209E0,1.348185539E0,-2.108895063E0,-6.066502333E-1
2.790246365E0,1.306641459E0,-1.998244047E0,-5.896064639E-1
2.792771574E0,1.258839130E0,-1.864024639E0,-5.789541602E-1
2.795296730E0,1.210903645E0,-1.709565878E0,-5.757584572E-1
2.797821886E0,1.164033413E0,-1.542324305E0,-5.778889060E-1
2.800347042E0,1.117163181E0,-1.364563465E0,-5.736280084E-1
2.802872251E0,1.075619102E0,-1.179212928E0,-5.693670511E-1
2.805397407E0,1.037270665E0,-9.938623905E-1,-5.629756451E-1
2.807922563E0,1.008509398E0,-8.043841124E-1,-5.512580872E-1
2.810447772E0,9.829437733E-1,-6.232944727E-1,-5.384752750E-1
2.812972928E0,9.616391063E-1,-4.560528994E-1,-5.182358623E-1
2.815498084E0,9.435301423E-1,-2.983984053E-1,-5.054530501E-1
2.818023761E0,9.339430332E-1,-1.515294015E-1,-4.905398190E-1
2.820548917E0,9.211602807E-1,-2.050573565E-2,-4.766917825E-1
2.823074126E0,9.137036204E-1,9.240896255E-2,-4.660394490E-1
2.825599282E0,9.105079174E-1,1.957365721E-1,-4.564523399E-1
2.828124438E0,9.094427228E-1,2.809551954E-1,-4.468652606E-1
2.830649594E0,9.105079174E-1,3.427387178E-1,-4.383433759E-1
2.833174803E0,9.158340693E-1,3.864132762E-1,-4.287562966E-1
2.835699959E0,9.286168814E-1,4.182371199E-1,-4.202344418E-1
2.838225115E0,9.435301423E-1,4.246285260E-1,-4.106473327E-1
2.840750324E0,9.595086575E-1,4.097152650E-1,-4.010602236E-1
2.843275480E0,9.765523672E-1,3.778914213E-1,-3.936035931E-1
2.845800636E0,9.914656281E-1,3.299559355E-1,-3.904078901E-1
2.848326261E0,1.007444143E0,2.703028917E-1,-3.904078901E-1
2.850851417E0,1.023422599E0,2.053236663E-1,-3.882774413E-1
2.853376626E0,1.036205411E0,1.328878254E-1,-3.861469626E-1
2.855901782E0,1.040466309E0,4.979964346E-2,-3.861469626E-1
2.858426938E0,1.045792580E0,-3.222329915E-2,-3.808208108E-1
2.860952094E0,1.044727325E0,-1.185071766E-1,-3.733641803E-1
2.863477303E0,1.036205411E0,-2.058562785E-1,-3.605813682E-1
2.866002459E0,1.028748751E0,-2.909417748E-1,-3.499290347E-1
2.868527615E0,1.014900804E0,-3.761604130E-1,-3.339505494E-1
2.871052824E0,9.967917800E-1,-4.581833482E-1,-3.158415854E-1
2.873577980E0,9.776176214E-1,-5.434020162E-1,-2.998631001E-1
2.876103136E0,9.595086575E-1,-6.275554299E-1,-2.828193605E-1
2.878628813E0,9.360735416E-1,-7.010564804E-1,-2.615146935E-1
2.881153969E0,9.147688746E-1,-7.756227851E-1,-2.370143533E-1
2.883679178E0,8.966599107E-1,-8.500559330E-1,-2.210358530E-1
2.886204334E0,8.817466497E-1,-9.171656370E-1,-2.041252851E-1
2.888729490E0,8.668333888E-1,-9.789491296E-1,-1.924077123E-1
2.891254647E0,8.529853225E-1,-1.035406470E0,-1.849510819E-1
2.893779855E0,8.455287218E-1,-1.090798616E0,-1.742987484E-1
2.896305011E0,8.423330188E-1,-1.139799356E0,-1.668421179E-1
2.898830167E0,8.391373158E-1,-1.183473945E0,-1.615159512E-1
2.901355376E0,8.391373158E-1,-1.218626618E0,-1.572550237E-1
2.903880532E0,8.423330188E-1,-1.250583529E0,-1.508636326E-1
2.906405688E0,8.508548737E-1,-1.272953510E0,-1.487331539E-1
2.908931313E0,8.583115339E-1,-1.287866712E0,-1.487331539E-1
2.911456469E0,8.647028804E-1,-1.295323372E0,-1.497983932E-1
2.913981678E0,8.753552437E-1,-1.296388626E0,-1.476679295E-1
2.916506834E0,8.860075474E-1,-1.286801457E0,-1.497983932E-1
2.919031990E0,8.966599107E-1,-1.268692493E0,-1.561897993E-1
2.921557147E0,9.062470198E-1,-1.239931226E0,-1.604507267E-1
2.924082355E0,9.179645777E-1,-1.204778552E0,-1.679073572E-1
2.926607511E0,9.243559837E-1,-1.170691133E0,-1.796249151E-1
2.929132667E0,9.318125844E-1,-1.124886036E0,-1.924077123E-1
2.931657876E0,9.403344393E-1,-1.073754907E0,-2.009295821E-1
2.934183032E0,9.456605911E-1,-1.016232252E0,-2.115819156E-1
2.936708188E0,9.509868026E-1,-9.555140138E-1,-2.210358530E-1
2.939233865E0,9.467258453E-1,-8.862738609E-1,-2.306229472E-1
2.941759022E0,9.445953965E-1,-8.182321191E-1,-2.402100414E-1
2.944284230E0,9.413996935E-1,-7.468615174E-1,-2.508623898E-1
2.946809386E0,9.328778386E-1,-6.690995097E-1,-2.583190203E-1
2.949334542E0,9.222254753E-1,-5.902722478E-1,-2.711018026E-1
2.951859699E0,9.126383662E-1,-5.082492828E-1,-2.796236575E-1
2.954384907E0,8.966599107E-1,-4.219654202E-1,-2.870802879E-1
2.956910063E0,8.817466497E-1,-3.388772607E-1,-2.977326214E-1
2.959435219E0,8.721595407E-1,-2.547238469E-1,-3.062545061E-1
2.961960428E0,8.604419827E-1,-1.685731262E-1,-3.137111366E-1
2.964485584E0,8.444634676E-1,-8.441971987E-2,-3.201025128E-1
2.967010740E0,8.348763585E-1,-2.396774245E-3,-3.296896219E-1
2.969536365E0,8.263545036E-1,7.323476672E-2,-3.382114768E-1
2.972061522E0,8.252893090E-1,1.478010863E-1,-3.435376585E-1
2.974586730E0,8.252893090E-1,2.149107605E-1,-3.477985859E-1
2.977111886E0,8.316806555E-1,2.788247466E-1,-3.520595133E-1
2.979637042E0,8.455287218E-1,3.395430148E-1,-3.563204408E-1
2.982162199E0,8.593767285E-1,3.917394578E-1,-3.616466224E-1
2.984687407E0,8.764204979E-1,4.363460839E-1,-3.637770712E-1
2.987212563E0,8.955946565E-1,4.714987576E-1,-3.669727743E-1
2.989737719E0,9.147688746E-1,4.949339032E-1,-3.701684773E-1
2.992262928E0,9.350082874E-1,5.013253093E-1,-3.733641803E-1
2.994788084E0,9.541825056E-1,4.949339032E-1,-3.680379987E-1
2.997313240E0,9.701609612E-1,4.757596850E-1,-3.595161438E-1
2.999838917E0,9.808133245E-1,4.427374899E-1,-3.509942889E-1
3.002364126E0,9.840090275E-1,3.958672285E-1,-3.371462524E-1
3.004889334E0,9.797480702E-1,3.427387178E-1,-3.211677670E-1
3.007414542E0,9.680305123E-1,2.766942680E-1,-3.009283245E-1
3.009939751E0,9.541825056E-1,1.968017966E-1,-2.721670270E-1
3.012464907E0,9.328778386E-1,1.062569916E-1,-2.412752807E-1
3.014990115E0,9.083774686E-1,5.059856921E-3,-2.094514370E-1
3.017515324E0,8.796161413E-1,-1.089200750E-1,-1.764292270E-1
3.020040532E0,8.508548737E-1,-2.248973250E-1,-1.412765235E-1
3.022565740E0,8.146369457E-1,-3.452686667E-1,-1.061238423E-1
3.025090949E0,7.762885690E-1,-4.688356817E-1,-7.416684926E-2
3.027616157E0,7.390053868E-1,-5.870765448E-1,-4.753602296E-2
3.030141417E0,7.059831619E-1,-7.053174376E-1,-1.557903271E-2
3.032666626E0,6.635070443E-1,-8.161016703E-1,1.531272475E-2
3.035191834E0,6.230281591E-1,-9.192960858E-1,4.300878197E-2
3.037717042E0,5.846797824E-1,-1.008775711E0,7.070484012E-2
3.040242251E0,5.452661514E-1,-1.084407210E0,9.733566642E-2
3.042767407E0,4.973306656E-1,-1.141929746E0,1.229012609E-1
3.045292615E0,4.547213614E-1,-1.182408690E0,1.452711523E-1
3.047817824E0,4.121120274E-1,-1.201582909E0,1.719019860E-1
3.050343032E0,3.684374690E-1,-1.201582909E0,1.921414137E-1
3.052868240E0,3.205019832E-1,-1.184539080E0,2.059894353E-1
3.055393449E0,2.725664973E-1,-1.148321152E0,2.219679356E-1
3.057918657E0,2.203700840E-1,-1.097190022E0,2.347507328E-1
3.060443969E0,1.628475040E-1,-1.034341216E0,2.443378270E-1
3.062969178E0,1.085206121E-1,-9.597749710E-1,2.475335300E-1
3.065494386E0,5.539211631E-2,-8.670997024E-1,2.507292330E-1
3.068019594E0,5.326164886E-3,-7.628399730E-1,2.539249361E-1
3.070544803E0,-4.473978654E-2,-6.456643939E-1,2.539249361E-1
3.073069959E0,-8.308817446E-2,-5.135754943E-1,2.560553849E-1
3.075595167E0,-1.086537689E-1,-3.687037826E-1,2.549901605E-1
3.078120376E0,-1.246322617E-1,-2.163754553E-1,2.507292330E-1
3.080645584E0,-1.395455301E-1,-6.524552405E-2,2.454030514E-1
3.083170792E0,-1.501978636E-1,8.282186836E-2,2.326202542E-1
3.085696001E0,-1.544587910E-1,2.191716880E-1,2.230331600E-1
3.088221209E0,-1.576544940E-1,3.363473415E-1,2.134460658E-1
3.090785949E0,-1.597849578E-1,4.246285260E-1,2.027937323E-1
3.093311157E0,-1.651111245E-1,4.746944606E-1,1.964023411E-1
3.095836313E0,-1.736329794E-1,4.821510911E-1,1.921414137E-1
3.098361522E0,-1.864157766E-1,4.501941204E-1,1.932066381E-1
3.100886730E0,-2.087856680E-1,3.746957183E-1,1.985328048E-1
3.103411938E0,-2.450035959E-1,2.628462613E-1,2.113156021E-1
3.105937147E0,-2.918738425E-1,1.233007237E-1,2.272941023E-1
3.108462355E0,-3.462007344E-1,-3.435376659E-2,2.464682907E-1
3.110987563E0,-4.175713360E-1,-2.026605755E-1,2.730991244E-1
3.113512772E0,-4.910724163E-1,-3.644428551E-1,3.018604219E-1
3.116037928E0,-5.793536305E-1,-5.220973492E-1,3.306216896E-1
3.118563136E0,-6.762897968E-1,-6.744256616E-1,3.679048419E-1
3.121049022E0,-7.838783264E-1,-8.203625679E-1,4.061200917E-1
3.123574230E0,-8.957278132E-1,-9.587097168E-1,4.444684684E-1
3.126099438E0,-1.018229604E0,-1.088668108E0,4.828168750E-1
3.128624647E0,-1.145924449E0,-1.213300467E0,5.158390999E-1
3.131149855E0,-1.281208992E0,-1.334736943E0,5.499265194E-1
3.133675011E0,-1.423950195E0,-1.452844739E0,5.840139985E-1
3.136200219E0,-1.573082924E0,-1.561498404E0,6.159709692E-1
3.138725428E0,-1.730737329E0,-1.660565138E0,6.479279995E-1
3.141250636E0,-1.894650102E0,-1.751109958E0,6.724283695E-1
3.143775844E0,-2.062956810E0,-1.824611068E0,6.969286799E-1
3.146301053E0,-2.235524654E0,-1.880003095E0,7.203638554E-1
3.148826261E0,-2.406893969E0,-1.911960125E0,7.374075651E-1
3.151351574E0,-2.576266050E0,-1.926873446E0,7.533860803E-1
3.153876782E0,-2.744572878E0,-1.930069089E0,7.714950442E-1
3.156401990E0,-2.907553434E0,-1.913025379E0,7.874734998E-1
3.158927199E0,-3.066140175E0,-1.883198857E0,8.002563119E-1
3.161452407E0,-3.213142157E0,-1.841654778E0,8.183652759E-1
3.163977563E0,-3.343100786E0,-1.784132123E0,8.343437910E-1
3.166502772E0,-3.470928669E0,-1.725544333E0,8.577789068E-1
3.169027980E0,-3.592231989E0,-1.669087052E0,8.833444715E-1
3.171553188E0,-3.703016281E0,-1.611564398E0,9.121057987E-1
3.174078397E0,-3.809539557E0,-1.562563658E0,9.451280236E-1
3.176603605E0,-3.908606291E0,-1.521019578E0,9.802806973E-1
3.179128813E0,-4.006607533E0,-1.492258310E0,1.015300274E0
3.181654126E0,-4.096087456E0,-1.479475498E0,1.048322439E0
3.184179334E0,-4.181305885E0,-1.491193056E0,1.081344724E0
3.186704542E0,-4.260000229E0,-1.521019578E0,1.105844975E0
3.189229751E0,-4.338827133E0,-1.565759420E0,1.125019193E0
3.191754959E0,-4.412328243E0,-1.627542853E0,1.140997767E0
3.194280115E0,-4.487959862E0,-1.707435369E0,1.148454309E0
3.196805324E0,-4.558265209E0,-1.797980189E0,1.151650071E0
3.199330532E0,-4.627505302E0,-1.900242567E0,1.150584817E0
3.201855740E0,-4.691419601E0,-2.012092113E0,1.143128157E0
3.204380949E0,-4.745746136E0,-2.129134417E0,1.123953938E0
3.206906157E0,-4.791551113E0,-2.248440504E0,1.090931773E0
3.209431365E0,-4.828701496E0,-2.363485813E0,1.045126796E0
3.211956678E0,-4.853201866E0,-2.472139597E0,9.834764004E-1
3.214481886E0,-4.860658169E0,-2.564814806E0,9.142362475E-1
3.217007094E0,-4.851071358E0,-2.638315916E0,8.386046886E-1
3.219532303E0,-4.824440479E0,-2.703161955E0,7.501903772E-1
3.222057511E0,-4.780899048E0,-2.755358458E0,6.532541513E-1
3.224582667E0,-4.720180511E0,-2.793706656E0,5.488613248E-1
3.227107876E0,-4.644549370E0,-2.813946247E0,4.402075410E-1
3.229633084E0,-4.563591480E0,-2.825663805E0,3.338173926E-1
3.232158292E0,-4.464524746E0,-2.825663805E0,2.315550297E-1
3.234683501E0,-4.352675438E0,-2.826729059E0,1.292926520E-1
3.237208709E0,-4.229108334E0,-2.840577126E0,3.342168778E-2
3.239733917E0,-4.088630676E0,-2.866142511E0,-4.007939249E-2
3.242259178E0,-3.935237169E0,-2.906621456E0,-1.007976755E-1
3.244784386E0,-3.777582645E0,-2.959883213E0,-1.561897993E-1
3.247309594E0,-3.628449917E0,-3.021666527E0,-2.115819156E-1
3.249834803E0,-3.484776735E0,-3.069602013E0,-2.721670270E-1
3.252360011E0,-3.354818344E0,-3.120733261E0,-3.382114768E-1
3.254885167E0,-3.248295069E0,-3.163342714E0,-4.021254778E-1
3.257410376E0,-3.167337179E0,-3.191038609E0,-4.681699276E-1
3.259935584E0,-3.113010406E0,-3.204886675E0,-5.267577171E-1
3.262460792E0,-3.078922987E0,-3.198495388E0,-5.693670511E-1
3.264986001E0,-3.071466208E0,-3.183582067E0,-6.002588272E-1
3.267511209E0,-3.078922987E0,-3.156951189E0,-6.204982400E-1
3.270036417E0,-3.103423357E0,-3.128190041E0,-6.354115009E-1
3.272561730E0,-3.133249760E0,-3.107950449E0,-6.556509137E-1
3.275086938E0,-3.165206671E0,-3.100493908E0,-6.844122410E-1
3.277612147E0,-3.202489853E0,-3.099428654E0,-7.131735086E-1
3.280137355E0,-3.240838289E0,-3.112211466E0,-7.398043275E-1
3.282662563E0,-3.274925709E0,-3.145233631E0,-7.717612982E-1
3.285187719E0,-3.306882858E0,-3.201690912E0,-8.090444803E-1
3.287712928E0,-3.337774515E0,-3.282515526E0,-8.525858521E-1
3.290238136E0,-3.364405394E0,-3.390104055E0,-8.973256946E-1
3.292763344E0,-3.407014608E0,-3.514736414E0,-9.495220780E-1
3.295288553E0,-3.463472128E0,-3.642564297E0,-1.005979419E0
3.297813761E0,-3.533777475E0,-3.769327164E0,-1.067762971E0
3.300338969E0,-3.614601851E0,-3.887434721E0,-1.133807421E0
3.302864230E0,-3.699820518E0,-4.002480030E0,-1.197721362E0
3.305389438E0,-3.786104441E0,-4.116459846E0,-1.268026710E0
3.307914647E0,-3.872388363E0,-4.236831188E0,-1.343658328E0
3.310439855E0,-3.942693710E0,-4.374246120E0,-1.420355082E0
3.312965063E0,-3.999150991E0,-4.531767368E0,-1.502244830E0
3.315490219E0,-4.040695190E0,-4.705400467E0,-1.583202600E0
3.318015428E0,-4.070521832E0,-4.904599190E0,-1.664160252E0
3.320540636E0,-4.090761185E0,-5.127099514E0,-1.747248411E0
3.323065844E0,-4.096087456E0,-5.367842197E0,-1.825010419E0
3.325591053E0,-4.090761185E0,-5.625628948E0,-1.891054869E0
3.328116261E0,-4.076912880E0,-5.892868996E0,-1.946447015E0
3.330641469E0,-4.063065052E0,-6.145329475E0,-1.982664943E0
3.333166782E0,-4.061999798E0,-6.365699291E0,-2.001839161E0
3.335691990E0,-4.071587086E0,-6.546789169E0,-2.001839161E0
3.338217199E0,-4.092891693E0,-6.679943085E0,-1.980534554E0
3.340742407E0,-4.128044128E0,-6.759835720E0,-1.943251371E0
3.343267615E0,-4.175979614E0,-6.789662361E0,-1.884663582E0
3.345792772E0,-4.223782063E0,-6.781140327E0,-1.809031963E0
3.348317980E0,-4.282370090E0,-6.725748062E0,-1.722748160E0
3.350843188E0,-4.343088150E0,-6.633072853E0,-1.627942324E0
3.353368397E0,-4.394219398E0,-6.511636257E0,-1.531006217E0
3.355893605E0,-4.444285393E0,-6.366764545E0,-1.435135245E0
3.358418813E0,-4.479437828E0,-6.202851772E0,-1.347919226E0
3.360944022E0,-4.499677658E0,-6.035610199E0,-1.282940030E0
3.363469282E0,-4.506068707E0,-5.871564388E0,-1.240330696E0
3.365994490E0,-4.501807690E0,-5.704322815E0,-1.226482630E0
3.368519699E0,-4.493286133E0,-5.530823231E0,-1.229678392E0
3.371044907E0,-4.480503082E0,-5.347602844E0,-1.248852611E0
3.373570115E0,-4.458133221E0,-5.159056664E0,-1.277613878E0
3.376095272E0,-4.436828613E0,-4.986621857E0,-1.317027450E0
3.378620480E0,-4.407001972E0,-4.847076416E0,-1.355375886E0
3.381145688E0,-4.370784283E0,-4.732031345E0,-1.396919966E0
3.383670897E0,-4.335631371E0,-4.627638340E0,-1.430874228E0
3.386196105E0,-4.296217918E0,-4.533897877E0,-1.455374599E0
3.388721313E0,-4.260000229E0,-4.457334518E0,-1.464961767E0
3.391246522E0,-4.236565113E0,-4.399811745E0,-1.452178955E0
3.393771834E0,-4.216325283E0,-4.360398293E0,-1.421420336E0
3.396297042E0,-4.195020676E0,-4.334832668E0,-1.375615239E0
3.398822251E0,-4.183436394E0,-4.325245380E0,-1.318092704E0
3.401347459E0,-4.173849106E0,-4.319919586E0,-1.252048254E0
3.403872667E0,-4.167458057E0,-4.317789078E0,-1.187069058E0
3.406397824E0,-4.164262295E0,-4.307136536E0,-1.127416015E0
3.408923032E0,-4.161066532E0,-4.287962437E0,-1.069893360E0
3.411448240E0,-4.157870770E0,-4.260266304E0,-1.017696977E0
3.413973449E0,-4.148283482E0,-4.228309155E0,-9.729571939E-1
3.416498657E0,-4.136566162E0,-4.195287228E0,-9.346088171E-1
3.419023865E0,-4.115261555E0,-4.156938553E0,-8.973256946E-1
3.421549074E0,-4.097152710E0,-4.114329338E0,-8.664339185E-1
3.424074334E0,-4.069456577E0,-4.051480770E0,-8.312812448E-1
3.426599542E0,-4.035368919E0,-3.981175184E0,-7.941312194E-1
3.429124751E0,-4.003412247E0,-3.897021770E0,-7.621742487E-1
3.431649959E0,-3.970389843E0,-3.807675362E0,-7.280867696E-1
3.434175167E0,-3.932041407E0,-3.716065407E0,-6.971949935E-1
3.436700324E0,-3.888366938E0,-3.627650976E0,-6.609770656E-1
3.439225532E0,-3.845757484E0,-3.545628071E0,-6.279548407E-1
3.441750740E0,-3.797821999E0,-3.465735674E0,-5.917369723E-1
3.444275949E0,-3.750951767E0,-3.391169310E0,-5.597799420E-1
3.446801157E0,-3.706212044E0,-3.324059725E0,-5.288882256E-1
3.449326365E0,-3.655080795E0,-3.252822161E0,-4.937354922E-1
3.451851574E0,-3.611406326E0,-3.185712576E0,-4.713656008E-1
3.454376886E0,-3.569995403E0,-3.136711836E0,-4.479304850E-1
3.456902094E0,-3.527385950E0,-3.096232891E0,-4.234301150E-1
3.459427303E0,-3.487972498E0,-3.060014963E0,-4.010602236E-1
3.461952511E0,-3.449624062E0,-3.018471003E0,-3.808208108E-1
3.464477719E0,-3.410210371E0,-2.971600771E0,-3.616466224E-1
3.467002876E0,-3.377188206E0,-2.920469522E0,-3.382114768E-1
3.469528084E0,-3.335644007E0,-2.871468782E0,-3.179720640E-1
3.472053292E0,-3.290904284E0,-2.813946247E0,-3.019935489E-1
3.474578501E0,-3.253621101E0,-2.763880253E0,-2.785584331E-1
3.477103709E0,-3.211011887E0,-2.715944767E0,-2.583190203E-1
3.479628917E0,-3.166271925E0,-2.659487486E0,-2.434057444E-1
3.482154126E0,-3.120466948E0,-2.595706463E0,-2.306229472E-1
3.484679386E0,-3.075727224E0,-2.525401115E0,-2.167749256E-1
3.487204594E0,-3.030987501E0,-2.446573973E0,-2.062557489E-1
3.489729803E0,-2.990508556E0,-2.365616322E0,-2.051905096E-1
3.492255011E0,-2.949097633E0,-2.286788940E0,-2.083862126E-1
3.494780219E0,-2.905423164E0,-2.210092306E0,-2.178401500E-1
3.497305376E0,-2.868139982E0,-2.145112991E0,-2.316881865E-1
3.499830584E0,-2.824465275E0,-2.082264185E0,-2.444709837E-1
3.502355792E0,-2.780790806E0,-2.022744417E0,-2.636451721E-1
3.504881001E0,-2.736051083E0,-1.965221763E0,-2.806889117E-1
3.507406209E0,-2.687050343E0,-1.910894871E0,-3.030588031E-1
3.509931417E0,-2.634853840E0,-1.867220283E0,-3.243634701E-1
3.512456626E0,-2.578396559E0,-1.829937220E0,-3.446028829E-1
3.514981938E0,-2.524069548E0,-1.797980189E0,-3.648423254E-1
3.517507147E0,-2.474003792E0,-1.776675582E0,-3.829512596E-1
3.520032355E0,-2.423937798E0,-1.764958024E0,-3.946688473E-1
3.522557563E0,-2.373871803E0,-1.757501364E0,-4.063864052E-1
3.525082772E0,-2.326069355E0,-1.757501364E0,-4.181039631E-1
3.527607980E0,-2.283460140E0,-1.755370855E0,-4.244953692E-1
3.530133188E0,-2.239785671E0,-1.758566618E0,-4.298215210E-1
3.532658397E0,-2.197176218E0,-1.768153667E0,-4.383433759E-1
3.535183605E0,-2.151371241E0,-1.759631753E0,-4.436695576E-1
3.537708813E0,-2.100239992E0,-1.745783806E0,-4.468652606E-1
3.540234022E0,-2.044847965E0,-1.724479079E0,-4.564523399E-1
3.542759230E0,-1.992651582E0,-1.695717812E0,-4.713656008E-1
3.545284438E0,-1.934063673E0,-1.669087052E0,-4.884093404E-1
3.547809647E0,-1.876541138E0,-1.642456174E0,-4.990616739E-1
3.550334855E0,-1.820083737E0,-1.604107738E0,-5.139749050E-1
3.552860063E0,-1.760430694E0,-1.557237506E0,-5.299534202E-1
3.555385272E0,-1.706236959E0,-1.500780225E0,-5.374100804E-1
3.557910480E0,-1.648714423E0,-1.434735775E0,-5.469971299E-1
3.560435688E0,-1.590126634E0,-1.370954871E0,-5.608451962E-1
3.562960897E0,-1.533669233E0,-1.308106184E0,-5.768237114E-1
3.565486105E0,-1.475081444E0,-1.239931226E0,-6.034545302E-1
3.568011313E0,-1.416493654E0,-1.170691133E0,-6.300853491E-1
3.570536522E0,-1.358971000E0,-1.106777072E0,-6.567161679E-1
3.573061730E0,-1.300383210E0,-1.036471725E0,-6.790860295E-1
3.575586990E0,-1.244991064E0,-9.714925289E-1,-7.025212049E-1
3.578112199E0,-1.189599037E0,-9.075785279E-1,-7.184996605E-1
3.580637407E0,-1.133274794E0,-8.479254842E-1,-7.323477268E-1
3.583162615E0,-1.085339308E0,-7.990579009E-1,-7.525871396E-1
3.585687824E0,-1.033142924E0,-7.585790753E-1,-7.685656548E-1
3.588213032E0,-9.862726331E-1,-7.244915962E-1,-7.802832127E-1
3.590738240E0,-9.425980449E-1,-6.999912262E-1,-7.898702621E-1
3.593263449E0,-9.042496681E-1,-6.797518134E-1,-7.973269224E-1
3.595788657E0,-8.680317402E-1,-6.595124006E-1,-8.026530743E-1
3.598313865E0,-8.328790665E-1,-6.445991397E-1,-8.015878797E-1
3.600839074E0,-8.041177988E-1,-6.360772848E-1,-8.037183285E-1
3.603364282E0,-7.785521746E-1,-6.318163276E-1,-8.047835231E-1
3.605889490E0,-7.583127618E-1,-6.318163276E-1,-8.133054376E-1
3.608414699E0,-7.391385436E-1,-6.360772848E-1,-8.248898387E-1
3.610939907E0,-7.252905369E-1,-6.424686909E-1,-8.429988027E-1
3.613465115E0,-7.157034278E-1,-6.499252915E-1,-8.611077666E-1
3.615990324E0,-7.082468271E-1,-6.616428494E-1,-8.856080770E-1
3.618515532E0,-7.018554211E-1,-6.744256616E-1,-9.133041501E-1
3.621040740E0,-6.901378632E-1,-6.925346255E-1,-9.441959262E-1
3.623565949E0,-6.848116517E-1,-7.106435895E-1,-9.708267450E-1
3.626091157E0,-6.688331962E-1,-7.287525535E-1,-1.003849030E0
3.628616365E0,-6.539199352E-1,-7.532529235E-1,-1.034740686E0
3.631141574E0,-6.411371231E-1,-7.724270821E-1,-1.058175802E0
3.633666782E0,-6.230281591E-1,-7.884055972E-1,-1.079480529E0
3.636192042E0,-6.070496440E-1,-8.033188581E-1,-1.100785136E0
3.638717251E0,-5.921363831E-1,-8.129059672E-1,-1.119959354E0
3.641242459E0,-5.782883763E-1,-8.150364161E-1,-1.138068318E0
3.643767667E0,-5.708317757E-1,-8.150364161E-1,-1.159373045E0
3.646292876E0,-5.655055642E-1,-8.139711618E-1,-1.177482009E0
3.648818084E0,-5.697665215E-1,-8.097102642E-1,-1.197721362E0
3.651343292E0,-5.718969703E-1,-8.001231551E-1,-1.219026089E0
3.653868501E0,-5.793536305E-1,-7.937317491E-1,-1.236069798E0
3.656393709E0,-5.868102312E-1,-7.830794454E-1,-1.258439660E0
3.658918917E0,-5.910711884E-1,-7.745575905E-1,-1.278679132E0
3.661444126E0,-5.942668915E-1,-7.639052272E-1,-1.298918486E0
3.663969334E0,-5.942668915E-1,-7.479267120E-1,-1.314897060E0
3.666494542E0,-5.963973403E-1,-7.276872993E-1,-1.327679753E0
3.669019751E0,-5.900059342E-1,-7.127740383E-1,-1.346853971E0
3.671544959E0,-5.740274191E-1,-6.978607774E-1,-1.360702038E0
3.674070167E0,-5.569837093E-1,-6.754909158E-1,-1.372419596E0
3.676595376E0,-5.294207931E-1,-6.520557404E-1,-1.382006645E0
3.679120584E0,-5.006595254E-1,-6.264901757E-1,-1.393724203E0
3.681645792E0,-4.665720761E-1,-6.030550599E-1,-1.405441880E0
3.684171001E0,-4.292888939E-1,-5.742937326E-1,-1.420355082E0
3.686696209E0,-3.941362202E-1,-5.465977192E-1,-1.433004737E0
3.689221417E0,-3.589835167E-1,-5.189016461E-1,-1.450048447E0
3.691746626E0,-3.270265460E-1,-4.975969791E-1,-1.472418308E0
3.694271834E0,-2.982652485E-1,-4.784227908E-1,-1.496918678E0
3.696797094E0,-2.705691755E-1,-4.656399786E-1,-1.525679946E0
3.699322303E0,-2.513949871E-1,-4.656399786E-1,-1.551245570E0
3.701847511E0,-2.375469655E-1,-4.730966091E-1,-1.578941703E0
3.704372719E0,-2.279598713E-1,-4.965317547E-1,-1.602376819E0
3.706897928E0,-2.268946320E-1,-5.434020162E-1,-1.624746680E0
3.709423136E0,-2.268946320E-1,-6.073159575E-1,-1.640725136E0
3.711948344E0,-2.205032408E-1,-6.935998797E-1,-1.656703711E0
3.714473553E0,-2.045247406E-1,-8.001231551E-1,-1.672682166E0
3.716998761E0,-1.725677550E-1,-9.288831949E-1,-1.688660622E0
3.719523969E0,-1.203713343E-1,-1.074820161E0,-1.699312925E0
3.722049178E0,-5.645735189E-2,-1.230344176E0,-1.714226246E0
3.724574386E0,1.810896210E-2,-1.368824482E0,-1.731269956E0
3.727099594E0,9.467258304E-2,-1.458170891E0,-1.754705071E0
3.729624803E0,1.500647068E-1,-1.478410244E0,-1.770683646E0
3.732150011E0,1.734998226E-1,-1.410368562E0,-1.771748781E0
3.734675219E0,1.447385401E-1,-1.251648784E0,-1.748313665E0
3.737200428E0,4.793548584E-2,-1.009840965E0,-1.703573942E0
3.739725636E0,-1.256974936E-1,-7.212958932E-1,-1.634333730E0
3.742250844E0,-3.653749228E-1,-4.113130867E-1,-1.541658521E0
3.744776053E0,-6.581808329E-1,-1.099853069E-1,-1.426746488E0
3.747301261E0,-9.394024014E-1,1.531272531E-1,-1.284005284E0
3.749826469E0,-1.129013896E0,3.342168629E-1,-1.115698457E0
3.752351678E0,-1.140598297E0,3.704347908E-1,-9.164998531E-1
3.754876886E0,-9.553808570E-1,2.223673910E-1,-7.142387629E-1
3.757402147E0,-6.422023773E-1,-1.099853069E-1,-5.533885360E-1
3.759927355E0,-2.876129150E-1,-5.870765448E-1,-4.745613039E-1
3.762452563E0,3.089175746E-2,-1.129147053E0,-4.766917825E-1
3.764977772E0,2.693707943E-1,-1.607303500E0,-5.139749050E-1
3.767502980E0,3.993292153E-1,-1.899177313E0,-5.501928329E-1
3.770028188E0,4.525908828E-1,-1.972678423E0,-5.693670511E-1
3.772553397E0,4.632432163E-1,-1.874676943E0,-5.725627542E-1
3.775078605E0,4.738955498E-1,-1.670152187E0,-5.714974999E-1
3.777603813E0,5.175700784E-1,-1.402911901E0,-5.832150578E-1
3.780129022E0,6.081148982E-1,-1.103581429E0,-6.162372828E-1
3.782654230E0,7.443315983E-1,-7.564486265E-1,-6.726946831E-1
3.785179438E0,8.923989534E-1,-3.633776009E-1,-7.461957335E-1
3.787704647E0,1.028748751E0,4.660394415E-2,-8.143706322E-1
3.790229855E0,1.139533043E0,4.235632718E-1,-8.781514764E-1
3.792755063E0,1.235404015E0,7.165023685E-1,-9.218260050E-1
3.795280272E0,1.323685169E0,9.061138630E-1,-9.399349689E-1
3.797805480E0,1.413164735E0,1.005047321E0,-9.452611804E-1
3.800330688E0,1.507970452E0,1.039134860E0,-9.410002232E-1
3.802855897E0,1.602776289E0,1.046591401E0,-9.346088171E-1
3.805381105E0,1.697582006E0,1.052982807E0,-9.260869622E-1
3.807906313E0,1.767887354E0,1.060439467E0,-9.133041501E-1
3.810431522E0,1.810496688E0,1.043395758E0,-9.058475494E-1
3.812956730E0,1.801974773E0,9.934629202E-1,-9.069127440E-1
3.815481938E0,1.756169796E0,9.316794276E-1,-9.154346585E-1
3.818007199E0,1.681603432E0,8.848091960E-1,-9.367392659E-1
3.820532407E0,1.596384883E0,8.773525357E-1,-9.729571939E-1
3.823057615E0,1.519688010E0,9.114400148E-1,-1.019827485E0
3.825582824E0,1.461100221E0,9.700278044E-1,-1.066697717E0
3.828108032E0,1.428078055E0,1.050852418E0,-1.121024609E0
3.830633240E0,1.403577685E0,1.148853779E0,-1.175351501E0
3.833158449E0,1.387599111E0,1.267094731E0,-1.225417495E0
3.835683657E0,1.375881553E0,1.397053123E0,-1.272287726E0
3.838208865E0,1.373751163E0,1.528076768E0,-1.315962195E0
3.840734074E0,1.386533976E0,1.635532141E0,-1.351114988E0
3.843259282E0,1.405708075E0,1.706902742E0,-1.384137154E0
3.845784490E0,1.430208445E0,1.743120670E0,-1.416094184E0
3.848309699E0,1.457904577E0,1.737794518E0,-1.434069991E0
3.850834907E0,1.487731099E0,1.694119930E0,-1.448983192E0
3.853360115E0,1.520753264E0,1.621684074E0,-1.464961767E0
3.855885324E0,1.555905938E0,1.535533428E0,-1.470287919E0
3.858410532E0,1.598515272E0,1.449249506E0,-1.474548817E0
3.860935740E0,1.634733200E0,1.368291855E0,-1.480940223E0
3.863460949E0,1.669885874E0,1.306508303E0,-1.483070731E0
3.865986157E0,1.702908158E0,1.268159866E0,-1.485201120E0
3.868511365E0,1.721017122E0,1.245790005E0,-1.483070731E0
3.871036574E0,1.730604172E0,1.235137701E0,-1.479874969E0
3.873561782E0,1.725278020E0,1.236202955E0,-1.476679325E0
3.876086990E0,1.715690970E0,1.254311919E0,-1.468157411E0
3.878612251E0,1.706103802E0,1.270290375E0,-1.455374599E0
3.881137459E0,1.694386244E0,1.278812289E0,-1.429942131E0
3.883662667E0,1.680538297E0,1.271355629E0,-1.392659068E0
3.886187876E0,1.662429333E0,1.238333344E0,-1.345788717E0
3.888713084E0,1.640059352E0,1.184006453E0,-1.298918486E0
3.891238292E0,1.613428593E0,1.125418663E0,-1.252048254E0
3.893763501E0,1.586797714E0,1.066830873E0,-1.216895580E0
3.896288709E0,1.562297344E0,1.016764879E0,-1.194525719E0
3.898813917E0,1.548449397E0,9.817453623E-1,-1.181742907E0
3.901339126E0,1.539927483E0,9.636363983E-1,-1.177482009E0
3.903864334E0,1.542057991E0,9.678973556E-1,-1.178547144E0
3.906389542E0,1.552710295E0,9.870715737E-1,-1.188134313E0
3.908914803E0,1.574014902E0,1.032743454E0,-1.201982260E0
3.911440011E0,1.599580526E0,1.095592141E0,-1.209438920E0
3.913965219E0,1.633667946E0,1.161636591E0,-1.221156478E0
3.916490428E0,1.666690230E0,1.225550652E0,-1.231808782E0
3.919015636E0,1.700777650E0,1.282007933E0,-1.238200188E0
3.921540844E0,1.735930324E0,1.338465333E0,-1.239265442E0
3.924066053E0,1.763626456E0,1.381074667E0,-1.240330696E0
3.926591261E0,1.787061572E0,1.414096832E0,-1.237135053E0
3.929116469E0,1.810496688E0,1.437531948E0,-1.235004544E0
3.931641678E0,1.825409889E0,1.446053863E0,-1.227547884E0
3.934166886E0,1.833931804E0,1.447119117E0,-1.223286986E0
3.936692094E0,1.843518853E0,1.448184252E0,-1.217960835E0
3.939217355E0,1.850975513E0,1.446053863E0,-1.210504174E0
3.941742563E0,1.850975513E0,1.440727711E0,-1.203047514E0
3.944267772E0,1.852040768E0,1.438597202E0,-1.198786616E0
3.946792980E0,1.853106022E0,1.442858100E0,-1.188134313E0
3.949318188E0,1.855236411E0,1.456706166E0,-1.173220992E0
3.951843397E0,1.855236411E0,1.472684622E0,-1.158307791E0
3.954368605E0,1.861627817E0,1.498250246E0,-1.135937810E0
3.956893813E0,1.870149732E0,1.534468174E0,-1.111437559E0
3.959419022E0,1.877606392E0,1.578142762E0,-1.086937189E0
3.961944230E0,1.892519593E0,1.629140735E0,-1.056045413E0
3.964469438E0,1.909430146E0,1.685598135E0,-1.018762231E0
3.966994647E0,1.922212958E0,1.746316433E0,-9.900009632E-1
3.969519855E0,1.942452431E0,1.799578071E0,-9.569787383E-1
3.972045063E0,1.961626649E0,1.854970098E0,-9.196955562E-1
3.974570272E0,1.983996511E0,1.906101346E0,-8.824124336E-1
3.977095480E0,2.003170729E0,1.951906323E0,-8.429988027E-1
3.979620688E0,2.026605844E0,2.003037453E0,-7.994573712E-1
3.982145897E0,2.047910452E0,2.042451143E0,-7.525871396E-1
3.984671105E0,2.071345568E0,2.077603817E0,-7.078473568E-1
3.987196313E0,2.090519905E0,2.102104187E0,-6.620423198E-1
3.989721522E0,2.107563496E0,2.115952253E0,-6.183677912E-1
3.992246730E0,2.127802849E0,2.117017508E0,-5.768237114E-1
3.994771938E0,2.142716169E0,2.101038933E0,-5.299534202E-1
3.997297147E0,2.165086031E0,2.077603817E0,-4.948007464E-1
3.999822407E0,2.192782164E0,2.048842669E0,-4.671046734E-1
4.002347615E0,2.217282534E0,2.013689995E0,-4.394086301E-1
4.004872824E0,2.238587141E0,1.981732845E0,-4.063864052E-1
4.007398032E0,2.254565716E0,1.960428238E0,-3.744294047E-1
4.009923240E0,2.273739815E0,1.944449782E0,-3.414071798E-1
4.012448449E0,2.291848898E0,1.929536462E0,-3.147763610E-1
4.014973657E0,2.318479776E0,1.914623260E0,-3.051892519E-1
4.017498865E0,2.350436687E0,1.903970838E0,-3.073197305E-1
4.020024074E0,2.378132820E0,1.896514297E0,-3.254286945E-1
4.022549282E0,2.402633190E0,1.883731484E0,-3.499290347E-1
4.025074490E0,2.426068306E0,1.863492012E0,-3.797555864E-1
4.027599699E0,2.449503422E0,1.833665490E0,-4.021254778E-1
4.030124959E0,2.462286234E0,1.787860513E0,-4.202344418E-1
4.032650167E0,2.471873283E0,1.721816063E0,-4.351477027E-1
4.035175376E0,2.472938538E0,1.642988801E0,-4.436695576E-1
4.037700584E0,2.458025217E0,1.555772781E0,-4.543218911E-1
4.040225792E0,2.431394339E0,1.470554233E0,-4.607132971E-1
4.042751001E0,2.390915632E0,1.378944159E0,-4.734960794E-1
4.045276209E0,2.333392859E0,1.284138441E0,-4.894745648E-1
4.047801417E0,2.262022257E0,1.185071707E0,-5.075835586E-1
4.050326626E0,2.176803589E0,1.086005092E0,-5.203663111E-1
4.052851886E0,2.087324142E0,9.828106165E-1,-5.416709781E-1
4.055377094E0,1.993583560E0,8.794830441E-1,-5.597799420E-1
4.057902303E0,1.891454339E0,7.708292603E-1,-5.810846090E-1
4.060427511E0,1.789191961E0,6.536536217E-1,-5.991935730E-1
4.062952719E0,1.697582006E0,5.375432372E-1,-6.173025370E-1
4.065477928E0,1.610232830E0,4.203675687E-1,-6.396724582E-1
4.068003136E0,1.531405568E0,3.043903410E-1,-6.556509137E-1
4.070528344E0,1.470687389E0,1.989322603E-1,-6.769555807E-1
4.073053553E0,1.421686649E0,1.009308323E-1,-6.982602477E-1
4.075578761E0,1.383338213E0,-1.331541222E-3,-7.216953635E-1
4.078103969E0,1.353511691E0,-9.613727778E-2,-7.483261824E-1
4.080629178E0,1.337533236E0,-1.845516264E-1,-7.738918066E-1
4.083154438E0,1.330076575E0,-2.685718834E-1,-7.994573712E-1
4.085679647E0,1.334337473E0,-3.495295942E-1,-8.259550333E-1
4.088204855E0,1.347120285E0,-4.272916019E-1,-8.557815552E-1
4.090730115E0,1.369490266E0,-4.975969791E-1,-8.813471794E-1
4.093255324E0,1.399316788E0,-5.508586168E-1,-9.037170410E-1
4.095780532E0,1.423817039E0,-5.870765448E-1,-9.175651073E-1
4.098305740E0,1.440860868E0,-5.977289081E-1,-9.196955562E-1
4.100830949E0,1.456839323E0,-5.806851387E-1,-9.175651073E-1
4.103356157E0,1.465361238E0,-5.348801613E-1,-9.015865922E-1
4.105881365E0,1.462165475E0,-4.613790512E-1,-8.802819252E-1
4.108406574E0,1.458969831E0,-3.708342612E-1,-8.472597003E-1
4.110931782E0,1.450447917E0,-2.568543255E-1,-8.037183285E-1
4.113457042E0,1.445121765E0,-1.291595101E-1,-7.483261824E-1
4.115982251E0,1.437665105E0,2.929390874E-3,-6.844122410E-1
4.118507459E0,1.429143310E0,1.403444558E-1,-6.194329858E-1
4.121032667E0,1.420621395E0,2.734985650E-1,-5.469971299E-1
4.123557876E0,1.414229989E0,4.022586346E-1,-4.713656008E-1
4.126083084E0,1.403577685E0,5.268908739E-1,-3.957340717E-1
4.128608292E0,1.385468721E0,6.408708096E-1,-3.211677670E-1
4.131133501E0,1.360968351E0,7.495245934E-1,-2.455362082E-1
4.133658709E0,1.327946067E0,8.485912681E-1,-1.742987484E-1
4.136183917E0,1.287600398E0,9.316794276E-1,-1.018629074E-1
4.138709126E0,1.242860675E0,1.006112576E0,-2.836182900E-2
4.141234334E0,1.194925189E0,1.063635230E0,4.407401755E-2
4.143759594E0,1.144859195E0,1.106244445E0,1.079879999E-1
4.146284803E0,1.093728065E0,1.135005832E0,1.708367467E-1
4.148810011E0,1.036205411E0,1.150984287E0,2.262288630E-1
4.151335219E0,9.840090275E-1,1.155245185E0,2.773600519E-1
4.153860428E0,9.350082874E-1,1.156310439E0,3.210346103E-1
4.156385636E0,8.955946565E-1,1.145658135E0,3.519263566E-1
4.158910844E0,8.615072370E-1,1.133940578E0,3.753614724E-1
4.161436053E0,8.306154609E-1,1.123288274E0,3.954677582E-1
4.163961261E0,8.061150908E-1,1.108374953E0,4.050548673E-1
4.166486469E0,7.901365757E-1,1.095592141E0,4.050548673E-1
4.169011678E0,7.816147208E-1,1.080678940E0,3.997286856E-1
4.171536886E0,7.730928659E-1,1.060439467E0,3.881442845E-1
4.174062147E0,7.709624171E-1,1.025286794E0,3.679048419E-1
4.176587355E0,7.741581202E-1,9.838758707E-1,3.423392773E-1
4.179112563E0,7.848104239E-1,9.348751307E-1,3.082517982E-1
4.181637772E0,7.965279818E-1,8.698959351E-1,2.677729428E-1
4.184162980E0,8.157021999E-1,8.006557822E-1,2.272941023E-1
4.186688188E0,8.316806555E-1,7.239589691E-1,1.825543046E-1
4.189213397E0,8.551158309E-1,6.440665126E-1,1.378145218E-1
4.191738605E0,8.806813955E-1,5.652392507E-1,8.668334037E-2
4.194263813E0,9.083774686E-1,4.896077216E-1,3.661738336E-2
4.196789022E0,9.403344393E-1,4.182371199E-1,-2.197043039E-2
4.199314230E0,9.754871130E-1,3.555215299E-1,-7.629731297E-2
4.201839438E0,1.010639787E0,3.086512685E-1,-1.252980381E-1
4.204364699E0,1.045792580E0,2.766942680E-1,-1.700378209E-1
4.206889907E0,1.078814745E0,2.617810071E-1,-2.126471400E-1
4.209415115E0,1.103315115E0,2.617810071E-1,-2.529928386E-1
4.211940324E0,1.129945874E0,2.798899710E-1,-2.924064696E-1
4.214465532E0,1.159772396E0,3.107817471E-1,-3.286243975E-1
4.216990740E0,1.186403275E0,3.448691964E-1,-3.605813682E-1
4.219515949E0,1.214099288E0,3.864132762E-1,-3.882774413E-1
4.222041157E0,1.237534523E0,4.310199022E-1,-4.149082601E-1
4.224566365E0,1.263100028E0,4.629769027E-1,-4.383433759E-1
4.227091574E0,1.287600398E0,4.949339032E-1,-4.596480429E-1
4.229616782E0,1.314098120E0,5.119776130E-1,-4.734960794E-1
4.232141990E0,1.340728879E0,5.162385702E-1,-4.873441160E-1
4.234667251E0,1.369490266E0,5.055862069E-1,-4.926702678E-1
4.237192459E0,1.395055771E0,4.810858667E-1,-4.937354922E-1
4.239717667E0,1.416360497E0,4.523245692E-1,-4.979964495E-1
4.242242876E0,1.438730359E0,4.118457139E-1,-4.958659708E-1
4.244768084E0,1.458969831E0,3.715000153E-1,-4.937354922E-1
4.247293292E0,1.478143930E0,3.342168629E-1,-4.884093404E-1
4.249818501E0,1.494122505E0,3.033251166E-1,-4.841484129E-1
4.252343709E0,1.510100961E0,2.830856740E-1,-4.798874855E-1
4.254868917E0,1.521818519E0,2.724333405E-1,-4.734960794E-1
4.257394126E0,1.533536077E0,2.660419345E-1,-4.692351520E-1
4.259919334E0,1.544188380E0,2.734985650E-1,-4.639089704E-1
4.262444542E0,1.550579786E0,2.884118557E-1,-4.553871155E-1
4.264969803E0,1.553775549E0,3.075860441E-1,-4.489957094E-1
4.267495011E0,1.551645041E0,3.288906813E-1,-4.426043332E-1
4.270020219E0,1.546318889E0,3.544562757E-1,-4.426043332E-1
4.272545428E0,1.535666585E0,3.704347908E-1,-4.426043332E-1
4.275070636E0,1.520753264E0,3.906742036E-1,-4.436695576E-1
4.277595844E0,1.501579046E0,4.022586346E-1,-4.500609636E-1
4.280121053E0,1.474948287E0,4.097152650E-1,-4.564523399E-1
4.282646261E0,1.446187019E0,4.193023443E-1,-4.681699276E-1
4.285171469E0,1.415295243E0,4.310199022E-1,-4.894745648E-1
4.287696678E0,1.384403467E0,4.427374899E-1,-5.161054134E-1
4.290221886E0,1.352446437E0,4.587159753E-1,-5.448666811E-1
4.292747094E0,1.320489526E0,4.757596850E-1,-5.714974999E-1
4.295272355E0,1.289730906E0,4.896077216E-1,-5.896064639E-1
4.297797563E0,1.255643368E0,5.002600551E-1,-6.023892760E-1
4.300322772E0,1.232208252E0,5.055862069E-1,-6.109111309E-1
4.302847980E0,1.207707882E0,4.970643520E-1,-6.162372828E-1
4.305373188E0,1.184272766E0,4.757596850E-1,-6.087806821E-1
4.307898397E0,1.161902905E0,4.448679388E-1,-5.896064639E-1
4.310423605E0,1.138467789E0,4.065195620E-1,-5.640408993E-1
4.312948813E0,1.118228316E0,3.619129062E-1,-5.288882256E-1
4.315474022E0,1.094793200E0,3.171731234E-1,-4.862788618E-1
4.317999230E0,1.068162441E0,2.798899710E-1,-4.362129271E-1
4.320524438E0,1.034074903E0,2.458025217E-1,-3.786903322E-1
4.323049647E0,9.946613312E-1,2.234326303E-1,-3.222329915E-1
4.325574907E0,9.456605911E-1,2.138455361E-1,-2.561885417E-1
4.328100115E0,8.881380558E-1,2.159759998E-1,-1.870815456E-1
4.330625324E0,8.252893090E-1,2.319544852E-1,-1.189066395E-1
4.333150584E0,7.517881989E-1,2.553896308E-1,-4.860125855E-2
4.335675792E0,6.677679420E-1,2.979989350E-1,2.596505545E-2
4.338201001E0,5.708317757E-1,3.544562757E-1,9.094426781E-2
4.340726209E0,4.728302956E-1,4.193023443E-1,1.527277827E-1
4.343251417E0,3.716331720E-1,5.013253093E-1,2.049241960E-1
4.345776626E0,2.640446424E-1,5.865439177E-1,2.496639937E-1
4.348301834E0,1.543256342E-1,6.749582887E-1,2.837514579E-1
4.350827042E0,4.900071770E-2,7.580464482E-1,3.093170524E-1
4.353352251E0,-5.006595328E-2,8.272866011E-1,3.316869438E-1
4.355877511E0,-1.406107545E-1,8.943963051E-1,3.625786901E-1
4.358402719E0,-2.226337045E-1,9.604407549E-1,3.934704363E-1
4.360927928E0,-2.982652485E-1,1.022091031E0,4.210333526E-1
4.363453136E0,-3.738967776E-1,1.061504722E0,4.455337226E-1
4.365978344E0,-4.431369305E-1,1.077483177E0,4.732297659E-1
4.368503553E0,-5.091813803E-1,1.065765619E0,4.945344329E-1
4.371028761E0,-5.697665215E-1,1.021025896E0,5.062519908E-1
4.373553969E0,-6.294195652E-1,9.497883916E-1,5.211652517E-1
4.376079178E0,-6.912030578E-1,8.496564627E-1,5.414046645E-1
4.378604386E0,-7.561823130E-1,7.250242233E-1,5.691007376E-1
4.381129594E0,-8.307486176E-1,5.737611651E-1,6.063839197E-1
4.383654803E0,-9.074453712E-1,4.118457139E-1,6.543194056E-1
4.386180063E0,-9.947944880E-1,2.330197245E-1,7.033200860E-1
4.388705272E0,-1.090665460E0,5.086487532E-2,7.501903772E-1
4.391230480E0,-1.191729426E0,-1.344856620E-1,7.959953547E-1
4.393755688E0,-1.300383210E0,-3.186378181E-1,8.386046886E-1
4.396280897E0,-1.412232637E0,-5.007926822E-1,8.748226166E-1
4.398806105E0,-1.527277827E0,-6.797518134E-1,9.089100957E-1
4.401331313E0,-1.647649169E0,-8.468602300E-1,9.429975152E-1
4.403856522E0,-1.767887354E0,-1.007710457E0,9.706935883E-1
4.406381730E0,-1.891454339E0,-1.168560624E0,9.973244071E-1
4.408906938E0,-2.018217087E0,-1.314497590E0,1.019561172E0
4.411432147E0,-2.146044970E0,-1.452844739E0,1.042996287E0
4.413957355E0,-2.279199123E0,-1.580672622E0,1.063235760E0
4.416482615E0,-2.413285494E0,-1.695717812E0,1.084540367E0
4.419007824E0,-2.548569918E0,-1.794784546E0,1.106910229E0
4.421533032E0,-2.688115597E0,-1.878937840E0,1.126084447E0
4.424058292E0,-2.828726292E0,-1.949243307E0,1.145258665E0
4.426583501E0,-2.969203949E0,-2.007831097E0,1.168693781E0
4.429108709E0,-3.108749390E0,-2.054568291E0,1.189998388E0
4.431633917E0,-3.240838289E0,-2.098242760E0,1.214498758E0
4.434159126E0,-3.370796680E0,-2.129134417E0,1.235803485E0
4.436684334E0,-3.489037514E0,-2.154700041E0,1.253912449E0
4.439209542E0,-3.603949547E0,-2.172809124E0,1.266695261E0
4.441734751E0,-3.705146790E0,-2.174939632E0,1.278412819E0
4.444259959E0,-3.798887253E0,-2.163222075E0,1.291195631E0
4.446785219E0,-3.881975412E0,-2.141917229E0,1.309304595E0
4.449310428E0,-3.954411268E0,-2.109960318E0,1.337000608E0
4.451835636E0,-4.018325329E0,-2.063090086E0,1.368957639E0
4.454360844E0,-4.069456577E0,-2.012092113E0,1.406240702E0
4.456886053E0,-4.106739521E0,-1.953504205E0,1.448850036E0
4.459411261E0,-4.133370399E0,-1.881068349E0,1.495720267E0
4.461936469E0,-4.146153450E0,-1.796914935E0,1.541525364E0
4.464461678E0,-4.138696671E0,-1.699978709E0,1.582004189E0
4.466986886E0,-4.109935284E0,-1.594520688E0,1.617023706E0
4.469512094E0,-4.060934544E0,-1.480540752E0,1.652176380E0
4.472037303E0,-3.994890213E0,-1.349650264E0,1.675611496E0
4.474562511E0,-3.910736799E0,-1.196256638E0,1.694785714E0
4.477087772E0,-3.814865828E0,-1.016232252E0,1.706503272E0
4.479612980E0,-3.707277298E0,-8.118407130E-1,1.707568526E0
4.482138188E0,-3.591166735E0,-5.806851387E-1,1.692655325E0
4.484663397E0,-3.469863415E0,-3.335510790E-1,1.661763549E0
4.487188605E0,-3.344166040E0,-7.270215452E-2,1.615958452E0
4.489713813E0,-3.211011887E0,1.914756298E-1,1.571351886E0
4.492239022E0,-3.074661970E0,4.523245692E-1,1.523416400E0
4.494764230E0,-2.943771362E0,7.111762166E-1,1.469089508E0
4.497289438E0,-2.809552193E0,9.572450519E-1,1.421154022E0
4.499814647E0,-2.676398039E0,1.190397859E0,1.368957639E0
4.502339855E0,-2.545374393E0,1.415162086E0,1.305043578E0
4.504865063E0,-2.421807289E0,1.634466887E0,1.241129637E0
4.507390324E0,-2.304764748E0,1.845383048E0,1.171889424E0
4.509915532E0,-2.190784931E0,2.053103447E0,1.105844975E0
4.512440740E0,-2.090652943E0,2.253234148E0,1.046191931E0
4.514965949E0,-2.008630037E0,2.430062771E0,9.856068492E-1
4.517491157E0,-1.939389825E0,2.587717295E0,9.312799573E-1
4.520016365E0,-1.887193441E0,2.721936703E0,8.801487684E-1
4.522541574E0,-1.849910259E0,2.825264215E0,8.300828338E-1
4.525066782E0,-1.826475143E0,2.898632288E0,7.821473479E-1
4.527591990E0,-1.823279500E0,2.944437265E0,7.406032681E-1
4.530117199E0,-1.830736160E0,2.956154823E0,6.990591884E-1
4.532642407E0,-1.846714616E0,2.932719707E0,6.585803032E-1
4.535167615E0,-1.870149732E0,2.875197172E0,6.202319264E-1
4.537692876E0,-1.901041508E0,2.768806934E0,5.808182955E-1
4.540218084E0,-1.934063673E0,2.619674206E0,5.382089615E-1
4.542743292E0,-1.969216347E0,2.424736738E0,4.913387299E-1
4.545268553E0,-2.003303766E0,2.192649126E0,4.444684684E-1
4.547793761E0,-2.036326170E0,1.923145056E0,4.018591642E-1
4.550318969E0,-2.071478844E0,1.621684074E0,3.593829870E-1
4.552844178E0,-2.100239992E0,1.293725491E0,3.157084286E-1
4.555369386E0,-2.131131887E0,9.476579428E-1,2.826862037E-1
4.557894647E0,-2.158827782E0,5.897396207E-1,2.485987544E-1
4.560419855E0,-2.200371981E0,2.191716880E-1,2.187722325E-1
4.562945063E0,-2.241915941E0,-1.504641622E-1,2.017285079E-1
4.565470272E0,-2.288786411E0,-5.135754943E-1,1.846847683E-1
4.567995480E0,-2.349504471E0,-8.713606000E-1,1.719019860E-1
4.570520688E0,-2.409024477E0,-1.219691753E0,1.623148769E-1
4.573045897E0,-2.472938538E0,-1.556172252E0,1.591191888E-1
4.575571105E0,-2.543243885E0,-1.873611689E0,1.591191888E-1
4.578096313E0,-2.624201536E0,-2.170678616E0,1.655105799E-1
4.580621522E0,-2.719007254E0,-2.441247702E0,1.782933772E-1
4.583146730E0,-2.814878225E0,-2.687183380E0,1.921414137E-1
4.585671938E0,-2.911814451E0,-2.922600031E0,2.070546746E-1
4.588197199E0,-3.002226114E0,-3.155885935E0,2.240983993E-1
4.590722407E0,-3.090640545E0,-3.374125719E0,2.443378270E-1
4.593247615E0,-3.177989483E0,-3.567997932E0,2.645772398E-1
4.595772824E0,-3.263208151E0,-3.733109236E0,2.858819067E-1
4.598298032E0,-3.337774515E0,-3.867195368E0,3.061213493E-1
4.600823240E0,-3.408079863E0,-3.979044914E0,3.178389072E-1
4.603348449E0,-3.468798161E0,-4.050415516E0,3.306216896E-1
4.605873657E0,-3.518864155E0,-4.077046394E0,3.412740231E-1
4.608398865E0,-3.552951574E0,-4.056807041E0,3.540568352E-1
4.610924074E0,-3.571060658E0,-3.984370947E0,3.572525382E-1
4.613449282E0,-3.571060658E0,-3.870391130E0,3.540568352E-1
4.615974490E0,-3.547625542E0,-3.711804390E0,3.455349505E-1
4.618499751E0,-3.506081343E0,-3.510475397E0,3.391435742E-1
4.621024959E0,-3.446428299E0,-3.268667459E0,3.359478712E-1
4.623550167E0,-3.367601156E0,-2.998231411E0,3.284912407E-1
4.626075376E0,-3.279186726E0,-2.714879513E0,3.242303133E-1
4.628600584E0,-3.181185246E0,-2.425269365E0,3.231650591E-1
4.631125792E0,-3.079988241E0,-2.146178246E0,3.220998347E-1
4.633651001E0,-2.976660490E0,-1.886394501E0,3.263607621E-1
4.636176261E0,-2.871335506E0,-1.655238986E0,3.284912407E-1
4.638701469E0,-2.765877485E0,-1.453909874E0,3.316869438E-1
4.641226678E0,-2.664680481E0,-1.286801457E0,3.402087986E-1
4.643751886E0,-2.562417984E0,-1.156843066E0,3.487306535E-1
4.646277094E0,-2.462286234E0,-1.057776451E0,3.561872840E-1
4.648802355E0,-2.369610786E0,-9.949276447E-1,3.583177626E-1
4.651327563E0,-2.279199123E0,-9.555140138E-1,3.657743931E-1
4.653852772E0,-2.197176218E0,-9.363398552E-1,3.774919510E-1
4.656377980E0,-2.124740362E0,-9.459269047E-1,3.849485815E-1
4.658903188E0,-2.059761286E0,-9.757534266E-1,3.975982368E-1
4.661428397E0,-2.001173496E0,-1.015167117E0,4.167724252E-1
4.663953605E0,-1.953237891E0,-1.059906840E0,4.306204617E-1
4.666478813E0,-1.909563303E0,-1.102516174E0,4.497946501E-1
4.669004022E0,-1.870149732E0,-1.142995000E0,4.604469836E-1
4.671529230E0,-1.845649362E0,-1.174952030E0,4.721645415E-1
4.674054438E0,-1.826475143E0,-1.190930486E0,4.796211720E-1
4.676579647E0,-1.808366179E0,-1.195191503E0,4.892082810E-1
4.679104907E0,-1.793452978E0,-1.194126248E0,5.030562878E-1
4.681630115E0,-1.782800674E0,-1.182408690E0,5.222305059E-1
4.684155324E0,-1.776409268E0,-1.164299726E0,5.403394699E-1
4.686680532E0,-1.770017862E0,-1.139799356E0,5.541874766E-1
4.689205740E0,-1.755104542E0,-1.105711937E0,5.712311864E-1
4.691730949E0,-1.746715903E0,-1.066298246E0,5.808182955E-1
4.694256157E0,-1.730737329E0,-1.022623658E0,5.882749557E-1
4.696781365E0,-1.712628365E0,-9.778839350E-1,5.978620052E-1
4.699306574E0,-1.694519401E0,-9.406007528E-1,6.053186655E-1
4.701831782E0,-1.675345182E0,-9.022523761E-1,6.085143685E-1
4.704356990E0,-1.644453526E0,-8.596430421E-1,6.138405204E-1
4.706882199E0,-1.616757393E0,-8.192973733E-1,6.138405204E-1
4.709407459E0,-1.585865617E0,-7.841446400E-1,6.181014776E-1
4.711932667E0,-1.551778197E0,-7.543181181E-1,6.202319264E-1
4.714457876E0,-1.515560269E0,-7.266221046E-1,6.202319264E-1
4.716983084E0,-1.476146698E0,-7.010564804E-1,6.181014776E-1
4.719508292E0,-1.429276466E0,-6.808170676E-1,6.117100716E-1
4.722033501E0,-1.379210472E0,-6.648385525E-1,5.978620052E-1
4.724558709E0,-1.329144478E0,-6.531209946E-1,5.786878467E-1
4.727083969E0,-1.276948094E0,-6.414034367E-1,5.573831797E-1
4.729609178E0,-1.220490694E0,-6.328815818E-1,5.264914036E-1
4.732134386E0,-1.165098667E0,-6.200987697E-1,4.924039543E-1
4.734659594E0,-1.108774424E0,-6.115769148E-1,4.593817294E-1
4.737184803E0,-1.052317023E0,-6.073159575E-1,4.263595045E-1
4.739710063E0,-9.905335307E-1,-6.094464660E-1,3.838833570E-1
4.742235272E0,-9.298152924E-1,-6.147726178E-1,3.391435742E-1
4.744760480E0,-8.669665456E-1,-6.200987697E-1,2.901428342E-1
4.747285688E0,-8.073135018E-1,-6.264901757E-1,2.336854935E-1
4.749810897E0,-7.433995008E-1,-6.211640239E-1,1.814890802E-1
4.752336105E0,-6.816160083E-1,-6.147726178E-1,1.271621883E-1
4.754861313E0,-6.240934134E-1,-6.009245515E-1,7.496577501E-2
4.757386522E0,-5.676360726E-1,-5.860112906E-1,2.596505545E-2
4.759911730E0,-5.123770833E-1,-5.604457259E-1,-1.983996481E-2
4.762436938E0,-4.505935609E-1,-5.252930522E-1,-6.031882018E-2
4.764962147E0,-3.952014446E-1,-4.848141670E-1,-9.547150880E-2
4.767487355E0,-3.440702558E-1,-4.400743842E-1,-1.274285018E-1
4.770012615E0,-2.876129150E-1,-3.857475221E-1,-1.551245600E-1
4.772537824E0,-2.343512625E-1,-3.260944486E-1,-1.774944514E-1
4.775063032E0,-1.842853129E-1,-2.600499988E-1,-2.019948065E-1
4.777588240E0,-1.374150664E-1,-1.898777932E-1,-2.178401500E-1
4.780113449E0,-9.161003679E-2,-1.142462417E-1,-2.348838747E-1
4.782638657E0,-4.793548584E-2,-4.500609636E-2,-2.529928386E-1
4.785163865E0,-3.195699072E-3,2.849498391E-2,-2.636451721E-1
4.787689074E0,3.941362351E-2,9.666989744E-2,-2.828193605E-1
4.790214282E0,8.082455397E-2,1.659100503E-1,-3.041240275E-1
4.792739490E0,1.234338731E-1,2.351501882E-1,-3.243634701E-1
4.795264699E0,1.660431921E-1,3.043903410E-1,-3.467333615E-1
4.797789907E0,2.086525112E-1,3.672390878E-1,-3.786903322E-1
4.800315167E0,2.565880120E-1,4.288894534E-1,-4.159734845E-1
4.802840376E0,3.013277948E-1,4.821510911E-1,-4.607132971E-1
4.805365584E0,3.460675776E-1,5.258256793E-1,-5.075835586E-1
4.807890792E0,3.961335421E-1,5.695002079E-1,-5.597799420E-1
4.810416001E0,4.430037737E-1,6.078485847E-1,-6.119763851E-1
4.812941209E0,4.952002168E-1,6.451317668E-1,-6.631075740E-1
4.815466417E0,5.484618545E-1,6.664364338E-1,-7.163692117E-1
4.817991626E0,6.017234921E-1,6.824148893E-1,-7.653699517E-1
4.820516834E0,6.549851298E-1,7.015891075E-1,-8.133054376E-1
4.823042042E0,7.027874589E-1,7.037195563E-1,-8.579120636E-1
4.825567251E0,7.549839020E-1,6.973281503E-1,-9.005213380E-1
4.828092459E0,8.007889390E-1,6.888062954E-1,-9.378045201E-1
4.830617719E0,8.402025700E-1,6.738930345E-1,-9.718919992E-1
4.833142928E0,8.721595407E-1,6.547188759E-1,-1.005979419E0
4.835668136E0,8.945294023E-1,6.270228028E-1,-1.036871195E0
4.838193344E0,9.019860625E-1,5.897396207E-1,-1.075219631E0
4.840718553E0,9.009208083E-1,5.428693891E-1,-1.111437559E0
4.843243761E0,8.913337588E-1,4.821510911E-1,-1.145524979E0
4.845768969E0,8.774856925E-1,4.118457139E-1,-1.177482009E0
4.848294178E0,8.625724316E-1,3.320863843E-1,-1.209438920E0
4.850819386E0,8.551158309E-1,2.340849638E-1,-1.237135053E0
4.853344594E0,8.551158309E-1,1.169093251E-1,-1.266961575E0
4.855869803E0,8.689638376E-1,-8.788172156E-3,-1.294657588E0
4.858395011E0,8.923989534E-1,-1.270290315E-1,-1.323418856E0
4.860920272E0,9.126383662E-1,-2.504629195E-1,-1.353245378E0
4.863445480E0,9.392692447E-1,-3.676385581E-1,-1.378811002E0
4.865970688E0,9.584434032E-1,-4.624442756E-1,-1.393724203E0
4.868495897E0,9.499215484E-1,-5.252930522E-1,-1.395854712E0
4.871021105E0,8.923989534E-1,-5.380758047E-1,-1.376680493E0
4.873546313E0,7.805495262E-1,-4.944012761E-1,-1.331940770E0
4.876071522E0,5.932016373E-1,-3.804213405E-1,-1.248852611E0
4.878596782E0,3.141105771E-1,-1.856168509E-1,-1.135937810E0
4.881121990E0,-5.006595328E-2,8.175663650E-2,-1.003849030E0
4.883647199E0,-4.218322635E-1,3.629781604E-1,-8.632382154E-1
4.886172407E0,-6.912030578E-1,6.302185059E-1,-7.067821026E-1
4.888697615E0,-7.828131318E-1,7.846772671E-1,-5.224968195E-1
4.891222876E0,-6.773550510E-1,7.995905280E-1,-3.254286945E-1
4.893748084E0,-4.228975177E-1,6.696321368E-1,-1.604507267E-1
4.896273292E0,-1.001319066E-1,4.065195620E-1,-6.031882018E-2
4.898798501E0,2.065220475E-1,5.193011090E-2,-1.983996481E-2
4.901323709E0,4.483299553E-1,-3.143768907E-1,-2.729659714E-2
4.903848917E0,6.070496440E-1,-5.881417990E-1,-6.457975507E-2
4.906374126E0,6.816160083E-1,-7.127740383E-1,-1.242327988E-1
4.908899334E0,6.857437491E-1,-6.935998797E-1,-2.094514370E-1
4.911424542E0,6.400718689E-1,-6.009245515E-1,-3.062545061E-1
4.913949751E0,5.761579275E-1,-5.220973492E-1,-3.989297748E-1
4.916474959E0,5.079829693E-1,-4.986622036E-1,-4.692351520E-1
4.919000167E0,4.259600639E-1,-5.210320950E-1,-5.310186744E-1
4.921525428E0,3.567199111E-1,-5.125102401E-1,-5.810846090E-1
4.924050636E0,3.247629106E-1,-4.379439354E-1,-6.258243918E-1
4.926575844E0,3.407414258E-1,-3.005288541E-1,-6.790860295E-1
4.929101053E0,4.302209914E-1,-1.504641622E-1,-7.483261824E-1
4.931626261E0,6.017234921E-1,-3.009283356E-2,-8.291507363E-1
4.934151469E0,8.188979030E-1,5.512581021E-2,-9.143694043E-1
4.936676678E0,1.054314375E0,1.360835135E-1,-9.985228181E-1
4.939201886E0,1.270556688E0,2.255630940E-1,-1.076284766E0
4.941727094E0,1.447252274E0,3.310211599E-1,-1.139133573E0
4.944252303E0,1.584667325E0,4.427374899E-1,-1.189199567E0
4.946777511E0,1.691190600E0,5.492607951E-1,-1.222221732E0
4.949302719E0,1.768952608E0,6.280879974E-1,-1.243526459E0
4.951827980E0,1.831801295E0,6.760234833E-1,-1.243526459E0
4.954353188E0,1.871214986E0,6.973281503E-1,-1.230743647E0
4.956878397E0,1.883997798E0,6.994586587E-1,-1.206243277E0
4.959403605E0,1.880802035E0,6.888062954E-1,-1.182808161E0
4.961928813E0,1.866953969E0,6.706973314E-1,-1.149785876E0
4.964454022E0,1.838192701E0,6.493926644E-1,-1.124220252E0
4.966979230E0,1.804105282E0,6.280879974E-1,-1.109307051E0
4.969504490E0,1.762561202E0,6.153052449E-1,-1.108241796E0
4.972029699E0,1.727408528E0,6.057181358E-1,-1.125285506E0
4.974554907E0,1.705038667E0,6.089138389E-1,-1.148720622E0
4.977080115E0,1.694386244E0,6.185009480E-1,-1.172155738E0
4.979605324E0,1.693320990E0,6.344794035E-1,-1.189199567E0
4.982130584E0,1.694386244E0,6.504579186E-1,-1.193460464E0
4.984655792E0,1.695451498E0,6.568493247E-1,-1.186003804E0
4.987181001E0,1.689060092E0,6.483274698E-1,-1.168960094E0
4.989706209E0,1.686929703E0,6.302185059E-1,-1.146590233E0
4.992231417E0,1.695451498E0,6.035876870E-1,-1.117828846E0
4.994756626E0,1.707169056E0,5.631088018E-1,-1.091198087E0
4.997281834E0,1.721017122E0,5.141080618E-1,-1.060306311E0
4.999807042E0,1.734865189E0,4.597811997E-1,-1.020892739E0
5.002332251E0,1.736995578E0,3.990629315E-1,-9.836095572E-1
5.004857459E0,1.731669426E0,3.427387178E-1,-9.484568238E-1
5.007382667E0,1.715690970E0,2.905423045E-1,-9.090432525E-1
5.009907876E0,1.692255855E0,2.468677461E-1,-8.632382154E-1
5.012433136E0,1.657103181E0,2.138455361E-1,-8.122401834E-1
5.014958344E0,1.615558982E0,1.808233112E-1,-7.568480372E-1
5.017483553E0,1.566558361E0,1.541924775E-1,-7.003906965E-1
5.020008761E0,1.517557621E0,1.243659556E-1,-6.471290588E-1
5.022533969E0,1.472817779E0,9.880036116E-2,-6.023892760E-1
5.025059178E0,1.428078055E0,6.897383928E-2,-5.757584572E-1
5.027584386E0,1.388664365E0,4.234301299E-2,-5.640408993E-1
5.030109594E0,1.362033606E0,2.210358530E-2,-5.619103909E-1
5.032634803E0,1.341794133E0,1.145125460E-2,-5.714974999E-1
5.035160011E0,1.331141829E0,1.890788600E-2,-5.928021669E-1
5.037685219E0,1.335402727E0,3.595161438E-2,-6.162372828E-1
5.040210428E0,1.349250793E0,6.258244067E-2,-6.364767551E-1
5.042735688E0,1.371620655E0,1.147788614E-1,-6.588466167E-1
5.045260897E0,1.396121025E0,1.733666807E-1,-6.748251319E-1
5.047786105E0,1.425947547E0,2.372806519E-1,-6.897383928E-1
5.050311313E0,1.461100221E0,3.129121959E-1,-7.025212049E-1
5.052836522E0,1.500513911E0,3.990629315E-1,-7.121082544E-1
5.055361730E0,1.539927483E0,4.885424972E-1,-7.216953635E-1
5.057886938E0,1.581471562E0,5.833482146E-1,-7.323477268E-1
5.060412199E0,1.623015642E0,6.760234833E-1,-7.398043275E-1
5.062937407E0,1.663494468E0,7.750901580E-1,-7.451304793E-1
5.065462615E0,1.701842904E0,8.730916381E-1,-7.504566908E-1
5.067987824E0,1.735930324E0,9.700278044E-1,-7.589785457E-1
5.070513032E0,1.765756845E0,1.061504722E0,-7.675004005E-1
5.073038292E0,1.795583367E0,1.145658135E0,-7.749570012E-1
5.075563501E0,1.822214246E0,1.223420143E0,-7.813484073E-1
5.078088709E0,1.841388464E0,1.287334085E0,-7.856093645E-1
5.080613917E0,1.857366920E0,1.337400079E0,-7.856093645E-1
5.083139126E0,1.866953969E0,1.374683261E0,-7.792179585E-1
5.085664334E0,1.877606392E0,1.393857360E0,-7.706961036E-1
5.088189542E0,1.879736781E0,1.394922614E0,-7.568480372E-1
5.090714751E0,1.878671646E0,1.386400819E0,-7.334129214E-1
5.093239959E0,1.876541138E0,1.362965703E0,-7.067821026E-1
5.095765167E0,1.874410629E0,1.329943419E0,-6.833469868E-1
5.098290376E0,1.864823580E0,1.279877424E0,-6.556509137E-1
5.100815584E0,1.853106022E0,1.221289635E0,-6.322157979E-1
5.103340844E0,1.845649362E0,1.160571337E0,-6.119763851E-1
5.105866053E0,1.842453718E0,1.094526887E0,-6.002588272E-1
5.108391261E0,1.832866549E0,1.018895388E0,-5.938674212E-1
5.110916469E0,1.826475143E0,9.465926886E-1,-5.896064639E-1
5.113441678E0,1.816888094E0,8.762873411E-1,-5.864107609E-1
5.115966886E0,1.812627196E0,8.102428913E-1,-5.832150578E-1
5.118492094E0,1.800909638E0,7.516550422E-1,-5.832150578E-1
5.121017355E0,1.787061572E0,6.930672526E-1,-5.853455663E-1
5.123542563E0,1.774278760E0,6.451317668E-1,-5.810846090E-1
5.126067772E0,1.759365439E0,6.003919840E-1,-5.821498632E-1
5.128592980E0,1.738060832E0,5.609783530E-1,-5.800193548E-1
5.131118188E0,1.722082376E0,5.300865769E-1,-5.778889060E-1
5.133643449E0,1.701842904E0,5.077167153E-1,-5.832150578E-1
5.136168657E0,1.682668686E0,4.970643520E-1,-5.810846090E-1
5.138693865E0,1.665624976E0,5.002600551E-1,-5.810846090E-1
5.141219074E0,1.656037927E0,5.055862069E-1,-5.842803121E-1
5.143744282E0,1.650711775E0,5.226299763E-1,-5.810846090E-1
5.146269490E0,1.648581266E0,5.492607951E-1,-5.800193548E-1
5.148794699E0,1.649646521E0,5.982614756E-1,-5.810846090E-1
5.151319959E0,1.654972672E0,6.579145193E-1,-5.821498632E-1
5.153845167E0,1.661364079E0,7.207632661E-1,-5.885412693E-1
5.156370376E0,1.669885874E0,7.889382243E-1,-5.938674212E-1
5.158895584E0,1.684799194E0,8.592435718E-1,-5.981283188E-1
