"Time (s)","Linear Acceleration x (m/s^2)","Linear Acceleration y (m/s^2)","Linear Acceleration z (m/s^2)"
8.692933400E-2,0.000000000E0,0.000000000E0,0.000000000E0
9.195740700E-2,-2.049489021E-1,1.227598190E-1,2.114787102E-1
9.698652200E-2,-3.975398540E-1,3.199682236E-1,6.544475555E-1
1.021214690E-1,-6.610484123E-1,5.280599594E-1,3.804879189E-1
1.071086570E-1,-1.088990927E0,7.089815140E-1,-1.265055656E0
1.121377720E-1,-1.826022148E0,7.613954544E-1,-3.867949009E0
1.172812090E-1,-2.857126236E0,4.923028946E-1,-6.983274460E0
1.222599070E-1,-3.428959846E0,-3.630428314E-1,-8.342588425E0
1.273842820E-1,-3.834662437E0,-1.188722134E0,-3.880401611E0
1.323607400E-1,-4.806957722E0,-1.916056633E0,4.582337856E0
1.374111570E-1,-4.833800316E0,-3.116842747E0,8.709227562E0
1.425789170E-1,-3.651710510E0,-4.719864368E0,5.852729797E0
1.476293340E-1,-2.542869091E0,-6.478361130E0,1.441497803E-1
1.526797510E-1,-2.698938847E0,-7.986591339E0,-4.087199211E0
1.577301670E-1,-2.916870117E0,-9.084787369E0,-3.799322128E0
1.627805840E-1,-1.469378948E0,-9.423233986E0,-5.493345261E-1
1.678310010E-1,1.071395397E0,-7.914662361E0,3.494605064E0
1.728814170E-1,3.520427704E0,-3.702093124E0,7.184172630E0
1.779318340E-1,4.898652554E0,3.372230530E-1,8.913884163E0
1.829822510E-1,4.934074879E0,3.503149033E0,8.316481590E0
1.880326670E-1,4.076043606E0,5.827706814E0,7.325397015E0
1.930831360E-1,3.111273766E0,7.342463493E0,6.787108421E0
1.981335530E-1,2.353064299E0,8.088773727E0,6.354673862E0
2.031839690E-1,1.888949394E0,8.339538574E0,5.273675442E0
2.082343860E-1,1.778993130E0,8.110822678E0,3.607099533E0
2.132848030E-1,2.029342651E0,7.623733521E0,2.456879616E0
2.183352190E-1,2.303507328E0,7.092759132E0,1.909628391E0
2.233856360E-1,2.261375666E0,6.431813240E0,1.990237236E0
2.284360530E-1,1.823811531E0,5.445857048E0,2.271994591E0
2.335255840E-1,1.203646183E0,4.067249298E0,2.145058155E0
2.385368860E-1,4.671943188E-1,2.533378124E0,1.656605005E0
2.435873030E-1,-2.872602940E-1,8.403396606E-1,1.082764864E0
2.486377190E-1,-9.209020138E-1,-8.888578415E-1,7.616806030E-1
2.537272510E-1,-1.354241610E0,-2.840574265E0,5.614409447E-1
2.587385530E-1,-1.632341146E0,-4.812918663E0,5.409035683E-1
2.637889690E-1,-1.368623495E0,-6.633833885E0,5.616002083E-1
2.688394380E-1,-5.663518906E-1,-7.821924210E0,8.335680962E-1
2.738898030E-1,4.574086666E-1,-7.830807686E0,1.627993584E0
2.789402720E-1,1.633922100E0,-7.009067535E0,2.274547577E0
2.839906880E-1,2.832265854E0,-5.838534355E0,2.483983040E0
2.890411050E-1,3.725288153E0,-4.413814545E0,1.945079088E0
2.940915220E-1,4.017628670E0,-2.778831482E0,1.471161842E0
2.991419380E-1,3.971538067E0,-1.295691490E0,8.400022984E-1
3.041923550E-1,3.677903891E0,-1.087789536E-1,1.775071621E-1
3.092427720E-1,3.259149075E0,8.314571381E-1,-1.832981110E-1
3.142931880E-1,2.682004452E0,1.517950058E0,-2.632832527E-1
3.193827190E-1,2.015156031E0,1.936456680E0,-2.146322727E-1
3.243940220E-1,1.220730543E0,2.239728928E0,-1.684963703E-1
3.294444380E-1,5.344986916E-1,2.436511040E0,-6.344246864E-2
3.344948550E-1,-2.872681618E-2,2.523244858E0,4.527068138E-2
3.395452720E-1,-4.113836288E-1,2.407546997E0,5.187678337E-2
3.445957400E-1,-7.247314453E-1,2.250370026E0,-3.975486755E-2
3.496461050E-1,-8.712882996E-1,2.034605980E0,-9.909510612E-2
3.546965740E-1,-8.954768181E-1,1.852879524E0,-1.310908794E-1
3.597469900E-1,-8.165566921E-1,1.727981567E0,-4.248850346E-1
3.647974070E-1,-5.559144020E-1,1.718811035E0,-7.549970150E-1
3.698478240E-1,-2.030353546E-1,1.856516838E0,-8.197965622E-1
3.748982400E-1,8.831954002E-2,2.202501297E0,-2.839310169E-1
3.799486570E-1,2.442928553E-1,2.455723763E0,2.791740894E-1
3.849990740E-1,5.340026617E-1,2.698205948E0,9.549221992E-1
3.900494900E-1,8.024851084E-1,2.884354115E0,1.378174543E0
3.950999590E-1,1.290957570E0,3.036197662E0,1.190208912E0
4.001894900E-1,1.723727584E0,3.108530998E0,1.125822663E0
4.052007920E-1,2.222396135E0,3.109221458E0,1.148653746E0
4.102511570E-1,2.610919476E0,3.039956093E0,9.632412195E-1
4.153016260E-1,2.604387283E0,3.043161869E0,7.657272816E-1
4.203520420E-1,2.480454922E0,2.996148109E0,6.851193905E-1
4.254024590E-1,2.090181589E0,2.819334030E0,5.415898561E-1
4.304528760E-1,1.693599343E0,2.728183270E0,5.002359152E-1
4.355032920E-1,1.309784293E0,2.629317760E0,3.414956331E-1
4.405537090E-1,9.088821411E-1,2.490889072E0,7.133185863E-2
4.456041260E-1,5.687987804E-1,2.296877861E0,-3.175244331E-1
4.506545420E-1,2.792610526E-1,2.160208702E0,-6.561908722E-1
4.557050110E-1,7.133376598E-2,2.038753510E0,-1.054705024E0
4.607553760E-1,-4.676401615E-2,2.006803513E0,-1.351240635E0
4.658058440E-1,-1.060628891E-1,2.026687622E0,-1.471895814E0
4.708562610E-1,-3.202569485E-2,2.074259758E0,-1.419631243E0
4.759066780E-1,5.970001221E-4,2.171752930E0,-1.422774673E0
4.809570940E-1,-1.095696092E-1,2.271389961E0,-1.502693295E0
4.860075110E-1,-2.428075671E-1,2.426471710E0,-1.627853870E0
4.910579280E-1,-4.650885463E-1,2.541793823E0,-1.620770693E0
4.961083440E-1,-7.612130642E-1,2.604901314E0,-1.711668849E0
5.011978760E-1,-1.027411342E0,2.682746887E0,-1.769530416E0
5.062091780E-1,-1.367433310E0,2.746653080E0,-1.922861099E0
5.112595940E-1,-1.612413406E0,2.812271118E0,-2.113349438E0
5.163100110E-1,-1.860026717E0,2.862947941E0,-2.348262787E0
5.213604280E-1,-2.065292358E0,2.870439053E0,-2.642157793E0
5.264108970E-1,-2.202362776E0,2.770094395E0,-2.903218985E0
5.314613130E-1,-2.327513456E0,2.558359146E0,-3.158021927E0
5.365117300E-1,-2.308354616E0,2.256558418E0,-3.518024683E0
5.415621470E-1,-2.144024849E0,1.875083923E0,-3.859122753E0
5.466125630E-1,-1.810075164E0,1.388668060E0,-4.247035027E0
5.516629800E-1,-1.344130516E0,9.334115982E-1,-4.503527641E0
5.567133970E-1,-9.154155254E-1,5.859861374E-1,-4.655054092E0
5.617638130E-1,-6.529214978E-1,3.843088150E-1,-4.594903469E0
5.668533440E-1,-5.325949192E-1,3.493804932E-1,-4.335113525E0
5.718646470E-1,-6.632938385E-1,4.806528091E-1,-3.850355148E0
5.769151150E-1,-8.875187635E-1,6.721239090E-1,-3.260033131E0
5.819655320E-1,-1.078159332E0,8.757505417E-1,-2.623402596E0
5.870159490E-1,-1.177059293E0,9.278478622E-1,-1.996345043E0
5.920663650E-1,-1.243199706E0,9.342966080E-1,-1.489365816E0
5.971167300E-1,-1.265894294E0,8.101577759E-1,-1.148138642E0
6.021671990E-1,-1.209123373E0,6.219358444E-1,-9.142212272E-1
6.072176150E-1,-1.026235700E0,2.741298676E-1,-8.449654579E-1
6.122680320E-1,-6.908941269E-1,-1.783056259E-1,-8.689970970E-1
6.173184490E-1,-1.829515696E-1,-7.260494232E-1,-9.154505134E-1
6.223631360E-1,5.302609205E-1,-1.343193054E0,-9.784758687E-1
6.274060010E-1,1.205887318E0,-1.920968056E0,-9.910183549E-1
6.324488650E-1,1.694231510E0,-2.345801353E0,-1.007333994E0
6.374917300E-1,1.942037821E0,-2.569254875E0,-1.121346831E0
6.425345940E-1,1.939764619E0,-2.663247108E0,-1.230326414E0
6.475774590E-1,1.931663990E0,-2.657470703E0,-1.334312677E0
6.526656880E-1,1.938085794E0,-2.639518738E0,-1.428975344E0
6.577085530E-1,1.957137823E0,-2.581100464E0,-1.569901943E0
6.627514170E-1,1.840490818E0,-2.569336891E0,-1.788326025E0
6.677942820E-1,1.617018819E0,-2.627750397E0,-2.103588581E0
6.728371470E-1,1.348180294E0,-2.868678093E0,-2.395569086E0
6.778800110E-1,1.027786374E0,-3.128034592E0,-2.627541065E0
6.829681880E-1,8.536376953E-1,-3.442547798E0,-2.724685192E0
6.880110530E-1,7.719647884E-1,-3.821441650E0,-2.576191425E0
6.930539170E-1,7.526671290E-1,-4.325996399E0,-2.362744808E0
6.980967820E-1,8.457788229E-1,-4.916091919E0,-2.138247013E0
7.031396470E-1,9.969274998E-1,-5.521011353E0,-1.825068235E0
7.081825110E-1,1.103573084E0,-6.124075890E0,-1.528175473E0
7.132706880E-1,1.139722466E0,-6.373635292E0,-1.166844249E0
7.183135530E-1,1.105162382E0,-6.173995972E0,-5.576537848E-1
7.233564170E-1,1.031881213E0,-5.570227623E0,4.854579270E-2
7.283992820E-1,9.264107943E-1,-4.749573708E0,7.620332837E-1
7.334421470E-1,5.417374969E-1,-4.084374428E0,1.095856905E0
7.384850110E-1,-2.121442556E-1,-3.934695244E0,1.195261955E0
7.435732400E-1,-1.211029768E0,-4.085087776E0,9.833943248E-1
7.486161050E-1,-2.253961563E0,-4.325397491E0,4.605389833E-1
7.536589690E-1,-3.085695744E0,-4.569411278E0,-2.590752244E-1
7.587018340E-1,-3.728879929E0,-4.768407822E0,-9.520155191E-1
7.637446990E-1,-4.174270153E0,-4.833576202E0,-1.670633554E0
7.687875630E-1,-4.224462032E0,-4.718310356E0,-2.210803509E0
7.738757920E-1,-4.139818668E0,-4.262206078E0,-2.621355772E0
7.789186570E-1,-3.962582111E0,-3.535470963E0,-2.921045303E0
7.839615220E-1,-3.917133331E0,-2.665040970E0,-3.168456078E0
7.890043860E-1,-3.834437847E0,-1.955320358E0,-3.399961948E0
7.940472510E-1,-3.809345484E0,-1.462488174E0,-3.547512293E0
7.990901150E-1,-3.735779762E0,-1.148391724E0,-3.618737459E0
8.041782920E-1,-3.622279644E0,-9.170007706E-1,-3.719300747E0
8.092211570E-1,-3.311356068E0,-8.368892670E-1,-3.922497511E0
8.142640220E-1,-2.945905209E0,-7.528715134E-1,-4.143249512E0
8.193068860E-1,-2.591977358E0,-5.762157440E-1,-4.429178715E0
8.243497510E-1,-2.216145039E0,-3.581008911E-1,-4.630902767E0
8.293926150E-1,-1.989498138E0,-6.965827942E-2,-4.814083099E0
8.344808440E-1,-1.760984898E0,2.211112976E-1,-4.802598953E0
8.395237090E-1,-1.632144332E0,6.166381836E-1,-4.723520756E0
8.445665740E-1,-1.757160902E0,1.089414597E0,-4.719436169E0
8.496094380E-1,-2.023056507E0,1.483721733E0,-4.901693344E0
8.546523030E-1,-2.232609510E0,1.632608414E0,-5.112104416E0
8.596951670E-1,-2.424079895E0,1.410604477E0,-5.539135933E0
8.647833440E-1,-2.435787678E0,6.384010315E-1,-6.158995628E0
8.698262090E-1,-2.352241039E0,-3.230695724E-1,-6.216543198E0
8.748690740E-1,-1.841967106E0,-1.525413513E0,-5.491116047E0
8.799119380E-1,-1.071316481E0,-2.770681381E0,-4.241116524E0
8.849548030E-1,-2.947313786E-1,-3.873469353E0,-2.850602388E0
8.899976670E-1,7.667341232E-1,-4.708528519E0,-1.427078009E0
8.950858970E-1,2.080621958E0,-5.843707085E0,6.539211273E-1
9.001287610E-1,2.632204771E0,-6.618865013E0,2.595123529E0
9.051716260E-1,2.835007668E0,-6.882061958E0,4.407294273E0
9.102144900E-1,3.859317541E0,-6.976052284E0,6.222561836E0
9.152573550E-1,4.693650723E0,-6.512990952E0,7.141302109E0
9.203002190E-1,5.093300343E0,-5.534939766E0,7.094560623E0
9.253883970E-1,5.481117249E0,-4.435458183E0,7.063550949E0
9.304312610E-1,5.904246807E0,-3.547686577E0,7.735918522E0
9.354854280E-1,6.150098324E0,-2.908039093E0,8.769172668E0
9.405968860E-1,6.035180569E0,-2.308650017E0,9.528224945E0
9.456397510E-1,5.549897671E0,-1.655177116E0,9.677867889E0
9.506826150E-1,4.897157669E0,-1.183433533E0,9.253833771E0
9.557254800E-1,4.248313904E0,-1.117408752E0,8.494846344E0
9.607683440E-1,3.675869465E0,-1.287778854E0,7.570292950E0
9.658112090E-1,2.875504255E0,-1.521488190E0,6.460904598E0
9.708421470E-1,1.832175016E0,-1.543704033E0,5.054920673E0
9.758850110E-1,7.871494293E-1,-1.310590744E0,3.894495964E0
9.809278760E-1,1.154944897E-1,-8.595981598E-1,3.277974606E0
9.859707400E-1,-4.010598660E-1,-1.621046066E-1,3.215888023E0
9.910136050E-1,-7.842535973E-1,7.076578140E-1,3.228382111E0
9.960564690E-1,-1.005866528E0,1.516948700E0,3.020155907E0
1.001144699E0,-9.347813129E-1,2.220829010E0,2.812670231E0
1.006187563E0,-7.381742001E-1,2.761775494E0,2.640317917E0
1.011230428E0,-3.279895782E-1,3.245225906E0,2.310327053E0
1.016273292E0,9.941101074E-2,3.516061783E0,1.686856747E0
1.021316157E0,7.013936043E-1,3.649514198E0,9.536514282E-1
1.026359022E0,1.579733372E0,3.682571888E0,2.297883034E-1
1.031447199E0,2.323606730E0,3.745410442E0,4.403591156E-2
1.036490063E0,3.018490314E0,3.660640717E0,3.669099808E-1
1.041532928E0,3.638697624E0,3.570587158E0,1.198063850E0
1.046575792E0,3.901381493E0,3.555562496E0,2.425635338E0
1.051618657E0,4.019643307E0,3.771934032E0,3.696479797E0
1.056661522E0,3.980103970E0,4.033134460E0,4.696537971E0
1.061749699E0,3.824072838E0,4.387315750E0,5.341862679E0
1.066792563E0,3.601104736E0,4.748550415E0,5.793679237E0
1.071835428E0,3.350708008E0,5.036603928E0,6.230642319E0
1.076878292E0,3.035222054E0,5.270195484E0,6.522495747E0
1.081921157E0,2.677300453E0,5.472286224E0,6.529766083E0
1.086964022E0,2.436378956E0,5.443017960E0,6.482957363E0
1.092052251E0,2.246199131E0,5.343079567E0,6.292086601E0
1.097095115E0,2.216251850E0,5.015456200E0,6.112425804E0
1.102137980E0,2.183884382E0,4.829216003E0,5.833022594E0
1.107180844E0,2.274712801E0,4.481517315E0,5.684426308E0
1.112223709E0,2.164946556E0,4.136237621E0,5.463831425E0
1.117266574E0,2.263977528E0,3.794507980E0,5.321104050E0
1.122354751E0,2.280396938E0,3.548604488E0,5.172942162E0
1.127397615E0,2.262636185E0,3.330011368E0,4.907040119E0
1.132440480E0,2.301857948E0,3.154987335E0,4.588410378E0
1.137483344E0,2.170448303E0,2.949150562E0,4.410542488E0
1.142526209E0,1.917824745E0,2.845132828E0,4.181171417E0
1.147569074E0,1.694773197E0,2.752766132E0,3.899801016E0
1.152657251E0,1.510514259E0,2.692404747E0,3.620494366E0
1.157700115E0,1.279678345E0,2.775893688E0,3.284279823E0
1.162742980E0,1.020562172E0,2.986474514E0,2.903784752E0
1.167785844E0,1.010994911E0,3.182762146E0,2.654667377E0
1.172828709E0,1.050188065E0,3.469386816E0,2.445466995E0
1.177871574E0,1.097466469E0,3.730156183E0,2.174676418E0
1.182959751E0,1.231709957E0,3.818631887E0,1.936423779E0
1.188002615E0,1.375717402E0,3.803118229E0,1.756498337E0
1.193045480E0,1.515183449E0,3.659138918E0,1.657036304E0
1.198088344E0,1.594068527E0,3.574587107E0,1.558720589E0
1.203131209E0,1.609367371E0,3.423074245E0,1.544304371E0
1.208174074E0,1.594902277E0,3.208680153E0,1.443531990E0
1.213262251E0,1.513792992E0,3.009671450E0,1.207187653E0
1.218305115E0,1.433210373E0,2.726780415E0,7.285079956E-1
1.223347980E0,1.375208616E0,2.291627884E0,-7.157802582E-2
1.228390844E0,1.287513494E0,1.910093784E0,-1.275896549E0
1.233433709E0,1.279528618E0,1.490662098E0,-2.472791195E0
1.238476574E0,1.198386669E0,1.096074581E0,-3.556839466E0
1.243564751E0,1.031439304E0,7.540526390E-1,-4.873544216E0
1.248607615E0,9.262504578E-1,3.302359581E-1,-6.738432407E0
1.253650480E0,2.471156120E-1,3.444766998E-2,-8.601028442E0
1.258693344E0,-1.269256592E0,-1.338286400E-1,-1.007380676E1
1.263736209E0,-2.816447735E0,-8.470921516E-1,-1.048816299E1
1.268779074E0,-4.474114418E0,-1.821056843E0,-6.586742401E0
1.273867251E0,-6.128815174E0,-2.476928234E0,5.630688667E-1
1.278910115E0,-5.992886543E0,-3.852318287E0,5.490254402E0
1.283952980E0,-5.025446892E0,-5.491712570E0,5.172561169E0
1.288995844E0,-4.549226761E0,-6.948342323E0,-7.253170013E-3
1.294038709E0,-4.209767818E0,-8.233798027E0,-5.926710606E0
1.299081574E0,-4.607840061E0,-9.087921143E0,-7.975979805E0
1.304169751E0,-4.790563107E0,-9.285161018E0,-7.786192894E0
1.309212615E0,-4.397623539E0,-8.615257263E0,-7.158063889E0
1.314255480E0,-2.576169968E0,-6.540528297E0,-3.503230572E0
1.319298344E0,2.764782906E-1,-3.204748631E0,1.531135082E0
1.324341209E0,2.788088083E0,-1.526012421E-1,4.448429585E0
1.329384074E0,4.005515575E0,2.141652584E0,4.637742519E0
1.334472251E0,3.807678938E0,3.634810925E0,4.120579720E0
1.339515115E0,3.135746956E0,4.375918865E0,3.969193935E0
1.344557980E0,2.688403130E0,4.585413933E0,4.373146534E0
1.349600844E0,2.318063736E0,4.665306091E0,4.417812347E0
1.354643709E0,1.727815390E0,4.486972809E0,3.525055408E0
1.359686574E0,9.912247658E-1,3.983021975E0,2.426517487E0
1.364774803E0,2.006459236E-1,3.272275925E0,1.876314163E0
1.369817667E0,-2.651655674E-1,2.306006908E0,1.936826468E0
1.374860532E0,-1.548337936E-1,1.079616070E0,2.334194660E0
1.379903397E0,2.034134865E-1,-3.001804352E-1,2.643869400E0
1.384946261E0,5.570640564E-1,-1.672261715E0,2.845469236E0
1.389989126E0,8.578157425E-1,-2.958709717E0,2.892478704E0
1.395077303E0,9.674773216E-1,-4.050039291E0,2.999299049E0
1.400120167E0,9.249145985E-1,-4.901545525E0,3.073768377E0
1.405163032E0,7.101378441E-1,-5.398529053E0,2.815068722E0
1.410205897E0,4.456546307E-1,-5.649102211E0,2.267128944E0
1.415248761E0,3.943655491E-1,-5.609086037E0,1.668379307E0
1.420291626E0,5.217096806E-1,-5.367970467E0,1.095373392E0
1.425379803E0,9.457807541E-1,-4.932147026E0,6.308813095E-1
1.430422667E0,1.446505785E0,-4.389625549E0,4.095587730E-1
1.435465532E0,1.875984669E0,-3.762947083E0,1.936931610E-1
1.440508397E0,2.364375114E0,-3.113478661E0,-4.036903381E-2
1.445551261E0,2.802646160E0,-2.513087273E0,-1.646556854E-1
1.450594126E0,3.236284971E0,-1.943897247E0,-1.198225021E-1
1.455684803E0,3.594984055E0,-1.462838173E0,3.409767151E-2
1.460733292E0,3.575769663E0,-1.013888359E0,1.093153954E-1
1.465781730E0,3.463732719E0,-6.435823441E-1,1.913490295E-1
1.470830219E0,3.201035261E0,-4.275283813E-1,3.042359352E-1
1.475878657E0,2.806551218E0,-2.499141693E-1,3.080601692E-1
1.480927147E0,2.372241020E0,-1.540393829E-1,9.745812416E-2
1.485987355E0,1.875748873E0,-2.978897095E-2,1.674580574E-2
1.491035844E0,1.311228752E0,2.564525604E-2,-2.733874321E-2
1.496084282E0,7.221446037E-1,9.845161438E-2,5.563497543E-3
1.501132772E0,2.535140514E-1,-9.337425232E-3,2.767286301E-1
1.506181209E0,-3.881502151E-2,-7.257461548E-2,7.431330681E-1
1.511229699E0,-1.258993149E-1,-1.174678802E-1,1.398160934E0
1.516329282E0,-3.071596622E-1,-9.116458893E-2,1.751989603E0
1.521377772E0,-4.867153168E-1,-5.122947693E-2,1.933527231E0
1.526426209E0,-5.577092171E-1,9.461021423E-2,2.165825129E0
1.531474699E0,-6.681536436E-1,2.049093246E-1,1.856758952E0
1.536523136E0,-6.632701159E-1,3.153524399E-1,1.560901999E0
1.541571626E0,-5.907026529E-1,5.023307800E-1,1.282461166E0
1.546592355E0,-4.719978571E-1,7.319602966E-1,1.164252520E0
1.551640844E0,-2.815519571E-1,9.579858780E-1,1.074704766E0
1.556689282E0,-8.466720581E-2,1.238746643E0,1.048764110E0
1.561737772E0,1.199841499E-1,1.488348007E0,1.160693645E0
1.566786209E0,2.001237869E-1,1.727378845E0,1.379472852E0
1.571834699E0,1.269671917E-1,2.015653610E0,1.564383507E0
1.576894855E0,1.979470253E-3,2.200346470E0,1.742047191E0
1.581943344E0,-1.323151588E-1,2.304398060E0,1.907735229E0
1.586991782E0,-2.481055260E-1,2.402080536E0,2.189027548E0
1.592040272E0,-2.192010880E-1,2.320280075E0,2.212246895E0
1.597088709E0,-1.996784210E-1,2.196712017E0,1.695542455E0
1.602137199E0,-2.616115808E-1,2.105180264E0,1.015760779E0
1.607197407E0,-3.499379158E-1,2.092109680E0,3.713617325E-1
1.612245897E0,-2.583514452E-1,1.998378754E0,-9.522068501E-2
1.617294334E0,-1.121451855E-1,1.931962967E0,-4.027531147E-1
1.622342824E0,6.744241714E-2,1.978957176E0,-7.320376635E-1
1.627391261E0,1.213837862E-1,2.043601513E0,-1.081652284E0
1.632439751E0,3.091335297E-2,2.239396095E0,-1.482711673E0
1.637499907E0,-7.790839672E-2,2.404816628E0,-1.815574169E0
1.642548397E0,-2.059748173E-1,2.583077431E0,-1.977136731E0
1.647596834E0,-3.112068176E-1,2.696714401E0,-2.007283211E0
1.652645324E0,-5.186876059E-1,2.867845535E0,-1.981516480E0
1.657693761E0,-6.614637375E-1,3.035497665E0,-1.857123375E0
1.662742251E0,-8.848229647E-1,3.165037155E0,-1.875702500E0
1.667802407E0,-1.023365855E0,3.319899559E0,-1.872610569E0
1.672850897E0,-1.140127778E0,3.331578255E0,-1.948888063E0
1.677899334E0,-1.200581908E0,3.339028358E0,-2.067037582E0
1.682947824E0,-1.361079574E0,3.300428391E0,-2.261065722E0
1.687996261E0,-1.378797412E0,3.115593910E0,-2.521825314E0
1.693044751E0,-1.307056427E0,2.798126221E0,-2.789969921E0
1.698104907E0,-1.189459920E0,2.494130135E0,-3.029186964E0
1.703153397E0,-9.551262856E-1,2.167778015E0,-3.257923603E0
1.708201834E0,-6.827555895E-1,1.738023758E0,-3.405425549E0
1.713250324E0,-2.944802046E-1,1.290075302E0,-3.438582420E0
1.718298761E0,7.818174362E-2,7.333965302E-1,-3.374922037E0
1.723347251E0,2.780930996E-1,1.985998154E-1,-3.247498989E0
1.728407459E0,3.853477836E-1,-3.130874634E-1,-3.112206697E0
1.733455949E0,4.527859688E-1,-6.775007248E-1,-2.885145903E0
1.738504386E0,6.156313419E-1,-9.499664307E-1,-2.650224447E0
1.743552876E0,7.578099966E-1,-1.183269501E0,-2.309134483E0
1.748601313E0,9.176962376E-1,-1.279548645E0,-1.901904106E0
1.753649803E0,1.003527284E0,-1.285775185E0,-1.504945517E0
1.758709959E0,1.081417799E0,-1.185515404E0,-1.151159763E0
1.763758449E0,1.069381356E0,-9.696054459E-1,-9.443363547E-1
1.768806886E0,9.320639372E-1,-7.901201248E-1,-9.147138596E-1
1.773855376E0,6.615738273E-1,-6.852159500E-1,-9.170305729E-1
1.778903813E0,3.368018270E-1,-7.549972534E-1,-8.731129169E-1
1.783952303E0,7.052540779E-2,-9.082441330E-1,-8.348992467E-1
1.789012459E0,-2.793037891E-2,-1.216357231E0,-7.478384972E-1
1.794060949E0,5.739319324E-2,-1.628752708E0,-7.204571962E-1
1.799109386E0,2.739214897E-1,-2.048370361E0,-8.383743763E-1
1.804157876E0,5.431746840E-1,-2.398769379E0,-1.072710872E0
1.809206313E0,7.965686321E-1,-2.763745308E0,-1.366254210E0
1.814254803E0,1.052670717E0,-3.095443726E0,-1.631250143E0
1.819314959E0,1.311283350E0,-3.378436089E0,-1.836673856E0
1.824363449E0,1.606744170E0,-3.615238190E0,-1.977704883E0
1.829411886E0,1.892084837E0,-3.758204460E0,-2.068909407E0
1.834460376E0,2.099666119E0,-3.784851074E0,-2.141053915E0
1.839508813E0,2.156652927E0,-3.690726280E0,-2.186447144E0
1.844557303E0,1.890389681E0,-3.593226433E0,-2.206687450E0
1.849617511E0,1.343861103E0,-3.592708588E0,-2.116607428E0
1.854666001E0,4.685187638E-1,-3.806128502E0,-1.961484909E0
1.859714438E0,-5.383741260E-1,-4.130313873E0,-1.590074658E0
1.864762928E0,-1.158157229E0,-4.562677383E0,-9.690448046E-1
1.869811365E0,-1.537008166E0,-5.046866417E0,-3.495725095E-1
1.874859855E0,-1.716026425E0,-5.332060814E0,3.693805933E-1
1.879920011E0,-1.635189295E0,-5.525173187E0,7.470785379E-1
1.884968501E0,-1.288426161E0,-5.448436737E0,8.732787967E-1
1.890016938E0,-8.495712280E-1,-5.251881599E0,7.653114200E-1
1.895065428E0,-4.286036491E-1,-5.166310310E0,3.438461423E-1
1.900113865E0,-4.576850533E-1,-5.479300499E0,-2.978756428E-1
1.905162355E0,-9.434389472E-1,-6.099013329E0,-1.175131917E0
1.910222563E0,-1.564861298E0,-6.681842804E0,-2.159248352E0
1.915271053E0,-1.812577605E0,-6.950575829E0,-3.131496906E0
1.920319490E0,-1.816457033E0,-6.687314987E0,-3.928497553E0
1.925367980E0,-1.724978805E0,-5.825257301E0,-4.616674423E0
1.930416417E0,-1.622114420E0,-4.609581947E0,-5.168813705E0
1.935464907E0,-1.539886117E0,-3.240651131E0,-5.671339512E0
1.940525063E0,-1.306227684E0,-1.913468361E0,-6.174286842E0
1.945573553E0,-1.060633779E0,-6.373662949E-1,-6.515217781E0
1.950621990E0,-7.794728279E-1,5.089941025E-1,-6.784200668E0
1.955670480E0,-5.646373034E-1,1.416033745E0,-7.043838024E0
1.960718917E0,-3.923592567E-1,2.038717270E0,-7.335653782E0
1.965767407E0,-2.094483376E-1,2.204256058E0,-7.575861454E0
1.970828240E0,-6.973123550E-2,2.033988953E0,-7.683583260E0
1.975878292E0,1.356613636E-2,1.531931877E0,-7.692460060E0
1.980928292E0,2.314068079E-1,8.717432022E-1,-7.532807827E0
1.985978344E0,5.517022610E-1,1.109724045E-1,-7.244536877E0
1.991028344E0,9.675602913E-1,-5.077285767E-1,-6.863351822E0
1.996078397E0,1.263046503E0,-8.870191574E-1,-6.537742138E0
2.001130740E0,1.658650875E0,-1.049242973E0,-6.276542664E0
2.006180792E0,2.190190792E0,-1.199438095E0,-6.112092972E0
2.011230792E0,2.612169504E0,-1.537474632E0,-6.276841640E0
2.016280844E0,3.034399271E0,-2.087145805E0,-6.545756340E0
2.021330844E0,3.567291021E0,-2.866181374E0,-6.915947914E0
2.026380897E0,4.074587345E0,-3.814533234E0,-7.075681686E0
2.031433292E0,4.388535500E0,-4.612997055E0,-6.822884560E0
2.036483344E0,4.657740116E0,-5.216212273E0,-5.961526394E0
2.041533344E0,4.983679771E0,-5.537652969E0,-4.306235790E0
2.046583397E0,5.555378914E0,-5.384943962E0,-1.856396914E0
2.051633397E0,6.281864643E0,-4.872419357E0,8.204873800E-1
2.056683449E0,7.072649956E0,-4.245699883E0,3.094033957E0
2.061735792E0,7.842583656E0,-3.846037865E0,4.748395443E0
2.066785844E0,8.386286736E0,-3.519097328E0,5.763975143E0
2.071835844E0,8.641651154E0,-3.199472427E0,6.082799911E0
2.076885897E0,8.595411301E0,-2.801315308E0,5.939844131E0
2.081935897E0,8.378751755E0,-2.369560242E0,5.772950172E0
2.086985949E0,7.927243710E0,-1.977628708E0,5.778469563E0
2.092077772E0,7.345272064E0,-1.543273926E0,5.929083824E0
2.097127772E0,6.840475082E0,-1.324412346E0,6.257193565E0
2.102177824E0,6.309064865E0,-1.267393112E0,6.369029999E0
2.107227824E0,5.683740616E0,-1.455712318E0,6.474491119E0
2.112277876E0,4.945876122E0,-1.825108528E0,6.780155182E0
2.117327928E0,3.987639904E0,-2.156036377E0,7.488430023E0
2.122340792E0,3.053119183E0,-2.434773445E0,8.141565323E0
2.127390844E0,2.082927704E0,-2.618464470E0,8.504678726E0
2.132440844E0,1.049220800E0,-2.734905243E0,8.407997131E0
2.137490897E0,-2.352508307E-1,-2.526626587E0,8.092884064E0
2.142540897E0,-1.372111559E0,-2.114153862E0,7.622084141E0
2.147590949E0,-2.062270641E0,-1.603281021E0,6.915135384E0
2.152643292E0,-2.331258774E0,-1.115308762E0,5.816531181E0
2.157693344E0,-2.245067596E0,-5.623807907E-1,4.546799183E0
2.162743344E0,-2.308417797E0,-4.219532013E-2,3.466024160E0
2.167793397E0,-2.400627613E0,3.882389069E-1,2.696171284E0
2.172843397E0,-2.349575043E0,6.521968842E-1,2.063271761E0
2.177893449E0,-2.255035400E0,8.524150848E-1,1.409143209E0
2.182945844E0,-2.249875069E0,1.143393517E0,9.535856247E-1
2.187995897E0,-2.541501760E0,1.666354179E0,1.175543308E0
2.193045897E0,-2.735883236E0,2.236300468E0,1.415082216E0
2.198095949E0,-2.790072918E0,2.749007225E0,1.149294615E0
2.203145949E0,-2.745312214E0,3.210278988E0,-2.483508587E-1
2.208196001E0,-2.639322996E0,3.749054909E0,-2.485100985E0
2.213248344E0,-2.203078032E0,4.189973831E0,-4.428575516E0
2.218298397E0,-1.454886198E0,4.535475731E0,-5.274589539E0
2.223348397E0,-1.003895283E0,4.877486229E0,-4.851367474E0
2.228398449E0,-5.812451839E-1,5.112332344E0,-3.390583515E0
2.233448449E0,2.469153404E-1,4.951738358E0,-1.121469975E0
2.238498501E0,1.190684557E0,4.668934822E0,1.041947603E0
2.243550844E0,1.769805074E0,4.613890648E0,3.295331717E0
2.248600897E0,2.161995888E0,4.258417130E0,5.057138920E0
2.253650897E0,2.088217974E0,4.042775154E0,6.255485058E0
2.258700949E0,2.004549265E0,3.968328476E0,7.043502808E0
2.263750949E0,2.103823900E0,4.036569595E0,7.533935070E0
2.268801001E0,2.120482683E0,4.203515530E0,7.831054211E0
2.273853397E0,2.084804773E0,4.466814041E0,7.707082748E0
2.278903449E0,2.171012163E0,4.601124763E0,6.908876419E0
2.283953449E0,2.435967684E0,4.591657162E0,6.099103451E0
2.289003501E0,2.701695919E0,4.491087437E0,5.249897957E0
2.294053501E0,2.895755529E0,4.245744705E0,4.596237659E0
2.299103553E0,2.962575197E0,4.001830101E0,4.177605629E0
2.304155897E0,2.932476997E0,3.718746662E0,3.955470324E0
2.309205949E0,2.825680256E0,3.439244270E0,3.957552671E0
2.314255949E0,2.582589626E0,3.304637432E0,4.162717819E0
2.319306001E0,2.262852907E0,3.295448303E0,4.417396069E0
2.324356001E0,1.870644569E0,3.401828766E0,4.657513618E0
2.329406053E0,1.407547235E0,3.574381828E0,4.808684826E0
2.334458397E0,8.624751568E-1,3.957543850E0,4.753793240E0
2.339508449E0,4.208664894E-1,4.411986351E0,4.633584976E0
2.344558449E0,1.350877285E-1,4.759488106E0,4.552236557E0
2.349608501E0,-1.171884537E-1,4.999188900E0,4.476139069E0
2.354658501E0,-4.014296532E-1,5.237147331E0,4.285338879E0
2.359708553E0,-5.489397049E-1,5.339594841E0,4.062985897E0
2.364760897E0,-6.601085663E-1,5.426237583E0,3.789465904E0
2.369810949E0,-6.888864040E-1,5.420801163E0,3.644115210E0
2.374860949E0,-6.789243221E-1,5.262501240E0,3.509815216E0
2.379911001E0,-5.979557037E-1,4.937284470E0,3.378198147E0
2.384961001E0,-4.045608044E-1,4.537435055E0,3.317050219E0
2.390011053E0,-5.393505096E-2,4.077480793E0,3.231308460E0
2.395063449E0,3.318276405E-1,3.594636917E0,3.010282278E0
2.400113501E0,6.752316952E-1,3.066416740E0,2.530683517E0
2.405163501E0,1.019227028E0,2.421649933E0,1.868217468E0
2.410213553E0,1.306436062E0,1.680022240E0,1.056699276E0
2.415263553E0,1.306513667E0,9.660611153E-1,1.373896599E-1
2.420313605E0,1.174637079E0,3.225355148E-1,-8.034801483E-1
2.425365949E0,8.797215223E-1,-3.608837128E-1,-1.666932106E0
2.430416001E0,4.432817698E-1,-8.648300171E-1,-2.577564716E0
2.435466001E0,1.528980732E-1,-1.231978416E0,-3.482870102E0
2.440516053E0,3.072166443E-2,-1.457229614E0,-4.326276302E0
2.445566053E0,-1.815223694E-2,-1.453234673E0,-5.040208340E0
2.450616105E0,-3.113031387E-3,-1.292128563E0,-5.647599697E0
2.455668449E0,7.969117165E-2,-1.105651855E0,-6.125857830E0
2.460718501E0,2.775957584E-1,-8.424472809E-1,-6.520007610E0
2.465768501E0,4.682165384E-1,-3.545989990E-1,-6.759935856E0
2.470818553E0,8.837437630E-1,5.763912201E-2,-6.861326218E0
2.475868553E0,1.393042088E0,2.041893005E-1,-6.779354572E0
2.480918605E0,1.803197265E0,1.667194366E-1,-6.505198956E0
2.485971157E0,2.206628084E0,-1.041946411E-1,-6.011087894E0
2.491021522E0,2.511409521E0,-3.060379028E-1,-5.280945301E0
2.496071834E0,2.658004522E0,-4.866428375E-1,-4.618848801E0
2.501122199E0,2.523137569E0,-7.709417343E-1,-4.009834766E0
2.506172563E0,1.945390463E0,-8.775300980E-1,-3.536994934E0
2.511222876E0,1.053238869E0,-9.703874588E-1,-3.268299103E0
2.516273657E0,5.551409721E-2,-1.241203308E0,-3.089813232E0
2.521324022E0,-9.143290520E-1,-1.612397194E0,-2.595780849E0
2.526374334E0,-1.918768883E0,-2.125212669E0,-2.213379860E0
2.531424699E0,-2.554943323E0,-3.014178276E0,-2.524930477E0
2.536475063E0,-2.705315828E0,-4.281341553E0,-3.275574207E0
2.541525376E0,-2.466603994E0,-6.113970757E0,-4.018453598E0
2.546576157E0,-1.854420185E0,-8.326649666E0,-4.536002159E0
2.551626522E0,-8.585457802E-1,-1.036786270E1,-4.561590672E0
2.556676834E0,4.107699394E-1,-1.160849094E1,-3.097218513E0
2.561727199E0,1.628134489E0,-1.195205307E1,-4.793343544E-1
2.566777563E0,2.111088276E0,-1.124291420E1,2.206449270E0
2.571827876E0,1.874938965E0,-9.392951965E0,5.178512573E0
2.576878709E0,1.038200498E0,-6.873468399E0,8.409107208E0
2.581929074E0,-5.291121006E-1,-4.471753120E0,1.062742615E1
2.586979386E0,-2.501556396E0,-2.498406410E0,1.120955467E1
2.592029751E0,-4.427965164E0,-8.557758331E-1,1.002295589E1
2.597080115E0,-5.955276966E0,3.766918182E-1,7.417618752E0
2.602130428E0,-7.072834969E0,1.726024628E0,4.719995499E0
2.607181209E0,-7.733029366E0,3.335963249E0,2.719898462E0
2.612231574E0,-7.474464417E0,4.704138756E0,1.877419472E0
2.617281886E0,-6.382440567E0,5.428647518E0,1.865407348E0
2.622332251E0,-5.030901909E0,5.624802589E0,2.040221214E0
2.627382615E0,-3.745321274E0,5.622585297E0,2.448875427E0
2.632432928E0,-2.731755972E0,5.528739929E0,2.884633780E0
2.637483761E0,-1.719584703E0,5.317761421E0,3.173769474E0
2.642534126E0,-6.290838718E-1,4.857543945E0,3.457290173E0
2.647584438E0,6.962535381E-1,4.159619331E0,3.666509628E0
2.652634803E0,2.067685127E0,3.245969296E0,3.814416170E0
2.657685167E0,3.271039724E0,2.099895000E0,3.832060099E0
2.662735480E0,4.360216141E0,8.661670685E-1,3.760482550E0
2.667786261E0,5.345437050E0,-6.623563766E-1,3.689570189E0
2.672836626E0,6.361912727E0,-2.491311073E0,3.644061089E0
2.677886938E0,7.701506615E0,-4.474101067E0,3.705486774E0
2.682937303E0,9.219480515E0,-6.578896523E0,3.800858021E0
2.687987667E0,1.073418903E1,-8.384217262E0,3.862063408E0
2.693037980E0,1.204926109E1,-9.263831139E0,4.006115913E0
2.698088813E0,1.301052856E1,-9.134369850E0,4.355027676E0
2.703139178E0,1.277821541E1,-7.596343994E0,4.427281380E0
2.708189490E0,1.107360840E1,-5.127309799E0,4.068543434E0
2.713239855E0,9.115154266E0,-3.037965775E0,3.996675491E0
2.718290219E0,7.178280830E0,-1.798633575E0,4.239112854E0
2.723340532E0,5.274673939E0,-1.133583069E0,4.460637569E0
2.728391313E0,3.294227123E0,-9.861993790E-1,4.418646812E0
2.733441678E0,1.356482506E0,-1.050108910E0,3.953323841E0
2.738491990E0,-3.491663933E-1,-9.492034912E-1,3.319800854E0
2.743542355E0,-1.733679295E0,-7.566432953E-1,2.599828482E0
2.748592719E0,-2.784202337E0,-4.860639572E-1,1.786499381E0
2.753643032E0,-3.346740961E0,-2.111816406E-1,8.315306902E-1
2.758693865E0,-3.959124327E0,1.722459793E-1,-2.390842438E-1
2.763744230E0,-4.372304916E0,4.755401611E-1,-1.067646503E0
2.768794542E0,-4.498061657E0,8.489866257E-1,-2.285124779E0
2.773844907E0,-4.683427811E0,1.402128220E0,-3.081320763E0
2.778895272E0,-4.282993317E0,1.848978043E0,-3.193157673E0
2.783945584E0,-3.420992851E0,2.087415695E0,-3.389783144E0
2.788996365E0,-2.450997353E0,1.967612743E0,-3.641898870E0
2.794046730E0,-1.586792588E0,1.685420036E0,-3.961658478E0
2.799097042E0,-9.403581619E-1,1.319133759E0,-3.901103735E0
2.804147407E0,-4.880629778E-1,9.215774536E-1,-3.523316145E0
2.809197772E0,-2.658120394E-1,5.753631592E-1,-2.997412682E0
2.814248084E0,-3.911936283E-2,3.258457184E-1,-2.413409710E0
2.819298917E0,2.566667795E-1,9.768676758E-2,-1.817030430E0
2.824349282E0,4.421557188E-1,-2.508163452E-4,-1.185465097E0
2.829399594E0,5.654971600E-1,7.493019104E-2,-4.315716028E-1
2.834449959E0,6.438357830E-1,2.906875610E-1,2.325882912E-1
2.839500324E0,6.859207153E-1,5.140953064E-1,9.371807575E-1
2.844550636E0,8.376704454E-1,6.555023193E-1,1.546212196E0
2.849601417E0,9.477990866E-1,7.904415131E-1,1.999701023E0
2.854651782E0,9.434961081E-1,9.368028641E-1,2.322048664E0
2.859702094E0,6.709909439E-1,1.055010796E0,2.485456228E0
2.864752459E0,4.027136564E-1,1.205945969E0,2.533016920E0
2.869802824E0,1.604923010E-1,1.324913979E0,2.501562595E0
2.874853136E0,-3.892135620E-2,1.493263245E0,2.375057697E0
2.879903969E0,-2.144187689E-1,1.600872040E0,2.176817179E0
2.884954334E0,-2.492221594E-1,1.661085129E0,1.907903433E0
2.890004647E0,-1.478855610E-1,1.564125061E0,1.625664473E0
2.895055011E0,-8.556306362E-2,1.468158722E0,1.213617563E0
2.900105376E0,-3.866302967E-2,1.287164688E0,7.911804318E-1
2.905155688E0,1.305854321E-2,1.066737175E0,2.850296497E-1
2.910206469E0,8.946287632E-2,8.799352646E-1,-2.701486051E-1
2.915256834E0,2.000908852E-1,6.131019592E-1,-8.120679855E-1
2.920307147E0,2.906295061E-1,4.015493393E-1,-1.403921366E0
2.925357511E0,5.533905029E-1,1.866283417E-1,-1.962852478E0
2.930407876E0,7.223522067E-1,8.197879791E-2,-2.458631754E0
2.935458188E0,8.385956287E-1,2.520847321E-2,-2.876713514E0
2.940509022E0,9.716979861E-1,-4.232406616E-2,-3.230716467E0
2.945559386E0,1.099016428E0,-7.155799866E-2,-3.429526806E0
2.950609699E0,1.242118120E0,-2.663803101E-2,-3.441700697E0
2.955660063E0,1.498114586E0,2.895259857E-2,-3.391447544E0
2.960710428E0,1.655227423E0,7.845687866E-2,-3.132102251E0
2.965760740E0,1.865676761E0,7.167911530E-2,-2.723662615E0
2.970811522E0,1.985848427E0,6.010341644E-2,-2.247261763E0
2.975861886E0,2.097539663E0,7.471752167E-2,-1.579623103E0
2.980912199E0,2.204333305E0,2.182140350E-1,-1.074994564E0
2.985962563E0,2.342162132E0,3.228988647E-1,-5.472573042E-1
2.991012928E0,2.274077654E0,6.016216278E-1,-3.168112040E-2
2.996063240E0,2.066674232E0,6.725502014E-1,3.004975915E-1
3.001114126E0,1.719315529E0,5.049409866E-1,4.297892451E-1
3.006164542E0,1.236238599E0,1.841564178E-1,3.098993301E-1
3.011214907E0,6.148264408E-1,-1.759471893E-1,1.142400503E-1
3.016265324E0,4.796469212E-2,-5.584840775E-1,-2.902777195E-1
3.021315740E0,-4.118341208E-1,-1.018343925E0,-9.100517035E-1
3.026366157E0,-7.807680368E-1,-1.397398949E0,-1.707013488E0
3.031416626E0,-1.079450011E0,-1.799768448E0,-2.625905514E0
3.036467042E0,-1.249477267E0,-2.091383934E0,-3.781946421E0
3.041517407E0,-1.289744973E0,-2.340518951E0,-4.962712288E0
3.046567824E0,-1.028074026E0,-2.410840988E0,-6.020436764E0
3.051618240E0,-6.226673126E-1,-2.330073357E0,-6.861574173E0
3.056668657E0,-1.521396637E-2,-2.158113480E0,-7.403134346E0
3.061719178E0,6.407305598E-1,-2.034845352E0,-7.501187801E0
3.066769594E0,1.140477300E0,-1.993635178E0,-7.162388325E0
3.071819959E0,1.674595475E0,-1.876566887E0,-6.382915497E0
3.076870376E0,2.178550243E0,-1.716306686E0,-5.262089729E0
3.081920792E0,2.549040318E0,-1.449654579E0,-4.027573586E0
3.086971209E0,2.755802393E0,-1.107944489E0,-2.895797729E0
3.092061157E0,2.632452965E0,-8.444032669E-1,-1.826648831E0
3.097111522E0,2.309260368E0,-7.593374252E-1,-1.078852057E0
3.102161938E0,1.926485777E0,-9.205474854E-1,-8.199449778E-1
3.107212355E0,1.515534163E0,-1.262907028E0,-1.084740877E0
3.112262772E0,1.399951220E0,-1.619790077E0,-1.753411651E0
3.117313136E0,1.504633427E0,-1.858345985E0,-2.713328362E0
3.122324230E0,1.773866057E0,-2.152139664E0,-3.766171217E0
3.127374647E0,2.260476112E0,-2.527327538E0,-4.743359566E0
3.132425011E0,2.851583004E0,-2.955123901E0,-5.683271885E0
3.137475428E0,3.437268496E0,-3.503741264E0,-6.604730606E0
3.142525844E0,4.153747082E0,-3.812053680E0,-7.317209721E0
3.147576261E0,4.812044144E0,-3.865301132E0,-7.774392605E0
3.152626782E0,5.347690105E0,-3.756531715E0,-7.774256229E0
3.157677199E0,5.640365601E0,-3.554872513E0,-7.413422108E0
3.162727563E0,5.746911526E0,-3.274425507E0,-6.630483150E0
3.167777980E0,5.478082180E0,-2.969961166E0,-5.594038963E0
3.172828397E0,4.995288849E0,-2.741538048E0,-4.467471600E0
3.177878813E0,4.489446640E0,-2.592119217E0,-3.212951660E0
3.182929334E0,3.956886768E0,-2.345138550E0,-1.850215316E0
3.187979751E0,3.533351421E0,-2.162526131E0,-4.876934886E-1
3.193030115E0,2.991970301E0,-1.939190865E0,5.588406324E-1
3.198080532E0,2.618135452E0,-1.869101524E0,1.493210793E0
3.203130949E0,2.501884460E0,-2.118274689E0,2.443221092E0
3.208181365E0,2.825151443E0,-2.792192459E0,3.239304543E0
3.213231886E0,3.434221983E0,-3.742296219E0,3.946452379E0
3.218282303E0,4.111550331E0,-4.601159096E0,4.505829334E0
3.223332667E0,4.988870144E0,-5.458398819E0,4.804831505E0
3.228383084E0,5.722372055E0,-6.053144455E0,4.626507759E0
3.233433501E0,6.184267998E0,-6.369151115E0,4.381246567E0
3.238483917E0,6.188550949E0,-6.421277046E0,4.403789520E0
3.243534386E0,5.783612251E0,-6.525994301E0,4.633434296E0
3.248584803E0,6.175246239E0,-6.912189484E0,4.280536652E0
3.253635167E0,6.630535126E0,-7.465639114E0,3.653444767E0
3.258685584E0,6.520958900E0,-7.804396629E0,2.731330395E0
3.263736001E0,6.047988892E0,-7.775082588E0,1.732860446E0
3.268786417E0,5.579523087E0,-7.731642723E0,8.406124115E-1
3.273836938E0,5.661106110E0,-7.941569328E0,5.477213860E-1
3.278887355E0,6.015697479E0,-8.049488068E0,3.989753723E-1
3.283937719E0,6.274284363E0,-8.016065598E0,7.961826324E-1
3.288988136E0,6.764453888E0,-8.006216049E0,1.431927919E0
3.294038553E0,7.204546928E0,-7.875484467E0,1.816785812E0
3.299088969E0,7.539201736E0,-7.603482246E0,1.747720718E0
3.304139438E0,7.727560997E0,-7.370504379E0,2.040016174E0
3.309189855E0,7.845177650E0,-7.240997314E0,3.167271614E0
3.314240219E0,7.849258423E0,-7.145507812E0,4.786367416E0
3.319290636E0,7.793562412E0,-7.043314934E0,6.637044430E0
3.324341053E0,7.189391613E0,-6.627112389E0,8.323232651E0
3.329391469E0,6.226197243E0,-6.284222603E0,9.479076385E0
3.334441990E0,5.081495762E0,-5.721284866E0,9.005340576E0
3.339492407E0,3.833809853E0,-5.110320091E0,7.601737022E0
3.344542772E0,2.625334024E0,-4.610128403E0,5.897873878E0
3.349593188E0,1.746043563E0,-4.265095711E0,4.471021652E0
3.354643605E0,1.079275489E0,-4.198580742E0,3.643706799E0
3.359694022E0,4.886865616E-1,-4.441475868E0,3.482712746E0
3.364744490E0,-1.077392101E-1,-4.917818069E0,3.888159752E0
3.369794907E0,-7.239868641E-1,-5.315365791E0,4.413694859E0
3.374845272E0,-1.225409746E0,-5.648321629E0,4.934707642E0
3.379895688E0,-1.704313755E0,-5.619254589E0,5.660130501E0
3.384946105E0,-2.343821764E0,-5.297733307E0,6.155351162E0
3.389996522E0,-2.769561291E0,-4.887203217E0,6.234886169E0
3.395047042E0,-2.902940035E0,-4.363430977E0,6.303416252E0
3.400097459E0,-2.812695503E0,-3.974277020E0,6.081811905E0
3.405147824E0,-2.472062826E0,-3.642446041E0,5.549084663E0
3.410198240E0,-2.118568420E0,-3.272097588E0,4.626194000E0
3.415248657E0,-1.762343407E0,-2.876892567E0,3.771754742E0
3.420299074E0,-1.597178936E0,-2.392544746E0,2.968496323E0
3.425349542E0,-1.485644817E0,-1.806623459E0,2.216672421E0
3.430399959E0,-1.355137825E0,-1.206178665E0,1.724998951E0
3.435450324E0,-1.262662411E0,-5.776858330E-1,1.667911053E0
3.440500740E0,-1.106155872E0,-1.014509201E-1,2.016812325E0
3.445551157E0,-6.953301430E-1,1.991229057E-1,2.539984703E0
3.450601574E0,-2.889142036E-1,2.132868767E-1,3.085269690E0
3.455652094E0,3.575515747E-1,1.938815117E-1,3.840175867E0
3.460702511E0,7.180790901E-1,1.851820946E-1,4.431016922E0
3.465752876E0,1.080546379E0,2.900214195E-1,4.692529678E0
3.470803292E0,1.328463554E0,3.984413147E-1,4.791736603E0
3.475853709E0,1.568397522E0,5.008783340E-1,4.982610703E0
3.480904126E0,1.904888630E0,4.818811417E-1,4.893299103E0
3.485954594E0,2.177516222E0,4.853534698E-1,4.771573067E0
3.491005011E0,2.508305311E0,4.219059944E-1,4.729647160E0
3.496055376E0,2.825098991E0,4.034690857E-1,4.818841457E0
3.501105792E0,2.932225704E0,4.997081757E-1,4.968013763E0
3.506156209E0,3.010698795E0,5.997323990E-1,5.091926575E0
3.511206626E0,2.989500523E0,9.338092804E-1,5.186203003E0
3.516257147E0,2.835114241E0,1.286373854E0,5.116294861E0
3.521307563E0,2.635345459E0,1.655661345E0,5.098302841E0
3.526357980E0,2.336089611E0,2.078418970E0,5.028974533E0
3.531408397E0,2.081582546E0,2.402236223E0,5.072206497E0
3.536458813E0,1.884337902E0,2.682487726E0,4.882618904E0
3.541509230E0,1.892496586E0,2.738168478E0,4.760224342E0
3.546559647E0,1.890994310E0,2.889494896E0,4.572497845E0
3.551610063E0,1.962907791E0,3.130365372E0,4.323842049E0
3.556660480E0,1.942020893E0,3.369441509E0,3.976197243E0
3.561710897E0,2.053862333E0,3.453894138E0,3.563745499E0
3.566761313E0,2.296360493E0,3.415668488E0,3.173011303E0
3.571811730E0,2.384635448E0,3.465509892E0,2.897382498E0
3.576862199E0,2.205551624E0,3.476109028E0,2.614859104E0
3.581912615E0,1.909778595E0,3.493683338E0,2.437591553E0
3.586963032E0,1.627778530E0,3.484432697E0,2.326397419E0
3.592013449E0,1.399095535E0,3.471482992E0,2.222020626E0
3.597063865E0,1.164543152E0,3.450485229E0,1.976064682E0
3.602114282E0,1.058874607E0,3.372955799E0,1.704495907E0
3.607164699E0,1.106121063E0,3.144326448E0,1.507663250E0
3.612215115E0,1.257004738E0,2.860563517E0,1.318456173E0
3.617265532E0,1.467097282E0,2.595908403E0,1.138075829E0
3.622315949E0,1.687403679E0,2.441621304E0,9.792757034E-1
3.627366365E0,1.833076954E0,2.350095272E0,7.663111687E-1
3.632416782E0,1.874577045E0,2.220511436E0,5.135493279E-1
3.637467251E0,1.907508850E0,2.012122631E0,1.483693123E-1
3.642517667E0,1.933647633E0,1.724694729E0,-2.971692085E-1
3.647568084E0,1.878484249E0,1.442671776E0,-7.432851791E-1
3.652618501E0,1.797931671E0,1.252888680E0,-1.067274570E0
3.657668917E0,1.614144325E0,1.158646107E0,-1.271472931E0
3.662719334E0,1.390557766E0,1.109739780E0,-1.363261223E0
3.667769751E0,1.126992226E0,1.202940464E0,-1.301892757E0
3.672820167E0,9.192733765E-1,1.389827728E0,-1.156446457E0
3.677870584E0,7.825946808E-1,1.594212770E0,-1.089835644E0
3.682921001E0,6.998996735E-1,1.744933128E0,-1.160861969E0
3.687971417E0,6.193971634E-1,1.902092218E0,-1.514013767E0
3.693021834E0,5.350928307E-1,1.974933147E0,-2.156241894E0
3.698072303E0,3.720712662E-1,1.984987974E0,-2.805246830E0
3.703122719E0,1.700625420E-1,1.927924156E0,-3.153091431E0
3.708173136E0,1.536893845E-2,1.780083179E0,-3.017529964E0
3.713223553E0,-4.500102997E-2,1.662397861E0,-2.039374352E0
3.718273969E0,-7.548189163E-2,1.532209158E0,-2.376222610E-2
3.723324386E0,1.080884933E-1,1.307813406E0,1.641177654E0
3.728374803E0,9.289836884E-2,7.353610992E-1,1.205739021E0
3.733425219E0,-5.601081848E-1,1.779146194E-1,-2.191213131E0
3.738475636E0,-1.804060459E0,-8.350615501E-1,-7.899618149E0
3.743526053E0,-3.425615788E0,-2.640897274E0,-1.380584526E1
3.748576469E0,-6.040281296E0,-4.680982113E0,-1.461973190E1
3.753626886E0,-9.493396759E0,-6.289968014E0,-2.377616405E0
3.758677355E0,-8.452900887E0,-7.786312103E0,1.169420052E1
3.763727772E0,-3.589291096E0,-9.402530670E0,1.291726303E1
3.768778188E0,-2.281187057E0,-1.073920631E1,4.104377270E0
3.773828605E0,-3.204700470E0,-1.173630333E1,-3.250880718E0
3.778879022E0,-3.203024387E0,-1.182888222E1,-4.823429108E0
3.783929438E0,-1.960572243E0,-1.048340034E1,-2.672835350E0
3.788979855E0,-1.760142326E0,-7.669744015E0,-3.863501549E-1
3.794030272E0,-3.147137642E0,-3.919997215E0,1.363581657E0
3.799080688E0,-4.204391956E0,-4.078507423E-1,3.248915195E0
3.804131105E0,-4.605470657E0,1.916763783E0,4.203971863E0
3.809181522E0,-4.888468742E0,2.845495224E0,3.276100636E0
3.814231938E0,-4.211746216E0,2.647861958E0,1.365513802E0
3.819282407E0,-2.348470688E0,1.796357155E0,2.313041687E-2
3.824332824E0,-3.620433807E-1,8.287353516E-1,1.280250549E-1
3.829383240E0,1.209158421E0,-7.042026520E-2,6.560053825E-1
3.834433657E0,2.413812637E0,-9.325060844E-1,3.295879364E-1
3.839484074E0,3.345581055E0,-1.851642132E0,9.552683830E-1
3.844534490E0,3.986933470E0,-2.848712444E0,2.078875065E0
3.849584907E0,4.118647575E0,-3.825789928E0,2.625738144E0
3.854635324E0,4.147598743E0,-4.774688244E0,2.890877247E0
3.859685740E0,4.344543457E0,-5.679985523E0,3.104394913E0
3.864736157E0,4.686421871E0,-6.539757252E0,3.094456196E0
3.869786574E0,4.879299164E0,-7.229627609E0,2.489787340E0
3.874836990E0,4.868268013E0,-7.644830704E0,1.664726257E0
3.879887459E0,4.264887810E0,-7.794990063E0,1.553647518E0
3.884937876E0,3.218888283E0,-7.352669716E0,1.843855858E0
3.889988292E0,2.188505650E0,-6.552695751E0,2.058905125E0
3.895038709E0,1.680463791E0,-5.486026287E0,2.112975597E0
3.900089126E0,1.392245293E0,-4.360731125E0,2.011356354E0
3.905139542E0,1.120643616E0,-3.186073303E0,1.969928265E0
3.910190011E0,8.471319675E-1,-2.076788902E0,1.973341942E0
3.915240428E0,5.490996838E-1,-1.062125206E0,2.148149490E0
3.920290844E0,1.818435192E-1,-2.616863251E-1,2.145439386E0
3.925341261E0,-1.515552998E-1,5.155968666E-1,1.993870497E0
3.930391678E0,-2.809801102E-1,1.088565826E0,1.761469841E0
3.935442094E0,-3.107757568E-1,1.485529423E0,1.548931122E0
3.940492563E0,-2.418458462E-1,1.701642513E0,1.307341099E0
3.945542980E0,-1.556963921E-1,1.760794163E0,1.171174526E0
3.950593397E0,-1.911900043E-1,1.665374756E0,9.875965118E-1
3.955643813E0,-2.633173466E-1,1.562707424E0,9.362130165E-1
3.960694230E0,-3.234057426E-1,1.364362240E0,8.818588257E-1
3.965744647E0,-3.223462105E-1,1.121992111E0,9.236474037E-1
3.970795063E0,-2.469620705E-1,8.358283043E-1,1.178339243E0
3.975845480E0,-1.719524860E-1,5.968523026E-1,1.431071281E0
3.980895897E0,-4.508733749E-2,4.384117126E-1,1.744952679E0
3.985946313E0,1.093990803E-1,2.240037918E-1,2.160139084E0
3.990996730E0,3.139235973E-1,6.605052948E-2,2.570954561E0
3.996047147E0,5.314044952E-1,8.772277832E-2,3.171726227E0
4.001097615E0,9.540657997E-1,5.021095276E-2,3.663376093E0
4.006148032E0,8.988628387E-1,1.788425446E-2,3.703185081E0
4.011198449E0,9.507846832E-1,-1.418399811E-2,3.848588228E0
4.016248865E0,1.445140123E0,-2.294378281E-1,4.283097744E0
4.021299282E0,1.811839104E0,-3.913736343E-1,4.531342506E0
4.026349699E0,1.739518762E0,-4.857606888E-1,4.587677479E0
4.031400167E0,1.448210955E0,-2.609472275E-1,4.469342709E0
4.036450584E0,1.364682436E0,3.086090088E-3,4.146279335E0
4.041501001E0,1.564389944E0,-4.167175293E-2,3.378255844E0
4.046551417E0,1.810802817E0,-1.289634705E-1,2.527425766E0
4.051601886E0,2.047553778E0,-2.188434601E-1,1.830855966E0
4.056652303E0,2.178577423E0,-2.683954239E-1,1.308730602E0
4.061702719E0,2.145606041E0,-3.147153854E-1,1.113220453E0
4.066753136E0,1.942654610E0,-2.434968948E-1,1.267964125E0
4.071803553E0,1.606471062E0,-7.666778564E-2,1.517036796E0
4.076853969E0,1.489383221E0,1.782016754E-1,1.688512087E0
4.081904438E0,1.259082079E0,5.576534271E-1,1.871653080E0
4.086954855E0,1.080283523E0,1.003582954E0,2.061110020E0
4.092005324E0,7.228400111E-1,1.524774551E0,2.133389473E0
4.097055740E0,7.701170444E-2,2.258489609E0,1.338976860E0
4.102106157E0,-6.377974749E-1,3.000493050E0,6.828045845E-2
4.107156574E0,-1.343461514E0,3.642418861E0,-1.348122835E0
4.112207042E0,-2.123905182E0,4.125337601E0,-2.433980942E0
4.117257459E0,-2.718087673E0,4.494693756E0,-3.121194839E0
4.122307876E0,-3.059374094E0,4.571119308E0,-3.375543118E0
4.127358292E0,-3.227393150E0,4.455390930E0,-3.573040485E0
4.132408709E0,-3.264984131E0,4.200137138E0,-3.657659769E0
4.137459126E0,-3.128749609E0,3.737101555E0,-3.608102322E0
4.142509594E0,-2.876980543E0,3.163362503E0,-3.500670433E0
4.147560011E0,-2.440620422E0,2.462405682E0,-3.259967804E0
4.152610428E0,-1.948426723E0,1.759011269E0,-2.913920403E0
4.157660844E0,-1.291853309E0,1.069311142E0,-2.507075787E0
4.162711261E0,-5.967836380E-1,4.284372330E-1,-2.103955507E0
4.167761678E0,6.928980350E-2,-1.343889236E-1,-1.757358074E0
4.172812147E0,6.849600077E-1,-6.511583328E-1,-1.446714163E0
4.177862563E0,1.171569467E0,-1.129867554E0,-1.140998125E0
4.182912980E0,1.643319488E0,-1.462521553E0,-9.622645378E-1
4.187963397E0,1.960053802E0,-1.634783745E0,-8.584511280E-1
4.193013813E0,2.225501537E0,-1.684938431E0,-8.840239048E-1
4.198064230E0,2.383879662E0,-1.565119743E0,-1.022570968E0
4.203114699E0,2.271507740E0,-1.263652802E0,-1.305076599E0
4.208165115E0,2.077718496E0,-9.400959015E-1,-1.710228205E0
4.213215532E0,1.852591038E0,-7.143030167E-1,-2.150871277E0
4.218265949E0,1.670682669E0,-5.755224228E-1,-2.477285147E0
4.223316365E0,1.549193382E0,-5.609169006E-1,-2.642655373E0
4.228366782E0,1.451821089E0,-7.207059860E-1,-2.591184616E0
4.233417251E0,1.493429780E0,-9.806413651E-1,-2.354767799E0
4.238467667E0,1.703842282E0,-1.389841080E0,-2.108435154E0
4.243518084E0,1.972151279E0,-1.747306824E0,-1.889096856E0
4.248568501E0,2.261509895E0,-2.031703949E0,-1.708364248E0
4.253618917E0,2.513061285E0,-2.200152397E0,-1.597920775E0
4.258669334E0,2.626152039E0,-2.283984184E0,-1.492545128E0
4.263719803E0,2.585388899E0,-2.426959991E0,-1.411893249E0
4.268770219E0,2.406211615E0,-2.540558815E0,-1.337091088E0
4.273820636E0,2.109880924E0,-2.661936760E0,-1.238576770E0
4.278871053E0,1.692570448E0,-2.773163795E0,-1.114296675E0
4.283921469E0,1.151311874E0,-2.801248550E0,-9.981245399E-1
4.288971886E0,4.669880867E-1,-2.796385765E0,-8.849917650E-1
4.294022355E0,-6.580302715E-1,-2.725092888E0,-7.018414140E-1
4.299072772E0,-1.723099232E0,-2.704741478E0,-5.398330092E-1
4.304123188E0,-2.748677731E0,-2.933837891E0,-3.339643478E-1
4.309173605E0,-3.767291307E0,-3.326056480E0,-2.305036187E-1
4.314224022E0,-4.573854923E0,-3.851363182E0,-2.558183074E-1
4.319274438E0,-5.054700375E0,-4.463021278E0,-4.605263472E-1
4.324324907E0,-5.050331116E0,-5.192081451E0,-8.836379051E-1
4.329375324E0,-4.729236126E0,-5.911650658E0,-1.360342860E0
4.334425792E0,-4.171778679E0,-6.549966812E0,-1.785804272E0
4.339476209E0,-3.401505232E0,-6.825982094E0,-2.181691647E0
4.344526626E0,-2.737157106E0,-6.673024178E0,-2.390302896E0
4.349577042E0,-2.288132668E0,-6.534097672E0,-2.220937014E0
4.354627511E0,-2.317072630E0,-6.181797028E0,-1.742089748E0
4.359677928E0,-2.505914688E0,-5.756369591E0,-1.229716539E0
4.364728344E0,-2.707685471E0,-5.271059036E0,-5.006743670E-1
4.369778761E0,-2.897647619E0,-4.660132408E0,2.293464690E-1
4.374829178E0,-3.105986118E0,-3.753881454E0,5.609463453E-1
4.379879594E0,-3.457891941E0,-2.392606735E0,6.227070689E-1
4.384930063E0,-3.508525372E0,-1.198084831E0,3.667085469E-1
4.389980480E0,-3.262638330E0,-4.634733200E-1,5.066728592E-2
4.395030897E0,-2.905153275E0,-2.853403091E-1,-3.625602722E-1
4.400081313E0,-2.559953213E0,-4.622707367E-1,-8.674011827E-1
4.405131730E0,-2.209462643E0,-7.572660446E-1,-1.374729514E0
4.410182147E0,-1.880348206E0,-1.098749161E0,-1.849417567E0
4.415232615E0,-1.549949288E0,-1.438068390E0,-2.361498594E0
4.420283032E0,-1.335460544E0,-1.687229156E0,-2.903243542E0
4.425333501E0,-1.233281493E0,-1.830190659E0,-3.446539402E0
4.430383917E0,-1.123429179E0,-1.882062912E0,-3.842041016E0
4.435434334E0,-1.076649189E0,-1.873345375E0,-4.065868378E0
4.440484751E0,-1.061426401E0,-1.871363640E0,-4.219027996E0
4.445535219E0,-1.231246710E0,-2.022268295E0,-4.458828926E0
4.450585636E0,-1.586321235E0,-2.243658066E0,-4.664916992E0
4.455636053E0,-1.899820566E0,-2.529617310E0,-4.750787258E0
4.460686469E0,-2.036558628E0,-2.877584457E0,-4.845547676E0
4.465736886E0,-1.892978430E0,-3.237664223E0,-4.651694775E0
4.470787303E0,-1.539458275E0,-3.441034317E0,-4.132243156E0
4.475837772E0,-1.124029875E0,-3.457576752E0,-3.593564510E0
4.480888188E0,-9.332799911E-2,-3.470074654E0,-3.024354696E0
4.485938605E0,1.261012673E0,-3.714748383E0,-2.260487080E0
4.490989022E0,2.085337162E0,-3.818998337E0,-1.094034433E0
4.496039438E0,2.475047350E0,-3.829953194E0,1.589698792E-1
4.501089855E0,3.027565241E0,-3.794844627E0,1.446837664E0
4.506140324E0,3.551589727E0,-3.635409355E0,2.532145500E0
4.511190740E0,3.642904758E0,-3.421169281E0,3.377797604E0
4.516241157E0,3.581001759E0,-3.163887024E0,4.016932487E0
4.521291574E0,3.406650305E0,-2.947397232E0,4.613905907E0
4.526341990E0,3.054590702E0,-2.726324081E0,5.309776306E0
4.531392407E0,2.576126099E0,-2.588197708E0,6.036997318E0
4.536442876E0,2.129331350E0,-2.548119545E0,6.991208553E0
4.541493292E0,1.834311485E0,-2.691324234E0,8.054683685E0
4.546543761E0,1.399574637E0,-2.850161552E0,9.045999527E0
4.551594178E0,9.060720205E-1,-2.907455444E0,9.638276100E0
4.556644647E0,6.373226643E-1,-2.920781136E0,9.940851212E0
4.561695063E0,2.797920704E-1,-2.758059502E0,9.813162804E0
4.566745480E0,-6.208825111E-2,-2.511300087E0,9.296113014E0
4.571795897E0,-3.257894516E-1,-2.134805679E0,8.589816093E0
4.576846313E0,-5.476379395E-1,-1.754017830E0,7.392939568E0
4.581896730E0,-5.853207111E-1,-1.375220299E0,5.813509941E0
4.586947199E0,-5.132012367E-1,-1.077836990E0,4.372704983E0
4.591997615E0,-2.553963661E-1,-8.593263626E-1,2.849388838E0
4.597048032E0,3.459954262E-2,-7.685542107E-1,1.224621296E0
4.602098449E0,4.894983768E-1,-7.411317825E-1,-8.419227600E-2
4.607148865E0,9.200673103E-1,-6.215543747E-1,-1.181121349E0
4.612199282E0,1.466035604E0,-4.641690254E-1,-1.967785835E0
4.617249751E0,1.878216743E0,-1.945371628E-1,-2.324661255E0
4.622300167E0,2.147007465E0,1.895012856E-1,-2.389147282E0
4.627350584E0,2.236188889E0,7.769651413E-1,-1.866929054E0
4.632401001E0,2.143811226E0,1.360229492E0,-8.940405846E-1
4.637451469E0,2.083308458E0,1.851118565E0,5.432920456E-1
4.642501886E0,2.001254559E0,2.359705448E0,2.099472523E0
4.647552355E0,2.044117451E0,2.754387379E0,3.631230354E0
4.652602772E0,2.086160183E0,3.213088989E0,4.868173599E0
4.657653188E0,2.089914322E0,3.728776455E0,5.812474251E0
4.662703605E0,2.094924927E0,4.116019249E0,6.255069733E0
4.667754022E0,2.182753563E0,4.469873428E0,6.314619064E0
4.672804438E0,2.335345268E0,4.760833740E0,6.124827862E0
4.677854907E0,2.366752625E0,5.093668461E0,5.871856213E0
4.682905324E0,2.537260771E0,5.191221714E0,5.584455490E0
4.687955740E0,2.635019779E0,5.199659824E0,5.310112953E0
4.693006157E0,2.692346334E0,5.100387573E0,5.182029724E0
4.698056574E0,2.668202162E0,4.937088966E0,5.106594086E0
4.703106990E0,2.499260902E0,4.709113121E0,5.045134068E0
4.708157459E0,2.203442812E0,4.445881844E0,4.979355812E0
4.713207876E0,1.972887993E0,4.200424671E0,4.966106415E0
4.718258292E0,1.813601017E0,3.865763426E0,4.849248886E0
4.723308709E0,1.712315083E0,3.444342136E0,4.820700645E0
4.728359178E0,1.527596474E0,3.100905418E0,4.775956631E0
4.733409594E0,1.388231754E0,2.778678417E0,4.772375584E0
4.738460063E0,1.244302034E0,2.663353443E0,4.923226833E0
4.743510480E0,1.378181219E0,2.547307968E0,5.075886726E0
4.748560897E0,1.517458677E0,2.483625889E0,5.140787125E0
4.753611313E0,1.430524349E0,2.573938131E0,5.063641548E0
4.758661730E0,1.295519590E0,2.660837173E0,4.871728420E0
4.763712147E0,1.080727339E0,2.795517445E0,4.513312340E0
4.768762615E0,8.433358669E-1,2.912549257E0,4.226367474E0
4.773813032E0,5.959944725E-1,3.019943953E0,3.755533695E0
4.778863449E0,4.447760582E-1,3.138547897E0,3.330385685E0
4.783913865E0,4.613795280E-1,3.278781414E0,2.959471226E0
4.788964282E0,7.186260223E-1,3.326927662E0,2.593649387E0
4.794014699E0,1.126337051E0,3.272450924E0,2.121636868E0
4.799065167E0,1.559709311E0,3.095708847E0,1.684347153E0
4.804115584E0,2.121651173E0,2.802316427E0,1.251142025E0
4.809166001E0,2.458199501E0,2.604632378E0,8.918805122E-1
4.814216417E0,2.515113115E0,2.475233555E0,6.225395203E-1
4.819266834E0,2.380003691E0,2.351809978E0,4.121699333E-1
4.824317251E0,2.069834709E0,2.328365326E0,1.165885925E-1
4.829367719E0,1.672263145E0,2.311953545E0,-4.152717590E-1
4.834418136E0,1.382133961E0,2.259445667E0,-1.290486813E0
4.839468553E0,1.177552462E0,2.117983341E0,-2.477014065E0
4.844518969E0,9.690833092E-1,2.027515411E0,-3.412154198E0
4.849569386E0,7.691636086E-1,1.921731472E0,-3.467639923E0
4.854619803E0,8.324728012E-1,1.846983910E0,-2.747210503E0
4.859670272E0,9.401481152E-1,1.823623180E0,-1.687396526E0
4.864720688E0,7.017643452E-1,1.727142334E0,-1.164063931E0
4.869771105E0,4.363536835E-2,1.613935471E0,-3.247454643E0
4.874821522E0,-1.299779892E0,1.326838493E0,-8.320644379E0
4.879871990E0,-3.220828533E0,5.012249947E-1,-1.564125824E1
4.884922407E0,-4.930181980E0,-7.316756248E-1,-1.789463425E1
4.889972876E0,-7.940230846E0,-1.405946732E0,-6.625814915E0
4.895023292E0,-8.114715576E0,-3.570080280E0,6.044659138E0
4.900073709E0,-5.500187874E0,-6.755180836E0,9.108242989E0
4.905124126E0,-3.423872948E0,-9.366743088E0,4.302487373E0
4.910174542E0,-2.225197315E0,-1.153813934E1,-1.610483646E0
4.915224959E0,-2.660419464E0,-1.284004593E1,-4.034510136E0
4.920275428E0,-3.817842960E0,-1.325527287E1,-4.145806789E0
4.925325844E0,-3.690007687E0,-1.273331261E1,-2.719744205E0
4.930376261E0,-2.548573017E0,-1.052723503E1,9.257531166E-1
4.935426678E0,-8.952264786E-1,-5.971651077E0,4.757683754E0
4.940477094E0,3.062844276E-2,-1.384855270E0,5.054973602E0
4.945527511E0,-4.071450233E-1,2.019976139E0,3.788889408E0
4.950577980E0,-1.339111567E0,4.401786327E0,3.516499996E0
4.955628397E0,-2.163204432E0,5.912067890E0,2.838682652E0
4.960678813E0,-2.371677876E0,6.337053776E0,1.849534035E0
4.965729230E0,-1.959855318E0,5.814228058E0,1.118996620E0
4.970779699E0,-5.561969280E-1,4.809179306E0,7.005257607E-1
4.975830115E0,1.183569431E0,3.496562481E0,1.190212727E0
4.980880584E0,2.141358376E0,2.040410519E0,1.626583576E0
4.985931001E0,2.533253670E0,4.079113007E-1,1.604862213E0
4.990981417E0,2.802727222E0,-1.319887161E0,1.696616173E0
4.996031834E0,2.772200346E0,-2.863580704E0,2.382218361E0
5.001082251E0,2.448387623E0,-4.133981705E0,2.739377260E0
5.006132667E0,1.799461961E0,-5.137192249E0,2.227876186E0
5.011183136E0,9.166278839E-1,-5.748022079E0,1.409359455E0
5.016233553E0,-1.363804340E-1,-5.923879623E0,9.678764343E-1
5.021283969E0,-9.697270393E-1,-5.803007603E0,8.546109200E-1
5.026334386E0,-1.436013460E0,-5.446843147E0,9.253597260E-1
5.031384803E0,-1.590817690E0,-4.784563541E0,1.191022873E0
5.036435219E0,-1.655244827E0,-3.814839840E0,1.431770325E0
5.041485688E0,-1.702789068E0,-2.609700680E0,1.437262535E0
5.046536105E0,-1.684378386E0,-1.344826221E0,1.204081535E0
5.051586522E0,-1.576652050E0,-1.958298683E-1,8.566107750E-1
5.056636938E0,-1.328776836E0,6.856288910E-1,5.683698654E-1
5.061687407E0,-1.159830332E0,1.417043209E0,2.685985565E-1
5.066737824E0,-8.447525501E-1,1.927712440E0,1.357660294E-1
5.071788292E0,-4.887104034E-1,2.231896400E0,1.028704643E-1
5.076838709E0,-1.026694775E-1,2.260065556E0,2.258591652E-1
5.081889126E0,2.901380062E-1,2.109897614E0,5.631842613E-1
5.086939542E0,6.178898811E-1,1.696070671E0,9.372053146E-1
5.091989959E0,9.370257854E-1,1.190416336E0,1.315559387E0
5.097040376E0,1.258656740E0,5.533418655E-1,1.670443058E0
5.102090844E0,1.694942236E0,-7.046031952E-2,2.079714775E0
5.107141261E0,2.199757338E0,-7.427148819E-1,2.498549461E0
5.112191678E0,2.577526093E0,-1.247937202E0,2.678270817E0
5.117242094E0,2.753625870E0,-1.625732422E0,2.685194254E0
5.122292563E0,2.822098494E0,-1.834574699E0,2.482039452E0
5.127342980E0,2.837606668E0,-1.922656059E0,2.092394352E0
5.132393449E0,2.860515356E0,-1.878215790E0,1.599598885E0
5.137443865E0,2.798926592E0,-1.632002831E0,1.170602798E0
5.142494282E0,2.570793152E0,-1.286746025E0,9.054546356E-1
5.147544699E0,2.191145420E0,-7.585086823E-1,5.632190704E-1
5.152595167E0,1.646811604E0,-1.679954529E-1,2.312510014E-1
5.157645584E0,1.258026361E0,3.306436539E-1,1.926946640E-2
5.162696053E0,8.101334572E-1,8.107318878E-1,-2.216892242E-1
5.167746469E0,3.591994047E-1,1.195980072E0,-2.218725681E-1
5.172796886E0,5.234909058E-2,1.455432415E0,-5.059528351E-2
5.177847303E0,-3.238718510E-1,1.610548973E0,-2.393722534E-3
5.182897772E0,-5.723417997E-1,1.624057770E0,5.591130257E-2
5.187948188E0,-8.379755020E-1,1.573567390E0,2.477099895E-1
5.192998657E0,-1.059541225E0,1.413376808E0,4.856948853E-1
5.198049074E0,-1.022262692E0,1.163554192E0,5.218334198E-1
5.203099490E0,-9.965440035E-1,9.746541977E-1,5.366365910E-1
5.208149907E0,-7.732781172E-1,7.435598373E-1,6.074655056E-1
5.213200376E0,-4.680395126E-1,5.074768066E-1,8.038790226E-1
5.218250792E0,-2.255927324E-1,4.027652740E-1,1.050601482E0
5.223301261E0,1.204320192E-1,3.922500610E-1,1.370304346E0
5.228351678E0,4.549051523E-1,4.807920456E-1,1.705143213E0
5.233402094E0,6.500694752E-1,6.396608353E-1,2.052454948E0
5.238452511E0,8.497274518E-1,7.803564072E-1,2.261249781E0
5.243502928E0,9.375190735E-1,9.389324188E-1,2.390112400E0
5.248553344E0,8.858170509E-1,1.164464951E0,2.382957458E0
5.253603813E0,7.488349676E-1,1.373193741E0,2.244558096E0
5.258654230E0,5.948874950E-1,1.525522232E0,1.914754629E0
5.263704647E0,3.978160024E-1,1.706414223E0,1.519685507E0
5.268755063E0,2.175279260E-1,1.766131401E0,9.898024797E-1
5.273805532E0,1.694744825E-2,1.838710785E0,3.834052086E-1
5.278855949E0,-1.490210295E-1,1.870223045E0,-1.789782047E-1
5.283906417E0,-2.243684530E-1,1.925360680E0,-7.353990078E-1
5.288956834E0,-2.732974887E-1,1.952834129E0,-1.027604818E0
5.294007251E0,-2.398138642E-1,1.934930801E0,-1.166495800E0
5.299057667E0,-2.408582568E-1,1.881605148E0,-1.400858521E0
5.304108136E0,-3.521260023E-1,1.846817970E0,-1.601454020E0
5.309158553E0,-5.139350891E-1,1.740921974E0,-1.827122450E0
5.314209022E0,-7.703505754E-1,1.676478386E0,-1.985776305E0
5.319259438E0,-1.012988567E0,1.634320259E0,-2.068218708E0
5.324309855E0,-1.225282431E0,1.526045799E0,-2.094311953E0
5.329360272E0,-1.368815660E0,1.423542023E0,-2.071461678E0
5.334410740E0,-1.504680276E0,1.341267586E0,-2.100784302E0
5.339461157E0,-1.576783538E0,1.197937965E0,-2.134768963E0
5.344511626E0,-1.637576342E0,1.125201225E0,-2.220086575E0
5.349562042E0,-1.634554148E0,1.066783905E0,-2.325730801E0
5.354612459E0,-1.639404774E0,1.014255524E0,-2.565150738E0
5.359662876E0,-1.672298312E0,8.873567581E-1,-2.895756006E0
5.364713344E0,-1.692316771E0,7.411031723E-1,-3.230668783E0
5.369763761E0,-1.668506384E0,4.761047363E-1,-3.590450048E0
5.374814230E0,-1.515998363E0,2.348251343E-1,-3.858615398E0
5.379864647E0,-1.296278954E0,-1.047897339E-1,-3.960775852E0
5.384915063E0,-1.080402851E0,-4.682626724E-1,-3.732964993E0
5.389965480E0,-8.083182573E-1,-7.023582458E-1,-3.330530167E0
5.395015949E0,-4.597373605E-1,-9.446487427E-1,-2.797822475E0
5.400066365E0,-1.125627756E-2,-1.008265495E0,-2.125691414E0
5.405116834E0,3.658525348E-1,-1.000925064E0,-1.472219586E0
5.410167251E0,6.857572198E-1,-8.352384567E-1,-8.587844372E-1
5.415217667E0,8.769840002E-1,-6.094293594E-1,-3.723084927E-1
5.420268084E0,9.006798267E-1,-3.116378784E-1,4.920220375E-2
5.425318553E0,8.744862080E-1,-4.726791382E-2,3.446627259E-1
5.430368969E0,7.916533351E-1,2.063312531E-1,4.235824943E-1
5.435419438E0,6.225717068E-1,3.401689529E-1,3.729537129E-1
5.440469855E0,4.154406190E-1,3.063793182E-1,1.183886528E-1
5.445520272E0,2.076278925E-1,1.277875900E-1,-1.312294006E-1
5.450570688E0,5.881261826E-2,-3.247232437E-1,-4.852292538E-1
5.455621157E0,2.287030220E-4,-8.523149490E-1,-8.545697927E-1
5.460671574E0,1.856591702E-1,-1.411831856E0,-1.131436586E0
5.465722042E0,5.428895950E-1,-1.979236603E0,-1.404407501E0
5.470772459E0,8.562075496E-1,-2.389366150E0,-1.655367613E0
5.475822876E0,1.037046432E0,-2.765549660E0,-1.876031876E0
5.480873292E0,9.925977588E-1,-3.039643288E0,-2.008407831E0
5.485923761E0,7.005085945E-1,-3.336215973E0,-2.044095516E0
5.490974178E0,3.980194628E-1,-3.548794746E0,-1.924620748E0
5.496024647E0,1.297866702E-1,-3.709841728E0,-1.612858772E0
5.501075063E0,-1.419069767E-1,-3.860166550E0,-1.174651623E0
5.506125480E0,-4.702428579E-1,-3.977133751E0,-7.219108343E-1
5.511175897E0,-9.473895431E-1,-4.145819664E0,-3.564766645E-1
5.516226365E0,-1.546565771E0,-4.569619179E0,-1.796838641E-1
5.521276782E0,-2.316754818E0,-5.086822510E0,4.827293754E-2
5.526327251E0,-2.785759926E0,-5.706904411E0,5.347142816E-1
5.531377667E0,-3.030697584E0,-6.217968941E0,1.121399403E0
5.536428084E0,-2.940563440E0,-6.517198563E0,1.489321828E0
5.541478501E0,-2.720848560E0,-6.397820473E0,1.561934829E0
5.546528969E0,-2.545221567E0,-6.095990181E0,1.129096985E0
5.551579386E0,-2.300112963E0,-5.906176567E0,5.302917361E-1
5.556629855E0,-1.897220016E0,-5.986049652E0,1.016287506E-1
5.561680272E0,-1.573358774E0,-5.804070473E0,-2.110963613E-1
5.566730688E0,-1.379534602E0,-5.553102493E0,-5.864017606E-1
5.571781105E0,-1.374834299E0,-5.102788925E0,-1.134803176E0
5.576831574E0,-1.594905019E0,-4.385190964E0,-1.844538808E0
5.581882042E0,-1.942967653E0,-3.455723763E0,-2.492685556E0
5.586932459E0,-2.344562292E0,-2.457136154E0,-3.073025703E0
5.591982876E0,-2.485504150E0,-1.636074066E0,-3.549901009E0
5.597033292E0,-2.471532822E0,-1.061801910E0,-3.903189421E0
5.602083761E0,-2.415730000E0,-7.903680801E-1,-4.342669964E0
5.607134178E0,-2.276419163E0,-7.881059647E-1,-4.789985180E0
5.612184647E0,-2.190335274E0,-9.173650742E-1,-5.264857292E0
5.617235063E0,-1.978432059E0,-1.100502968E0,-5.614216805E0
5.622285480E0,-1.855053306E0,-1.224171638E0,-5.924354553E0
5.627335897E0,-1.777889729E0,-1.262580872E0,-6.172756672E0
5.632386365E0,-1.661586404E0,-1.192422867E0,-6.406320572E0
5.637436782E0,-1.550418377E0,-1.047858238E0,-6.566417217E0
5.642487251E0,-1.429631114E0,-9.229373932E-1,-6.724820614E0
5.647537667E0,-1.464158654E0,-6.831712723E-1,-6.894367695E0
5.652588084E0,-1.455373049E0,-5.555229187E-1,-6.946976662E0
5.657638501E0,-1.312602997E0,-5.367422104E-1,-6.714840412E0
5.662688969E0,-1.217554688E0,-6.950712204E-1,-6.399547577E0
5.667739386E0,-1.269499898E0,-1.117722511E0,-5.841682434E0
5.672789855E0,-1.318937302E0,-1.831863403E0,-5.104029655E0
5.677840272E0,-1.368107796E0,-2.639452934E0,-4.129014969E0
5.682890688E0,-1.266202092E0,-3.457020760E0,-2.941320658E0
5.687941105E0,-1.007232428E0,-4.083448410E0,-1.712454796E0
5.692991574E0,-8.138713837E-1,-4.361901283E0,-3.582684994E-1
5.698041990E0,-5.885772705E-1,-4.216114998E0,7.088913918E-1
5.703092459E0,3.424718380E-1,-4.345953941E0,1.635093927E0
5.708142876E0,1.049705505E0,-4.573542595E0,2.897696495E0
5.713193292E0,1.190039277E0,-4.684688568E0,3.883120537E0
5.718243709E0,1.370203018E0,-4.680193901E0,4.637437344E0
5.723294178E0,1.807032824E0,-4.384454727E0,4.937825203E0
5.728344594E0,2.133140564E0,-3.821091652E0,5.105539322E0
5.733395063E0,2.458511829E0,-3.145231247E0,5.450356483E0
5.738445480E0,2.608052731E0,-2.592163086E0,5.900835037E0
5.743495897E0,2.614346027E0,-2.077940941E0,6.169531345E0
5.748546313E0,2.461036921E0,-1.774996758E0,6.468410015E0
5.753596782E0,2.212499857E0,-1.574557304E0,6.835396767E0
5.758647251E0,1.972172737E0,-1.359388351E0,7.145183086E0
5.763697719E0,1.760827661E0,-1.307299614E0,7.569145679E0
5.768748136E0,1.350594044E0,-1.234465599E0,7.710979462E0
5.773798553E0,9.981306791E-1,-1.098213196E0,7.673336506E0
5.778848969E0,5.539025068E-1,-8.786191940E-1,7.616814137E0
5.783899438E0,8.675432205E-2,-7.605075836E-1,7.100092888E0
5.788949855E0,-2.518978119E-1,-6.761598587E-1,6.333140850E0
5.794000324E0,-3.653879166E-1,-6.892061234E-1,5.218452454E0
5.799050740E0,-3.930428028E-1,-6.561079025E-1,3.808473110E0
5.804101157E0,-3.351316452E-1,-5.843210220E-1,2.123107910E0
5.809151574E0,-2.913236618E-1,-5.027761459E-1,3.588218689E-1
5.814202042E0,-1.535680294E-1,-3.861923218E-1,-1.516419888E0
5.819252459E0,2.817873955E-1,-5.330791473E-1,-2.965159893E0
5.824302928E0,7.259471416E-1,-5.120019913E-1,-3.546203613E0
5.829353344E0,1.076368570E0,-3.306784630E-1,-3.310177803E0
5.834403761E0,1.442976713E0,-1.450047493E-1,-2.327118397E0
5.839454178E0,1.652751923E0,1.961059570E-1,-9.071006775E-1
5.844504647E0,1.701546907E0,5.495634079E-1,7.857260704E-1
5.849555063E0,1.728110552E0,9.732084274E-1,2.493112564E0
5.854605532E0,1.695728540E0,1.356820107E0,4.044578552E0
5.859655949E0,1.664534330E0,1.858112335E0,5.298697472E0
5.864706365E0,1.557923079E0,2.367388725E0,6.078917027E0
5.869756782E0,1.431246281E0,3.023288727E0,6.589259624E0
5.874807251E0,1.237099886E0,3.536115170E0,6.767107487E0
5.879857667E0,1.113636494E0,3.905134678E0,6.650679111E0
5.884908136E0,1.002851963E0,4.166057587E0,6.396565437E0
5.889958553E0,9.676980972E-1,4.463827133E0,5.984426975E0
5.895008969E0,9.927916527E-1,4.710188866E0,5.591445923E0
5.900059386E0,9.431159496E-1,4.982678413E0,5.171975613E0
5.905109855E0,1.051168919E0,5.020658493E0,4.848665237E0
5.910160272E0,1.145390987E0,5.063764095E0,4.452749252E0
5.915210740E0,1.136183500E0,5.297047615E0,4.173577309E0
5.920261157E0,1.375699282E0,5.170335293E0,4.053816319E0
5.925311574E0,1.498166800E0,4.848053455E0,4.020073891E0
5.930361990E0,1.640871525E0,4.300495148E0,4.079167843E0
5.935412459E0,1.833039999E0,3.869145393E0,4.314313889E0
5.940462876E0,1.976704597E0,3.355272293E0,4.689825058E0
5.945513344E0,2.207480192E0,2.977082729E0,4.853386402E0
5.950563761E0,2.227939129E0,2.737219810E0,4.744491577E0
5.955614178E0,2.404985905E0,2.454539537E0,4.543755531E0
5.960664594E0,2.578995705E0,2.271695614E0,4.096755981E0
5.965715063E0,2.493149519E0,2.268738270E0,3.541679859E0
5.970765480E0,2.201584816E0,2.405927181E0,3.130838394E0
5.975815949E0,2.089514732E0,2.456291914E0,3.042071342E0
5.980866365E0,1.814669847E0,2.567467928E0,2.992254734E0
5.985916782E0,1.534658909E0,2.775421619E0,2.881359100E0
5.990967199E0,1.342542171E0,3.065351248E0,2.732890129E0
5.996017667E0,1.265703678E0,3.272180557E0,2.578138351E0
6.001068084E0,1.351478100E0,3.338769913E0,2.297796249E0
6.006118553E0,1.346292496E0,3.364609003E0,1.986150265E0
6.011168969E0,1.299805403E0,3.339853764E0,1.593910694E0
6.016219386E0,1.204137802E0,3.313195229E0,1.043245316E0
6.021269803E0,1.133750916E0,3.145521164E0,3.629589081E-1
6.026320272E0,1.000414371E0,2.988466740E0,-4.337000847E-1
6.031370688E0,8.331289291E-1,2.876068592E0,-8.344173431E-1
6.036421157E0,7.946867943E-1,2.817028284E0,-9.154090881E-1
6.041471574E0,7.445406914E-1,2.708127022E0,-1.542510509E0
6.046521990E0,7.128939629E-1,2.511691570E0,-3.735606194E0
6.051572407E0,4.779386520E-2,2.374385357E0,-6.848487854E0
6.056622876E0,-1.649524212E0,2.015149117E0,-1.032454872E1
6.061673292E0,-3.499413013E0,1.392917156E0,-1.063289547E1
6.066723761E0,-4.892925262E0,1.034581184E0,-4.323354721E0
6.071774178E0,-4.613672256E0,2.972822189E-1,5.242992401E0
6.076824594E0,-2.845019817E0,-2.014080048E0,8.207136154E0
6.081875011E0,-2.263041973E0,-5.014704704E0,2.148102760E0
6.086925480E0,-3.082599640E0,-8.176409721E0,-6.536345482E0
6.091975897E0,-4.557088852E0,-1.158548832E1,-1.140699005E1
6.097026365E0,-5.325002670E0,-1.526457405E1,-1.114651680E1
6.102076782E0,-3.993376732E0,-1.828916359E1,-6.505441189E0
6.107127199E0,-1.437530518E0,-1.905857468E1,1.267323017E0
6.112177667E0,1.069609165E0,-1.551144695E1,8.525765419E0
6.117228084E0,3.562190056E0,-9.157411575E0,9.757835388E0
6.122278553E0,3.748795748E0,-3.808239937E0,7.779227257E0
6.127329022E0,2.561281681E0,3.588814735E-1,5.929379463E0
6.132379438E0,1.169155359E0,3.418306351E0,5.128319740E0
6.137429855E0,1.579399109E-1,5.603717804E0,4.463719845E0
6.142480324E0,-6.878728867E-1,7.008042336E0,2.600840092E0
6.147530740E0,-1.297479391E0,7.466434479E0,3.174118996E-1
6.152581157E0,-1.168228626E0,6.841150761E0,-7.546219826E-1
6.157631626E0,-5.842678547E-1,5.709924698E0,-5.130405426E-1
6.162682042E0,1.411800385E-1,4.610463142E0,6.381492615E-1
6.167732459E0,8.403999805E-1,3.673491001E0,1.810079575E0
6.172782928E0,1.276153803E0,2.813748360E0,2.647133827E0
6.177833344E0,1.172454238E0,1.914391041E0,2.759879827E0
6.182883761E0,5.776116848E-1,1.019354343E0,2.343498945E0
6.187934230E0,-2.323219776E-1,1.274814606E-1,1.678479195E0
6.192984647E0,-9.686310291E-1,-7.134699821E-1,7.971696854E-1
6.198035063E0,-1.495188713E0,-1.603602409E0,-1.268897057E-1
6.203085532E0,-1.687858343E0,-2.614613533E0,-7.845997810E-1
6.208135949E0,-1.696626663E0,-3.654319763E0,-9.915800095E-1
6.213186417E0,-1.521138668E0,-4.491694450E0,-8.527431488E-1
6.218236886E0,-1.099821091E0,-4.948464394E0,-3.986582756E-1
6.223287303E0,-5.084712505E-1,-5.009605408E0,2.943096161E-1
6.228337719E0,1.868813038E-1,-4.610155106E0,1.062251091E0
6.233388188E0,8.077013493E-1,-3.926017761E0,1.779117346E0
6.238438605E0,1.345410824E0,-3.128434181E0,2.269383669E0
6.243489022E0,1.827936172E0,-2.400710106E0,2.347790241E0
6.248539490E0,2.037184954E0,-1.667471886E0,2.156182766E0
6.253589907E0,2.111509085E0,-1.054433823E0,1.976383209E0
6.258640324E0,2.120153189E0,-6.312141418E-1,1.880794048E0
6.263690792E0,2.016537666E0,-2.832183838E-1,1.673841000E0
6.268741209E0,1.833330035E0,-6.588935852E-2,1.358750343E0
6.273791678E0,1.625646114E0,2.053928375E-2,1.114579201E0
6.278842147E0,1.386106014E0,4.417991638E-2,8.903264999E-1
6.283892563E0,1.021230936E0,3.475189209E-2,5.980510712E-1
6.288942980E0,8.492032290E-1,-7.602310181E-2,4.224276543E-1
6.293993449E0,7.026441097E-1,-2.054872513E-1,4.050340652E-1
6.299043865E0,5.794332027E-1,-3.788890839E-1,4.932076931E-1
6.304094282E0,5.290043354E-1,-4.728984833E-1,5.596992970E-1
6.309144751E0,5.365754366E-1,-4.396629333E-1,7.252962589E-1
6.314195167E0,5.195515156E-1,-4.214048386E-1,9.724290371E-1
6.319245584E0,4.479887486E-1,-4.251823425E-1,1.118885517E0
6.324296053E0,4.513984919E-1,-3.239669800E-1,1.403349876E0
6.329346469E0,2.975276709E-1,-1.802492142E-1,1.284053564E0
6.334396938E0,1.281228065E-1,1.024532318E-1,1.081556559E0
6.339447407E0,5.722856522E-2,3.394479752E-1,8.862855434E-1
6.344497824E0,5.411541462E-2,5.006275177E-1,7.753157616E-1
6.349548240E0,3.982067108E-2,6.827545166E-1,6.332385540E-1
6.354598709E0,2.287375927E-2,8.270120621E-1,4.810454845E-1
6.359649126E0,1.898825169E-2,9.274024963E-1,3.155140877E-1
6.364699594E0,-4.605948925E-2,1.025767326E0,1.982016563E-1
6.369750063E0,-1.178809404E-1,1.114909172E0,2.141373158E-1
6.374800480E0,-1.944144964E-1,1.221314430E0,3.494203091E-1
6.379850897E0,-2.490799427E-1,1.299612999E0,5.319428444E-1
6.384901365E0,-2.097198963E-1,1.389553070E0,7.334415913E-1
6.389951782E0,-5.624139309E-2,1.457946777E0,9.697974920E-1
6.395002199E0,6.192660332E-2,1.528972626E0,1.285653830E0
6.400052667E0,2.955728769E-1,1.540663719E0,1.561677933E0
6.405103084E0,5.206186771E-1,1.417787552E0,1.656869173E0
6.410153501E0,6.613100767E-1,1.387832642E0,1.783229709E0
6.415203969E0,7.676486373E-1,1.402753830E0,1.668435097E0
6.420254386E0,8.462896943E-1,1.398921967E0,1.513553739E0
6.425304855E0,8.847033978E-1,1.506689072E0,1.235524774E0
6.430355324E0,8.456267715E-1,1.609748840E0,9.477934837E-1
6.435405740E0,7.931950092E-1,1.849258423E0,7.370083332E-1
6.440456157E0,6.402709484E-1,2.001397610E0,5.360090733E-1
6.445506626E0,4.371781945E-1,2.182419777E0,3.899803162E-1
6.450557042E0,1.150773168E-1,2.416354179E0,3.029061556E-1
6.455607511E0,-2.448415756E-1,2.544057846E0,1.594710350E-1
6.460657980E0,-6.094810963E-1,2.676858902E0,1.725673676E-2
6.465708397E0,-9.950628877E-1,2.685573578E0,-2.016817331E-1
6.470758813E0,-1.328228831E0,2.506800652E0,-5.466378927E-1
6.475809282E0,-1.571679115E0,2.241155624E0,-9.629315138E-1
6.480859699E0,-1.739889979E0,1.941318035E0,-1.358883142E0
6.485910115E0,-1.715829134E0,1.523526192E0,-1.761262417E0
6.490960584E0,-1.593632936E0,1.047834396E0,-2.168822289E0
6.496011001E0,-1.382718563E0,5.814666748E-1,-2.426274776E0
6.501061417E0,-9.671033025E-1,1.174869537E-1,-2.606342793E0
6.506111886E0,-5.552264452E-1,-2.265758514E-1,-2.722189903E0
6.511162303E0,-1.112093925E-1,-4.135131836E-1,-2.790460825E0
6.516212824E0,2.145124078E-1,-4.421310425E-1,-2.835904598E0
6.521263292E0,3.141806722E-1,-3.304853439E-1,-2.861422062E0
6.526313709E0,3.056859374E-1,-9.552764893E-2,-2.782190561E0
6.531364126E0,1.876595020E-1,2.624893188E-1,-2.638950109E0
6.536414594E0,-1.164859533E-2,5.339937210E-1,-2.487918615E0
6.541465011E0,-2.506975532E-1,8.074951172E-1,-2.255733490E0
6.546515428E0,-4.030801058E-1,1.011135101E0,-2.021320343E0
6.551565897E0,-5.540547371E-1,1.210696220E0,-1.832380533E0
6.556616313E0,-6.443215013E-1,1.371399879E0,-1.615502000E0
6.561666730E0,-6.434950233E-1,1.498061180E0,-1.509653330E0
6.566717199E0,-5.501442552E-1,1.522503853E0,-1.396136045E0
6.571767615E0,-4.840483069E-1,1.460427284E0,-1.379125237E0
6.576818084E0,-3.673704267E-1,1.264088631E0,-1.385522008E0
6.581868553E0,-2.206507921E-1,1.006660461E0,-1.352061510E0
6.586918969E0,-9.283900261E-3,6.571474075E-1,-1.384342194E0
6.591969386E0,1.800853014E-1,3.006172180E-1,-1.436732411E0
6.597019855E0,3.549611568E-1,-2.003974915E-1,-1.542883158E0
6.602070272E0,4.239216447E-1,-5.813255310E-1,-1.663058519E0
6.607120740E0,4.378778338E-1,-9.235954285E-1,-1.735135317E0
6.612171209E0,3.774053454E-1,-1.167401314E0,-1.807130814E0
6.617221626E0,2.626354694E-1,-1.390570641E0,-1.933172584E0
6.622272094E0,1.330760717E-1,-1.651700020E0,-1.997605801E0
6.627322511E0,7.350385189E-2,-1.887272835E0,-2.058632374E0
6.632372928E0,3.806924820E-2,-2.129565239E0,-2.081949949E0
6.637423397E0,5.616605282E-2,-2.330660820E0,-2.150556087E0
6.642473865E0,-4.214328527E-2,-2.509778976E0,-2.180468559E0
6.647524334E0,-1.458963156E-1,-2.699250221E0,-2.269504786E0
6.652574751E0,-2.551742196E-1,-2.881165504E0,-2.314135551E0
6.657625167E0,-2.325454950E-1,-3.051976204E0,-2.221790791E0
6.662675584E0,-1.646501422E-1,-3.180611610E0,-2.068522453E0
6.667726053E0,1.654845476E-2,-3.259955406E0,-1.801546335E0
6.672776522E0,2.366378307E-1,-3.370236397E0,-1.444475293E0
6.677826938E0,4.874694943E-1,-3.572466850E0,-1.085595131E0
6.682877407E0,7.345079184E-1,-3.821136475E0,-6.426377296E-1
6.687927824E0,8.703371286E-1,-4.063582420E0,-2.803607285E-1
6.692978240E0,8.908109069E-1,-4.286726952E0,-9.614378214E-3
6.698028657E0,8.953894377E-1,-4.380622864E0,3.301394880E-1
6.703079126E0,9.381212592E-1,-4.365843773E0,8.365842700E-1
6.708129542E0,9.720077515E-1,-4.430357933E0,1.258781314E0
6.713180011E0,8.037861586E-1,-4.486730576E0,1.517053366E0
6.718230428E0,3.778532147E-1,-4.725158691E0,1.534214497E0
6.723280844E0,-2.362924218E-1,-5.212460518E0,1.218317151E0
6.728331313E0,-9.468663931E-1,-5.875414848E0,5.537969470E-1
6.733381782E0,-1.575550795E0,-6.558310509E0,-1.933141649E-1
6.738432199E0,-2.035355568E0,-7.142695427E0,-7.801663876E-1
6.743482667E0,-2.334839344E0,-7.445693970E0,-1.269480705E0
6.748533084E0,-2.402788162E0,-7.410231590E0,-1.566527486E0
6.753583501E0,-2.380478382E0,-6.949357033E0,-1.745281100E0
6.758634022E0,-2.421789169E0,-6.221492767E0,-1.926339269E0
6.763684490E0,-2.621006489E0,-5.150481224E0,-2.124694824E0
6.768734907E0,-2.968397856E0,-4.087443352E0,-2.278621912E0
6.773785376E0,-3.071803093E0,-3.227544785E0,-2.448637009E0
6.778835792E0,-2.912544966E0,-2.501275063E0,-2.563894033E0
6.783886209E0,-2.709196091E0,-1.749479294E0,-2.827456713E0
6.788936678E0,-2.537289858E0,-1.081222534E0,-3.113333225E0
6.793987147E0,-2.258314848E0,-5.779457092E-1,-3.372069120E0
6.799037563E0,-2.089522600E0,-1.164131165E-1,-3.690742254E0
6.804088032E0,-2.035955906E0,2.421808243E-1,-4.016366005E0
6.809138449E0,-1.962195635E0,4.844789505E-1,-4.292531967E0
6.814188865E0,-1.939257860E0,6.091432571E-1,-4.616136074E0
6.819239282E0,-1.930029750E0,8.528118134E-1,-4.844737053E0
6.824289751E0,-2.159223080E0,1.192241669E0,-4.996898651E0
6.829340167E0,-2.353959084E0,1.566090584E0,-4.916138649E0
6.834390636E0,-2.574226141E0,1.777965546E0,-4.946205139E0
6.839441053E0,-2.766965389E0,1.724855423E0,-5.203509331E0
6.844491469E0,-2.882102013E0,1.325114250E0,-5.620372772E0
6.849541938E0,-2.854247093E0,6.454801559E-1,-6.008390903E0
6.854592407E0,-2.589447021E0,-2.255239487E-1,-5.906253338E0
6.859642824E0,-2.071794510E0,-1.202596664E0,-5.325090408E0
6.864693292E0,-1.464164019E0,-2.252928734E0,-4.511542320E0
6.869743709E0,-6.892061234E-1,-3.226152420E0,-3.556721449E0
6.874794126E0,3.703634739E-1,-4.121124268E0,-2.359362841E0
6.879844594E0,1.066494942E0,-4.916121483E0,-7.789859772E-1
6.884895063E0,1.879115582E0,-5.487412453E0,9.247257710E-1
6.889945480E0,2.809672356E0,-5.727189064E0,2.104237556E0
6.894995949E0,3.451498270E0,-5.638162613E0,2.841490269E0
6.900046365E0,3.967401028E0,-5.413852692E0,3.317464828E0
6.905096782E0,4.340855598E0,-5.000364304E0,3.577228546E0
6.910147251E0,4.582372665E0,-4.535778999E0,3.550171137E0
6.915197719E0,4.770987511E0,-4.074480057E0,3.554403782E0
6.920248136E0,4.723177910E0,-3.571565628E0,3.668926239E0
6.925298605E0,4.431058884E0,-3.146043777E0,3.901279688E0
6.930349022E0,3.964132786E0,-2.801164627E0,4.133656502E0
6.935399438E0,3.462843418E0,-2.573672295E0,4.414318085E0
6.940449907E0,2.735116959E0,-2.313624382E0,4.843897820E0
6.945500376E0,1.927389979E0,-1.961184502E0,5.135209560E0
6.950550792E0,1.158643484E0,-1.728897095E0,5.340869904E0
6.955601261E0,4.726696014E-1,-1.499924660E0,5.602718830E0
6.960651678E0,-6.687211990E-2,-1.264665604E0,5.839124680E0
6.965702094E0,-4.863901138E-1,-1.006527901E0,5.948695660E0
6.970752615E0,-7.459647655E-1,-7.902650833E-1,5.764617443E0
6.975803084E0,-8.430378437E-1,-4.877529144E-1,5.418381691E0
6.980853501E0,-8.838515282E-1,-1.843900681E-1,4.941973686E0
6.985903969E0,-8.732604980E-1,3.811168671E-2,4.365011692E0
6.990954386E0,-9.245269299E-1,2.354869843E-1,3.748802423E0
6.996004803E0,-9.238138199E-1,3.847074509E-1,3.364176035E0
7.001055219E0,-9.461848736E-1,5.936765671E-1,2.979461193E0
7.006105688E0,-8.970963955E-1,8.135333061E-1,2.524880886E0
7.011156105E0,-7.686433792E-1,9.561018944E-1,1.873480797E0
7.016206574E0,-6.378486156E-1,1.134503841E0,1.105931759E0
7.021256990E0,-2.393612862E-1,1.226612568E0,2.395081520E-1
7.026307407E0,2.392981052E-1,1.248467922E0,-3.460717201E-1
7.031357876E0,7.386152744E-1,1.319306850E0,-6.937193871E-1
7.036408344E0,1.184098959E0,1.332067966E0,-5.973186493E-1
7.041458761E0,1.367905378E0,1.377780437E0,-1.298065186E-1
7.046509230E0,1.499468327E0,1.375348091E0,6.658482552E-1
7.051559647E0,1.540085793E0,1.334991455E0,1.664958954E0
7.056610063E0,1.413939238E0,1.245366573E0,2.694252729E0
7.061660532E0,1.174028158E0,1.315894604E0,3.786458015E0
7.066711001E0,9.116003513E-1,1.363828182E0,4.753472805E0
7.071761417E0,6.396601200E-1,1.448461533E0,5.525413990E0
7.076811886E0,2.619385719E-1,1.597890377E0,5.911883354E0
7.081862303E0,4.308223724E-3,1.711355209E0,6.084156990E0
7.086912719E0,-1.309523582E-1,1.871231079E0,5.984116077E0
7.092002667E0,-1.464395523E-1,1.986180782E0,5.918756485E0
7.097053084E0,-8.468341827E-2,2.111423492E0,5.836802483E0
7.102103553E0,1.647667885E-1,2.298326015E0,5.702190399E0
7.107153969E0,4.254024029E-1,2.653858662E0,5.343688965E0
7.112204438E0,8.903284073E-1,2.893620968E0,4.966157913E0
7.117254855E0,1.373560429E0,3.255612612E0,4.602080822E0
7.122265844E0,1.820470810E0,3.618822575E0,4.373059750E0
7.127316313E0,2.191309690E0,3.958954096E0,4.126532078E0
7.132366730E0,2.605284214E0,4.180511475E0,3.990610123E0
7.137417199E0,2.796428680E0,4.486354828E0,3.858262062E0
7.142467615E0,2.822261810E0,4.741455078E0,3.818123817E0
7.147518084E0,2.818060875E0,4.807435989E0,3.831792831E0
7.152568501E0,2.770481586E0,4.878437519E0,3.742726326E0
7.157618969E0,2.769144773E0,4.891156673E0,3.689982891E0
7.162669386E0,2.700174332E0,4.910190582E0,3.562564135E0
7.167719855E0,2.621994972E0,4.876581669E0,3.412555218E0
7.172770272E0,2.498039246E0,4.827151299E0,3.338063002E0
7.177820740E0,2.466990471E0,4.647071362E0,3.377776623E0
7.182871157E0,2.280424356E0,4.379907608E0,3.369432449E0
7.187921626E0,2.154987097E0,3.992357016E0,3.295487404E0
7.192972042E0,2.147679329E0,3.606340885E0,3.163984776E0
7.198022511E0,2.104465008E0,3.253894806E0,2.894714832E0
7.203072928E0,2.020290613E0,2.979274273E0,2.558528423E0
7.208123397E0,1.912844896E0,2.723635435E0,2.062413216E0
7.213173813E0,1.748864651E0,2.565865993E0,1.542325497E0
7.218224282E0,1.548768759E0,2.395863533E0,1.039547443E0
7.223274699E0,1.425397873E0,2.308427334E0,7.109103203E-1
7.228325167E0,1.294600487E0,2.241328716E0,5.262084007E-1
7.233375584E0,1.150484085E0,2.213778973E0,3.448991776E-1
7.238426053E0,9.441521168E-1,2.234729767E0,-1.642417908E-1
7.243476469E0,6.253857613E-1,2.178372383E0,-8.359260559E-1
7.248526938E0,1.701083183E-1,2.052737713E0,-2.659003258E0
7.253577355E0,-2.785429955E-1,1.933272362E0,-4.436832428E0
7.258627824E0,-1.076625347E0,1.884140015E0,-6.042149544E0
7.263678240E0,-2.472293854E0,1.692291260E0,-7.473079205E0
7.268728709E0,-4.050698757E0,1.210951328E0,-7.931797981E0
7.273779126E0,-5.417624474E0,6.142730713E-1,-5.691278934E0
7.278829594E0,-5.827622414E0,-5.990042686E-1,-5.388674736E-1
7.283880011E0,-4.752475739E0,-2.978038788E0,3.871056557E0
7.288930480E0,-3.891430140E0,-5.892337322E0,3.030975342E0
7.293980897E0,-3.581727982E0,-8.770286560E0,-2.436399937E0
7.299031365E0,-3.362317085E0,-1.150034046E1,-7.708575249E0
7.304081782E0,-2.621478319E0,-1.394315529E1,-8.263923645E0
7.309132251E0,-1.745994329E0,-1.540703106E1,-6.018735409E0
7.314182667E0,-8.470344543E-1,-1.544332218E1,-3.207039356E0
7.319233136E0,3.054141998E-1,-1.348677731E1,6.530518532E-1
7.324283553E0,1.815360785E0,-9.370008469E0,4.180241585E0
7.329334022E0,2.675231457E0,-4.612688065E0,5.165563107E0
7.334384438E0,2.323013306E0,-1.000566959E0,4.710983753E0
7.339434907E0,1.381077290E0,1.553697586E0,4.200980186E0
7.344485324E0,3.749821186E-1,3.400863886E0,3.600090265E0
7.349535792E0,-3.719542027E-1,4.588602066E0,2.912826777E0
7.354586209E0,-7.969901562E-1,5.053278923E0,1.891895056E0
7.359636678E0,-8.743488789E-1,5.033329487E0,9.783396721E-1
7.364687147E0,-6.403207779E-1,4.668651104E0,6.491580009E-1
7.369737615E0,-3.625140190E-1,4.035535336E0,6.557989120E-1
7.374788032E0,-2.026584148E-1,3.305489540E0,7.543988228E-1
7.379838501E0,-8.923387527E-2,2.376109600E0,9.601106644E-1
7.384888917E0,6.331872940E-2,1.292918682E0,1.091596127E0
7.389939386E0,1.288244724E-1,1.075835228E-1,1.259318352E0
7.394989803E0,7.841730118E-2,-1.124792576E0,1.467824459E0
7.400040272E0,-6.805205345E-2,-2.226955414E0,1.662956715E0
7.405090688E0,-3.240153790E-1,-3.051757812E0,1.803057671E0
7.410141157E0,-6.025652885E-1,-3.591334820E0,1.599463701E0
7.415191574E0,-7.870919704E-1,-3.812673569E0,1.176034689E0
7.420242042E0,-7.873268127E-1,-3.758082390E0,7.376203537E-1
7.425292459E0,-6.861882210E-1,-3.435365677E0,5.618891716E-1
7.430342928E0,-5.680832863E-1,-2.971879005E0,7.424879074E-1
7.435393344E0,-5.506696701E-1,-2.388286591E0,1.222481728E0
7.440443813E0,-5.943512917E-1,-1.891961098E0,1.735542774E0
7.445494230E0,-6.229860783E-1,-1.443086624E0,2.085762024E0
7.450544699E0,-6.364827156E-1,-1.017440796E0,2.289490938E0
7.455595167E0,-5.892829895E-1,-6.366481781E-1,2.372027874E0
7.460645636E0,-4.598560333E-1,-3.245935440E-1,2.441019773E0
7.465696053E0,-3.043351173E-1,-1.531734467E-1,2.439165115E0
7.470746522E0,-2.418212891E-1,2.707195282E-2,2.409626961E0
7.475796938E0,-2.291455269E-1,1.463842392E-1,2.320072412E0
7.480847407E0,-3.229651451E-1,1.612472534E-1,2.088593006E0
7.485897824E0,-3.016190529E-1,1.241903305E-1,1.951343060E0
7.490948292E0,-2.463335991E-1,7.585906982E-2,1.899847507E0
7.495998709E0,-1.518449783E-1,-4.380702972E-2,1.891204596E0
7.501049178E0,-9.097051620E-2,-2.025756836E-1,1.814344406E0
7.506099594E0,-9.018421173E-2,-3.109655380E-1,1.701199293E0
7.511150063E0,-8.124351501E-3,-4.493579865E-1,1.542635918E0
7.516200532E0,1.223144531E-1,-5.519876480E-1,1.360740423E0
7.521251001E0,1.919307709E-1,-7.157373428E-1,1.134134293E0
7.526301417E0,2.971920967E-1,-8.530769348E-1,8.330378532E-1
7.531351886E0,4.164404869E-1,-8.500213623E-1,4.538106918E-1
7.536402303E0,5.287439823E-1,-7.473087311E-1,1.078813076E-1
7.541452772E0,5.085102320E-1,-5.055208206E-1,-2.384133339E-1
7.546503188E0,5.040235519E-1,-2.670593262E-1,-5.649204254E-1
7.551553657E0,5.749638081E-1,-3.298664093E-2,-6.577985287E-1
7.556604074E0,6.626663208E-1,2.125663757E-1,-5.780591965E-1
7.561654542E0,7.729533911E-1,4.588813782E-1,-6.442964077E-1
7.566704959E0,7.632536888E-1,8.433990479E-1,-7.853999138E-1
7.571755428E0,8.802238703E-1,1.091872215E0,-8.634550571E-1
7.576805897E0,9.325081110E-1,1.364645004E0,-8.891050816E-1
7.581856365E0,9.973376989E-1,1.608823776E0,-8.453094959E-1
7.586906782E0,1.096156001E0,1.777728081E0,-7.522640228E-1
7.591957251E0,1.290410042E0,1.876087189E0,-6.073858738E-1
7.597007667E0,1.484732866E0,1.915826797E0,-3.829770088E-1
7.602058136E0,1.636183262E0,1.922090530E0,-1.937747002E-1
7.607108605E0,1.800613165E0,1.796759129E0,1.133608818E-1
7.612159074E0,1.892363310E0,1.695476532E0,4.569623470E-1
7.617209490E0,1.935128689E0,1.548808098E0,8.092854023E-1
7.622259959E0,2.025222778E0,1.312516212E0,1.134490490E0
7.627310376E0,2.120890617E0,1.100391388E0,1.376367927E0
7.632360844E0,2.217572212E0,9.256162643E-1,1.641377449E0
7.637411313E0,2.303193569E0,7.451114655E-1,1.729831457E0
7.642461782E0,2.346841335E0,5.075817108E-1,1.788035870E0
7.647512199E0,2.397940874E0,3.639774323E-1,1.870978951E0
7.652562667E0,2.336155415E0,2.113828659E-1,1.863958001E0
7.657613136E0,2.228053093E0,1.192884445E-1,1.777807951E0
7.662663553E0,2.018132210E0,1.140012741E-1,1.520604134E0
7.667713969E0,1.812195778E0,7.466793060E-2,1.160907149E0
7.672764438E0,1.426649094E0,1.533012390E-1,6.691153049E-1
7.677814855E0,9.670190811E-1,3.485240936E-1,1.485568285E-1
7.682865324E0,4.802339375E-1,6.303682327E-1,-3.497310877E-1
7.687915792E0,3.222447634E-2,8.791685104E-1,-8.201265335E-1
7.692966209E0,-4.404239655E-1,1.068696022E0,-1.277276158E0
7.698016678E0,-8.989663720E-1,1.267166138E0,-1.693580389E0
7.703067147E0,-1.310265183E0,1.494875908E0,-2.034631968E0
7.708117563E0,-1.689404488E0,1.656025887E0,-2.368516445E0
7.713168032E0,-2.002560616E0,1.764962196E0,-2.716222286E0
7.718218501E0,-2.282970190E0,1.825261116E0,-2.933635712E0
7.723268917E0,-2.553138494E0,1.877647400E0,-3.007563114E0
7.728319386E0,-2.732590675E0,1.832451820E0,-2.926462650E0
7.733369855E0,-2.731485844E0,1.716170311E0,-2.729087353E0
7.738420272E0,-2.746039391E0,1.665328979E0,-2.477010965E0
7.743470740E0,-2.699439764E0,1.592534065E0,-2.293583155E0
7.748521209E0,-2.613112688E0,1.527744293E0,-2.017377377E0
7.753571626E0,-2.528760672E0,1.424308777E0,-1.823269129E0
7.758622094E0,-2.405482531E0,1.351611137E0,-1.683262587E0
7.763672563E0,-2.219704866E0,1.194782257E0,-1.603043914E0
7.768722980E0,-1.940487623E0,1.040052414E0,-1.561948180E0
7.773773449E0,-1.570947886E0,9.030256271E-1,-1.514460564E0
7.778823917E0,-1.072418451E0,7.478799820E-1,-1.543367624E0
7.783874334E0,-6.520324349E-1,6.105785370E-1,-1.591567755E0
7.788924803E0,-2.420562506E-1,5.545930862E-1,-1.599696875E0
7.793975272E0,1.490726471E-1,4.495048523E-1,-1.578074694E0
7.799025688E0,3.522881567E-1,2.559528351E-1,-1.512655020E0
7.804076157E0,4.655044079E-1,7.221603394E-2,-1.520069122E0
7.809126626E0,5.834909678E-1,-1.483736038E-1,-1.435359478E0
7.814177042E0,6.869436502E-1,-4.428434372E-1,-1.343712807E0
7.819227511E0,8.621022105E-1,-7.166385651E-1,-1.327392578E0
7.824277980E0,1.088064313E0,-1.054690361E0,-1.191296816E0
7.829328397E0,1.312881708E0,-1.343251228E0,-1.021678448E0
7.834378865E0,1.457143784E0,-1.508180618E0,-8.617487550E-1
7.839429334E0,1.514790416E0,-1.559205055E0,-7.831886411E-1
7.844479751E0,1.443992972E0,-1.471353531E0,-8.145009875E-1
7.849530219E0,1.330924153E0,-1.326160431E0,-8.811572790E-1
7.854580688E0,1.162461758E0,-1.245720863E0,-1.023771524E0
7.859631105E0,1.022388458E0,-1.274222374E0,-1.194402218E0
7.864681574E0,8.449749351E-1,-1.411545753E0,-1.370238662E0
7.869732042E0,6.650055051E-1,-1.563053131E0,-1.519314647E0
7.874782459E0,4.157184362E-1,-1.770627975E0,-1.709743381E0
7.879832928E0,1.211552620E-1,-1.989966393E0,-1.895648241E0
7.884883397E0,-2.547999024E-1,-2.262923241E0,-2.049139261E0
7.889933813E0,-6.618018150E-1,-2.583463669E0,-2.208082438E0
7.894984282E0,-1.007337332E0,-2.860650063E0,-2.253471136E0
7.900034751E0,-1.235012650E0,-3.050292015E0,-2.108685493E0
7.905085167E0,-1.237629652E0,-3.238679886E0,-1.851773024E0
7.910135636E0,-1.115514398E0,-3.374403954E0,-1.495745301E0
7.915186105E0,-8.396919370E-1,-3.689620018E0,-1.201305628E0
7.920236522E0,-5.821647644E-1,-4.105160713E0,-1.056534529E0
7.925286990E0,-3.588245511E-1,-4.601778984E0,-9.289426804E-1
7.930337459E0,-1.872002482E-1,-4.879164696E0,-6.199939847E-1
7.935387876E0,1.063764095E-1,-5.211576462E0,-2.394998670E-1
7.940438344E0,3.013526797E-1,-5.475684166E0,6.510284543E-2
7.945488813E0,2.842420340E-1,-5.482487679E0,3.068945408E-1
7.950539230E0,-1.891121268E-1,-5.482306480E0,-1.772995666E-2
7.955589699E0,-7.089602947E-1,-5.529003143E0,-4.337961972E-1
7.960640167E0,-1.214063168E0,-5.599830627E0,-8.182877898E-1
7.965690584E0,-1.498747826E0,-5.557213783E0,-1.216167450E0
7.970741053E0,-1.689357996E0,-5.312774658E0,-1.666671038E0
7.975791522E0,-1.819538474E0,-4.810580254E0,-2.172624350E0
7.980841938E0,-1.943173647E0,-4.249597549E0,-2.606754065E0
7.985892407E0,-2.171487093E0,-3.535487175E0,-2.976074696E0
7.990942876E0,-2.369832516E0,-2.882745743E0,-3.314217091E0
7.995993292E0,-2.573122025E0,-2.394327164E0,-3.563797951E0
8.001043761E0,-2.753923416E0,-1.990078926E0,-3.778048992E0
8.006094230E0,-2.915768385E0,-1.755080223E0,-3.924630642E0
8.011144647E0,-2.885598660E0,-1.683345795E0,-3.886871815E0
8.016195115E0,-2.672348022E0,-1.713837624E0,-3.867366314E0
8.021245584E0,-2.618486404E0,-1.595397949E0,-3.983161449E0
8.026296001E0,-2.320661068E0,-1.474376678E0,-4.201135635E0
8.031346469E0,-2.186670065E0,-1.319978714E0,-4.480614185E0
8.036396938E0,-2.226656437E0,-1.047669411E0,-4.681357861E0
8.041447355E0,-2.190787792E0,-8.050193787E-1,-4.791301727E0
8.046497824E0,-2.261926651E0,-4.342718124E-1,-4.750816345E0
8.051548292E0,-2.373078346E0,9.913349152E-2,-4.539662838E0
8.056598709E0,-2.620917797E0,6.992969513E-1,-4.338184834E0
8.061649178E0,-2.925011396E0,1.181859016E0,-4.254049301E0
8.066699647E0,-2.997387886E0,1.476194382E0,-4.265175819E0
8.071750063E0,-2.903273821E0,1.473608017E0,-4.195786476E0
8.076800532E0,-2.500109434E0,1.120493889E0,-4.158793449E0
8.081851001E0,-1.756876707E0,5.680637360E-1,-3.955586433E0
8.086901417E0,-1.036595106E0,-2.382965088E-1,-3.689226627E0
8.091991365E0,-6.181311607E-2,-1.078143120E0,-3.040893316E0
8.097041782E0,1.077671170E0,-1.859993935E0,-1.796623707E0
8.102092251E0,2.023654938E0,-2.609398842E0,-1.706669331E-1
8.107142719E0,2.850212574E0,-3.421773911E0,1.709851384E0
8.112193136E0,3.454524040E0,-4.024312973E0,3.260074377E0
8.117243605E0,4.108000755E0,-4.353059769E0,4.447643280E0
8.122254594E0,4.561166763E0,-4.277132988E0,5.230725765E0
8.127305063E0,4.795205593E0,-3.989893913E0,5.140331745E0
8.132355480E0,4.833097458E0,-3.537723541E0,4.800806999E0
8.137405949E0,4.888440132E0,-3.125165939E0,4.502120495E0
8.142456417E0,4.695323944E0,-2.724087715E0,4.144825935E0
8.147506834E0,4.386429787E0,-2.473743439E0,3.819426060E0
8.152557303E0,4.021351814E0,-2.341895103E0,3.530662775E0
8.157607772E0,3.789574146E0,-2.444348335E0,3.477774382E0
8.162658240E0,3.401373386E0,-2.575915337E0,3.309281349E0
8.167708657E0,2.792394638E0,-2.552277565E0,2.880465984E0
8.172759126E0,2.165409327E0,-2.419075966E0,2.539583206E0
8.177809594E0,1.332309246E0,-2.161911964E0,2.258185148E0
8.182860063E0,4.296319485E-1,-1.881431580E0,2.121792316E0
8.187910532E0,-2.911660671E-1,-1.682786942E0,2.228566647E0
8.192961001E0,-8.663072586E-1,-1.577661514E0,2.340548992E0
8.198011417E0,-1.240442991E0,-1.542366982E0,2.344608784E0
8.203061886E0,-1.563581944E0,-1.431620598E0,2.258492470E0
8.208112355E0,-1.783371925E0,-1.282569885E0,2.093346596E0
8.213162772E0,-1.793506145E0,-1.171829224E0,1.870825052E0
8.218213240E0,-1.707461357E0,-1.046384811E0,1.668439865E0
8.223263709E0,-1.473772526E0,-9.918975830E-1,1.507143974E0
8.228314126E0,-1.185434818E0,-9.414720535E-1,1.437296867E0
8.233364594E0,-8.497500420E-1,-8.505611420E-1,1.401102781E0
8.238415063E0,-6.080965996E-1,-7.508478165E-1,1.440879822E0
8.243465480E0,-3.233704567E-1,-6.137690544E-1,1.396523714E0
8.248515949E0,-1.807918549E-1,-4.836096764E-1,1.377480984E0
8.253566417E0,-6.160330772E-2,-3.055200577E-1,1.374025822E0
8.258616834E0,-5.759692192E-2,-1.251134872E-1,1.522367001E0
8.263667303E0,-1.141228676E-1,-6.020545959E-3,1.807931900E0
8.268717772E0,-1.852192879E-1,1.005811691E-1,2.355764866E0
8.273768188E0,-2.300953865E-1,1.356296539E-1,2.974692345E0
8.278818657E0,-2.278957367E-1,7.212829590E-2,3.582782269E0
8.283869126E0,-2.253472805E-1,-1.252174377E-3,3.996621609E0
8.288919542E0,-1.962666512E-1,-4.048013687E-2,4.178124905E0
8.293970011E0,2.870559692E-2,-2.065181732E-3,4.249081612E0
8.299020480E0,2.167198658E-1,1.802992821E-1,4.291439056E0
8.304070949E0,4.950773716E-1,5.094594955E-1,4.237545967E0
8.309121417E0,6.860945225E-1,1.030263901E0,4.255152225E0
8.314171886E0,7.937741280E-1,1.590990543E0,4.303436756E0
8.319222303E0,8.171887398E-1,2.176795006E0,4.417875290E0
8.324272772E0,9.140176773E-1,2.583109856E0,4.280781746E0
8.329323240E0,1.043517590E0,2.813907623E0,4.129119873E0
8.334413136E0,1.284337044E0,2.861243248E0,3.818095207E0
8.339463605E0,1.538191795E0,2.866141796E0,3.433551311E0
8.344514022E0,1.738052845E0,2.789235115E0,3.195343494E0
8.349564490E0,1.856987715E0,2.714613438E0,3.117965698E0
8.354614959E0,1.951382399E0,2.563300610E0,3.239605427E0
8.359665376E0,1.932478905E0,2.400634289E0,3.521765947E0
8.364676365E0,1.876397610E0,2.230043650E0,3.752348185E0
8.369726834E0,1.894469500E0,1.992000580E0,4.065497398E0
8.374777303E0,1.870788574E0,1.860400200E0,4.364947319E0
8.379827719E0,1.972082138E0,1.635838985E0,4.577848434E0
8.384878188E0,2.118568182E0,1.479459763E0,4.649130821E0
8.389928657E0,2.106958628E0,1.401429176E0,4.627020836E0
8.394979074E0,2.303254128E0,1.392834187E0,4.483364105E0
8.400029542E0,2.587688923E0,1.434267044E0,4.385780334E0
8.405080011E0,2.821238041E0,1.529007912E0,4.248357773E0
8.410130428E0,2.759105444E0,1.861930370E0,4.048543453E0
8.415180897E0,2.718431473E0,2.281424999E0,3.881901264E0
8.420231365E0,2.656372547E0,2.714570999E0,3.730255604E0
8.425281782E0,2.555208921E0,3.173313856E0,3.482278109E0
8.430332251E0,2.450083494E0,3.511371851E0,3.230224609E0
8.435382719E0,2.261915684E0,3.830552578E0,2.961067915E0
8.440433136E0,2.117873907E0,4.083594799E0,2.681149483E0
8.445483605E0,1.972482443E0,4.192649364E0,2.355868816E0
8.450534074E0,1.775893450E0,4.252099991E0,2.089263916E0
8.455584490E0,1.585865974E0,4.185034752E0,1.850231171E0
8.460634959E0,1.483283997E0,3.971141338E0,1.678891659E0
8.465685428E0,1.405517817E0,3.788394213E0,1.498254299E0
8.470735844E0,1.340826035E0,3.579037905E0,1.229339123E0
8.475786313E0,1.206867456E0,3.370179653E0,8.651957512E-1
8.480836782E0,1.097320557E0,3.087349415E0,4.214391708E-1
8.485887251E0,9.510512352E-1,2.875765800E0,-1.298494339E-1
8.490937719E0,7.382071018E-1,2.700121403E0,-6.709303856E-1
8.495988188E0,4.972186089E-1,2.556364536E0,-1.103476048E0
8.501038605E0,8.289527893E-2,2.474732637E0,-1.509949684E0
8.506089074E0,-3.764567375E-1,2.322842121E0,-2.864779472E0
8.511139542E0,-7.747435570E-1,2.123560905E0,-4.588766098E0
8.516189959E0,-1.764038563E0,1.871123791E0,-6.478158951E0
8.521240428E0,-3.059396267E0,1.256023884E0,-8.818034172E0
8.526290897E0,-4.276389122E0,1.123247147E-1,-1.035113525E1
8.531341313E0,-5.186348438E0,-1.378293991E0,-7.884500027E0
8.536391782E0,-5.562535286E0,-3.155729771E0,-1.460277557E0
8.541442251E0,-5.450042725E0,-4.950375557E0,3.632971525E0
8.546492719E0,-5.229304790E0,-6.704373837E0,3.022483826E0
8.551543188E0,-4.899977207E0,-8.731950760E0,-2.085385799E0
8.556593657E0,-3.695929527E0,-1.063808060E1,-5.468307972E0
8.561644074E0,-2.161614418E0,-1.184184742E1,-4.537615776E0
8.566694542E0,-9.882702827E-1,-1.189890480E1,-3.357568264E0
8.571745011E0,-3.983545303E-2,-1.084811115E1,-2.242578030E0
8.576795428E0,6.378633976E-1,-8.420189857E0,5.189480782E-1
8.581845897E0,1.375578880E0,-4.854697704E0,3.628795147E0
8.586896365E0,1.748511553E0,-1.231373787E0,4.478962421E0
8.591946782E0,1.014624596E0,1.413118839E0,3.688038349E0
8.596997251E0,-7.068204880E-2,3.043064594E0,3.430036306E0
8.602047719E0,-8.129079342E-1,4.097334862E0,2.990362644E0
8.607098136E0,-9.207563400E-1,4.477481365E0,2.297384739E0
8.612148605E0,-7.952113152E-1,4.414011002E0,1.686274529E0
8.617199074E0,-5.399985313E-1,4.003299713E0,1.228023052E0
8.622249490E0,-3.886866570E-1,3.322010994E0,1.408724308E0
8.627299959E0,-3.715107441E-1,2.453119278E0,1.938157320E0
8.632350428E0,-4.592509270E-1,1.445844650E0,2.404759884E0
8.637400897E0,-5.912113190E-1,5.001111031E-1,2.516425848E0
8.642451365E0,-6.559686661E-1,-4.993519783E-1,2.344209194E0
8.647501834E0,-7.335774899E-1,-1.374775410E0,1.916916132E0
8.652552251E0,-8.536584377E-1,-2.113515377E0,1.307957172E0
8.657602719E0,-8.909258842E-1,-2.668616295E0,7.244834900E-1
8.662653188E0,-7.844705582E-1,-2.908777714E0,5.343279839E-1
8.667703657E0,-5.452494621E-1,-2.992261410E0,4.699459076E-1
8.672754126E0,-3.424401283E-1,-2.797548771E0,2.879590988E-1
8.677804594E0,-2.978785038E-1,-2.484507561E0,2.942018509E-1
8.682855063E0,-3.015208244E-1,-2.026339531E0,4.768028259E-1
8.687905480E0,-3.151679039E-1,-1.584198952E0,6.612672806E-1
8.692955949E0,-2.893733978E-1,-1.223728180E0,8.733549118E-1
8.698006365E0,-1.930236816E-1,-9.196605682E-1,1.026635170E0
8.703056834E0,-1.453876495E-2,-6.217613220E-1,1.073446751E0
8.708107303E0,2.540867329E-1,-4.991445541E-1,1.143821239E0
8.713157772E0,5.758712292E-1,-3.687849045E-1,1.224654198E0
8.718208188E0,8.748676777E-1,-3.244714737E-1,1.295870543E0
8.723258657E0,1.079929352E0,-3.595342636E-1,1.207387924E0
8.728309126E0,1.265590429E0,-3.869190216E-1,1.108210325E0
8.733359594E0,1.487233639E0,-4.415445328E-1,1.124159575E0
8.738410063E0,1.604067206E0,-4.432544708E-1,1.299191236E0
8.743460532E0,1.653104663E0,-3.516244888E-1,1.485802174E0
8.748510949E0,1.695509791E0,-3.689851761E-1,1.769595146E0
8.753561417E0,1.702976704E0,-3.073253632E-1,2.144792557E0
8.758611886E0,1.702857614E0,-3.724441528E-1,2.339199543E0
8.763662355E0,1.718621731E0,-4.016046524E-1,2.131070137E0
8.768712824E0,1.702593803E0,-3.602800369E-1,1.745454073E0
8.773763292E0,1.710498691E0,-3.371934891E-1,1.289651155E0
8.778813709E0,1.717564940E0,-1.934490204E-1,8.537616730E-1
8.783864178E0,1.712270021E0,-1.501836777E-1,5.176749229E-1
8.788914647E0,1.681688070E0,-7.390022278E-2,3.582262993E-1
8.793965115E0,1.404168367E0,1.431579590E-1,9.630918503E-2
8.799015584E0,1.120020866E0,2.942094803E-1,1.010355949E-1
8.804066053E0,8.245363235E-1,4.033517838E-1,1.527810097E-1
8.809116469E0,5.653644800E-1,4.840278625E-1,3.154549599E-1
8.814166938E0,2.385485172E-1,6.078824997E-1,2.289710045E-1
8.819217407E0,-6.608700752E-2,7.577810287E-1,-3.032088280E-2
8.824267876E0,-3.030499220E-1,9.500970840E-1,-7.147598267E-2
8.829318344E0,-5.290983915E-1,1.067140579E0,-1.943476200E-1
8.834368813E0,-6.421197653E-1,1.246337891E0,-9.692931175E-2
8.839419230E0,-5.138834715E-1,1.301948547E0,3.089261055E-2
8.844469699E0,-4.148991108E-1,1.333200455E0,6.777477264E-2
8.849520167E0,-3.207807541E-1,1.380561829E0,1.521084309E-1
8.854570636E0,-2.586674690E-1,1.396126747E0,2.840249538E-1
8.859621105E0,-2.927404642E-1,1.297465324E0,5.470612049E-1
8.864671574E0,-1.903675795E-1,1.156647682E0,8.855583668E-1
8.869721990E0,-9.415054321E-2,9.932899475E-1,1.252740622E0
8.874772459E0,8.422744274E-2,8.627004623E-1,1.548591852E0
8.879822928E0,2.896857262E-1,8.212661743E-1,1.715040684E0
8.884873397E0,4.907755852E-1,7.948265076E-1,1.743549347E0
8.889923865E0,7.426835299E-1,8.730649948E-1,1.631828427E0
8.894974334E0,9.254108667E-1,1.013870239E0,1.269371510E0
8.900024751E0,1.098399043E0,1.165534973E0,7.030286789E-1
8.905075219E0,1.148533940E0,1.313640594E0,2.484071255E-1
8.910125740E0,1.102867126E0,1.418704033E0,-1.682183743E-1
8.915176209E0,9.888969660E-1,1.502345085E0,-4.534386396E-1
8.920226678E0,7.883711457E-1,1.604168892E0,-6.337666512E-1
8.925277147E0,5.659855604E-1,1.590167046E0,-8.287523985E-1
8.930327563E0,2.563207746E-1,1.599223137E0,-9.496723413E-1
8.935378032E0,-7.781469822E-2,1.563133240E0,-1.147493482E0
8.940428501E0,-3.549083471E-1,1.442429543E0,-1.363036394E0
8.945478969E0,-5.559005737E-1,1.366437912E0,-1.605687261E0
8.950529438E0,-6.771429777E-1,1.251390457E0,-1.864552259E0
8.955579907E0,-7.533886433E-1,1.118880272E0,-2.047283649E0
8.960630324E0,-8.014847040E-1,1.089862823E0,-2.185441494E0
8.965680792E0,-7.653551102E-1,1.037485123E0,-2.309159756E0
8.970731209E0,-7.815200090E-1,9.761133194E-1,-2.441920519E0
8.975781678E0,-7.866146564E-1,9.297523499E-1,-2.485747576E0
8.980832147E0,-7.827745080E-1,8.254241943E-1,-2.544857740E0
8.985882615E0,-5.598075390E-1,7.195138931E-1,-2.460268021E0
8.990933032E0,-5.082411766E-1,5.451526642E-1,-2.354704142E0
8.995983501E0,-5.213010311E-1,4.615440369E-1,-2.262923002E0
9.001034022E0,-5.280536413E-1,4.925527573E-1,-2.138773680E0
9.006084490E0,-5.154218674E-1,5.675201416E-1,-2.020964146E0
9.011134959E0,-5.572360754E-1,7.318792343E-1,-1.866891623E0
9.016185428E0,-5.527483225E-1,9.018077850E-1,-1.735609412E0
9.021235844E0,-5.676003695E-1,1.033061028E0,-1.585614920E0
9.026286313E0,-5.848777890E-1,1.126896858E0,-1.453038216E0
9.031336782E0,-5.826103091E-1,1.237161636E0,-1.408556461E0
9.036387251E0,-6.179839969E-1,1.239408493E0,-1.442599297E0
9.041437719E0,-5.564870834E-1,1.221044540E0,-1.508314371E0
9.046488188E0,-5.211899281E-1,1.128236771E0,-1.643947244E0
9.051538605E0,-4.309005141E-1,9.945287704E-1,-1.865455031E0
9.056589074E0,-3.082890511E-1,7.971973419E-1,-2.100544453E0
9.061639542E0,-9.893900156E-2,5.446729660E-1,-2.395965099E0
9.066690011E0,2.239926457E-1,2.860784531E-1,-2.671920300E0
9.071740480E0,5.748733282E-1,9.083461761E-2,-2.841727734E0
9.076790949E0,9.718227386E-1,-6.015682220E-2,-2.879306793E0
9.081841365E0,1.374209404E0,-2.373704910E-1,-2.864357710E0
9.086891834E0,1.634458065E0,-3.330011368E-1,-2.798942327E0
9.091981834E0,1.792187333E0,-4.523410797E-1,-2.756030560E0
9.097032303E0,1.814027190E0,-5.797777176E-1,-2.679802656E0
9.102082719E0,1.792350531E0,-7.858371735E-1,-2.599958897E0
9.107133188E0,1.735773444E0,-1.036896706E0,-2.452880859E0
9.112183657E0,1.688222647E0,-1.178556442E0,-2.359598160E0
9.117234126E0,1.679580688E0,-1.315010071E0,-2.296870232E0
9.122245115E0,1.657353520E0,-1.270475388E0,-2.155505419E0
9.127295584E0,1.591920495E0,-1.175569534E0,-1.954767108E0
9.132346053E0,1.442647219E0,-9.992961884E-1,-1.853842020E0
9.137396522E0,1.206625938E0,-9.428377151E-1,-1.834432840E0
9.142446938E0,8.925733566E-1,-1.003724098E0,-1.832883954E0
9.147497407E0,6.035665274E-1,-1.251270294E0,-1.834128380E0
9.152547928E0,2.777068615E-1,-1.565698624E0,-1.747810841E0
9.157598397E0,-2.858364582E-2,-1.935015678E0,-1.633607388E0
9.162648865E0,-2.869529128E-1,-2.293363571E0,-1.334623337E0
9.167699334E0,-3.542291522E-1,-2.590518951E0,-9.278334975E-1
9.172749751E0,-4.730576277E-1,-2.763134956E0,-6.789053679E-1
9.177800219E0,-5.563758016E-1,-2.758747101E0,-2.752811015E-1
9.182850688E0,-6.705948114E-1,-2.606375694E0,1.607127786E-1
9.187901157E0,-7.343550324E-1,-2.486871719E0,6.354774237E-1
9.192951626E0,-9.888715744E-1,-2.355983734E0,9.607894421E-1
9.198002094E0,-1.120487332E0,-2.297529221E0,1.390089512E0
9.203052511E0,-1.086643219E0,-2.392788887E0,1.957400680E0
9.208102980E0,-9.236978292E-1,-2.665484428E0,2.518887997E0
9.213153501E0,-6.407322288E-1,-3.006468773E0,2.838882446E0
9.218203969E0,-5.075393319E-1,-3.334157944E0,2.992809296E0
9.223254438E0,-6.803109050E-1,-3.685631752E0,3.013851881E0
9.228304907E0,-9.515542984E-1,-4.448507309E0,2.937555790E0
9.233355324E0,-1.155241013E0,-5.665458679E0,2.717386246E0
9.238405792E0,-1.508503914E0,-6.972406387E0,2.268777609E0
9.243456261E0,-2.178349972E0,-8.064409256E0,1.495692968E0
9.248506730E0,-2.797003508E0,-8.725413322E0,4.985957742E-1
9.253557199E0,-2.998103857E0,-8.991784096E0,-7.299615145E-1
9.258607667E0,-2.907264709E0,-8.681848526E0,-1.896843433E0
9.263658084E0,-2.720106602E0,-7.788697243E0,-2.947982788E0
9.268708553E0,-2.483509302E0,-6.361754417E0,-3.473142147E0
9.273759074E0,-2.145584583E0,-4.855966568E0,-3.609216452E0
9.278809542E0,-1.844736576E0,-3.424338341E0,-3.560644627E0
9.283860011E0,-1.668897152E0,-2.281991005E0,-3.422272682E0
9.288910480E0,-1.678539515E0,-1.355543137E0,-3.337576151E0
9.293960897E0,-1.692096233E0,-6.483554840E-1,-3.256325245E0
9.299011365E0,-1.626055479E0,-1.841926575E-1,-3.252885342E0
9.304061834E0,-1.534168720E0,1.460599899E-1,-3.335506439E0
9.309112303E0,-1.251675367E0,1.905603409E-1,-3.292801619E0
9.314162772E0,-9.650635719E-1,-1.161499023E-1,-3.457721472E0
9.319213240E0,-6.859189272E-1,-5.499343872E-1,-3.662626266E0
9.324263657E0,-4.196240902E-1,-1.054476738E0,-3.781008720E0
9.329314126E0,-1.698348522E-1,-1.500620842E0,-3.918627977E0
9.334364647E0,9.126734734E-2,-1.752226830E0,-4.088782787E0
9.339415115E0,3.855146170E-1,-1.936533928E0,-4.413783073E0
9.344465584E0,7.338157296E-1,-2.120818138E0,-4.796368599E0
9.349516053E0,1.055282116E0,-2.275326729E0,-5.379093170E0
9.354566469E0,1.544840217E0,-2.333203316E0,-6.232096672E0
9.359616938E0,2.025608063E0,-2.213385582E0,-7.395541668E0
9.364667459E0,2.418044567E0,-2.167586327E0,-8.926235199E0
9.369717928E0,2.850990295E0,-2.165193558E0,-1.051271820E1
9.374768397E0,3.339591503E0,-1.972440720E0,-1.168869019E1
9.379818865E0,3.740198135E0,-1.759101868E0,-1.255793858E1
9.384869282E0,3.803161144E0,-1.746377945E0,-1.269960976E1
9.389919751E0,3.784384489E0,-1.885823250E0,-1.207614326E1
9.394970272E0,3.788272381E0,-2.102255821E0,-1.058648777E1
9.400020740E0,3.544066906E0,-2.140292168E0,-8.289860725E0
9.405071209E0,3.255990982E0,-2.035951614E0,-5.275767326E0
9.410121678E0,3.266208649E0,-1.871904373E0,-1.108139277E0
9.415172094E0,4.002349377E0,-1.705553055E0,3.650455713E0
9.420222563E0,4.952153683E0,-1.599825859E0,6.623717308E0
9.425273032E0,5.272265434E0,-1.690428734E0,7.381810188E0
9.430323501E0,5.108051777E0,-2.057423592E0,6.538865089E0
9.435373969E0,4.960409164E0,-2.476023674E0,5.542568207E0
9.440424438E0,4.543610096E0,-2.726210594E0,5.359326839E0
9.445474855E0,4.203676701E0,-2.961995125E0,6.507758141E0
9.450525324E0,3.789140224E0,-3.050266266E0,8.902383804E0
9.455575844E0,3.102963924E0,-2.864813805E0,1.281422806E1
9.460626313E0,2.515774727E0,-2.288637161E0,1.412549400E1
9.465676782E0,2.169346094E0,-1.774416924E0,1.349034023E1
9.470727251E0,1.752331257E0,-1.269721031E0,1.156924438E1
9.475777667E0,1.248525739E0,-7.773466110E-1,9.029355049E0
9.480828136E0,8.691651821E-1,-2.435083389E-1,6.544887543E0
9.485878657E0,5.141297579E-1,3.861274719E-1,4.705614567E0
9.490929126E0,1.277687550E-1,9.320192337E-1,3.810292959E0
9.495979594E0,-1.262103319E-1,1.434059143E0,3.335039139E0
9.501030063E0,-2.294821739E-1,1.836431503E0,2.777099609E0
9.506080480E0,1.534700394E-2,2.150340557E0,2.273618698E0
9.511130949E0,2.629553080E-1,2.218131542E0,1.776475072E0
9.516181469E0,4.147555828E-1,2.188269615E0,1.204557657E0
9.521231938E0,3.714021444E-1,2.084391594E0,7.564702034E-1
9.526282407E0,3.746640682E-1,1.932671547E0,3.223543167E-1
9.531332876E0,4.598532915E-1,1.857640266E0,-9.219336510E-2
9.536383292E0,4.564623833E-1,2.052592278E0,-2.950685024E-1
9.541433761E0,5.534176826E-1,2.347716331E0,-5.742566586E-1
9.546484282E0,7.517799139E-1,2.681752682E0,-1.263716698E0
9.551534751E0,1.009866476E0,2.915247440E0,-2.839194298E0
9.556585219E0,1.316689968E0,3.010776997E0,-4.822630882E0
9.561635688E0,1.855943322E0,2.926385880E0,-6.040602684E0
9.566686105E0,2.169055462E0,2.895068645E0,-5.577427864E0
9.571736574E0,2.148586988E0,2.821135521E0,-4.101352692E0
9.576787042E0,2.037199259E0,2.802772045E0,-2.376035690E0
9.581837511E0,1.905409575E0,2.968624115E0,-8.460528851E-1
9.586887980E0,2.006501675E0,3.088677406E0,8.644909859E-1
9.591938449E0,2.169797897E0,2.921853542E0,3.143578529E0
9.596988865E0,2.079954624E0,2.731879711E0,4.821259022E0
9.602039334E0,2.000793219E0,2.755586624E0,5.987989902E0
9.607089855E0,1.933848381E0,2.799440384E0,6.783346176E0
9.612140324E0,1.941951871E0,2.761152267E0,7.107770920E0
9.617190792E0,1.807025433E0,2.668648720E0,6.938239098E0
9.622241261E0,1.539275765E0,2.775404930E0,6.947176933E0
9.627291678E0,1.335759401E0,2.920793056E0,6.149427414E0
9.632342147E0,1.643035769E0,2.874385357E0,5.426232338E0
9.637392719E0,1.791581631E0,2.761425972E0,4.335545540E0
9.642443188E0,1.858463764E0,2.529552460E0,3.657976389E0
9.647493657E0,1.939845920E0,2.270519257E0,3.363113403E0
9.652544126E0,1.955207705E0,1.992227554E0,3.128710985E0
9.657594542E0,1.985604882E0,1.787174225E0,2.788064957E0
9.662645011E0,2.074220657E0,1.635596275E0,2.595942259E0
9.667695480E0,2.142118692E0,1.518658161E0,2.428120136E0
9.672745949E0,2.093610048E0,1.512770653E0,2.346103191E0
9.677796417E0,2.001219749E0,1.573195457E0,2.340704918E0
9.682846886E0,1.891763568E0,1.590875626E0,2.438293934E0
9.687897303E0,1.735246420E0,1.631770134E0,2.375625610E0
9.692947772E0,1.482567668E0,1.691236019E0,2.267657280E0
9.697998344E0,1.232019424E0,1.822116852E0,2.244532585E0
9.703048813E0,1.029309273E0,1.997751236E0,2.243084431E0
9.708099282E0,8.853138685E-1,2.173702717E0,2.268204451E0
9.713149751E0,7.619214058E-1,2.365575314E0,2.294531107E0
9.718200219E0,7.585477829E-1,2.621139526E0,2.360329390E0
9.723250636E0,8.930306435E-1,2.815900326E0,2.430795670E0
9.728301105E0,1.061759472E0,2.976202965E0,2.498389959E0
9.733351574E0,1.299966335E0,3.128227234E0,2.516329288E0
9.738402042E0,1.593526363E0,3.138237953E0,2.565331697E0
9.743452511E0,1.921238780E0,3.123616219E0,2.528974771E0
9.748502980E0,2.250035763E0,3.011363506E0,2.391440153E0
9.753553397E0,2.522773027E0,2.868320942E0,2.209143639E0
9.758603969E0,2.725288630E0,2.731378555E0,1.884092808E0
9.763654438E0,2.958039522E0,2.594035149E0,1.485312462E0
9.768704907E0,3.180171490E0,2.271834373E0,9.987311363E-1
9.773755376E0,3.359013557E0,1.889328003E0,5.692477226E-1
9.778805844E0,3.416480064E0,1.414115906E0,-2.433776855E-2
9.783856261E0,3.367788553E0,9.241127968E-1,-5.224328041E-1
9.788906730E0,3.203373671E0,4.586248398E-1,-1.067516327E0
9.793957199E0,2.856485128E0,1.509952545E-2,-1.556922436E0
9.799007667E0,2.179376125E0,-2.299909592E-1,-2.142241955E0
9.804058136E0,1.530959368E0,-4.562482834E-1,-2.801607132E0
9.809108605E0,7.369217873E-1,-6.137723923E-1,-3.465831518E0
9.814159022E0,3.442726135E-1,-6.897554398E-1,-4.171887875E0
9.819209594E0,1.633708477E-1,-7.237653732E-1,-4.783360481E0
9.824260063E0,1.095850468E-1,-8.550672531E-1,-5.318771362E0
9.829310532E0,1.618764400E-1,-8.982410431E-1,-5.694937706E0
9.834361001E0,8.171081543E-3,-6.800842285E-1,-5.721483231E0
9.839411469E0,-2.708625793E-2,-1.604995728E-1,-5.566181183E0
9.844461886E0,-3.574855328E-1,3.764123917E-1,-5.060317039E0
9.849512407E0,-8.035190105E-1,7.706260681E-1,-4.337787628E0
9.854562876E0,-1.497527122E0,8.576593399E-1,-3.587468863E0
9.859613344E0,-2.348075390E0,6.968479156E-1,-2.668861866E0
9.864663813E0,-3.204479694E0,3.906278610E-1,-1.743241549E0
9.869714282E0,-3.915500641E0,5.092716217E-2,-9.716398716E-1
9.874764699E0,-4.350825310E0,-1.816720963E-1,-1.178209782E-1
9.879815219E0,-4.636590004E0,-2.541542053E-1,5.752322674E-1
9.884865688E0,-4.837238312E0,-2.765378952E-1,1.004019022E0
9.889916157E0,-5.184600353E0,8.360099792E-2,1.129202843E0
9.894966626E0,-5.737303734E0,4.759569168E-1,8.075704575E-1
9.900017094E0,-6.435166359E0,8.971099854E-1,-1.183977127E-1
9.905067511E0,-6.921416759E0,9.363861084E-1,-1.538439274E0
9.910118032E0,-6.373214722E0,2.028188705E-1,-2.334165573E0
9.915168501E0,-4.512952805E0,-1.289078712E0,-1.531134844E0
9.920218969E0,-2.484522343E0,-2.651087761E0,1.054777622E0
9.925269438E0,-6.968207359E-1,-3.780780792E0,3.760106087E0
9.930319907E0,4.939930439E-1,-4.677998543E0,5.125496387E0
9.935370324E0,6.828798056E-1,-5.486976624E0,5.189970970E0
9.940420897E0,4.034280777E-3,-6.161330223E0,4.821061134E0
9.945471365E0,-1.082042456E0,-6.618932724E0,3.865290642E0
9.950521834E0,-2.427410841E0,-6.765695572E0,2.451472044E0
9.955572303E0,-3.507757425E0,-6.989357948E0,1.000377417E0
9.960622772E0,-3.660322905E0,-6.945858955E0,5.885229111E-1
9.965673188E0,-2.178900719E0,-6.155896187E0,3.960518837E-1
9.970723709E0,2.659578323E-1,-4.589597702E0,5.934786797E-2
9.975774178E0,2.415067434E0,-2.738849640E0,-2.352137566E-1
9.980824647E0,4.083729267E0,-1.010457993E0,-1.710548401E-1
9.985875115E0,5.752726078E0,5.441732407E-1,2.110083103E-1
9.990925584E0,7.238224030E0,1.775644779E0,1.015506268E0
9.995976001E0,8.103600502E0,2.777585983E0,2.486556768E0
1.000102652E1,8.420236588E0,3.527365685E0,4.061794281E0
1.000607699E1,8.211133003E0,4.029118538E0,5.218230247E0
1.001112746E1,7.869093895E0,4.219634533E0,5.971237183E0
1.001617793E1,7.594769001E0,3.893202305E0,6.506889343E0
1.002122840E1,7.103163719E0,2.778128624E0,6.881807327E0
1.002627881E1,6.341175079E0,9.232883453E-1,7.288529396E0
1.003132939E1,5.695607662E0,-1.312654495E0,7.643485069E0
1.003637986E1,5.259946823E0,-3.640867233E0,7.517320633E0
1.004143032E1,5.071049690E0,-5.854182243E0,6.938364029E0
1.004648079E1,5.527658939E0,-7.631185532E0,7.000408173E0
1.005153126E1,6.425016403E0,-8.660888672E0,7.288006306E0
1.005658168E1,6.779261589E0,-8.207025528E0,6.997441292E0
1.006163220E1,6.159593582E0,-6.420025826E0,5.731168747E0
1.006668267E1,4.768833160E0,-4.207772255E0,3.877705574E0
1.007173314E1,3.069093704E0,-2.718328476E0,2.618612766E0
1.007678361E1,1.612031579E0,-2.036544800E0,1.987980962E0
1.008183407E1,5.899519920E-1,-1.889018059E0,1.657019973E0
1.008688449E1,-4.316020012E-1,-1.756431580E0,1.446802258E0
1.009197454E1,-1.526070237E0,-1.663426399E0,1.185863018E0
1.009702501E1,-2.917962551E0,-1.313950539E0,1.549876928E-1
1.010207548E1,-3.971114159E0,-9.277524948E-1,-1.148289919E0
1.010712590E1,-5.114648342E0,-3.117475510E-1,-2.104002476E0
1.011217636E1,-6.172450542E0,6.152009964E-1,-3.345042706E0
1.011722683E1,-6.500799179E0,1.240768433E0,-4.099700928E0
1.012223788E1,-6.491017342E0,1.715669632E0,-4.474269390E0
1.012728834E1,-6.153710365E0,2.195978165E0,-4.207509041E0
1.013233881E1,-5.621743679E0,2.608880997E0,-3.477540016E0
1.013738928E1,-5.125079632E0,2.864961624E0,-2.899083614E0
1.014243975E1,-4.506371498E0,2.871326447E0,-2.658452988E0
1.014749017E1,-3.760194302E0,2.845009804E0,-2.058012962E0
1.015254074E1,-2.988113642E0,2.731220245E0,-1.270686030E0
1.015759121E1,-2.066253662E0,2.421408176E0,-5.652605891E-1
1.016264168E1,-1.095066786E0,2.060859680E0,1.830576062E-1
1.016769215E1,-1.132799387E-1,1.737331390E0,9.231585860E-1
1.017274262E1,8.634445071E-1,1.392482758E0,1.627707124E0
1.017779303E1,1.557828784E0,1.299324989E0,2.303057194E0
1.018284355E1,2.042150021E0,1.223120689E0,2.856334209E0
1.018789402E1,2.375535488E0,1.205726624E0,3.318002462E0
1.019294449E1,2.539495468E0,1.170454025E0,3.606362343E0
1.019799496E1,2.545540094E0,1.034723282E0,3.893211365E0
1.020304543E1,2.473200798E0,7.758703232E-1,3.839550972E0
1.020809584E1,2.385955334E0,3.820457458E-1,3.321477175E0
1.021314636E1,2.350395203E0,-3.414630890E-2,2.562915802E0
1.021819683E1,2.360939503E0,-3.649692535E-1,1.764847517E0
1.022324730E1,2.324368000E0,-5.457887650E-1,9.324342608E-1
1.022829777E1,2.235784531E0,-5.277404785E-1,1.174291670E-1
1.023334824E1,2.167567968E0,-4.102983475E-1,-6.062313318E-1
1.023839871E1,2.160755157E0,-2.821779251E-1,-1.296869874E0
1.024344923E1,2.133700132E0,-1.828336716E-1,-1.789061785E0
1.024849970E1,2.164190292E0,-1.672563553E-1,-2.089942694E0
1.025355017E1,2.087114334E0,-1.886796951E-1,-2.222568035E0
1.025860064E1,2.015338421E0,-2.590494156E-1,-2.141017199E0
1.026365111E1,1.821262360E0,-3.364858627E-1,-2.029392004E0
1.026870157E1,1.632175088E0,-4.294061661E-1,-1.865315676E0
1.027375209E1,1.414575577E0,-4.708099365E-1,-1.815497398E0
1.027880256E1,1.138124824E0,-4.644641876E-1,-1.773298264E0
1.028385303E1,9.501023293E-1,-4.319763184E-1,-1.794983745E0
1.028890350E1,6.775618792E-1,-3.040819168E-1,-1.783232093E0
1.029395397E1,4.251484275E-1,-9.171867371E-2,-1.740195274E0
1.029900444E1,1.312848330E-1,1.200056076E-1,-1.656069636E0
1.030405491E1,-1.019163132E-1,2.927846909E-1,-1.571385026E0
1.030910538E1,-2.958161831E-1,5.462856293E-1,-1.375945449E0
1.031415584E1,-4.736665487E-1,8.384742737E-1,-1.193129063E0
1.031920631E1,-5.073636770E-1,1.048481941E0,-1.045753241E0
1.032425678E1,-5.166590214E-1,1.185996056E0,-9.732478857E-1
1.032930725E1,-4.492566586E-1,1.313351631E0,-8.214496374E-1
1.033435777E1,-3.422878981E-1,1.363559723E0,-7.500009537E-1
1.033940824E1,-2.499847412E-1,1.322407722E0,-6.857687235E-1
1.034445871E1,-8.182704449E-2,1.200816154E0,-5.941991806E-1
1.034950918E1,-3.185868263E-3,1.038361549E0,-5.235878229E-1
1.035455965E1,9.911549091E-2,8.399047852E-1,-4.111551046E-1
1.035961012E1,1.492216587E-1,5.743904114E-1,-3.723745048E-1
1.036466058E1,2.222692966E-1,3.507518768E-1,-3.644072413E-1
1.036971105E1,3.396055102E-1,6.601524353E-2,-4.750365615E-1
1.037476152E1,4.829652905E-1,-1.075000763E-1,-6.719905734E-1
1.037981199E1,7.360220551E-1,-2.022342682E-1,-9.523857832E-1
1.038486246E1,9.108090401E-1,-1.979398727E-1,-1.225934505E0
1.038991293E1,1.063742638E0,-2.358818054E-1,-1.413070440E0
1.039496345E1,1.236819386E0,-3.399248123E-1,-1.506315589E0
1.040001392E1,1.242799759E0,-4.191179276E-1,-1.477927566E0
1.040506439E1,1.274417281E0,-5.045080185E-1,-1.428918481E0
1.041011486E1,1.144190073E0,-5.684986115E-1,-1.341566324E0
1.041516532E1,9.669255018E-1,-5.846824646E-1,-1.147126913E0
1.042021579E1,7.182638049E-1,-6.713542938E-1,-1.110406160E0
1.042526631E1,4.312311411E-1,-6.871433258E-1,-1.044437647E0
1.043031678E1,1.532323360E-1,-7.433300018E-1,-1.221075058E0
1.043536725E1,-9.177982807E-2,-7.178344727E-1,-1.567207336E0
1.044041772E1,-1.243655682E-1,-7.722721100E-1,-2.123640060E0
1.044546819E1,6.381511688E-3,-8.096971512E-1,-2.855782509E0
1.045051866E1,2.146161795E-1,-9.103469849E-1,-3.623670101E0
1.045556918E1,4.707816839E-1,-1.026357651E0,-4.228903294E0
1.046061965E1,8.434559107E-1,-1.035670280E0,-4.695209503E0
1.046567012E1,1.264642239E0,-1.068686485E0,-4.877068520E0
