time,seconds_elapsed,z,y,x
1686428344760074000,0.108073974609375,-0.679473876953125,-0.286529541015625,0.0237274169921875
1686428344770018800,0.118018798828125,-0.6292572021484375,-0.2139434814453125,0.0360565185546875
1686428344779965000,0.12796484375,-0.622589111328125,-0.2664031982421875,0.108306884765625
1686428344789909800,0.13790966796875,-0.619720458984375,-0.3152618408203125,0.1591796875
1686428344799855900,0.14785595703125,-0.55023193359375,-0.261810302734375,0.1699676513671875
1686428344809801000,0.157801025390625,-0.549591064453125,-0.200042724609375,0.22344970703125
1686428344819747000,0.1677470703125,-0.6027679443359375,-0.2138519287109375,0.2478790283203125
1686428344829692000,0.17769189453125,-0.63275146484375,-0.25494384765625,0.2631683349609375
1686428344839636700,0.18763671875,-0.6507415771484375,-0.21649169921875,0.326904296875
1686428344849582800,0.197582763671875,-0.6730804443359375,-0.183502197265625,0.39959716796875
1686428344859528000,0.20752783203125,-0.6894073486328125,-0.19451904296875,0.4472503662109375
1686428344869474000,0.21747412109375,-0.69903564453125,-0.22027587890625,0.485687255859375
1686428344879419000,0.2274189453125,-0.6959686279296875,-0.2310638427734375,0.509796142578125
1686428344889365000,0.237364990234375,-0.692535400390625,-0.1996307373046875,0.5468292236328125
1686428344899309800,0.247309814453125,-0.6850433349609375,-0.1663970947265625,0.5793609619140625
1686428344909256000,0.257255859375,-0.66064453125,-0.1436767578125,0.6099395751953125
1686428344919201000,0.267200927734375,-0.6288909912109375,-0.1169281005859375,0.6109771728515625
1686428344929147000,0.27714697265625,-0.5809783935546875,-0.0988922119140625,0.5789031982421875
1686428344939092000,0.287092041015625,-0.499969482421875,-0.100250244140625,0.565155029296875
1686428344949036800,0.297036865234375,-0.42437744140625,-0.1095733642578125,0.5869140625
1686428344958983000,0.30698291015625,-0.3914947509765625,-0.1082000732421875,0.634490966796875
1686428344968927700,0.316927734375,-0.3896942138671875,-0.0672454833984375,0.72882080078125
1686428344978873900,0.326873779296875,-0.3739013671875,-0.0240325927734375,0.827789306640625
1686428344988819000,0.33681884765625,-0.3258514404296875,0.0299072265625,0.85882568359375
1686428344998765000,0.34676513671875,-0.28790283203125,0.2447357177734375,0.750396728515625
1686428345008710000,0.3567099609375,-0.2177581787109375,0.163360595703125,0.7740631103515625
1686428345018656000,0.366656005859375,-0.182952880859375,0.050872802734375,0.726593017578125
1686428345028600800,0.376600830078125,-0.1237945556640625,0.0297393798828125,0.711578369140625
1686428345038546000,0.3865458984375,-0.08026123046875,-0.0670166015625,0.7793731689453125
1686428345048492000,0.396491943359375,-0.0366668701171875,-0.134857177734375,0.865203857421875
1686428345058436400,0.406436279296875,0.043670654296875,-0.1275634765625,0.9354248046875
1686428345068382500,0.416382568359375,0.075164794921875,-0.084136962890625,0.9678802490234375
1686428345078327300,0.426327392578125,0.10821533203125,-0.018096923828125,1.0694122314453125
1686428345088273400,0.4362734375,0.1458892822265625,0.06170654296875,1.0990753173828125
1686428345098218500,0.446218505859375,0.1956787109375,0.097869873046875,1.093902587890625
1686428345108164600,0.45616455078125,0.2151336669921875,0.05889892578125,1.1495513916015625
1686428345118109400,0.466109375,0.2210540771484375,0.029205322265625,1.188568115234375
1686428345128055600,0.4760556640625,0.2379608154296875,0.078399658203125,1.1743316650390625
1686428345138000400,0.48600048828125,0.2682952880859375,0.15521240234375,1.204803466796875
1686428345147946500,0.495946533203125,0.2854766845703125,0.2113037109375,1.24725341796875
1686428345157891600,0.5058916015625,0.2874908447265625,0.2254791259765625,1.2814483642578125
1686428345167836400,0.51583642578125,0.316925048828125,0.239654541015625,1.34051513671875
1686428345177782500,0.525782470703125,0.3381500244140625,0.23492431640625,1.3834228515625
1686428345187727400,0.535727294921875,0.29742431640625,0.168670654296875,1.35546875
1686428345197673500,0.545673583984375,0.29833984375,0.1244049072265625,1.2996368408203125
1686428345207618600,0.55561865234375,0.3555908203125,0.147216796875,1.2655487060546875
1686428345217564700,0.565564697265625,0.3794097900390625,0.182830810546875,1.2603759765625
1686428345227509500,0.575509521484375,0.1640777587890625,0.149078369140625,1.2447967529296875
1686428345237455600,0.58545556640625,-0.0195159912109375,0.0836334228515625,1.2369842529296875
1686428345247400400,0.595400390625,-0.0447845458984375,0.0854034423828125,1.2330169677734375
1686428345257346300,0.60534619140625,0.00726318359375,0.14361572265625,1.22869873046875
1686428345267291600,0.615291748046875,0.116607666015625,0.2113494873046875,1.2212371826171875
1686428345277236500,0.625236572265625,0.24749755859375,0.212554931640625,1.2756805419921875
1686428345287182600,0.6351826171875,0.217987060546875,0.18743896484375,1.275146484375
1686428345297127400,0.64512744140625,-0.0063934326171875,0.1270751953125,1.116455078125
1686428345307073500,0.655073486328125,0.00970458984375,0.2274322509765625,1.3126068115234375
1686428345317018600,0.6650185546875,-0.0453948974609375,0.43121337890625,1.4324493408203125
1686428345326964500,0.674964599609375,-0.241180419921875,0.4586944580078125,1.3228759765625
1686428345336909600,0.68490966796875,-0.3566741943359375,0.3982086181640625,1.1554412841796875
1686428345346855400,0.69485546875,-0.2675323486328125,0.4366607666015625,1.041961669921875
1686428345356800500,0.704800537109375,-0.289520263671875,0.489288330078125,0.989532470703125
1686428345366746400,0.714746337890625,-0.41357421875,0.442413330078125,0.9799041748046875
1686428345376691500,0.72469140625,-0.4853515625,0.394744873046875,0.9999847412109375
1686428345386636500,0.734636474609375,-0.4734039306640625,0.4615631103515625,1.0740203857421875
1686428345396582700,0.744582763671875,-0.446533203125,0.6154022216796875,1.1656494140625
1686428345406527500,0.754527587890625,-0.415435791015625,0.7362213134765625,1.22698974609375
1686428345416473300,0.764473388671875,-0.3575439453125,0.817626953125,1.2398681640625
1686428345426418400,0.77441845703125,-0.2944488525390625,0.8296051025390625,1.23297119140625
1686428345436364300,0.7843642578125,-0.230133056640625,0.775177001953125,1.2561798095703125
1686428345446309600,0.7943095703125,-0.17791748046875,0.7478790283203125,1.2662506103515625
1686428345456255500,0.80425537109375,-0.140838623046875,0.7751922607421875,1.2475738525390625
1686428345466200600,0.81420068359375,0.022430419921875,0.8219451904296875,1.1756591796875
1686428345476146400,0.824146484375,0.862884521484375,0.7363433837890625,1.03900146484375
1686428345486091500,0.834091552734375,1.0168609619140625,0.6113739013671875,0.923828125
1686428345496036600,0.84403662109375,0.6168670654296875,0.696533203125,0.8772430419921875
1686428345505982500,0.853982421875,0.227447509765625,0.8370361328125,0.8563232421875
1686428345515927600,0.863927490234375,-0.0238189697265625,0.90667724609375,0.81597900390625
1686428345525873400,0.873873291015625,-0.20843505859375,0.88116455078125,0.759857177734375
1686428345535818500,0.883818603515625,-0.28253173828125,0.903839111328125,0.7435302734375
1686428345545764400,0.893764404296875,-0.1795196533203125,0.8887481689453125,0.7163848876953125
1686428345555709700,0.903709716796875,-0.0248565673828125,0.6792144775390625,0.644927978515625
1686428345565655600,0.913655517578125,0.166168212890625,0.462921142578125,0.6426239013671875
1686428345575600400,0.923600341796875,0.2010955810546875,0.3932037353515625,0.6487274169921875
1686428345585546500,0.93354638671875,0.058197021484375,0.4407958984375,0.650970458984375
1686428345595491300,0.9434912109375,0.0979156494140625,0.4853973388671875,0.601470947265625
1686428345605436700,0.953436767578125,0.1663818359375,0.463104248046875,0.4945831298828125
1686428345615382500,0.963382568359375,0.279327392578125,0.425933837890625,0.3838043212890625
1686428345625327600,0.97332763671875,0.3953399658203125,0.4092559814453125,0.2868804931640625
1686428345635273500,0.9832734375,0.4299774169921875,0.461639404296875,0.1912384033203125
1686428345645218600,0.993218505859375,0.2783966064453125,0.6000213623046875,0.1692962646484375
1686428345655164400,1.003164306640625,0.03466796875,0.7345733642578125,0.289154052734375
1686428345665109500,1.013109619140625,-0.0482330322265625,0.7629852294921875,0.327392578125
1686428345675055600,1.0230556640625,-0.0346832275390625,0.7029266357421875,0.299224853515625
1686428345685000400,1.03300048828125,0.0822601318359375,0.5672149658203125,0.2377471923828125
1686428345694946600,1.042946533203125,0.1467437744140625,0.4400787353515625,0.3029327392578125
1686428345704891400,1.052891357421875,0.0352020263671875,0.5890960693359375,0.538330078125
1686428345714836500,1.06283642578125,-0.1632080078125,0.81378173828125,0.8452911376953125
1686428345724782600,1.072782470703125,-0.326446533203125,1.0196685791015625,1.056793212890625
1686428345734727400,1.0827275390625,-0.426971435546875,1.3732147216796875,1.076568603515625
1686428345744673500,1.092673583984375,-0.521392822265625,1.3198699951171875,0.92974853515625
1686428345754618400,1.102618408203125,-0.5121612548828125,1.1259307861328125,0.7172698974609375
1686428345764564500,1.112564453125,-0.4535980224609375,1.023193359375,0.4001312255859375
1686428345774509300,1.12250927734375,-0.485565185546875,0.9967193603515625,0.1512451171875
1686428345784455400,1.132455322265625,-0.4555511474609375,1.1026458740234375,0.0400848388671875
1686428345794400500,1.142400390625,-0.34796142578125,1.2701416015625,0.0946044921875
1686428345804346600,1.1523466796875,-0.2779388427734375,1.3808746337890625,0.2526397705078125
1686428345814291500,1.16229150390625,-0.2919769287109375,1.4355316162109375,0.4043426513671875
1686428345824236300,1.172236328125,-0.3464813232421875,1.480224609375,0.5430908203125
1686428345834182400,1.182182373046875,-0.41937255859375,1.56024169921875,0.575897216796875
1686428345844127500,1.19212744140625,-0.499114990234375,1.6031036376953125,0.5303497314453125
1686428345854073600,1.202073486328125,-0.5368804931640625,1.6331024169921875,0.433349609375
1686428345864018400,1.212018310546875,-0.5817108154296875,1.6816558837890625,0.32781982421875
1686428345873964500,1.221964599609375,-0.6672821044921875,1.724609375,0.203460693359375
1686428345883909400,1.231909423828125,-0.4116668701171875,1.6667633056640625,0.0008544921875
1686428345893855500,1.24185546875,-0.306854248046875,1.5400390625,0.1467132568359375
1686428345903800600,1.251800537109375,-0.1884918212890625,1.3992919921875,0.2447662353515625
1686428345913746700,1.26174658203125,-0.020111083984375,1.2654266357421875,0.2557830810546875
1686428345923691500,1.27169140625,0.1075439453125,1.2268829345703125,0.192047119140625
1686428345933636400,1.28163623046875,0.1963348388671875,1.2312469482421875,0.1368255615234375
1686428345943582500,1.29158251953125,0.20458984375,1.200469970703125,0.141326904296875
1686428345953527600,1.301527587890625,0.1562347412109375,1.1851959228515625,0.203338623046875
1686428345963473700,1.3114736328125,0.0405426025390625,1.1966400146484375,0.273712158203125
1686428345973418500,1.32141845703125,-0.1697235107421875,1.1793212890625,0.4257354736328125
1686428345983364600,1.331364501953125,-0.4279632568359375,1.2008056640625,0.559112548828125
1686428345993309400,1.341309326171875,-0.6402435302734375,1.2260589599609375,0.5001983642578125
1686428346003255600,1.351255615234375,-0.78155517578125,1.1451568603515625,0.373870849609375
1686428346013200600,1.36120068359375,-0.4793701171875,1.0973968505859375,0.339599609375
1686428346023146500,1.371146484375,-0.0743255615234375,1.044891357421875,0.3038482666015625
1686428346033091600,1.381091552734375,-0.0633697509765625,0.793121337890625,0.216827392578125
1686428346043037400,1.391037353515625,-0.19635009765625,0.8514251708984375,0.1432037353515625
1686428346052982500,1.400982421875,-0.344329833984375,0.889923095703125,0.1088104248046875
1686428346062927600,1.410927734375,-0.4853057861328125,0.8563385009765625,0.12396240234375
1686428346072873500,1.42087353515625,-0.5552978515625,0.896759033203125,0.111663818359375
1686428346082818600,1.430818603515625,-0.4877166748046875,0.9277801513671875,0.0034332275390625
1686428346092764700,1.4407646484375,-0.410186767578125,0.910186767578125,-0.1414642333984375
1686428346102709500,1.45070947265625,-0.1769866943359375,0.89678955078125,-0.1724853515625
1686428346112655600,1.460655517578125,-0.095916748046875,0.9565582275390625,-0.0935516357421875
1686428346122600400,1.470600341796875,-0.116455078125,0.917327880859375,-0.121246337890625
1686428346132546600,1.480546630859375,-0.2895660400390625,0.98101806640625,-0.205535888671875
1686428346142491600,1.49049169921875,-0.3673248291015625,1.00848388671875,-0.3023529052734375
1686428346152437800,1.500437744140625,-0.3760986328125,0.895721435546875,-0.292205810546875
1686428346162382600,1.510382568359375,-1.3407135009765625,1.0463409423828125,-0.3626556396484375
1686428346172327400,1.520327392578125,-1.474578857421875,1.14825439453125,-0.2196044921875
1686428346182273500,1.5302734375,0.0836944580078125,0.8455352783203125,0.0872039794921875
1686428346192218600,1.540218505859375,0.2609710693359375,0.3696136474609375,-0.071990966796875
1686428346202164700,1.550164794921875,0.2332763671875,0.0596160888671875,-0.06719970703125
1686428346212109600,1.560109619140625,-0.478057861328125,-0.0376129150390625,-0.0242462158203125
1686428346222055700,1.5700556640625,-0.1691436767578125,-0.0728607177734375,0.30908203125
1686428346232000500,1.58000048828125,1.4580230712890625,-0.280914306640625,0.688995361328125
1686428346241946600,1.589946533203125,1.8441314697265625,-0.64678955078125,0.533447265625
1686428346251891700,1.5998916015625,0.6983795166015625,-0.6767578125,0.2482147216796875
1686428346261837800,1.609837890625,-0.060546875,-0.303375244140625,0.16851806640625
1686428346271782700,1.61978271484375,0.0169525146484375,0.2082061767578125,0.175506591796875
1686428346281727500,1.6297275390625,0.3562164306640625,0.5867919921875,0.1778411865234375
1686428346291673600,1.639673583984375,0.3140869140625,0.7052001953125,0.2230072021484375
1686428346301618700,1.64961865234375,0.08612060546875,0.8123016357421875,0.2999725341796875
1686428346311564800,1.659564697265625,-0.0029144287109375,1.11138916015625,0.1749267578125
1686428346321509600,1.669509521484375,-0.1338653564453125,1.4478607177734375,0.0528717041015625
1686428346331455700,1.679455810546875,-0.0117645263671875,1.7887420654296875,-0.365631103515625
1686428346341400600,1.689400634765625,0.0729217529296875,1.830230712890625,-0.6405792236328125
1686428346351346700,1.6993466796875,-0.149383544921875,1.552093505859375,-0.240264892578125
1686428346361291500,1.70929150390625,-0.3712005615234375,1.5575103759765625,0.0008544921875
1686428346371237600,1.719237548828125,-0.6165313720703125,1.675323486328125,-0.0384979248046875
1686428346381182700,1.7291826171875,-0.7928924560546875,1.3861541748046875,0.3011627197265625
1686428346391127600,1.73912744140625,-0.9462127685546875,1.4299774169921875,0.4040985107421875
1686428346401073700,1.74907373046875,-0.6322021484375,1.4646453857421875,-0.01629638671875
1686428346411018500,1.7590185546875,-0.3484344482421875,1.3245697021484375,-0.067840576171875
1686428346420964600,1.768964599609375,-0.254241943359375,1.1674041748046875,0.131622314453125
1686428346430909700,1.77890966796875,-0.248138427734375,1.111114501953125,0.286224365234375
1686428346440855600,1.78885546875,-0.2992401123046875,1.1568145751953125,0.2669830322265625
1686428346450800600,1.798800537109375,-0.3198394775390625,1.1979217529296875,0.0948486328125
1686428346460746500,1.80874658203125,-0.3355255126953125,1.2950439453125,0.057525634765625
1686428346470691600,1.818691650390625,-0.335540771484375,1.490509033203125,0.04071044921875
1686428346480637400,1.828637451171875,-0.3984832763671875,1.5385589599609375,-0.0747833251953125
1686428346490582800,1.838582763671875,-0.39306640625,1.6416778564453125,-0.044403076171875
1686428346500527600,1.848527587890625,-0.37127685546875,1.64825439453125,0.0546112060546875
1686428346510473700,1.8584736328125,-0.3352203369140625,1.487274169921875,0.1086883544921875
1686428346520418600,1.86841845703125,-0.2675628662109375,1.13482666015625,0.16351318359375
1686428346530364400,1.878364501953125,-0.1513671875,0.7958831787109375,0.2744140625
1686428346540309800,1.888309814453125,-0.0879669189453125,0.6142425537109375,0.248931884765625
1686428346550255600,1.898255615234375,-0.0695037841796875,0.6344146728515625,0.2845458984375
1686428346560200700,1.90820068359375,-0.07830810546875,0.6798095703125,0.3194427490234375
1686428346570146600,1.918146484375,-0.105133056640625,0.6473541259765625,0.3003082275390625
1686428346580091600,1.928091552734375,-0.12353515625,0.6306304931640625,0.2956085205078125
1686428346590037500,1.93803759765625,-0.153564453125,0.64605712890625,0.2806549072265625
1686428346599982800,1.94798291015625,-0.180572509765625,0.6937255859375,0.25543212890625
1686428346609927700,1.957927734375,-0.2124786376953125,0.725433349609375,0.23956298828125
1686428346619873500,1.96787353515625,-0.2592010498046875,0.8180694580078125,0.2452850341796875
1686428346629818600,1.977818603515625,-0.3072662353515625,0.9356536865234375,0.2855072021484375
1686428346639764500,1.987764404296875,-0.3716888427734375,0.9836578369140625,0.352203369140625
1686428346649709800,1.997709716796875,-0.385284423828125,0.9752044677734375,0.4320068359375
1686428346659655700,2.00765576171875,-0.3286895751953125,0.86956787109375,0.4622650146484375
1686428346669600800,2.017600830078125,-0.2448577880859375,0.7378692626953125,0.456787109375
1686428346679546600,2.027546630859375,-0.155853271484375,0.6607513427734375,0.50830078125
1686428346689491500,2.037491455078125,-0.1224365234375,0.5452423095703125,0.60516357421875
1686428346699437600,2.0474375,-0.0520782470703125,0.5549163818359375,0.64862060546875
1686428346709382700,2.057382568359375,-0.0911712646484375,0.685760498046875,0.565399169921875
1686428346719327700,2.06732763671875,-0.230560302734375,0.7293548583984375,0.5836029052734375
1686428346729273600,2.077273681640625,-0.301513671875,0.70703125,0.5561676025390625
1686428346739218700,2.08721875,-0.3216400146484375,0.69525146484375,0.464752197265625
1686428346749164500,2.09716455078125,-0.2744598388671875,0.6957244873046875,0.3489532470703125
1686428346759109600,2.107109619140625,-0.199066162109375,0.6808929443359375,0.229644775390625
1686428346769055500,2.117055419921875,-0.051025390625,0.6360931396484375,0.0408477783203125
1686428346779000600,2.12700048828125,0.18212890625,0.5868072509765625,-0.2445831298828125
1686428346788946700,2.13694677734375,0.291351318359375,0.5777587890625,-0.56268310546875
1686428346798891500,2.1468916015625,0.2391204833984375,0.6535797119140625,-0.803558349609375
1686428346808837600,2.156837646484375,0.0383758544921875,0.823822021484375,-0.7899627685546875
1686428346818782500,2.166782470703125,-0.1761627197265625,1.01617431640625,-0.40179443359375
1686428346828728600,2.176728515625,-0.3511810302734375,1.0710601806640625,-0.0502166748046875
1686428346838673700,2.186673583984375,-0.50506591796875,1.18896484375,0.0446624755859375
1686428346848618500,2.196618408203125,-0.4645233154296875,1.370941162109375,0.0332794189453125
1686428346858564600,2.206564697265625,-0.1686553955078125,1.483428955078125,0.09686279296875
1686428346868509400,2.216509521484375,0.3313751220703125,1.62176513671875,0.30865478515625
1686428346878455600,2.22645556640625,0.265045166015625,1.4940338134765625,0.2384033203125
1686428346888400600,2.236400634765625,-0.2534942626953125,1.4758453369140625,0.14593505859375
1686428346898346800,2.2463466796875,-0.5080108642578125,1.754974365234375,0.3253936767578125
1686428346908291600,2.25629150390625,-0.545318603515625,1.8463897705078125,0.7569122314453125
1686428346918237700,2.26623779296875,-0.5870361328125,1.7358856201171875,0.943939208984375
1686428346928182500,2.2761826171875,-0.5685577392578125,1.589569091796875,0.89300537109375
1686428346938128600,2.286128662109375,-0.5512542724609375,1.48858642578125,0.6626129150390625
1686428346948073700,2.29607373046875,-0.53961181640625,1.434478759765625,0.4234161376953125
1686428346958018600,2.3060185546875,-0.577667236328125,1.4164886474609375,0.361724853515625
1686428346967964700,2.315964599609375,-0.58380126953125,1.3723907470703125,0.3717498779296875
1686428346977909500,2.325909423828125,-0.5487518310546875,1.2771148681640625,0.3509521484375
1686428346987855600,2.335855712890625,-0.744293212890625,1.184722900390625,0.293304443359375
1686428346997800700,2.34580078125,-0.8106231689453125,1.130706787109375,0.370330810546875
1686428347007746800,2.355746826171875,-0.6899261474609375,0.9543304443359375,0.4608306884765625
1686428347017691600,2.365691650390625,-0.2504425048828125,0.7123565673828125,0.586883544921875
1686428347027637800,2.3756376953125,-0.0774993896484375,0.43621826171875,0.5350341796875
1686428347037582600,2.38558251953125,-0.0624237060546875,0.2787322998046875,0.547698974609375
1686428347047528400,2.395528564453125,-0.0655517578125,0.1846923828125,0.653778076171875
1686428347057473500,2.4054736328125,-0.07501220703125,0.173431396484375,0.7101593017578125
1686428347067418600,2.415418701171875,-0.08245849609375,0.274932861328125,0.5532073974609375
1686428347077364500,2.425364501953125,-0.030731201171875,0.3546905517578125,0.26129150390625
1686428347087309600,2.4353095703125,-0.0461883544921875,0.420074462890625,0.138214111328125
1686428347097255400,2.44525537109375,-0.12322998046875,0.4944305419921875,0.12823486328125
1686428347107200500,2.455200439453125,-0.2232513427734375,0.6298675537109375,0.210296630859375
1686428347117146400,2.465146484375,-0.2564849853515625,0.5819091796875,0.19775390625
1686428347127091700,2.475091796875,-0.1702423095703125,0.4703369140625,0.1255950927734375
1686428347137037600,2.48503759765625,-0.089996337890625,0.435760498046875,0.14385986328125
1686428347146982400,2.494982421875,-0.0550384521484375,0.4026336669921875,0.152496337890625
1686428347156928500,2.504928466796875,-0.0666351318359375,0.4012451171875,0.1859588623046875
1686428347166873300,2.514873291015625,-0.093505859375,0.3903961181640625,0.2556610107421875
1686428347176819500,2.5248193359375,-0.0980072021484375,0.3995361328125,0.329681396484375
1686428347186764500,2.5347646484375,-0.0804901123046875,0.37994384765625,0.3428192138671875
1686428347196709600,2.544709716796875,-0.0919647216796875,0.3340301513671875,0.33160400390625
1686428347206655500,2.554655517578125,-0.1003570556640625,0.41668701171875,0.280059814453125
1686428347216600300,2.564600341796875,-0.1547698974609375,0.6652069091796875,0.0849151611328125
1686428347226546400,2.57454638671875,-0.250823974609375,0.9225616455078125,0.134033203125
1686428347236491500,2.584491455078125,-0.3637542724609375,1.1273193359375,0.23602294921875
1686428347246437600,2.594437744140625,-0.4296417236328125,1.252288818359375,0.236328125
1686428347256382500,2.604382568359375,-0.446624755859375,1.1920928955078125,0.1844482421875
1686428347266328600,2.61432861328125,-0.3905792236328125,1.1278839111328125,0.2120361328125
1686428347276273400,2.6242734375,-0.3214874267578125,1.0209808349609375,0.2430877685546875
1686428347286219500,2.634219482421875,-0.2567596435546875,1.0137939453125,0.263763427734375
1686428347296164600,2.64416455078125,-0.1892242431640625,1.0568389892578125,0.196807861328125
1686428347306110700,2.65411083984375,-0.101287841796875,1.0307769775390625,0.0553436279296875
1686428347316055600,2.6640556640625,-0.0082550048828125,0.9774932861328125,-0.0251922607421875
1686428347326000400,2.67400048828125,0.038055419921875,0.9168853759765625,-0.0446014404296875
1686428347335946500,2.683946533203125,0.0173797607421875,0.913604736328125,-0.0767669677734375
1686428347345891600,2.6938916015625,-0.0650482177734375,0.93695068359375,-0.1452178955078125
1686428347355837700,2.703837646484375,-0.03533935546875,0.9296417236328125,-0.0707244873046875
1686428347365782500,2.713782470703125,0.310943603515625,0.918243408203125,0.1640472412109375
1686428347375728600,2.723728759765625,0.099639892578125,0.9192352294921875,0.6115875244140625
1686428347385673500,2.733673583984375,-0.0025482177734375,1.30157470703125,0.5007476806640625
1686428347395619600,2.74361962890625,-0.0334930419921875,1.78643798828125,0.412841796875
1686428347405564700,2.753564697265625,-0.1978759765625,2.0159912109375,0.2581939697265625
1686428347415510500,2.763510498046875,-0.342987060546875,2.0299072265625,0.1078338623046875
1686428347425455600,2.77345556640625,-0.4863128662109375,2.0072784423828125,0.0926971435546875
1686428347435401500,2.7834013671875,-0.5592803955078125,1.976043701171875,0.154022216796875
1686428347445346600,2.7933466796875,-0.5246734619140625,1.7830657958984375,0.131256103515625
1686428347455292400,2.80329248046875,-0.385894775390625,1.6001129150390625,0.21856689453125
1686428347465237500,2.813237548828125,-0.254638671875,1.406402587890625,0.476654052734375
1686428347475182600,2.8231826171875,-0.225555419921875,1.2261810302734375,0.5574493408203125
1686428347485128700,2.833128662109375,-0.30804443359375,1.1177520751953125,0.360107421875
1686428347495073500,2.843073486328125,-0.42926025390625,1.0739898681640625,0.1352386474609375
1686428347505019400,2.853019287109375,-0.586669921875,1.1031036376953125,-0.046417236328125
1686428347514964500,2.862964599609375,-0.657623291015625,1.1526947021484375,-0.1155242919921875
1686428347524910300,2.872910400390625,-0.6248016357421875,1.1709136962890625,-0.074981689453125
1686428347534855700,2.882855712890625,-0.27020263671875,1.224395751953125,0.3166656494140625
1686428347544801500,2.892801513671875,-0.2286834716796875,1.1716461181640625,0.2180938720703125
1686428347554746600,2.90274658203125,-0.15435791015625,1.1668853759765625,0.04339599609375
1686428347564692500,2.9126923828125,-0.066619873046875,1.2123260498046875,0.08447265625
1686428347574637600,2.922637451171875,-0.0839080810546875,1.238006591796875,0.2329254150390625
1686428347584583400,2.93258349609375,-0.12200927734375,1.1939849853515625,0.33087158203125
1686428347594528500,2.942528564453125,-0.1179046630859375,0.9453582763671875,0.394134521484375
1686428347604474600,2.952474609375,-0.097259521484375,0.6771392822265625,0.322967529296875
1686428347614419500,2.96241943359375,-0.1149139404296875,0.5166015625,0.2998199462890625
1686428347624365600,2.972365478515625,-0.109222412109375,0.410675048828125,0.2581634521484375
1686428347634310400,2.982310302734375,-0.1013641357421875,0.3672027587890625,0.167999267578125
1686428347644255700,2.992255859375,-0.1102142333984375,0.3247833251953125,0.1251373291015625
1686428347654201600,3.00220166015625,-0.082977294921875,0.320648193359375,0.0408477783203125
1686428347664146400,3.012146484375,-0.0493927001953125,0.3370208740234375,-0.0351409912109375
1686428347674092500,3.022092529296875,-0.04638671875,0.361541748046875,-0.0784149169921875
1686428347684037400,3.032037353515625,-0.0503387451171875,0.3640289306640625,-0.08648681640625
1686428347693983500,3.0419833984375,-0.068756103515625,0.383148193359375,-0.0491790771484375
1686428347703928600,3.051928466796875,-0.0833282470703125,0.4532318115234375,-0.0410308837890625
1686428347713874700,3.061874755859375,-0.08404541015625,0.5343170166015625,-0.0612945556640625
1686428347723819500,3.071819580078125,-0.061248779296875,0.62554931640625,-0.0912017822265625
1686428347733765600,3.081765625,-0.04949951171875,0.7159271240234375,-0.12066650390625
1686428347743710500,3.09171044921875,-0.0804290771484375,0.7865753173828125,-0.166839599609375
1686428347753656600,3.101656494140625,-0.114898681640625,0.8715972900390625,-0.206939697265625
1686428347763601700,3.1116015625,-0.125732421875,0.9364776611328125,-0.2021484375
1686428347773547800,3.1215478515625,-0.0941162109375,0.9748687744140625,-0.1429443359375
1686428347783492600,3.13149267578125,-0.059234619140625,1.004058837890625,-0.0635528564453125
1686428347793438500,3.1414384765625,-0.034210205078125,0.87310791015625,0.051849365234375
1686428347803383600,3.151383544921875,-0.023223876953125,0.7294769287109375,0.16912841796875
1686428347813328400,3.161328369140625,-0.0407562255859375,0.6531982421875,0.2435150146484375
1686428347823274500,3.1712744140625,-0.0466766357421875,0.6138458251953125,0.287811279296875
1686428347833219600,3.181219482421875,-0.0064239501953125,0.619964599609375,0.313079833984375
1686428347843165700,3.191165771484375,0.0708770751953125,0.6598663330078125,0.29962158203125
1686428347853110500,3.201110595703125,0.1961212158203125,0.7038726806640625,0.283294677734375
1686428347863056400,3.211056396484375,0.2389068603515625,0.69287109375,0.3125
1686428347873001500,3.22100146484375,0.1918792724609375,0.7365264892578125,0.4217987060546875
1686428347882947300,3.230947265625,0.0583953857421875,0.875457763671875,0.4019317626953125
1686428347892892700,3.240892578125,0.146392822265625,1.04791259765625,0.270050048828125
1686428347902838500,3.250838623046875,0.2970123291015625,1.204559326171875,0.137237548828125
1686428347912783600,3.26078369140625,0.3253173828125,1.3083038330078125,-0.0431365966796875
1686428347922729500,3.2707294921875,0.38592529296875,1.371429443359375,-0.213348388671875
1686428347932674600,3.280674560546875,0.433624267578125,1.416107177734375,-0.3108978271484375
1686428347942620400,3.290620361328125,0.5600128173828125,1.604400634765625,-0.3205108642578125
1686428347952565500,3.3005654296875,0.2768707275390625,1.97711181640625,-0.2082061767578125
1686428347962511600,3.31051171875,-0.807952880859375,2.200927734375,-0.134063720703125
1686428347972456400,3.32045654296875,-1.2178802490234375,2.411163330078125,-0.00091552734375
1686428347982401500,3.330401611328125,-0.7377166748046875,2.6234283447265625,0.1330413818359375
1686428347992347400,3.340347412109375,-0.14801025390625,2.3001861572265625,0.097808837890625
1686428348002292700,3.350292724609375,0.1107635498046875,1.3056793212890625,-0.021820068359375
1686428348012238600,3.360238525390625,0.06829833984375,0.6833038330078125,-0.0066986083984375
1686428348022183400,3.370183349609375,-0.1868438720703125,0.7024993896484375,0.157012939453125
1686428348032129500,3.380129638671875,-0.4531402587890625,1.0344085693359375,0.2950439453125
1686428348042074400,3.390074462890625,-0.449432373046875,1.3089447021484375,0.3527679443359375
1686428348052020500,3.4000205078125,-0.218170166015625,1.3367462158203125,0.2686767578125
1686428348061965800,3.4099658203125,0.041168212890625,1.2032623291015625,-0.0025634765625
1686428348071912000,3.419911865234375,0.1151580810546875,1.1609344482421875,-0.2464599609375
1686428348081856800,3.429856689453125,0.1179351806640625,1.072723388671875,-0.299560546875
1686428348091803000,3.439802978515625,0.05517578125,0.8830718994140625,-0.2592620849609375
1686428348101747700,3.449747802734375,0.0458526611328125,0.9737548828125,-0.155731201171875
1686428348111693800,3.45969384765625,0.015045166015625,1.18121337890625,-0.0922088623046875
1686428348121638700,3.469638671875,-0.0859527587890625,1.169342041015625,-0.188934326171875
1686428348131584800,3.479584716796875,-0.2269439697265625,1.0306243896484375,-0.1957550048828125
1686428348141529900,3.48952978515625,-0.35150146484375,0.9172821044921875,-0.069488525390625
1686428348151475700,3.499475830078125,-0.410400390625,0.840301513671875,0.05621337890625
1686428348161420800,3.5094208984375,-0.38427734375,0.736114501953125,0.1647491455078125
1686428348171366700,3.51936669921875,-0.30694580078125,0.6458282470703125,0.2459259033203125
1686428348181311700,3.529311767578125,-0.2129058837890625,0.5741424560546875,0.239532470703125
1686428348191256800,3.5392568359375,-0.1259307861328125,0.5733642578125,0.2137298583984375
1686428348201202700,3.54920263671875,-0.080902099609375,0.5977325439453125,0.145477294921875
1686428348211147800,3.559147705078125,-0.121429443359375,0.6483917236328125,0.0915069580078125
1686428348221093600,3.56909375,-0.18292236328125,0.62469482421875,0.06463623046875
1686428348231038700,3.579038818359375,-0.21490478515625,0.5547332763671875,0.0442657470703125
1686428348240984600,3.588984619140625,-0.2395782470703125,0.5111083984375,0.028350830078125
1686428348250930000,3.598929931640625,-0.25103759765625,0.54559326171875,0.0529937744140625
1686428348260875800,3.608875732421875,-0.2585296630859375,0.531219482421875,-0.006134033203125
1686428348270820900,3.61882080078125,-0.24444580078125,0.5396270751953125,-0.0496978759765625
1686428348280766700,3.6287666015625,-0.23492431640625,0.636962890625,0.00445556640625
1686428348290711600,3.638711669921875,-0.2261505126953125,0.706024169921875,0.0214996337890625
1686428348300657700,3.64865771484375,-0.2317657470703125,0.7182769775390625,-0.0013885498046875
1686428348310602800,3.658602783203125,-0.2329559326171875,0.7368316650390625,0.0136566162109375
1686428348320548900,3.668548828125,-0.226226806640625,0.756561279296875,0.0594940185546875
1686428348330493700,3.67849365234375,-0.2375640869140625,0.711883544921875,0.10467529296875
1686428348340439800,3.688439697265625,-0.272674560546875,0.614349365234375,0.13214111328125
1686428348350384600,3.698384521484375,-0.3093414306640625,0.5424346923828125,0.1529388427734375
1686428348360330800,3.708330810546875,-0.3143463134765625,0.5763397216796875,0.159271240234375
1686428348370275800,3.71827587890625,-0.3105621337890625,0.6322174072265625,0.0911407470703125
1686428348380222000,3.728221923828125,-0.3064727783203125,0.6707305908203125,-0.0277252197265625
1686428348390166800,3.738166748046875,-0.255828857421875,0.6664276123046875,-0.1406402587890625
1686428348400112600,3.748112548828125,-0.18585205078125,0.660003662109375,-0.191802978515625
1686428348410057700,3.7580576171875,-0.144287109375,0.725341796875,-0.1875762939453125
1686428348420002800,3.7680029296875,-0.1361083984375,0.791107177734375,-0.183258056640625
1686428348429949000,3.777948974609375,-0.1694488525390625,0.935943603515625,-0.224761962890625
1686428348439893800,3.787893798828125,-0.2057952880859375,1.1210479736328125,-0.3224029541015625
1686428348449839900,3.79783984375,-0.2059326171875,1.364227294921875,-0.3961181640625
1686428348459784700,3.80778466796875,-0.1552276611328125,1.6615142822265625,-0.4338836669921875
1686428348469730800,3.817730712890625,-0.09906005859375,1.9433746337890625,-0.424652099609375
1686428348479675600,3.827675537109375,-0.0505523681640625,2.02606201171875,-0.360931396484375
1686428348489621800,3.837621826171875,0.0395355224609375,1.9241790771484375,-0.2277679443359375
1686428348499566800,3.84756689453125,0.02838134765625,1.7820587158203125,-0.0381622314453125
1686428348509512700,3.8575126953125,-0.1199188232421875,1.71527099609375,0.27911376953125
1686428348519457800,3.867457763671875,-0.3417816162109375,1.781341552734375,0.622894287109375
1686428348529403600,3.877403564453125,-0.3284759521484375,1.847015380859375,0.6575164794921875
1686428348539348700,3.8873486328125,-0.24310302734375,1.77978515625,0.500274658203125
1686428348549294600,3.897294677734375,-0.2897491455078125,1.5774383544921875,0.2830352783203125
1686428348559239700,3.90723974609375,-0.377593994140625,1.4159393310546875,0.185394287109375
1686428348569185800,3.917185791015625,-0.45147705078125,1.3713531494140625,0.1876678466796875
1686428348579130600,3.927130615234375,-0.4401092529296875,1.371734619140625,0.14599609375
1686428348589076700,3.93707666015625,-0.3271942138671875,1.33734130859375,0.075469970703125
1686428348599021600,3.947021484375,-0.1984710693359375,1.2940521240234375,-0.0030670166015625
1686428348608967700,3.9569677734375,-0.14471435546875,1.245147705078125,-0.053985595703125
1686428348618912800,3.966912841796875,-0.2346343994140625,1.1665496826171875,-0.0285797119140625
1686428348628859000,3.97685888671875,-0.2653961181640625,1.0660858154296875,-0.0460052490234375
1686428348638803700,3.9868037109375,-0.275634765625,0.984100341796875,-0.040802001953125
1686428348648749800,3.996749755859375,-0.2965087890625,0.8967437744140625,0.03546142578125
1686428348658694700,4.006694580078125,-0.2872161865234375,0.834991455078125,0.0481414794921875
1686428348668640800,4.016640869140625,-0.2648773193359375,0.739227294921875,0.083465576171875
1686428348678585900,4.0265859375,-0.2377166748046875,0.6526641845703125,0.1121826171875
1686428348688531700,4.03653173828125,-0.20599365234375,0.5828399658203125,0.1125030517578125
1686428348698476800,4.046476806640625,-0.1821441650390625,0.559814453125,0.10589599609375
1686428348708422700,4.056422607421875,-0.1328582763671875,0.5435333251953125,0.1083984375
1686428348718367700,4.06636767578125,-0.05987548828125,0.5122222900390625,0.112335205078125
1686428348728312800,4.076312744140625,-0.0529632568359375,0.4727935791015625,0.09295654296875
1686428348738259000,4.086259033203125,-0.0818939208984375,0.4251251220703125,0.037261962890625
1686428348748203800,4.096203857421875,-0.1142578125,0.4149017333984375,-0.034881591796875
1686428348758150000,4.10614990234375,-0.1243438720703125,0.502197265625,-0.04022216796875
1686428348768094700,4.1160947265625,-0.102996826171875,0.602996826171875,-0.0164337158203125
1686428348778040600,4.12604052734375,-0.06854248046875,0.656829833984375,-0.0026397705078125
1686428348787986000,4.13598583984375,-0.0572357177734375,0.6843109130859375,0.0142974853515625
1686428348797931800,4.145931884765625,-0.0706329345703125,0.705780029296875,0.029296875
1686428348807876900,4.155876953125,-0.0921630859375,0.7447662353515625,0.0490570068359375
1686428348817822700,4.16582275390625,-0.1162261962890625,0.8103790283203125,0.0607452392578125
1686428348827767800,4.175767822265625,-0.1242828369140625,0.8587646484375,0.00885009765625
1686428348837713700,4.185713623046875,-0.0923309326171875,0.850372314453125,-0.0999298095703125
1686428348847658800,4.19565869140625,-0.00726318359375,0.7089080810546875,-0.182525634765625
1686428348857604900,4.20560498046875,0.041717529296875,0.6566314697265625,-0.1545867919921875
1686428348867549700,4.2155498046875,-0.0157470703125,0.6490478515625,-0.08538818359375
1686428348877495800,4.225495849609375,-0.0886077880859375,0.6739501953125,-0.018646240234375
1686428348887440600,4.235440673828125,-0.1745452880859375,0.7015380859375,0.0445098876953125
1686428348897386800,4.24538671875,-0.2360992431640625,0.68060302734375,0.0950927734375
1686428348907331600,4.25533154296875,-0.284637451171875,0.6555938720703125,0.1463623046875
1686428348917277700,4.265277587890625,-0.307891845703125,0.6728057861328125,0.2006072998046875
1686428348927222800,4.275222900390625,-0.2764892578125,0.7176971435546875,0.2615509033203125
1686428348937169000,4.2851689453125,-0.160186767578125,0.7648773193359375,0.3450775146484375
1686428348947113700,4.29511376953125,-0.0718994140625,0.831817626953125,0.4438934326171875
1686428348957059800,4.305059814453125,-0.057647705078125,0.9131927490234375,0.524078369140625
1686428348967004700,4.315004638671875,0.10577392578125,1.0316619873046875,0.49932861328125
1686428348976950500,4.324950439453125,0.474609375,1.188232421875,0.340240478515625
1686428348986896000,4.334895751953125,0.689300537109375,1.3641357421875,0.12835693359375
1686428348996841700,4.344841796875,0.593536376953125,1.5167083740234375,-0.1682891845703125
1686428349006786800,4.354786865234375,0.444793701171875,1.6174774169921875,-0.4132232666015625
1686428349016732700,4.364732666015625,0.347808837890625,1.642364501953125,-0.5157318115234375
1686428349026677800,4.374677734375,0.2389678955078125,1.6306915283203125,-0.5122833251953125
1686428349036623600,4.38462353515625,0.0299530029296875,1.6560821533203125,-0.4915924072265625
1686428349046568700,4.394568603515625,-0.332489013671875,1.79132080078125,-0.4052581787109375
1686428349056514800,4.404514892578125,-0.7955474853515625,1.87628173828125,-0.2969207763671875
1686428349066459400,4.41445947265625,-0.963775634765625,1.8365936279296875,-0.216644287109375
1686428349076405200,4.4244052734375,-0.7609710693359375,1.6049652099609375,-0.13714599609375
1686428349086350300,4.434350341796875,-0.4361724853515625,1.1780548095703125,-0.0641937255859375
1686428349096296200,4.444296142578125,-0.1685333251953125,0.9852294921875,0.00823974609375
1686428349106241500,4.454241455078125,-0.0641632080078125,1.0573883056640625,0.0514373779296875
1686428349116186400,4.464186279296875,-0.0810089111328125,1.2149810791015625,0.03948974609375
1686428349126132500,4.474132568359375,-0.076751708984375,1.38720703125,-0.0198211669921875
1686428349136077300,4.484077392578125,-0.059600830078125,1.5002288818359375,-0.11529541015625
1686428349146023200,4.494023193359375,0.0542144775390625,1.5321044921875,-0.15869140625
1686428349155968500,4.503968505859375,0.218475341796875,1.4717559814453125,-0.182708740234375
1686428349165914400,4.513914306640625,0.2957000732421875,1.3375091552734375,-0.1535491943359375
1686428349175859500,4.523859375,0.2748565673828125,1.1680145263671875,-0.125030517578125
1686428349185805300,4.533805419921875,0.1682586669921875,1.0013885498046875,-0.1409149169921875
1686428349195750400,4.54375048828125,0.0367584228515625,0.878753662109375,-0.17291259765625
1686428349205696300,4.5536962890625,-0.0649261474609375,0.789581298828125,-0.2141876220703125
1686428349215641300,4.563641357421875,-0.1195068359375,0.73309326171875,-0.2318267822265625
1686428349225587500,4.57358740234375,-0.16375732421875,0.7207489013671875,-0.2042236328125
1686428349235532300,4.5835322265625,-0.2205963134765625,0.704681396484375,-0.1546630859375
1686428349245478400,4.593478515625,-0.27447509765625,0.6849517822265625,-0.1240692138671875
1686428349255423200,4.60342333984375,-0.3023529052734375,0.657379150390625,-0.0758056640625
1686428349265369300,4.613369384765625,-0.2952728271484375,0.628204345703125,-0.0080108642578125
1686428349275314400,4.623314453125,-0.249542236328125,0.6112823486328125,0.025909423828125
1686428349285260500,4.633260498046875,-0.1826324462890625,0.5853729248046875,0.0149383544921875
1686428349295205400,4.643205322265625,-0.1395263671875,0.583892822265625,0.007232666015625
1686428349305151500,4.6531513671875,-0.119384765625,0.6220855712890625,0.0307464599609375
1686428349315096300,4.663096435546875,-0.1106109619140625,0.680419921875,0.0899505615234375
1686428349325042400,4.67304248046875,-0.1049652099609375,0.7411956787109375,0.14227294921875
1686428349334987500,4.682987548828125,-0.073211669921875,0.8022003173828125,0.1563873291015625
1686428349344933400,4.692933349609375,-0.035614013671875,0.83856201171875,0.142547607421875
1686428349354878500,4.70287841796875,-0.028564453125,0.860107421875,0.1283416748046875
1686428349364824300,4.71282421875,-0.1072845458984375,0.9236602783203125,0.1272735595703125
1686428349374769400,4.722769287109375,-0.131866455078125,0.9852142333984375,0.1480865478515625
1686428349384715300,4.73271533203125,-0.068511962890625,0.9585723876953125,0.1572723388671875
1686428349394660400,4.742660400390625,-0.0452728271484375,0.862396240234375,0.1364593505859375
1686428349404606500,4.7526064453125,-0.0695343017578125,0.76446533203125,0.1224365234375
1686428349414551300,4.76255126953125,-0.1267242431640625,0.6956787109375,0.1406097412109375
1686428349424497400,4.772497314453125,-0.2051544189453125,0.667938232421875,0.1897125244140625
1686428349434442200,4.782442138671875,-0.2837371826171875,0.6587066650390625,0.21746826171875
1686428349444388400,4.792388427734375,-0.3426971435546875,0.6580352783203125,0.1822967529296875
1686428349454333200,4.802333251953125,-0.3635101318359375,0.658203125,0.09326171875
1686428349464279300,4.812279296875,-0.35125732421875,0.6471099853515625,-0.00567626953125
1686428349474224400,4.822224365234375,-0.318389892578125,0.652435302734375,-0.0702667236328125
1686428349484170500,4.83217041015625,-0.2735595703125,0.66900634765625,-0.133514404296875
1686428349494115300,4.842115234375,-0.2236328125,0.6973876953125,-0.1934051513671875
1686428349504061400,4.8520615234375,-0.1812896728515625,0.7218017578125,-0.2578125
1686428349514006300,4.86200634765625,-0.1563568115234375,0.758819580078125,-0.3060150146484375
1686428349523952400,4.871952392578125,-0.146331787109375,0.8323822021484375,-0.3229827880859375
1686428349533897500,4.8818974609375,-0.1512298583984375,0.94024658203125,-0.343536376953125
1686428349543843300,4.89184326171875,-0.157684326171875,1.068206787109375,-0.3983306884765625
1686428349553788400,4.901788330078125,-0.1549072265625,1.2023773193359375,-0.441986083984375
1686428349563734300,4.911734375,-0.1218414306640625,1.33270263671875,-0.422027587890625
1686428349573679400,4.921679443359375,-0.0699615478515625,1.501129150390625,-0.325439453125
1686428349583625200,4.931625244140625,-0.061920166015625,1.6382904052734375,-0.1109161376953125
1686428349593570600,4.941570556640625,-0.0703277587890625,1.6172332763671875,0.0684661865234375
1686428349603516400,4.951516357421875,-0.00982666015625,1.4690704345703125,0.1083831787109375
1686428349613461200,4.961461181640625,0.0501556396484375,1.33917236328125,0.0496368408203125
1686428349623407400,4.971407470703125,0.0278472900390625,1.4336090087890625,0.009490966796875
1686428349633352200,4.981352294921875,-0.0900726318359375,1.7216796875,0.0941619873046875
1686428349643298300,4.99129833984375,-0.2066497802734375,2.0594482421875,0.3060302734375
1686428349653243400,5.001243408203125,-0.2734222412109375,2.1893310546875,0.5283203125
1686428349663189500,5.011189453125,-0.291046142578125,1.9931793212890625,0.58001708984375
1686428349673134300,5.02113427734375,-0.31005859375,1.603759765625,0.504241943359375
1686428349683079400,5.031079345703125,-0.333587646484375,1.287628173828125,0.351898193359375
1686428349693025300,5.041025390625,-0.329254150390625,1.1533966064453125,0.1561737060546875
1686428349702970400,5.050970458984375,-0.309051513671875,1.112213134765625,0.0005950927734375
1686428349712916500,5.06091650390625,-0.2879638671875,1.1490936279296875,-0.0399017333984375
1686428349722861300,5.070861328125,-0.2867889404296875,1.1796722412109375,-0.00311279296875
1686428349732807400,5.080807373046875,-0.2949066162109375,1.13623046875,0.054840087890625
1686428349742752300,5.090752197265625,-0.3095855712890625,1.06549072265625,0.1320037841796875
1686428349752698400,5.100698486328125,-0.314483642578125,0.9765167236328125,0.141845703125
1686428349762643500,5.1106435546875,-0.2996063232421875,0.8771209716796875,0.1205902099609375
1686428349772589600,5.120589599609375,-0.2742462158203125,0.76580810546875,0.1281280517578125
1686428349782534400,5.130534423828125,-0.2639923095703125,0.6702880859375,0.15045166015625
1686428349792480500,5.14048046875,-0.279296875,0.6014556884765625,0.1706695556640625
1686428349802425300,5.15042529296875,-0.281829833984375,0.520233154296875,0.1644744873046875
1686428349812371200,5.16037109375,-0.2588043212890625,0.467742919921875,0.154876708984375
1686428349822316300,5.17031640625,-0.232208251953125,0.4449310302734375,0.136444091796875
1686428349832262400,5.180262451171875,-0.204803466796875,0.4370269775390625,0.1071929931640625
1686428349842207500,5.19020751953125,-0.1540374755859375,0.441070556640625,0.066619873046875
1686428349852153300,5.2001533203125,-0.100738525390625,0.4663238525390625,0.02435302734375
1686428349862098400,5.210098388671875,-0.052337646484375,0.4884185791015625,-0.0225982666015625
1686428349872044300,5.220044189453125,-0.0346527099609375,0.5028533935546875,-0.051544189453125
1686428349881989400,5.2299892578125,-0.039520263671875,0.5061187744140625,-0.060791015625
1686428349891935200,5.239935302734375,-0.0536956787109375,0.5191802978515625,-0.047027587890625
1686428349901880300,5.24988037109375,-0.079559326171875,0.5518035888671875,-0.01043701171875
1686428349911826400,5.259826416015625,-0.118255615234375,0.60308837890625,0.0557861328125
1686428349921771300,5.269771240234375,-0.1249542236328125,0.666900634765625,0.0769195556640625
1686428349931717400,5.27971728515625,-0.11407470703125,0.7568511962890625,0.05682373046875
1686428349941662200,5.289662109375,-0.112945556640625,0.8314666748046875,0.0168304443359375
1686428349951608300,5.2996083984375,-0.11102294921875,0.8692169189453125,-0.0573577880859375
1686428349961553400,5.309553466796875,-0.07965087890625,0.8821868896484375,-0.12823486328125
1686428349971499500,5.31949951171875,-0.0526275634765625,0.87188720703125,-0.1668701171875
1686428349981444400,5.3294443359375,-0.0450439453125,0.8422393798828125,-0.146240234375
1686428349991390500,5.339390380859375,-0.0736236572265625,0.7859344482421875,-0.0854644775390625
1686428350001335300,5.349335205078125,-0.13519287109375,0.7155609130859375,-0.02081298828125
1686428350011281200,5.35928125,-0.19342041015625,0.660980224609375,0.062591552734375
1686428350021226500,5.3692265625,-0.2298431396484375,0.6229400634765625,0.1643218994140625
1686428350031172400,5.37917236328125,-0.2252349853515625,0.6084136962890625,0.2611846923828125
1686428350041117400,5.389117431640625,-0.1807708740234375,0.637603759765625,0.3582305908203125
1686428350051063300,5.399063232421875,-0.136016845703125,0.7274322509765625,0.4728546142578125
1686428350061008400,5.40900830078125,-0.1522674560546875,0.893341064453125,0.6087646484375
1686428350070954800,5.418954833984375,-0.1117706298828125,1.1384735107421875,0.635101318359375
1686428350080899800,5.42889990234375,0.1233673095703125,1.4627838134765625,0.47637939453125
1686428350090845700,5.438845703125,0.3953399658203125,1.8430938720703125,0.181884765625
1686428350100790800,5.448790771484375,0.6319427490234375,2.068328857421875,-0.212493896484375
1686428350110737000,5.45873681640625,0.788604736328125,1.943603515625,-0.5506591796875
1686428350120681700,5.468681640625,0.720947265625,1.6197357177734375,-0.64404296875
1686428350130627600,5.478627685546875,0.547027587890625,1.502838134765625,-0.5579986572265625
1686428350140572700,5.48857275390625,-0.0217132568359375,1.74530029296875,-0.4053802490234375
1686428350150518500,5.4985185546875,-0.995574951171875,2.108673095703125,-0.3028564453125
1686428350160464000,5.5084638671875,-1.572357177734375,2.34234619140625,-0.204376220703125
1686428350170409700,5.51840966796875,-1.28607177734375,2.162994384765625,-0.0737457275390625
1686428350180354800,5.528354736328125,-0.798614501953125,1.4675140380859375,0.0463409423828125
1686428350190300700,5.53830078125,-0.4808502197265625,0.8639373779296875,0.1668243408203125
1686428350200245800,5.548245849609375,-0.2891693115234375,0.5569915771484375,0.2440643310546875
1686428350210191600,5.558191650390625,-0.1935882568359375,0.53515625,0.2907562255859375
1686428350220136700,5.56813671875,-0.135223388671875,0.7742462158203125,0.326263427734375
1686428350230082800,5.578082763671875,-0.075775146484375,1.1473846435546875,0.274871826171875
1686428350240027600,5.588027587890625,-0.02337646484375,1.470916748046875,0.0991363525390625
1686428350249973800,5.597973876953125,-0.0540924072265625,1.6848297119140625,-0.153167724609375
1686428350259918600,5.607918701171875,-0.0733184814453125,1.6851654052734375,-0.3603668212890625
1686428350269864700,5.61786474609375,0.0606536865234375,1.4776153564453125,-0.44268798828125
1686428350279809800,5.627809814453125,0.252197265625,1.1982421875,-0.4357452392578125
1686428350289756000,5.637755859375,0.3019256591796875,0.979400634765625,-0.3960418701171875
1686428350299700700,5.64770068359375,0.152740478515625,0.8470916748046875,-0.25860595703125
1686428350309646800,5.657646728515625,-0.105865478515625,0.7551727294921875,-0.0997314453125
1686428350319591700,5.667591796875,-0.3041839599609375,0.68182373046875,-0.0188140869140625
1686428350329537500,5.67753759765625,-0.4290618896484375,0.6194915771484375,0.0269927978515625
1686428350339483000,5.68748291015625,-0.5147857666015625,0.5535888671875,0.0643463134765625
1686428350349428700,5.6974287109375,-0.542816162109375,0.484954833984375,0.1216278076171875
1686428350359373800,5.707373779296875,-0.515472412109375,0.421478271484375,0.174072265625
1686428350369319700,5.717319580078125,-0.4447479248046875,0.3825836181640625,0.191650390625
1686428350379264800,5.7272646484375,-0.35455322265625,0.3730621337890625,0.1890716552734375
1686428350389210600,5.737210693359375,-0.27154541015625,0.3925018310546875,0.1797637939453125
1686428350399156000,5.747156005859375,-0.205352783203125,0.4325103759765625,0.17022705078125
1686428350409101800,5.757101806640625,-0.1584625244140625,0.4936981201171875,0.1865386962890625
1686428350419046700,5.767046630859375,-0.136749267578125,0.560394287109375,0.2026214599609375
1686428350428992800,5.77699267578125,-0.1230316162109375,0.6311798095703125,0.19500732421875
1686428350438937600,5.7869375,-0.1038818359375,0.7206878662109375,0.175079345703125
1686428350448883700,5.7968837890625,-0.0870361328125,0.836761474609375,0.149993896484375
1686428350458828800,5.806828857421875,-0.0894775390625,0.95404052734375,0.1219635009765625
1686428350468775000,5.81677490234375,-0.1020965576171875,1.023101806640625,0.0683135986328125
1686428350478719700,5.8267197265625,-0.09637451171875,1.012054443359375,-0.00506591796875
1686428350488665900,5.836665771484375,-0.0816802978515625,0.961273193359375,-0.03680419921875
1686428350498610700,5.846610595703125,-0.0803375244140625,0.8918304443359375,-0.013275146484375
1686428350508556800,5.856556884765625,-0.1199798583984375,0.8029327392578125,0.049285888671875
1686428350518501600,5.866501708984375,-0.1937255859375,0.7264862060546875,0.11688232421875
1686428350528447700,5.87644775390625,-0.2852325439453125,0.66693115234375,0.1375885009765625
1686428350538392800,5.886392822265625,-0.3687591552734375,0.6155242919921875,0.11004638671875
1686428350548338700,5.896338623046875,-0.392303466796875,0.572479248046875,0.00421142578125
1686428350558283800,5.90628369140625,-0.3432159423828125,0.5365447998046875,-0.1042633056640625
1686428350568229600,5.916229736328125,-0.271453857421875,0.5072784423828125,-0.14117431640625
1686428350578174700,5.9261748046875,-0.209869384765625,0.495086669921875,-0.1493682861328125
1686428350588120600,5.93612060546875,-0.175537109375,0.5029296875,-0.183807373046875
1686428350598066000,5.94606591796875,-0.13629150390625,0.5341796875,-0.2433013916015625
1686428350608011800,5.95601171875,-0.096954345703125,0.5837860107421875,-0.304107666015625
1686428350617956600,5.96595654296875,-0.0717315673828125,0.65252685546875,-0.3298797607421875
1686428350627902700,5.97590283203125,-0.075103759765625,0.7562408447265625,-0.3050537109375
1686428350637847600,5.98584765625,-0.1066741943359375,0.9404296875,-0.276641845703125
1686428350647793700,5.995793701171875,-0.113616943359375,1.2207183837890625,-0.3042144775390625
1686428350657738800,6.00573876953125,-0.1005401611328125,1.5735015869140625,-0.3958740234375
1686428350667684900,6.015684814453125,-0.140533447265625,2.06683349609375,-0.5042724609375
1686428350677629700,6.025629638671875,-0.0772857666015625,2.47698974609375,-0.4420166015625
1686428350687575800,6.035575927734375,0.09100341796875,2.4569549560546875,-0.104339599609375
1686428350697520600,6.045520751953125,0.185699462890625,2.0396728515625,0.1959381103515625
1686428350707466800,6.055466796875,0.138031005859375,1.6500396728515625,0.369293212890625
1686428350717411800,6.065411865234375,0.00323486328125,1.4453125,0.4604339599609375
1686428350727357700,6.075357666015625,-0.1022796630859375,1.485748291015625,0.4605865478515625
1686428350737302800,6.085302734375,-0.186370849609375,1.6572418212890625,0.4720611572265625
1686428350747248600,6.09524853515625,-0.2720947265625,1.8455047607421875,0.4188385009765625
1686428350757193700,6.10519384765625,-0.3256683349609375,1.8627471923828125,0.3789520263671875
1686428350767139600,6.1151396484375,-0.31597900390625,1.67120361328125,0.380767822265625
1686428350777085000,6.1250849609375,-0.2694091796875,1.4439544677734375,0.356597900390625
1686428350787030800,6.13503076171875,-0.240997314453125,1.291412353515625,0.261474609375
1686428350796975900,6.144975830078125,-0.1974639892578125,1.20111083984375,0.120574951171875
1686428350806921700,6.154921630859375,-0.147064208984375,1.1579437255859375,0.0074310302734375
1686428350816866600,6.164866455078125,-0.1314544677734375,1.128997802734375,-0.0450897216796875
1686428350826812700,6.174812744140625,-0.17236328125,1.071990966796875,-0.0255584716796875
1686428350836757800,6.1847578125,-0.2286224365234375,1.01123046875,0.0246429443359375
1686428350846703900,6.194703857421875,-0.2699432373046875,0.932373046875,0.0565032958984375
1686428350856648700,6.204648681640625,-0.2745208740234375,0.830963134765625,0.0995330810546875
1686428350866594800,6.2145947265625,-0.264068603515625,0.7338714599609375,0.162841796875
1686428350876539600,6.22453955078125,-0.258514404296875,0.6431884765625,0.2125701904296875
1686428350886485800,6.23448583984375,-0.24847412109375,0.5685272216796875,0.24945068359375
1686428350896430800,6.244430908203125,-0.2313385009765625,0.5023345947265625,0.2640838623046875
1686428350906377000,6.254376953125,-0.2069854736328125,0.4615936279296875,0.25335693359375
1686428350916321800,6.26432177734375,-0.1706085205078125,0.43402099609375,0.1828460693359375
1686428350926268000,6.274267822265625,-0.1543121337890625,0.4162445068359375,0.1165313720703125
1686428350936212700,6.284212646484375,-0.1663055419921875,0.4103546142578125,0.0611724853515625
1686428350946158600,6.29415869140625,-0.1413116455078125,0.4042816162109375,0.006317138671875
1686428350956103700,6.304103759765625,-0.1029510498046875,0.409271240234375,-0.041717529296875
1686428350966049800,6.3140498046875,-0.07733154296875,0.42730712890625,-0.0693206787109375
1686428350975995000,6.323994873046875,-0.06243896484375,0.4466552734375,-0.07305908203125
1686428350985940700,6.333940673828125,-0.0599212646484375,0.4654083251953125,-0.0714874267578125
1686428350995885800,6.3438857421875,-0.057952880859375,0.4937591552734375,-0.0780029296875
1686428351005831700,6.353831787109375,-0.0628662109375,0.538787841796875,-0.063323974609375
1686428351015776500,6.363776611328125,-0.070648193359375,0.6104888916015625,-0.0361328125
1686428351025722600,6.37372265625,-0.0792083740234375,0.7370452880859375,-0.0189971923828125
1686428351035667700,6.383667724609375,-0.1070098876953125,0.8861236572265625,-0.0024261474609375
1686428351045613800,6.39361376953125,-0.135162353515625,1.00115966796875,-0.0115814208984375
1686428351055558700,6.40355859375,-0.136383056640625,1.0487518310546875,-0.0555267333984375
1686428351065504500,6.41350439453125,-0.1085357666015625,1.01824951171875,-0.1053314208984375
1686428351075449300,6.423449462890625,-0.064239501953125,0.92694091796875,-0.127655029296875
1686428351085395500,6.4333955078125,-0.035308837890625,0.792999267578125,-0.0625
1686428351095340500,6.443340576171875,-0.034423828125,0.6652374267578125,0.0473785400390625
1686428351105286700,6.45328662109375,-0.0668792724609375,0.55181884765625,0.1122894287109375
1686428351115231500,6.4632314453125,-0.11566162109375,0.4627532958984375,0.1475372314453125
1686428351125177300,6.47317724609375,-0.160675048828125,0.4257354736328125,0.1822052001953125
1686428351135122400,6.483122314453125,-0.1526336669921875,0.4661102294921875,0.276153564453125
1686428351145068300,6.493068359375,-0.1054840087890625,0.618804931640625,0.417083740234375
1686428351155013600,6.503013671875,-0.169708251953125,0.85699462890625,0.560211181640625
1686428351164959500,6.51295947265625,-0.297576904296875,1.130859375,0.6364593505859375
1686428351174904600,6.522904541015625,-0.170684814453125,1.47430419921875,0.52667236328125
1686428351184850400,6.532850341796875,0.1277618408203125,1.8721771240234375,0.28485107421875
1686428351194795500,6.54279541015625,0.3814239501953125,2.1176300048828125,-0.11309814453125
1686428351204741400,6.552741455078125,0.6070556640625,2.0873260498046875,-0.54718017578125
1686428351214686500,6.5626865234375,0.594146728515625,1.84075927734375,-0.731719970703125
1686428351224632600,6.572632568359375,0.3757171630859375,1.5682830810546875,-0.6330413818359375
1686428351234577400,6.582577392578125,0.0440216064453125,1.481109619140625,-0.4618072509765625
1686428351244523500,6.5925234375,-0.564788818359375,1.73529052734375,-0.26055908203125
1686428351254468400,6.60246826171875,-1.2875823974609375,2.087493896484375,-0.071044921875
1686428351264414500,6.61241455078125,-1.430877685546875,2.230712890625,0.045166015625
1686428351274359600,6.622359619140625,-0.95135498046875,1.9716033935546875,0.125518798828125
1686428351284305700,6.6323056640625,-0.4302215576171875,1.3531494140625,0.2239227294921875
1686428351294250500,6.64225048828125,-0.1317291259765625,0.8934326171875,0.28607177734375
1686428351304196600,6.652196533203125,0.0457611083984375,0.7338409423828125,0.2857818603515625
1686428351314141400,6.662141357421875,0.1071014404296875,0.810333251953125,0.2943267822265625
1686428351324087300,6.67208740234375,0.095489501953125,1.05438232421875,0.2806243896484375
1686428351334032600,6.68203271484375,0.07843017578125,1.3221893310546875,0.1538238525390625
1686428351343978500,6.691978515625,0.0209197998046875,1.521453857421875,-0.040557861328125
1686428351353923600,6.701923583984375,-0.0860748291015625,1.587158203125,-0.230712890625
1686428351363869400,6.711869384765625,-0.1298828125,1.4764556884765625,-0.35858154296875
1686428351373814500,6.721814453125,-0.03570556640625,1.2356719970703125,-0.4047088623046875
1686428351383760400,6.731760498046875,0.094757080078125,0.9784393310546875,-0.37579345703125
1686428351393705700,6.741705810546875,0.140716552734375,0.7876129150390625,-0.3574066162109375
1686428351403651600,6.751651611328125,0.0442657470703125,0.694091796875,-0.3002471923828125
1686428351413596400,6.761596435546875,-0.107452392578125,0.6443634033203125,-0.24176025390625
1686428351423542500,6.77154248046875,-0.21429443359375,0.603057861328125,-0.2135162353515625
1686428351433487400,6.7814873046875,-0.2760009765625,0.5644683837890625,-0.18658447265625
1686428351443433500,6.79143359375,-0.322021484375,0.5267181396484375,-0.147003173828125
1686428351453378600,6.801378662109375,-0.35711669921875,0.4876251220703125,-0.0960845947265625
1686428351463324700,6.81132470703125,-0.3601531982421875,0.4566802978515625,-0.062957763671875
1686428351473269500,6.82126953125,-0.335693359375,0.4304656982421875,-0.0467529296875
1686428351483215600,6.831215576171875,-0.289825439453125,0.41400146484375,-0.0423583984375
1686428351493160400,6.841160400390625,-0.2341461181640625,0.40032958984375,-0.0220184326171875
1686428351503106600,6.8511064453125,-0.1792755126953125,0.3938751220703125,0.0270843505859375
1686428351513051400,6.861051513671875,-0.1453094482421875,0.413726806640625,0.088531494140625
1686428351522997500,6.87099755859375,-0.1286468505859375,0.4703216552734375,0.157958984375
1686428351532942600,6.880942626953125,-0.12579345703125,0.5510406494140625,0.208038330078125
1686428351542888400,6.890888427734375,-0.137725830078125,0.6567840576171875,0.218353271484375
1686428351552833500,6.90083349609375,-0.1672821044921875,0.779571533203125,0.20782470703125
1686428351562779400,6.910779296875,-0.1929168701171875,0.8935089111328125,0.1887359619140625
1686428351572724500,6.920724365234375,-0.1803741455078125,0.95111083984375,0.152374267578125
1686428351582670300,6.93067041015625,-0.1326751708984375,0.9410247802734375,0.1201171875
1686428351592615700,6.94061572265625,-0.07476806640625,0.904632568359375,0.1341094970703125
1686428351602561500,6.9505615234375,-0.0425262451171875,0.84808349609375,0.1831512451171875
1686428351612506400,6.96050634765625,-0.0616607666015625,0.7874603271484375,0.240447998046875
1686428351622452500,6.970452392578125,-0.1464691162109375,0.7539520263671875,0.2723236083984375
1686428351632397300,6.980397216796875,-0.24774169921875,0.757965087890625,0.2469482421875
1686428351642343400,6.990343505859375,-0.3074493408203125,0.760467529296875,0.13165283203125
1686428351652288500,7.00028857421875,-0.3055572509765625,0.728485107421875,-0.0133514404296875
1686428351662234600,7.010234619140625,-0.273345947265625,0.68438720703125,-0.064605712890625
1686428351672179500,7.020179443359375,-0.253448486328125,0.6464385986328125,-0.0474700927734375
1686428351682125600,7.03012548828125,-0.23382568359375,0.62493896484375,-0.0599822998046875
1686428351692071400,7.040071533203125,-0.2061614990234375,0.6304168701171875,-0.1175994873046875
1686428351702016500,7.0500166015625,-0.2052764892578125,0.6649169921875,-0.1782073974609375
1686428351711962400,7.05996240234375,-0.2345428466796875,0.754180908203125,-0.219268798828125
1686428351721907500,7.069907470703125,-0.24420166015625,0.9274444580078125,-0.2634735107421875
1686428351731853600,7.079853515625,-0.2270050048828125,1.17333984375,-0.3367767333984375
1686428351741798400,7.08979833984375,-0.1958770751953125,1.4469146728515625,-0.3767547607421875
1686428351751744500,7.09974462890625,-0.184783935546875,1.80029296875,-0.361724853515625
1686428351761689300,7.109689453125,-0.12725830078125,2.1553192138671875,-0.2843170166015625
1686428351771635500,7.119635498046875,0.0105438232421875,2.2108306884765625,-0.1303253173828125
1686428351781580500,7.12958056640625,0.084625244140625,1.933074951171875,-0.0182952880859375
1686428351791526700,7.139526611328125,0.062591552734375,1.607269287109375,0.0191497802734375
1686428351801471500,7.149471435546875,-0.00567626953125,1.42547607421875,-0.0100860595703125
1686428351811417600,7.15941748046875,-0.063385009765625,1.4727630615234375,-0.0077972412109375
1686428351821362400,7.169362548828125,-0.083251953125,1.6879730224609375,0.1427001953125
1686428351831308500,7.17930859375,-0.120025634765625,1.8856353759765625,0.3586273193359375
1686428351841253600,7.189253662109375,-0.1833038330078125,1.87481689453125,0.459625244140625
1686428351851199500,7.199199462890625,-0.2101898193359375,1.6464385986328125,0.425506591796875
1686428351861144600,7.20914453125,-0.2065582275390625,1.3565826416015625,0.3575286865234375
1686428351871090400,7.21909033203125,-0.2159881591796875,1.17169189453125,0.2625274658203125
1686428351881035500,7.229035400390625,-0.2132110595703125,1.127197265625,0.150970458984375
1686428351890981400,7.2389814453125,-0.1947479248046875,1.14251708984375,0.0742034912109375
1686428351900926500,7.248926513671875,-0.1802978515625,1.179443359375,0.048004150390625
1686428351910872600,7.25887255859375,-0.2005157470703125,1.1819000244140625,0.0595703125
1686428351920817700,7.268817626953125,-0.2354583740234375,1.13775634765625,0.0820770263671875
1686428351930763500,7.278763427734375,-0.269805908203125,1.08416748046875,0.09576416015625
1686428351940708400,7.288708251953125,-0.272308349609375,0.99188232421875,0.110992431640625
1686428351950654500,7.298654541015625,-0.2376251220703125,0.8612823486328125,0.1448211669921875
1686428351960599300,7.308599365234375,-0.1905517578125,0.7178497314453125,0.1766815185546875
1686428351970545400,7.31854541015625,-0.1747283935546875,0.5951385498046875,0.17645263671875
1686428351980490500,7.328490478515625,-0.184906005859375,0.5112152099609375,0.1588287353515625
1686428351990436600,7.3384365234375,-0.2000885009765625,0.4700164794921875,0.1509552001953125
1686428352000381400,7.34838134765625,-0.2021026611328125,0.4482574462890625,0.154388427734375
1686428352010327600,7.35832763671875,-0.1774444580078125,0.444305419921875,0.142852783203125
1686428352020272400,7.3682724609375,-0.1316375732421875,0.4422607421875,0.12738037109375
1686428352030218500,7.378218505859375,-0.0878753662109375,0.4424591064453125,0.103302001953125
1686428352040163600,7.38816357421875,-0.0615692138671875,0.4510498046875,0.083709716796875
1686428352050109400,7.398109375,-0.0480499267578125,0.4572906494140625,0.0737762451171875
1686428352060054500,7.408054443359375,-0.0450592041015625,0.4532470703125,0.066650390625
1686428352070000600,7.418000732421875,-0.0538482666015625,0.43853759765625,0.055633544921875
1686428352079945500,7.427945556640625,-0.069091796875,0.4430084228515625,0.053070068359375
1686428352089891300,7.437891357421875,-0.0858154296875,0.48065185546875,0.066864013671875
1686428352099836700,7.447836669921875,-0.0678253173828125,0.566009521484375,0.045745849609375
1686428352109782500,7.457782470703125,-0.0419158935546875,0.71221923828125,0.004974365234375
1686428352119727600,7.4677275390625,-0.02850341796875,0.86431884765625,-0.042938232421875
1686428352129673500,7.477673583984375,-0.017669677734375,0.971099853515625,-0.113494873046875
1686428352139618600,7.48761865234375,-0.0056304931640625,0.9962158203125,-0.194122314453125
1686428352149564400,7.497564453125,-0.005279541015625,0.9412994384765625,-0.2379608154296875
1686428352159509500,7.507509521484375,-0.0147247314453125,0.824981689453125,-0.19293212890625
1686428352169455600,7.51745556640625,-0.0470733642578125,0.6902313232421875,-0.0829925537109375
1686428352179400400,7.527400390625,-0.1030426025390625,0.5767669677734375,0.0290069580078125
1686428352189346600,7.5373466796875,-0.1638641357421875,0.50164794921875,0.1238861083984375
1686428352199291400,7.54729150390625,-0.1787567138671875,0.483367919921875,0.2154388427734375
1686428352209237500,7.557237548828125,-0.1442413330078125,0.5605926513671875,0.3232879638671875
1686428352219182600,7.5671826171875,-0.148101806640625,0.7447967529296875,0.4482421875
1686428352229128700,7.577128662109375,-0.277984619140625,0.993743896484375,0.6039581298828125
1686428352239073500,7.587073486328125,-0.2780303955078125,1.300384521484375,0.5945892333984375
1686428352249019600,7.59701953125,0.0592498779296875,1.6636199951171875,0.359222412109375
1686428352258964500,7.606964599609375,0.373291015625,1.939544677734375,0.005828857421875
1686428352268910600,7.61691064453125,0.49847412109375,1.95654296875,-0.387939453125
1686428352278855700,7.626855712890625,0.5376434326171875,1.740478515625,-0.6648101806640625
1686428352288801500,7.636801513671875,0.4183349609375,1.4785614013671875,-0.685333251953125
1686428352298746600,7.64674658203125,0.2263946533203125,1.3371429443359375,-0.53411865234375
1686428352308692500,7.6566923828125,-0.076385498046875,1.477569580078125,-0.33148193359375
1686428352318637600,7.666637451171875,-0.78314208984375,1.85467529296875,-0.2039337158203125
1686428352328583400,7.67658349609375,-1.5291290283203125,2.132415771484375,-0.1081390380859375
1686428352338529500,7.686529541015625,-1.441864013671875,2.1590423583984375,-0.0446014404296875
1686428352348474600,7.696474609375,-0.805084228515625,1.7490386962890625,0.0373382568359375
1686428352358420700,7.706420654296875,-0.2642974853515625,1.19586181640625,0.1493377685546875
1686428352368365600,7.716365478515625,0.0024566650390625,0.8458099365234375,0.2198333740234375
1686428352378311700,7.726311767578125,0.13623046875,0.7478485107421875,0.260284423828125
1686428352388256500,7.736256591796875,0.157958984375,0.939208984375,0.2978363037109375
1686428352398202400,7.746202392578125,0.0890655517578125,1.2837677001953125,0.2430572509765625
1686428352408147500,7.7561474609375,-0.0414276123046875,1.57427978515625,0.080322265625
1686428352418093600,7.766093505859375,-0.20074462890625,1.7629852294921875,-0.0670623779296875
1686428352428038700,7.77603857421875,-0.2821044921875,1.7508392333984375,-0.15911865234375
1686428352437984500,7.785984619140625,-0.17169189453125,1.5219879150390625,-0.2397613525390625
1686428352447929600,7.7959296875,0.0453338623046875,1.1923980712890625,-0.29888916015625
1686428352457875500,7.80587548828125,0.1762237548828125,0.9359588623046875,-0.249267578125
1686428352467820500,7.815820556640625,0.1026611328125,0.8062896728515625,-0.152099609375
1686428352477766400,7.825766357421875,-0.0604095458984375,0.766937255859375,-0.118896484375
1686428352487711500,7.83571142578125,-0.2115478515625,0.76605224609375,-0.107940673828125
1686428352497657600,7.84565771484375,-0.30804443359375,0.7442474365234375,-0.098785400390625
1686428352507602400,7.8556025390625,-0.36749267578125,0.6930389404296875,-0.084075927734375
1686428352517548500,7.865548583984375,-0.391143798828125,0.624176025390625,-0.0464935302734375
1686428352527493400,7.875493408203125,-0.3757171630859375,0.5507965087890625,0.002777099609375
1686428352537439500,7.885439453125,-0.324951171875,0.48712158203125,0.0423126220703125
1686428352547384600,7.895384521484375,-0.262359619140625,0.454681396484375,0.080841064453125
1686428352557330700,7.90533056640625,-0.210418701171875,0.4593048095703125,0.1238555908203125
1686428352567275500,7.915275634765625,-0.1874847412109375,0.48699951171875,0.171539306640625
1686428352577221600,7.9252216796875,-0.1873626708984375,0.526123046875,0.222076416015625
1686428352587166500,7.93516650390625,-0.195953369140625,0.577972412109375,0.2525787353515625
1686428352597112600,7.945112548828125,-0.2028656005859375,0.6332550048828125,0.254974365234375
1686428352607057700,7.9550576171875,-0.1962890625,0.6920166015625,0.248291015625
1686428352617003500,7.96500341796875,-0.1956329345703125,0.748138427734375,0.2412872314453125
1686428352626948600,7.974948486328125,-0.1930694580078125,0.7960052490234375,0.235107421875
1686428352636894500,7.98489453125,-0.175537109375,0.8204345703125,0.225250244140625
1686428352646839600,7.994839599609375,-0.14654541015625,0.8201904296875,0.2092132568359375
1686428352656785400,8.004785400390626,-0.12628173828125,0.7982177734375,0.1753082275390625
1686428352666730800,8.014730712890625,-0.1208038330078125,0.769683837890625,0.1463775634765625
1686428352676676600,8.024676513671874,-0.12689208984375,0.7402801513671875,0.1475067138671875
1686428352686621400,8.034621337890625,-0.157958984375,0.71917724609375,0.1486663818359375
1686428352696567600,8.044567626953125,-0.2038421630859375,0.699737548828125,0.12164306640625
1686428352706512400,8.054512451171876,-0.2490234375,0.6902923583984375,0.0753631591796875
1686428352716458500,8.06445849609375,-0.2750091552734375,0.6956024169921875,0.0040283203125
1686428352726403600,8.074403564453124,-0.279327392578125,0.7096405029296875,-0.0723876953125
1686428352736349700,8.084349609375,-0.2590484619140625,0.72747802734375,-0.1253509521484375
1686428352746294500,8.09429443359375,-0.2255706787109375,0.7500762939453125,-0.13665771484375
1686428352756240600,8.10424072265625,-0.189483642578125,0.767333984375,-0.128387451171875
1686428352766185500,8.114185546875,-0.1425628662109375,0.7726898193359375,-0.133148193359375
1686428352776131600,8.124131591796875,-0.0937652587890625,0.762939453125,-0.1514129638671875
1686428352786077400,8.134077392578124,-0.054779052734375,0.72918701171875,-0.1873626708984375
1686428352796022500,8.1440224609375,-0.042449951171875,0.68060302734375,-0.2386016845703125
1686428352805968600,8.15396875,-0.0571136474609375,0.6351470947265625,-0.29888916015625
1686428352815913500,8.16391357421875,-0.079803466796875,0.6248321533203125,-0.33343505859375
1686428352825859600,8.173859619140625,-0.1147918701171875,0.6756439208984375,-0.3340301513671875
1686428352835804400,8.183804443359374,-0.1338653564453125,0.7893524169921875,-0.3236083984375
1686428352845750500,8.19375048828125,-0.134918212890625,0.9759674072265625,-0.33074951171875
1686428352855695400,8.2036953125,-0.14501953125,1.2337799072265625,-0.39630126953125
1686428352865641500,8.213641357421874,-0.223907470703125,1.515350341796875,-0.41552734375
1686428352875586600,8.223586669921875,-0.3726806640625,1.8992919921875,-0.3763275146484375
1686428352885532700,8.23353271484375,-0.313018798828125,2.1297454833984375,-0.199066162109375
1686428352895477500,8.2434775390625,-0.0841522216796875,2.0471954345703125,0.048980712890625
1686428352905423600,8.253423583984375,0.2048797607421875,1.8846435546875,0.190399169921875
1686428352915368400,8.263368408203124,0.3044586181640625,1.8238067626953125,0.27734375
1686428352925314300,8.273314208984376,0.22467041015625,1.893310546875,0.3834991455078125
1686428352935259600,8.283259765625,0.0945892333984375,2.0829925537109375,0.45379638671875
1686428352945205500,8.29320556640625,-0.05828857421875,2.1767730712890625,0.4499969482421875
1686428352955150600,8.303150634765625,-0.2127838134765625,2.0090484619140625,0.37750244140625
1686428352965096400,8.313096435546875,-0.326263427734375,1.6942901611328125,0.3288726806640625
1686428352975041500,8.32304150390625,-0.3646392822265625,1.390777587890625,0.3211212158203125
1686428352984987400,8.3329873046875,-0.336761474609375,1.1949005126953125,0.2626800537109375
1686428352994932700,8.3429326171875,-0.25921630859375,1.138458251953125,0.1768035888671875
1686428353004878600,8.352878662109376,-0.1959228515625,1.16607666015625,0.086578369140625
1686428353014823400,8.362823486328125,-0.2172698974609375,1.1746826171875,0.045745849609375
1686428353024769500,8.37276953125,-0.2886199951171875,1.154632568359375,0.0655517578125
1686428353034714400,8.38271435546875,-0.370513916015625,1.108642578125,0.1087493896484375
1686428353044660500,8.392660400390625,-0.3935546875,1.0157928466796875,0.1436920166015625
1686428353054605600,8.40260546875,-0.363983154296875,0.8658599853515625,0.2154541015625
1686428353064552200,8.41255224609375,-0.32037353515625,0.701324462890625,0.283843994140625
1686428353074497000,8.4224970703125,-0.270111083984375,0.571319580078125,0.2812652587890625
1686428353084443100,8.432443115234374,-0.228424072265625,0.4766693115234375,0.2469635009765625
1686428353094388000,8.442387939453125,-0.1819305419921875,0.415863037109375,0.210235595703125
1686428353104334000,8.452333984375,-0.1309356689453125,0.390838623046875,0.1765899658203125
1686428353114279000,8.46227880859375,-0.0837860107421875,0.386199951171875,0.142059326171875
1686428353124225000,8.47222509765625,-0.045654296875,0.38287353515625,0.0869903564453125
1686428353134171100,8.482171142578125,-0.01885986328125,0.3831634521484375,0.030242919921875
1686428353144116000,8.492115966796876,0.010040283203125,0.3858795166015625,-0.016082763671875
1686428353154062000,8.50206201171875,0.041046142578125,0.387939453125,-0.0594482421875
1686428353164007000,8.5120068359375,0.0569305419921875,0.388916015625,-0.0892181396484375
1686428353173953000,8.521953125,0.0493621826171875,0.397705078125,-0.1059417724609375
1686428353183897900,8.53189794921875,0.021209716796875,0.4286651611328125,-0.1270904541015625
1686428353193844000,8.541843994140624,-0.01715087890625,0.4936981201171875,-0.1448211669921875
1686428353203789000,8.5517890625,-0.051055908203125,0.604888916015625,-0.1440887451171875
1686428353213735200,8.561735107421875,-0.0808868408203125,0.7623291015625,-0.11822509765625
1686428353223680000,8.571679931640626,-0.13470458984375,0.9353179931640625,-0.0562591552734375
1686428353233626000,8.581626220703125,-0.2116546630859375,1.0656585693359375,0.01141357421875
1686428353243571000,8.591571044921874,-0.2250213623046875,1.1058502197265625,0.037200927734375
1686428353253517000,8.60151708984375,-0.1487579345703125,1.01458740234375,0.004119873046875
1686428353263462100,8.611462158203125,-0.03778076171875,0.83319091796875,-0.0374298095703125
1686428353273408000,8.621407958984374,0.0427093505859375,0.6730499267578125,0.0218048095703125
1686428353283353000,8.63135302734375,0.0672607421875,0.54388427734375,0.1063995361328125
1686428353293299000,8.641298828125,0.0350189208984375,0.44573974609375,0.131591796875
1686428353303244000,8.651244140625,-0.0285186767578125,0.38970947265625,0.1217803955078125
1686428353313190000,8.66118994140625,-0.0793609619140625,0.3920135498046875,0.1046295166015625
1686428353323135200,8.67113525390625,-0.100128173828125,0.458099365234375,0.1032562255859375
1686428353333081000,8.6810810546875,-0.0745086669921875,0.576507568359375,0.189605712890625
1686428353343026000,8.69102587890625,0.0040283203125,0.7396697998046875,0.2906494140625
1686428353352972000,8.700971923828124,0.0659027099609375,0.9645233154296875,0.345977783203125
1686428353362916900,8.710916748046875,-0.0238800048828125,1.3128662109375,0.4062652587890625
1686428353372863000,8.720863037109375,-0.141815185546875,1.757354736328125,0.3988800048828125
1686428353382808000,8.73080810546875,0.0716705322265625,2.0370330810546875,0.30810546875
1686428353392754200,8.740754150390625,0.4900360107421875,2.1339263916015625,0.086669921875
1686428353402699000,8.750698974609374,0.7433624267578125,1.9614715576171875,-0.3235321044921875
1686428353412645000,8.76064501953125,0.53973388671875,1.57391357421875,-0.67022705078125
1686428353422591000,8.770591064453125,0.2160797119140625,1.33856201171875,-0.707244873046875
1686428353432536000,8.7805361328125,-0.1239776611328125,1.548675537109375,-0.4656219482421875
1686428353442482000,8.79048193359375,-0.8402252197265625,1.961517333984375,-0.282684326171875
1686428353452427300,8.80042724609375,-1.4175262451171875,2.228271484375,-0.17779541015625
1686428353462373000,8.810373046875,-1.2413330078125,2.146453857421875,-0.08172607421875
1686428353472318000,8.82031787109375,-0.6491241455078125,1.5419158935546875,0.030487060546875
1686428353482264000,8.83026416015625,-0.2630767822265625,0.9517669677734375,0.10260009765625
1686428353492209000,8.840208984375,-0.1452484130859375,0.647430419921875,0.0394439697265625
1686428353502155000,8.850155029296875,-0.2193756103515625,0.6079559326171875,-0.1005096435546875
1686428353512100000,8.86010009765625,-0.3435821533203125,0.8051910400390625,-0.088897705078125
1686428353522046200,8.870046142578126,-0.39678955078125,1.154937744140625,0.1137847900390625
1686428353531991000,8.879990966796875,-0.3208465576171875,1.49859619140625,0.230682373046875
1686428353541937200,8.889937255859374,-0.1639251708984375,1.76300048828125,0.192474365234375
1686428353551882000,8.899882080078125,0.0485992431640625,1.787811279296875,0.021270751953125
1686428353561828000,8.909828125,0.298126220703125,1.578155517578125,-0.2450103759765625
1686428353571773000,8.91977294921875,0.4316558837890625,1.3223419189453125,-0.45233154296875
1686428353581719000,8.929718994140625,0.39251708984375,1.1507110595703125,-0.4737548828125
1686428353591664000,8.9396640625,0.2090911865234375,1.0244140625,-0.368316650390625
1686428353601610000,8.94960986328125,-0.033050537109375,0.8680267333984375,-0.2340850830078125
1686428353611555000,8.95955517578125,-0.1840972900390625,0.7627105712890625,-0.12420654296875
1686428353621501000,8.9695009765625,-0.252716064453125,0.7188568115234375,-0.0423583984375
1686428353631446000,8.979446044921875,-0.2981414794921875,0.6783905029296875,-0.0034637451171875
1686428353641391900,8.989391845703125,-0.3432464599609375,0.630523681640625,0.0267181396484375
1686428353651337200,8.999337158203126,-0.3569488525390625,0.5693359375,0.0516815185546875
1686428353661283000,9.009282958984375,-0.326934814453125,0.5113677978515625,0.074981689453125
1686428353671228000,9.019227783203124,-0.2701568603515625,0.4619293212890625,0.09356689453125
1686428353681174000,9.029174072265626,-0.211456298828125,0.4362335205078125,0.082305908203125
1686428353691118800,9.039118896484375,-0.164093017578125,0.4431915283203125,0.0782928466796875
1686428353701065000,9.04906494140625,-0.1265411376953125,0.49066162109375,0.089080810546875
1686428353711010800,9.0590107421875,-0.098480224609375,0.550994873046875,0.0936126708984375
1686428353720956200,9.0689560546875,-0.0767669677734375,0.6218719482421875,0.1067047119140625
1686428353730902000,9.078902099609374,-0.0567169189453125,0.7173004150390625,0.117401123046875
1686428353740847000,9.08884716796875,-0.05474853515625,0.8272705078125,0.1536407470703125
1686428353750793000,9.09879296875,-0.0941619873046875,0.92926025390625,0.1939697265625
1686428353760738000,9.108738037109376,-0.1482391357421875,0.998809814453125,0.212799072265625
1686428353770684000,9.118683837890625,-0.180755615234375,1.0040740966796875,0.1914520263671875
1686428353780629000,9.12862890625,-0.1865386962890625,0.9593048095703125,0.169830322265625
1686428353790575000,9.1385751953125,-0.18902587890625,0.905181884765625,0.1490020751953125
1686428353800520000,9.14852001953125,-0.2065582275390625,0.8256683349609375,0.0991363525390625
1686428353810466000,9.158466064453124,-0.2274932861328125,0.749420166015625,0.0323333740234375
1686428353820411000,9.168410888671875,-0.2635498046875,0.670013427734375,-0.0269927978515625
1686428353830357000,9.17835693359375,-0.28326416015625,0.617156982421875,-0.08148193359375
1686428353840302000,9.188302001953126,-0.2869873046875,0.5828399658203125,-0.1393280029296875
1686428353850248200,9.198248291015625,-0.284271240234375,0.5714111328125,-0.1745758056640625
1686428353860193000,9.208193115234375,-0.2904052734375,0.571929931640625,-0.19696044921875
1686428353870139100,9.21813916015625,-0.3023681640625,0.5615997314453125,-0.2265472412109375
1686428353880084000,9.228083984375,-0.2845001220703125,0.53826904296875,-0.26263427734375
1686428353890030000,9.238030029296874,-0.2332611083984375,0.5052642822265625,-0.30035400390625
1686428353899975200,9.24797509765625,-0.1605682373046875,0.4802093505859375,-0.3220977783203125
1686428353909921000,9.257921142578125,-0.0819549560546875,0.49072265625,-0.303863525390625
1686428353919866000,9.2678662109375,-0.00140380859375,0.5567474365234375,-0.289764404296875
1686428353929812000,9.27781201171875,0.116180419921875,0.7177581787109375,-0.3225860595703125
1686428353939757000,9.287757080078125,0.2301025390625,0.984100341796875,-0.3994903564453125
1686428353949703000,9.297702880859376,0.33966064453125,1.3813018798828125,-0.4144439697265625
1686428353959649000,9.30764892578125,0.3726348876953125,1.8501739501953125,-0.3138275146484375
1686428353969594000,9.317593994140625,0.1531219482421875,2.2615966796875,-0.1430816650390625
1686428353979540200,9.327540283203126,0.0487518310546875,2.5070953369140625,0.0497894287109375
1686428353989485000,9.337485107421875,0.3913421630859375,2.4111175537109375,0.20513916015625
1686428353999431200,9.34743115234375,0.724029541015625,2.159423828125,0.36016845703125
1686428354009376000,9.3573759765625,0.7092742919921875,2.0347137451171875,0.49212646484375
1686428354019321900,9.36732177734375,0.47119140625,2.076080322265625,0.5719146728515625
1686428354029267200,9.37726708984375,0.25677490234375,2.233917236328125,0.5205535888671875
1686428354039213000,9.387213134765625,0.02142333984375,2.280181884765625,0.4292449951171875
1686428354049158100,9.397158203125,-0.3454437255859375,1.9890594482421875,0.4814910888671875
1686428354059104000,9.40710400390625,-0.726806640625,1.5280914306640625,0.5803070068359375
1686428354069049000,9.417049072265625,-0.864654541015625,1.2033233642578125,0.5242156982421875
1686428354078995200,9.4269951171875,-0.84814453125,1.0687255859375,0.3277435302734375
1686428354088940000,9.43693994140625,-0.6868438720703125,1.0653228759765625,0.106231689453125
1686428354098886000,9.446885986328125,-0.45806884765625,1.098907470703125,0.0068359375
1686428354108831200,9.456831298828124,-0.235595703125,1.1330413818359375,-0.0061492919921875
1686428354118777000,9.466777099609375,-0.0688629150390625,1.139678955078125,-0.006866455078125
1686428354128722200,9.47672216796875,-0.038116455078125,1.087799072265625,-0.0161590576171875
1686428354138668000,9.48666796875,-0.070098876953125,0.974212646484375,0.0017547607421875
1686428354148613000,9.496613037109375,-0.1212921142578125,0.826263427734375,0.0240936279296875
1686428354158559000,9.50655908203125,-0.1904144287109375,0.6802978515625,0.0348052978515625
1686428354168504300,9.51650439453125,-0.261474609375,0.5597076416015625,0.030914306640625
1686428354178450200,9.5264501953125,-0.3123779296875,0.46966552734375,0.030609130859375
1686428354188396300,9.536396240234374,-0.3125762939453125,0.426513671875,0.048980712890625
1686428354198341000,9.546341064453125,-0.290557861328125,0.4376373291015625,0.0672149658203125
1686428354208287200,9.556287353515625,-0.27978515625,0.4622650146484375,0.048553466796875
1686428354218232000,9.566232177734374,-0.291412353515625,0.4730682373046875,0.021820068359375
1686428354228178000,9.576177978515625,-0.3083343505859375,0.471923828125,0.01226806640625
1686428354238123300,9.586123291015625,-0.31884765625,0.4638519287109375,0.0244903564453125
1686428354248069000,9.596069091796876,-0.3286895751953125,0.4647369384765625,0.0402679443359375
1686428354258014200,9.60601416015625,-0.3596649169921875,0.4837188720703125,0.03582763671875
1686428354267960000,9.6159599609375,-0.3985595703125,0.5446929931640625,-0.00616455078125
1686428354277905200,9.6259052734375,-0.42071533203125,0.6565704345703125,-0.098663330078125
1686428354287851000,9.63585107421875,-0.4234771728515625,0.791595458984375,-0.18963623046875
1686428354297796000,9.645796142578124,-0.4277496337890625,0.9167327880859375,-0.1971588134765625
1686428354307742200,9.6557421875,-0.436767578125,0.9972381591796875,-0.163726806640625
1686428354317687000,9.66568701171875,-0.40496826171875,1.0059661865234375,-0.1954345703125
1686428354327633200,9.675633056640624,-0.345916748046875,0.9681243896484375,-0.21197509765625
1686428354337578000,9.685577880859375,-0.2913970947265625,0.95013427734375,-0.128387451171875
1686428354347524000,9.695524169921875,-0.241302490234375,0.9391937255859375,-0.0149688720703125
1686428354357469200,9.70546923828125,-0.2129364013671875,0.9262542724609375,0.0582427978515625
1686428354367415300,9.715415283203125,-0.2140350341796875,0.957794189453125,0.128875732421875
1686428354377360100,9.725360107421874,-0.1699066162109375,1.1417083740234375,0.18572998046875
1686428354387306200,9.73530615234375,-0.0600433349609375,1.528594970703125,0.19708251953125
1686428354397251000,9.7452509765625,-0.123504638671875,2.1068267822265625,0.3975372314453125
1686428354407197200,9.755197265625,-0.2528533935546875,2.639892578125,0.568634033203125
1686428354417143000,9.76514306640625,-0.014068603515625,2.7442626953125,0.261077880859375
1686428354427088100,9.775088134765625,0.173065185546875,2.09832763671875,-0.2418975830078125
1686428354437034200,9.7850341796875,0.2076416015625,1.3124542236328125,-0.4266510009765625
1686428354446979000,9.79497900390625,0.26068115234375,0.765838623046875,-0.3296356201171875
1686428354456925200,9.80492529296875,0.2670440673828125,0.4399261474609375,-0.2814178466796875
1686428354466870000,9.8148701171875,0.1687774658203125,0.3551025390625,-0.236297607421875
1686428354476816100,9.824816162109375,0.0415496826171875,0.482086181640625,-0.0780792236328125
1686428354486761200,9.83476123046875,-0.05731201171875,0.7539825439453125,0.05419921875
1686428354496707300,9.844707275390626,-0.125701904296875,1.0147857666015625,0.109283447265625
1686428354506652200,9.854652099609375,-0.1644134521484375,1.1619873046875,0.0316925048828125
1686428354516598300,9.864598388671874,-0.1443328857421875,1.179840087890625,-0.1648101806640625
1686428354526543000,9.874543212890625,-0.0693206787109375,1.0849761962890625,-0.4463653564453125
1686428354536489000,9.884489013671875,-0.0961761474609375,0.9909820556640625,-0.7698211669921875
1686428354546434000,9.89443408203125,-0.146026611328125,0.9563751220703125,-1.0153045654296875
1686428354556380200,9.904380126953125,-0.1404266357421875,0.97503662109375,-1.0046539306640625
1686428354566325200,9.9143251953125,-0.063873291015625,0.960845947265625,-0.9659881591796875
1686428354576271000,9.92427099609375,0.1129150390625,0.946685791015625,-0.7633514404296875
1686428354586216200,9.93421630859375,0.177947998046875,0.87615966796875,-0.455780029296875
1686428354596162000,9.944162109375,-0.0383758544921875,0.7459259033203125,-0.19647216796875
1686428354606107100,9.954107177734375,-0.2521209716796875,0.609527587890625,-0.08465576171875
1686428354616053000,9.964052978515625,-0.2904815673828125,0.5304718017578125,-0.043548583984375
1686428354625999000,9.9739990234375,-0.20538330078125,0.5101470947265625,0.0136871337890625
1686428354635944200,9.983944091796875,-0.0766143798828125,0.5357666015625,0.066680908203125
1686428354645890300,9.993890380859375,0.038543701171875,0.61932373046875,0.0847015380859375
1686428354655835100,10.003835205078126,0.1217041015625,0.7591094970703125,0.0560302734375
1686428354665781000,10.013781005859375,0.163970947265625,0.91778564453125,-0.0103759765625
1686428354675726000,10.02372607421875,0.1643524169921875,1.08807373046875,-0.03448486328125
1686428354685672000,10.033671875,0.1223602294921875,1.23944091796875,0.005096435546875
1686428354695617300,10.0436171875,0.0660247802734375,1.3143463134765625,0.04827880859375
1686428354705563100,10.053563232421874,0.0596771240234375,1.3134002685546875,0.027130126953125
1686428354715508200,10.06350830078125,0.0846405029296875,1.283416748046875,-0.047821044921875
1686428354725454000,10.0734541015625,0.089691162109375,1.24951171875,-0.11431884765625
1686428354735399000,10.08339892578125,0.04156494140625,1.220977783203125,-0.12457275390625
1686428354745345000,10.093344970703125,-0.0142822265625,1.182281494140625,-0.114166259765625
1686428354755290000,10.1032900390625,-0.058624267578125,1.1265869140625,-0.112274169921875
1686428354765236200,10.113236328125,-0.0931549072265625,1.073211669921875,-0.11090087890625
1686428354775181000,10.12318115234375,-0.135894775390625,1.0221710205078125,-0.10870361328125
1686428354785127200,10.133127197265624,-0.1673583984375,0.9814605712890625,-0.1042022705078125
1686428354795073000,10.143072998046875,-0.196990966796875,0.9464874267578125,-0.10174560546875
1686428354805018000,10.15301806640625,-0.2058258056640625,0.9084625244140625,-0.0797576904296875
1686428354814964000,10.1629638671875,-0.2076873779296875,0.87469482421875,-0.0500335693359375
1686428354824909300,10.172909423828125,-0.21026611328125,0.8547821044921875,-0.007904052734375
1686428354834855200,10.182855224609375,-0.1975250244140625,0.842742919921875,0.0442047119140625
1686428354844800300,10.19280029296875,-0.1787261962890625,0.8488006591796875,0.080413818359375
1686428354854746000,10.20274609375,-0.1512298583984375,0.870147705078125,0.1151275634765625
1686428354864691000,10.21269091796875,-0.15460205078125,0.9172210693359375,0.13958740234375
1686428354874637000,10.222636962890626,-0.1833648681640625,0.9789886474609375,0.1549072265625
1686428354884582100,10.23258203125,-0.241180419921875,1.0448760986328125,0.156494140625
1686428354894528300,10.2425283203125,-0.3166351318359375,1.09844970703125,0.1498565673828125
1686428354904473000,10.25247314453125,-0.36871337890625,1.1316680908203125,0.1441192626953125
1686428354914419200,10.262419189453125,-0.3777618408203125,1.1279144287109375,0.137664794921875
1686428354924364000,10.272364013671876,-0.331817626953125,1.102203369140625,0.140655517578125
1686428354934310100,10.28231005859375,-0.247772216796875,1.0883026123046875,0.1653900146484375
1686428354944255200,10.292255126953124,-0.18365478515625,1.08941650390625,0.1732177734375
1686428354954201300,10.302201416015626,-0.1506805419921875,1.07183837890625,0.13031005859375
1686428354964146200,10.312146240234375,-0.10968017578125,1.032073974609375,0.0689697265625
1686428354974092000,10.322092041015624,-0.028106689453125,0.968017578125,0.0333099365234375
1686428354984038100,10.3320380859375,0.068572998046875,0.8966522216796875,-0.010955810546875
1686428354993983000,10.34198291015625,0.1729736328125,0.8251953125,-0.0636138916015625
1686428355003929000,10.35192919921875,0.2545623779296875,0.7705535888671875,-0.1180572509765625
1686428355013874200,10.361874267578125,0.294281005859375,0.7455902099609375,-0.1881103515625
1686428355023820300,10.3718203125,0.316070556640625,0.74334716796875,-0.27777099609375
1686428355033765000,10.38176513671875,0.3200225830078125,0.7467193603515625,-0.347900390625
1686428355043711200,10.391711181640625,0.30828857421875,0.7725830078125,-0.4010772705078125
1686428355053656000,10.401656005859374,0.3096466064453125,0.8376617431640625,-0.4483642578125
1686428355063602200,10.411602294921876,0.327239990234375,0.92059326171875,-0.452545166015625
1686428355073547000,10.421547119140625,0.3357391357421875,1.0640411376953125,-0.4400787353515625
1686428355083492900,10.431492919921874,0.309600830078125,1.2970123291015625,-0.439483642578125
1686428355093438000,10.44143798828125,0.23516845703125,1.567840576171875,-0.45184326171875
1686428355103383800,10.4513837890625,0.081146240234375,1.859619140625,-0.368743896484375
1686428355113329000,10.461328857421876,0.068145751953125,2.054229736328125,-0.1640167236328125
1686428355123274800,10.471274658203125,0.230743408203125,1.8812103271484375,0.0912322998046875
1686428355133219800,10.4812197265625,0.3148345947265625,1.493377685546875,0.3968505859375
1686428355143166000,10.491166015625,0.3609466552734375,1.1858978271484375,0.4971466064453125
1686428355153111000,10.501111083984375,0.3230438232421875,0.9783172607421875,0.4587249755859375
1686428355163057000,10.511056884765624,0.1623382568359375,0.8163604736328125,0.395172119140625
1686428355173003000,10.5210029296875,-0.0482177734375,0.6702117919921875,0.354766845703125
1686428355182947800,10.53094775390625,-0.211517333984375,0.61285400390625,0.27789306640625
1686428355192894000,10.54089404296875,-0.3034210205078125,0.6373291015625,0.186248779296875
1686428355202838800,10.5508388671875,-0.3517303466796875,0.7116546630859375,0.1435699462890625
1686428355212784600,10.56078466796875,-0.3681488037109375,0.788787841796875,0.0924530029296875
1686428355222730000,10.57072998046875,-0.342437744140625,0.8416290283203125,0.022064208984375
1686428355232675800,10.58067578125,-0.3004150390625,0.867095947265625,-0.05224609375
1686428355242621000,10.590620849609374,-0.249267578125,0.9006195068359375,-0.138336181640625
1686428355252566800,10.60056689453125,-0.1975860595703125,0.935150146484375,-0.2143402099609375
1686428355262511900,10.610511962890625,-0.15423583984375,0.9499664306640625,-0.2486724853515625
1686428355272457700,10.620457763671874,-0.1269378662109375,0.9388580322265625,-0.269744873046875
1686428355282402800,10.63040283203125,-0.0943450927734375,0.9008331298828125,-0.2721099853515625
1686428355292349000,10.640348876953125,-0.0861358642578125,0.8397369384765625,-0.2467193603515625
1686428355302293800,10.650293701171876,-0.0903778076171875,0.7860260009765625,-0.2260284423828125
1686428355312239900,10.660239990234375,-0.117279052734375,0.749786376953125,-0.2028656005859375
1686428355322184700,10.670184814453124,-0.14508056640625,0.725982666015625,-0.17657470703125
1686428355332130800,10.680130859375,-0.1672821044921875,0.713348388671875,-0.1368255615234375
1686428355342076700,10.69007666015625,-0.171295166015625,0.713531494140625,-0.100738525390625
1686428355352022000,10.70002197265625,-0.1649169921875,0.7319488525390625,-0.0711669921875
1686428355361967900,10.7099677734375,-0.164825439453125,0.765777587890625,-0.027679443359375
1686428355371913000,10.719912841796875,-0.1865386962890625,0.823150634765625,0.0301361083984375
1686428355381858800,10.72985888671875,-0.2297821044921875,0.8921356201171875,0.11956787109375
1686428355391804000,10.739803955078125,-0.270111083984375,0.9599609375,0.2232818603515625
1686428355401749800,10.749749755859375,-0.28228759765625,1.035125732421875,0.2726287841796875
1686428355411694800,10.75969482421875,-0.26904296875,1.1190032958984375,0.2782440185546875
1686428355421641000,10.769640869140625,-0.2392578125,1.19818115234375,0.2738189697265625
1686428355431585800,10.779585693359374,-0.210174560546875,1.2412567138671875,0.23980712890625
1686428355441532000,10.789531982421876,-0.2104034423828125,1.2015228271484375,0.176513671875
1686428355451476700,10.799476806640625,-0.226318359375,1.1000213623046875,0.1265869140625
1686428355461422800,10.8094228515625,-0.2348480224609375,1.0194244384765625,0.1107635498046875
1686428355471368000,10.819367919921875,-0.2397308349609375,0.9717864990234375,0.1240692138671875
1686428355481314000,10.82931396484375,-0.25042724609375,0.953033447265625,0.1587066650390625
1686428355491260000,10.839260009765624,-0.2822265625,0.9560089111328125,0.2145538330078125
1686428355501205000,10.849205078125,-0.306915283203125,0.97802734375,0.287841796875
1686428355511150800,10.85915087890625,-0.3024444580078125,1.0086212158203125,0.3499908447265625
1686428355521095700,10.869095703125,-0.2577362060546875,1.0766754150390625,0.3510284423828125
1686428355531041800,10.879041748046875,-0.174560546875,1.2656707763671875,0.2725982666015625
1686428355540987000,10.88898681640625,-0.1271209716796875,1.583953857421875,0.166656494140625
1686428355550933000,10.89893310546875,-0.15374755859375,1.878509521484375,0.156280517578125
1686428355560877800,10.9088779296875,-0.135711669921875,1.9698486328125,0.111053466796875
1686428355570824000,10.918823974609374,0.0478515625,1.744384765625,-0.1222991943359375
1686428355580768800,10.928768798828125,0.2080841064453125,1.3516845703125,-0.35595703125
1686428355590715000,10.93871484375,0.1265106201171875,1.073944091796875,-0.4329376220703125
1686428355600660000,10.948659912109376,0.0287017822265625,0.9031219482421875,-0.368743896484375
1686428355610606000,10.958606201171875,0.0585174560546875,0.7783203125,-0.2584075927734375
1686428355620551000,10.968551025390624,0.1192169189453125,0.69110107421875,-0.2369537353515625
1686428355630497000,10.9784970703125,0.1488800048828125,0.6531829833984375,-0.2889251708984375
1686428355640441900,10.98844189453125,0.151153564453125,0.6447906494140625,-0.2421112060546875
1686428355650387700,10.9983876953125,0.12176513671875,0.6986846923828125,-0.14630126953125
1686428355660333800,11.008333740234375,0.05133056640625,0.8029937744140625,-0.0435333251953125
1686428355670279000,11.01827880859375,-0.0364837646484375,0.9152984619140625,0.0298614501953125
1686428355680224800,11.028224853515624,-0.09478759765625,0.9980316162109375,0.00970458984375
1686428355690169900,11.038169921875,-0.1063232421875,1.0628204345703125,-0.057373046875
1686428355700116000,11.048115966796875,-0.073089599609375,1.1070098876953125,-0.2078704833984375
1686428355710060800,11.058060791015626,-0.0306854248046875,1.1248779296875,-0.37408447265625
1686428355720007000,11.0680068359375,-0.0111541748046875,1.1005859375,-0.504638671875
1686428355729951700,11.07795166015625,0.01220703125,1.0644989013671875,-0.540374755859375
1686428355739897900,11.08789794921875,0.0583343505859375,1.0303802490234375,-0.4874114990234375
1686428355749843000,11.097843017578125,0.054473876953125,0.986480712890625,-0.362518310546875
1686428355759788800,11.107788818359374,-0.022247314453125,0.9168701171875,-0.2374420166015625
1686428355769734000,11.11773388671875,-0.1262664794921875,0.8269195556640625,-0.1350860595703125
1686428355779679700,11.1276796875,-0.220947265625,0.7595672607421875,-0.077423095703125
1686428355789624800,11.137624755859376,-0.282318115234375,0.724578857421875,-0.0360565185546875
1686428355799570700,11.14757080078125,-0.283050537109375,0.7119903564453125,0.006317138671875
1686428355809516000,11.15751611328125,-0.2073516845703125,0.7239990234375,0.0339202880859375
1686428355819462000,11.1674619140625,-0.094085693359375,0.7586669921875,0.053558349609375
1686428355829408000,11.177407958984375,0.014404296875,0.8197021484375,0.04913330078125
1686428355839352800,11.187352783203124,0.102752685546875,0.8926239013671875,0.0369720458984375
1686428355849299000,11.197298828125,0.1607208251953125,0.967803955078125,0.0275115966796875
1686428355859243800,11.207243896484375,0.1870574951171875,1.035003662109375,0.0256500244140625
1686428355869190000,11.21718994140625,0.1741485595703125,1.0805511474609375,0.04302978515625
1686428355879135000,11.227135009765625,0.1310272216796875,1.095916748046875,0.066558837890625
1686428355889080800,11.237080810546875,0.084625244140625,1.0857696533203125,0.0794219970703125
1686428355899026000,11.24702587890625,0.044708251953125,1.077728271484375,0.059600830078125
1686428355908971800,11.2569716796875,0.0021514892578125,1.0809783935546875,0.0256805419921875
1686428355918916900,11.266916748046874,-0.04632568359375,1.0841064453125,-0.007354736328125
1686428355928862700,11.27686279296875,-0.092498779296875,1.07501220703125,-0.0296173095703125
1686428355938808000,11.28680810546875,-0.115478515625,1.0460662841796875,-0.051239013671875
1686428355948754000,11.29675390625,-0.1346435546875,1.0070343017578125,-0.07061767578125
1686428355958700000,11.306699951171876,-0.1524810791015625,0.96441650390625,-0.0794219970703125
1686428355968644900,11.316644775390625,-0.1660308837890625,0.9307098388671875,-0.088134765625
1686428355978591000,11.326591064453124,-0.1833953857421875,0.9112396240234375,-0.0829315185546875
1686428355988535800,11.336535888671875,-0.18145751953125,0.8996734619140625,-0.0626983642578125
1686428355998482000,11.34648193359375,-0.171783447265625,0.8959197998046875,-0.02337646484375
1686428356008427000,11.356427001953126,-0.1523284912109375,0.894195556640625,0.0164337158203125
1686428356018372900,11.366372802734375,-0.1283416748046875,0.8985443115234375,0.0492095947265625
1686428356028318000,11.37631787109375,-0.105010986328125,0.903350830078125,0.08209228515625
1686428356038263800,11.386263916015626,-0.0956573486328125,0.925048828125,0.1082000732421875
1686428356048209000,11.396208984375,-0.121002197265625,0.952392578125,0.1393280029296875
1686428356058154800,11.40615478515625,-0.16119384765625,0.97576904296875,0.17205810546875
1686428356068099800,11.416099853515625,-0.204498291015625,0.9787445068359375,0.2026824951171875
1686428356078045700,11.426045654296875,-0.2394256591796875,0.96990966796875,0.2143402099609375
1686428356087990800,11.43599072265625,-0.272308349609375,0.9557037353515625,0.1996917724609375
1686428356097936600,11.4459365234375,-0.2717132568359375,0.9431610107421875,0.17236328125
1686428356107881500,11.455881591796874,-0.2494964599609375,0.9430084228515625,0.155487060546875
1686428356117827600,11.46582763671875,-0.2369842529296875,0.9592742919921875,0.122833251953125
1686428356127773700,11.475773681640625,-0.2357177734375,0.9862213134765625,0.037384033203125
1686428356137718800,11.48571875,-0.2152557373046875,1.0141754150390625,-0.073211669921875
1686428356147664600,11.49566455078125,-0.136688232421875,1.047027587890625,-0.175140380859375
1686428356157609700,11.505609619140625,-0.048797607421875,1.0573577880859375,-0.279571533203125
1686428356167555600,11.5155556640625,0.05059814453125,1.042724609375,-0.380645751953125
1686428356177500700,11.525500732421875,0.1446380615234375,1.009735107421875,-0.4707183837890625
1686428356187446500,11.535446533203125,0.2073822021484375,0.95440673828125,-0.5281982421875
1686428356197392000,11.545391845703126,0.2602386474609375,0.8977813720703125,-0.5377655029296875
1686428356207337700,11.555337646484375,0.300201416015625,0.8828582763671875,-0.5063934326171875
1686428356217282800,11.56528271484375,0.334930419921875,0.95098876953125,-0.43798828125
1686428356227228700,11.575228759765626,0.384674072265625,1.119598388671875,-0.3954010009765625
1686428356237173500,11.585173583984375,0.4479827880859375,1.3482208251953125,-0.4210968017578125
1686428356247119600,11.59511962890625,0.3916015625,1.6124267578125,-0.352203369140625
1686428356257065700,11.605065673828125,0.23187255859375,1.924102783203125,-0.20758056640625
1686428356267010800,11.6150107421875,0.25115966796875,2.035369873046875,0.028411865234375
1686428356276956700,11.624956787109374,0.3376922607421875,1.8221282958984375,0.31170654296875
1686428356286901800,11.63490185546875,0.28900146484375,1.46136474609375,0.596466064453125
1686428356296847600,11.64484765625,0.250396728515625,1.1734466552734375,0.7275543212890625
1686428356306792700,11.654792724609376,0.1094970703125,0.93316650390625,0.702239990234375
1686428356316738600,11.664738525390625,-0.124053955078125,0.7357940673828125,0.5563507080078125
1686428356326683600,11.67468359375,-0.3458709716796875,0.6306915283203125,0.354461669921875
1686428356336629500,11.68462939453125,-0.4328765869140625,0.6142425537109375,0.1713104248046875
1686428356346574600,11.69457470703125,-0.4284515380859375,0.6721343994140625,0.0629730224609375
1686428356356520700,11.704520751953124,-0.415130615234375,0.7598114013671875,-0.0252685546875
1686428356366465500,11.714465576171875,-0.387481689453125,0.833251953125,-0.1160430908203125
1686428356376411600,11.72441162109375,-0.3194427490234375,0.8912200927734375,-0.1990814208984375
1686428356386356500,11.7343564453125,-0.239227294921875,0.943389892578125,-0.2700347900390625
1686428356396302600,11.744302490234375,-0.17828369140625,0.9902191162109375,-0.3257598876953125
1686428356406248400,11.75424853515625,-0.1465606689453125,1.0142059326171875,-0.3481903076171875
1686428356416193800,11.76419384765625,-0.129730224609375,0.986328125,-0.3255462646484375
1686428356426139600,11.7741396484375,-0.113250732421875,0.9158782958984375,-0.2816925048828125
1686428356436084700,11.784084716796874,-0.124725341796875,0.8310089111328125,-0.2305908203125
1686428356446030600,11.794030517578125,-0.1549224853515625,0.7594757080078125,-0.1913299560546875
1686428356455975700,11.8039755859375,-0.1871795654296875,0.7144622802734375,-0.16900634765625
1686428356465921500,11.813921630859374,-0.2103729248046875,0.695220947265625,-0.148162841796875
1686428356475866600,11.82386669921875,-0.23095703125,0.691680908203125,-0.112213134765625
1686428356485812700,11.833812744140625,-0.247467041015625,0.7110137939453125,-0.063018798828125
1686428356495757600,11.843757568359376,-0.25506591796875,0.7530975341796875,-0.0098419189453125
1686428356505703700,11.85370361328125,-0.2569580078125,0.802947998046875,0.0358428955078125
1686428356515648500,11.8636484375,-0.2701873779296875,0.8453216552734375,0.0794830322265625
1686428356525594600,11.8735947265625,-0.277313232421875,0.8820343017578125,0.1307373046875
1686428356535540500,11.88354052734375,-0.2754974365234375,0.9100189208984375,0.19281005859375
1686428356545485800,11.89348583984375,-0.273895263671875,0.9458160400390625,0.2022247314453125
1686428356555431700,11.903431640625,-0.25994873046875,1.0056610107421875,0.172027587890625
1686428356565376800,11.913376708984375,-0.23541259765625,1.0863800048828125,0.1478729248046875
1686428356575322600,11.923322509765624,-0.1958770751953125,1.1710662841796875,0.11358642578125
1686428356585267500,11.933267333984375,-0.135284423828125,1.2275543212890625,0.08587646484375
1686428356595213600,11.943213623046875,-0.079742431640625,1.2132568359375,0.0562896728515625
1686428356605158700,11.95315869140625,-0.046112060546875,1.10992431640625,0.001220703125
1686428356615104800,11.963104736328125,-0.030670166015625,1.00701904296875,-0.017120361328125
1686428356625049600,11.973049560546874,-0.0370941162109375,0.91888427734375,0.012237548828125
1686428356634995700,11.98299560546875,-0.0581817626953125,0.83465576171875,0.0521087646484375
1686428356644940500,11.9929404296875,-0.0904388427734375,0.7664794921875,0.089935302734375
1686428356654886700,12.00288671875,-0.1217803955078125,0.71954345703125,0.1194000244140625
1686428356664832500,12.01283251953125,-0.1319732666015625,0.7088165283203125,0.141021728515625
1686428356674777900,12.02277783203125,-0.1106719970703125,0.7739105224609375,0.164337158203125
1686428356684723700,12.0327236328125,-0.0912933349609375,0.924224853515625,0.20947265625
1686428356694668800,12.042668701171875,-0.0830535888671875,1.11474609375,0.29052734375
1686428356704614700,12.05261474609375,-0.092193603515625,1.345062255859375,0.35748291015625
1686428356714559500,12.0625595703125,-0.1526641845703125,1.618194580078125,0.3656005859375
1686428356724505600,12.072505615234375,-0.1885528564453125,1.89990234375,0.2407684326171875
1686428356734450700,12.08245068359375,-0.0537567138671875,2.024932861328125,0.033935546875
1686428356744396800,12.092396728515626,0.23345947265625,1.788848876953125,-0.133056640625
1686428356754341600,12.102341552734375,0.4447784423828125,1.346221923828125,-0.1501007080078125
1686428356764287700,12.112287841796874,0.4613800048828125,1.0135955810546875,-0.108795166015625
1686428356774232600,12.122232666015625,0.332611083984375,0.806243896484375,-0.1423492431640625
1686428356784178700,12.1321787109375,0.138153076171875,0.7230682373046875,-0.17486572265625
1686428356794124500,12.14212451171875,-0.1231536865234375,0.7423248291015625,-0.1638031005859375
1686428356804069600,12.152069580078125,-0.34173583984375,0.8651123046875,-0.157470703125
1686428356814015700,12.162015625,-0.4674835205078125,0.971771240234375,-0.169769287109375
1686428356823960600,12.171960693359376,-0.541778564453125,1.0100555419921875,-0.2681884765625
1686428356833906700,12.18190673828125,-0.570709228515625,0.9950408935546875,-0.362152099609375
1686428356843851500,12.1918515625,-0.5416107177734375,0.9395294189453125,-0.474700927734375
1686428356853797600,12.201797607421875,-0.4502410888671875,0.8781585693359375,-0.514404296875
1686428356863742500,12.211742431640625,-0.3366241455078125,0.858978271484375,-0.469024658203125
1686428356873688600,12.2216884765625,-0.2223663330078125,0.8554534912109375,-0.402923583984375
1686428356883633700,12.231633544921875,-0.141143798828125,0.8286285400390625,-0.3677978515625
1686428356893579800,12.241579833984375,-0.0802001953125,0.7917327880859375,-0.3286590576171875
1686428356903524600,12.251524658203126,-0.0428619384765625,0.7664031982421875,-0.252593994140625
1686428356913470700,12.261470703125,-0.0264892578125,0.7595367431640625,-0.1845550537109375
1686428356923416600,12.27141650390625,-0.0216827392578125,0.7837371826171875,-0.1324615478515625
1686428356933361700,12.281361572265626,-0.0157012939453125,0.8439178466796875,-0.0736236572265625
1686428356943307500,12.2913076171875,-0.0021820068359375,0.9239044189453125,0.0016632080078125
1686428356953252600,12.301252685546874,0.0140838623046875,1.0181427001953125,0.0637054443359375
1686428356963198700,12.31119873046875,0.024139404296875,1.09661865234375,0.1248016357421875
1686428356973143600,12.3211435546875,0.025634765625,1.1128387451171875,0.1858062744140625
1686428356983089700,12.331089599609374,0.0196380615234375,1.0592193603515625,0.224395751953125
1686428356993034500,12.341034423828125,-0.0089569091796875,0.967742919921875,0.2262115478515625
1686428357002980600,12.350980712890625,-0.0663299560546875,0.8804168701171875,0.210418701171875
1686428357012925700,12.36092578125,-0.139129638671875,0.8168792724609375,0.209259033203125
1686428357022871800,12.370871826171875,-0.20953369140625,0.7735137939453125,0.1923828125
1686428357032817700,12.380817626953124,-0.2563934326171875,0.7559661865234375,0.1664886474609375
1686428357042762800,12.3907626953125,-0.2744598388671875,0.76849365234375,0.146270751953125
1686428357052708600,12.40070849609375,-0.2638397216796875,0.798065185546875,0.1428070068359375
1686428357062653700,12.41065380859375,-0.2423858642578125,0.82611083984375,0.1061859130859375
1686428357072599800,12.420599853515625,-0.2196502685546875,0.8423919677734375,0.0468597412109375
1686428357082545000,12.430544921875,-0.190765380859375,0.842437744140625,-0.010345458984375
1686428357092491000,12.440490966796874,-0.1561126708984375,0.8341827392578125,-0.0483245849609375
1686428357102435800,12.450435791015625,-0.1363067626953125,0.8309326171875,-0.0641937255859375
1686428357112382000,12.4603818359375,-0.1409912109375,0.8298187255859375,-0.072235107421875
1686428357122326800,12.470326904296876,-0.1637420654296875,0.8243865966796875,-0.0971221923828125
1686428357132273000,12.48027294921875,-0.180023193359375,0.8140106201171875,-0.130279541015625
1686428357142218000,12.490218017578124,-0.170867919921875,0.7917633056640625,-0.1436767578125
1686428357152164000,12.5001640625,-0.15277099609375,0.7525787353515625,-0.1427001953125
1686428357162109000,12.51010888671875,-0.1364898681640625,0.7115936279296875,-0.1385345458984375
1686428357172054800,12.5200546875,-0.1355133056640625,0.6892242431640625,-0.126617431640625
1686428357182001000,12.5300009765625,-0.1508636474609375,0.6942901611328125,-0.0994415283203125
1686428357191945700,12.53994580078125,-0.1699981689453125,0.72430419921875,-0.06524658203125
1686428357201891800,12.549891845703126,-0.185638427734375,0.7459564208984375,-0.03887939453125
1686428357211837000,12.5598369140625,-0.20806884765625,0.7380523681640625,-0.0400543212890625
1686428357221783000,12.569782958984375,-0.2227783203125,0.7009124755859375,-0.0554656982421875
1686428357231727900,12.579727783203126,-0.2075042724609375,0.64190673828125,-0.0671844482421875
1686428357241674000,12.589674072265625,-0.1628265380859375,0.57415771484375,-0.06744384765625
1686428357251618800,12.599618896484374,-0.1287689208984375,0.500885009765625,-0.0667877197265625
1686428357261565000,12.60956494140625,-0.1281280517578125,0.4235992431640625,-0.0865631103515625
1686428357271509800,12.619509765625,-0.133331298828125,0.3494720458984375,-0.12274169921875
1686428357281455900,12.629455810546874,-0.13720703125,0.2725372314453125,-0.156890869140625
1686428357291402000,12.639402099609375,-0.1559600830078125,0.1959686279296875,-0.118133544921875
1686428357301346800,12.649346923828125,-0.2044830322265625,0.1634979248046875,-0.044036865234375
1686428357311293000,12.65929296875,-0.23468017578125,0.2129669189453125,-0.0307769775390625
1686428357321237800,12.66923779296875,-0.212158203125,0.370147705078125,-0.0528564453125
1686428357331183900,12.679183837890625,-0.10455322265625,0.758056640625,-0.0893707275390625
1686428357341128700,12.689128662109376,-0.15399169921875,1.55877685546875,-0.2244415283203125
1686428357351074800,12.69907470703125,-0.455902099609375,2.4654388427734375,-0.234344482421875
1686428357361020000,12.70902001953125,-0.3446197509765625,2.9702911376953125,0.2227630615234375
1686428357370966000,12.718966064453125,0.025848388671875,2.976409912109375,0.768310546875
1686428357380910800,12.728910888671875,0.2773590087890625,2.3419036865234375,0.9427947998046875
1686428357390857000,12.73885693359375,0.1250762939453125,1.7266082763671875,0.806549072265625
1686428357400802800,12.748802734375,-0.2617950439453125,1.47894287109375,0.5647735595703125
1686428357410747600,12.75874755859375,-0.5359649658203125,1.4793548583984375,0.384307861328125
1686428357420693800,12.76869384765625,-0.6024627685546875,1.5244598388671875,0.2734222412109375
1686428357430638800,12.778638916015625,-0.59039306640625,1.457550048828125,0.1928863525390625
1686428357440585000,12.7885849609375,-0.51104736328125,1.2833251953125,0.1054229736328125
1686428357450529800,12.79852978515625,-0.3887481689453125,1.0780792236328125,-0.011688232421875
1686428357460476000,12.808475830078125,-0.309722900390625,0.9469757080078125,-0.0399017333984375
1686428357470420700,12.818420654296874,-0.293121337890625,0.89837646484375,0.0528564453125
1686428357480366800,12.828366943359375,-0.3247833251953125,0.8745880126953125,0.1540374755859375
1686428357490312000,12.83831201171875,-0.368865966796875,0.8594818115234375,0.1898040771484375
1686428357500258000,12.848258056640624,-0.4023590087890625,0.8461456298828125,0.1925811767578125
1686428357510204000,12.858203857421875,-0.4189300537109375,0.82684326171875,0.2310791015625
1686428357520148700,12.868148681640625,-0.4051361083984375,0.80023193359375,0.2998504638671875
1686428357530094800,12.8780947265625,-0.32568359375,0.7557525634765625,0.365570068359375
1686428357540039700,12.888039794921875,-0.190673828125,0.6948699951171875,0.3916778564453125
1686428357549985800,12.89798583984375,-0.0547027587890625,0.6212310791015625,0.365142822265625
1686428357559931000,12.907930908203125,0.03851318359375,0.55523681640625,0.3382415771484375
1686428357569877000,12.917876953125,0.084625244140625,0.4938201904296875,0.3384552001953125
1686428357579821800,12.92782177734375,0.1090240478515625,0.4407958984375,0.3308563232421875
1686428357589768000,12.937767822265625,0.119415283203125,0.39825439453125,0.296112060546875
1686428357599712800,12.947712646484375,0.0983123779296875,0.4066925048828125,0.253509521484375
1686428357609659000,12.957658935546876,0.057342529296875,0.4646453857421875,0.199188232421875
1686428357619604700,12.967604736328125,0.0157623291015625,0.52972412109375,0.1380767822265625
1686428357629550000,12.977550048828125,0.00115966796875,0.6116943359375,0.0019073486328125
1686428357639496000,12.987495849609376,-0.030853271484375,0.72503662109375,-0.1511077880859375
1686428357649440800,12.997440673828125,-0.0855560302734375,0.8085479736328125,-0.2476959228515625
