time,seconds_elapsed,z,y,x
1686428344770018800,0.118018798828125,2.1981045030385253,2.8695179097145793,-0.805760794584453
1686428344779965000,0.12796484375,2.115101225659251,2.1529139467030762,-0.3304499518536031
1686428344789909800,0.13790966796875,2.3312340395897624,2.0273229889631272,-0.2215972168162465
1686428344799855900,0.14785595703125,2.968550530874729,2.6809529016673563,-0.24501564793512223
1686428344809801000,0.157801025390625,2.566466690787673,3.026090865695476,0.10969678464606404
1686428344819747000,0.1677470703125,2.113339476683736,2.5412366802021857,-0.03228402075022459
1686428344829692000,0.17769189453125,1.840083676561713,2.3511527920246125,0.036652445092797276
1686428344839636700,0.18763671875,1.6055378385841845,2.758924030098319,0.5225736752957105
1686428344849582800,0.197582763671875,1.346550802311301,2.78142315441519,0.7634402407273649
1686428344859528000,0.20752783203125,1.0810773266285658,2.492436993458867,0.9131263598039746
1686428344869474000,0.21747412109375,0.9321405646145343,2.1159113729983567,0.7183315174564718
1686428344879419000,0.2274189453125,0.7555483184337616,2.0529656720027325,0.5904799213081597
1686428344889365000,0.237364990234375,0.5958253739893437,2.315207033896446,0.4841378539174795
1686428344899309800,0.247309814453125,0.48009003983139986,2.4793963100999594,0.41908465924859045
1686428344909256000,0.257255859375,0.5604653067946433,2.6364441901162263,0.31308044551014896
1686428344919201000,0.267200927734375,0.6664180826067924,2.8182527096405625,-0.13491758901178835
1686428344929147000,0.27714697265625,1.0443448020368813,2.8461276817768812,-0.7240472647547721
1686428344939092000,0.287092041015625,1.6185101328819989,2.7145819072857496,-1.030510922473669
1686428344949036800,0.297036865234375,1.8916297394037245,2.5383655086800454,-1.051251512685418
1686428344958983000,0.30698291015625,1.6873592127025125,2.5970471224904057,-0.792185565957427
1686428344968927700,0.316927734375,1.2514239564180374,2.980995878688991,-0.09883855989277363
1686428344978873900,0.326873779296875,1.074144604755938,3.238584738601744,0.33223639687895773
1686428344988819000,0.33681884765625,1.021139283016324,4.117620905016363,-0.1253296764552593
1686428344998765000,0.34676513671875,0.8333370760351418,5.802883729961514,-1.4735118793606756
1686428345008710000,0.3567099609375,0.9073843090206384,3.758302439944446,-1.2730892602592705
1686428345018656000,0.366656005859375,0.5188806659966707,3.242973328949511,-2.3053666078835726
1686428345028600800,0.376600830078125,0.5153602367855609,2.4735920077353715,-2.131483620661497
1686428345038546000,0.3865458984375,0.22903021636120974,1.3811980450615287,-1.5759809047102926
1686428345048492000,0.396491943359375,0.2951326643547043,0.7953336547248065,-0.6891776114255189
1686428345058436400,0.406436279296875,0.3886263926208019,0.925701471477747,-0.4036714015394449
1686428345068382500,0.416382568359375,0.2365092470049858,1.2152547647975385,0.27321897524297234
1686428345078327300,0.426327392578125,0.11814254143014549,1.7503746179334818,1.0788637422323226
1686428345088273400,0.4362734375,0.2632886789895594,2.195440982917696,1.128345273759961
1686428345098218500,0.446218505859375,0.36168329450711606,1.9957877407535909,1.2428086882859468
1686428345108164600,0.45616455078125,0.20380407823324204,1.1838158165693282,1.9460767843842506
1686428345118109400,0.466109375,0.03713102238997817,0.8926349220477044,2.038074684602022
1686428345128055600,0.4760556640625,0.030435616404563187,1.2133719467256217,2.070971576553583
1686428345138000400,0.48600048828125,0.09805909995287657,1.6230955609761177,2.5385171921104193
1686428345147946500,0.495946533203125,-0.02377630464583635,1.659118622124195,2.971685321769118
1686428345157891600,0.5058916015625,-0.14631138194650412,1.4459958036646245,3.4597640222668646
1686428345167836400,0.51583642578125,0.03705255032628774,1.2773599233157933,4.173019259372353
1686428345177782500,0.525782470703125,-0.22213643825948237,0.7092923248238862,4.457893016573786
1686428345187727400,0.535727294921875,-0.7858616236329078,-0.23668650326803325,4.11465007251203
1686428345197673500,0.545673583984375,-0.7252516721084713,-0.6752155754379928,3.760312902984023
1686428345207618600,0.55561865234375,-0.28603578671813007,-0.5212725295692682,3.673953885436058
1686428345217564700,0.565564697265625,-0.8576409116864204,-0.6431532346144319,3.734482296156883
1686428345227509500,0.575509521484375,-3.5315462329298257,-1.4424199910044668,3.691292558249831
1686428345237455600,0.58545556640625,-4.494625541165471,-2.253470124168694,3.746113112717867
1686428345247400400,0.595400390625,-4.367250914879143,-2.2741113456591964,3.754837101921439
1686428345257346300,0.60534619140625,-3.3132150321722027,-1.9919518158525227,3.7224142572224137
1686428345267291600,0.615291748046875,-1.8171639887452125,-1.8789388923957944,3.7811271429538724
1686428345277236500,0.625236572265625,0.0032917350217700004,-2.476670684528351,4.7399078772127625
1686428345287182600,0.6351826171875,-1.3609037373125552,-3.177254363848269,3.287420081180334
1686428345297127400,0.64512744140625,-1.933760469777137,-3.89333021133244,3.409628410744667
1686428345307073500,0.655073486328125,-1.536362011027336,-2.4249480960756538,5.590311823382973
1686428345317018600,0.6650185546875,-2.3053953955866393,-1.1907359712213277,5.986154138731957
1686428345326964500,0.674964599609375,-4.23173506771326,-1.7069664149701593,4.667525947090983
1686428345336909600,0.68490966796875,-4.3831285752296445,-2.2440058379918337,3.2534891700059174
1686428345346855400,0.69485546875,-3.6252737334191796,-1.750981497785449,2.5721371376395226
1686428345356800500,0.704800537109375,-4.385688781106472,-1.759603195658326,2.3431530254423616
1686428345366746400,0.714746337890625,-5.436285044753551,-2.5816671825289723,2.5331746620386837
1686428345376691500,0.72469140625,-5.7317889170408245,-2.877626397368312,3.027301995050907
1686428345386636500,0.734636474609375,-5.327150131773949,-1.9500754986315965,4.099775743985176
1686428345396582700,0.744582763671875,-4.976833303803205,-0.6539502306997775,5.056159938496351
1686428345406527500,0.754527587890625,-4.390357941961288,0.2203051311790943,5.671957840934396
1686428345416473300,0.764473388671875,-3.6180525499939917,0.6588397563070059,5.80930704100728
1686428345426418400,0.77441845703125,-2.7302187446177,0.34988311272859574,5.9902177349090575
1686428345436364300,0.7843642578125,-1.9057243157297372,-0.3386637995779514,6.394719742053747
1686428345446309600,0.7943095703125,-1.1481430301636457,-0.44093116487562656,6.5290867114454505
1686428345456255500,0.80425537109375,-0.5953986730098724,-0.16438392199277876,6.2953825849890706
1686428345466200600,0.81420068359375,3.988830566713214,0.0517050527960062,5.498015232479572
1686428345476146400,0.824146484375,11.470041477137803,-1.5398118592202663,4.176042406585812
1686428345486091500,0.834091552734375,10.073343957388401,-1.9865490800261496,3.6182705766588446
1686428345496036600,0.84403662109375,6.099118254610896,-0.9508885197043419,3.4315929897934194
1686428345505982500,0.853982421875,2.6952251726478336,0.258474995097518,3.5130268258988857
1686428345515927600,0.863927490234375,0.8298068560823798,0.2901514053434133,3.204562642012536
1686428345525873400,0.873873291015625,-0.7155791500084102,0.029242461097240446,3.0576775518313046
1686428345535818500,0.883818603515625,-0.4931950205981731,0.24783143600821494,3.3138194278061386
1686428345545764400,0.893764404296875,0.9524895251601934,-0.7015227137356996,3.040067953121662
1686428345555709700,0.903709716796875,2.6961671296730634,-3.182679019245505,2.895522411803901
1686428345565655600,0.913655517578125,4.536543359440564,-4.888717797976732,3.2328476562544703
1686428345575600400,0.923600341796875,3.7543437654465435,-5.104418650230765,3.4714562136262654
1686428345585546500,0.93354638671875,2.9815456215262413,-4.526643312194943,3.5339506637230516
1686428345595491300,0.9434912109375,3.7196173199802636,-4.364540779137611,2.8425165055423975
1686428345605436700,0.953436767578125,4.578682419250905,-4.6913381998330355,1.7829224041864276
1686428345615382500,0.963382568359375,5.714762963438034,-5.0457858439981935,0.814306504611671
1686428345625327600,0.97332763671875,6.731333038842678,-4.9823272250443695,-0.18103695062994957
1686428345635273500,0.9832734375,6.431520071184635,-4.18033630438745,-1.0012015336200595
1686428345645218600,0.993218505859375,4.148829113228619,-2.6338684944093225,-0.6126026135280728
1686428345655164400,1.003164306640625,2.2224143300391734,-1.684430758035183,0.340182679708302
1686428345665109500,1.013109619140625,1.7512044928863644,-1.7521464499115942,0.2807128381296992
1686428345675055600,1.0230556640625,2.219965329451859,-2.5717268032729623,-0.3163894239276647
1686428345685000400,1.03300048828125,3.329868060809374,-4.103552339914441,-0.804130855295062
1686428345694946600,1.042946533203125,3.43493060978353,-4.4290158816576,0.41025428706109524
1686428345704891400,1.052891357421875,1.6764551029808819,-2.360814354339242,3.0875425287410616
1686428345714836500,1.06283642578125,-0.2515565940111875,-0.21834172215163705,5.736335912820697
1686428345724782600,1.072782470703125,-1.6891459499888122,2.407428221476078,7.096412551659345
1686428345734727400,1.0827275390625,-2.669243174651265,4.992320795792341,6.170082134628296
1686428345744673500,1.092673583984375,-3.5321786856144666,3.4456086556643246,4.366014358821511
1686428345754618400,1.102618408203125,-3.0819010157227513,1.9726333673983811,1.4343497895345092
1686428345764564500,1.112564453125,-3.008560469701886,1.3972089764028788,-1.8593582858741282
1686428345774509300,1.12250927734375,-3.332372152584791,1.6674153258264064,-4.092223721170425
1686428345784455400,1.132455322265625,-2.751046428591013,3.2349387833148238,-4.77393114284575
1686428345794400500,1.142400390625,-1.789691459929943,4.792149521103501,-3.839344354122877
1686428345804346600,1.1523466796875,-1.575735990038514,5.689953516352176,-2.360066166320443
1686428345814291500,1.16229150390625,-2.078217894420028,6.138824826577306,-0.95965751709342
1686428345824236300,1.172236328125,-2.8615836095839735,6.753423290097713,0.03562017943561077
1686428345834182400,1.182182373046875,-3.8157828612715003,7.510224238941073,-0.08715922801494598
1686428345844127500,1.19212744140625,-4.605031204733252,7.817680414828658,-0.7593816129863262
1686428345854073600,1.202073486328125,-4.937102181917429,8.188115317198633,-1.8752771550178526
1686428345864018400,1.212018310546875,-5.884080834701657,8.717288244628906,-2.6309125672131777
1686428345873964500,1.221964599609375,-5.326085717412829,8.727027548354863,-4.655561953052878
1686428345883909400,1.231909423828125,-2.9709990930706263,7.80885471881628,-5.086721665498614
1686428345893855500,1.24185546875,-2.2184978872478007,6.3473880820363755,-3.3921260718017816
1686428345903800600,1.251800537109375,-0.547352654178068,4.881506551423668,-2.618817055749893
1686428345913746700,1.26174658203125,1.0920516520421952,3.69854939751029,-2.6490549576252698
1686428345923691500,1.27169140625,2.4324222313486037,3.5692847196936603,-3.1392280000537633
1686428345933636400,1.28163623046875,3.21122297668457,3.3422277761667964,-3.1978035231411455
1686428345943582500,1.29158251953125,3.2308465455651283,2.8777666826218367,-2.5713176379501816
1686428345953527600,1.301527587890625,2.70140532258749,2.7537252924114464,-1.5346806338116525
1686428345963473700,1.3114736328125,1.370901545844227,2.617155260017514,-0.24006109426766634
1686428345973418500,1.32141845703125,-0.9886194076836109,2.31044376501739,1.9963409907221792
1686428345983364600,1.331364501953125,-3.293104556557536,2.6445664140343665,2.9295567833527922
1686428345993309400,1.341309326171875,-5.249090156015753,2.4039924018085,2.4252302740179
1686428346003255600,1.351255615234375,-5.493158440098166,1.3271376613110304,1.5771007025204598
1686428346013200600,1.36120068359375,-1.2259265270680189,1.404366446942091,2.2318037974141536
1686428346023146500,1.371146484375,1.436985106474161,-0.5061415959328412,1.5978312097296117
1686428346033091600,1.381091552734375,0.34292715611085295,-1.931899790471792,1.37791303204149
1686428346043037400,1.391037353515625,-1.0748216272346676,-1.0320675042659044,0.9155175657894462
1686428346052982500,1.400982421875,-2.7479806112796066,-1.180572889125347,1.2500799944631755
1686428346062927600,1.410927734375,-3.989018782761693,-1.2532032410502434,1.6322319303728638
1686428346072873500,1.42087353515625,-4.055908545207977,-0.7272095281779766,1.4723203314885496
1686428346082818600,1.430818603515625,-3.496160446771979,-0.6202905376821756,0.3149271693553775
1686428346092764700,1.4407646484375,-1.5806594179153441,-0.8747259020000696,-0.6487302310291677
1686428346102709500,1.45070947265625,0.21457667052969334,-0.5247913513451814,-0.1689058563966304
1686428346112655600,1.460655517578125,1.0610739646501839,-0.28619711475968357,0.31393413973003625
1686428346122600400,1.470600341796875,0.4944045425184071,-0.4174643645703792,0.13838336542621255
1686428346132546600,1.480546630859375,-1.3338532333016395,0.5997282266467809,-1.098261831793934
1686428346142491600,1.49049169921875,-0.40093700813949107,0.10854103873968124,-1.2291454891145228
1686428346152437800,1.500437744140625,-3.4212720867872237,-0.2376899812221527,-1.1894789568975568
1686428346162382600,1.510382568359375,-13.422087399059533,2.0323598140865564,-1.5921968571044505
1686428346172327400,1.520327392578125,-4.554866367116571,1.6872826403349637,1.662594043149799
1686428346182273500,1.5302734375,6.536580282071232,-2.1157085439026355,2.874132710033655
1686428346192218600,1.540218505859375,6.681516576272249,-6.272746974810958,1.579007266794145
1686428346202164700,1.550164794921875,5.0784097642272705,-8.321915300357341,2.340972466532886
1686428346212109600,1.560109619140625,-2.498396778646111,-8.755014456433058,3.2467332660049197
1686428346222055700,1.5700556640625,9.236971459180117,-9.128208302122355,7.983067960906029
1686428346232000500,1.58000048828125,22.503194927310943,-12.445399252188205,9.743535079917311
1686428346241946600,1.589946533203125,18.95284637875557,-15.27654271532297,6.961756243932247
1686428346251891700,1.5998916015625,6.899453224754333,-14.179675698888301,4.675483628097176
1686428346261837800,1.609837890625,2.6199185872510076,-9.757407537925243,4.3666427198529245
1686428346271782700,1.61978271484375,4.960917941790819,-5.160964128795266,4.262523881469667
1686428346281727500,1.6297275390625,7.033173128414154,-2.456703416776657,4.263661653327942
1686428346291673600,1.639673583984375,5.016886497250199,-2.046325211074948,4.831133624014258
1686428346301618700,1.64961865234375,3.081687372972071,-0.20572423264086245,4.816726912999153
1686428346311564800,1.659564697265625,1.7434549016728995,2.664810160639882,3.246132377502322
1686428346321509600,1.669509521484375,1.027090592636168,6.29877865716815,1.0839236559703946
1686428346331455700,1.679455810546875,2.335054766921699,8.553157420614362,-3.8723075893089174
1686428346341400600,1.689400634765625,2.241983392253518,7.457791456392407,-3.920654856109619
1686428346351346700,1.6993466796875,-0.7126701306939125,5.322217351546883,0.010317761201038956
1686428346361291500,1.70929150390625,-2.8337790723353624,6.179867615583539,0.5882574960183352
1686428346371237600,1.719237548828125,-4.828920039618015,6.120941379362344,0.9452345855958759
1686428346381182700,1.7291826171875,-7.279359135302901,3.2871991319060325,4.281033351628482
1686428346391127600,1.73912744140625,-6.440892295163869,5.158039765781164,2.254904979277402
1686428346401073700,1.74907373046875,-3.2422108201444146,4.065758908092976,-1.496486512234807
1686428346411018500,1.7590185546875,-0.8511708388894796,2.958352377465367,-0.8656306683313101
1686428346420964600,1.768964599609375,-0.4547857949659228,1.4343039045661687,0.963644833163917
1686428346430909700,1.77890966796875,-0.5410058424346149,1.5069886170268059,1.694819611711055
1686428346440855600,1.78885546875,-1.1074901172578333,2.013100402343273,0.5519834557838738
1686428346450800600,1.798800537109375,-1.1720151963993906,2.469903674611449,-1.0382565681643783
1686428346460746500,1.80874658203125,-1.2850653831265866,4.050640249416232,-1.0890471364639698
1686428346470691600,1.818691650390625,-1.5494325050026176,5.4278147380501025,-1.8734468708507717
1686428346480637400,1.828637451171875,-2.040290022563934,6.006441724479198,-2.688036722448468
1686428346490582800,1.838582763671875,-1.8430670762866734,6.866678497877716,-1.963417356894165
1686428346500527600,1.848527587890625,-1.5607652153998612,6.438012940335273,-0.975975468557328
1686428346510473700,1.8584736328125,-1.1559177558183669,3.9673330206543205,-0.8815266680561006
1686428346520418600,1.86841845703125,-0.1815921002946794,0.37387481369078157,0.31401115048900247
1686428346530364400,1.878364501953125,0.8799953668355941,-2.473715341854095,0.6872558495827019
1686428346540309800,1.888309814453125,1.303806031692773,-3.5142888086587187,0.5592521316125989
1686428346550255600,1.898255615234375,1.4707821621358395,-2.8565988069087265,1.0608024542324244
1686428346560200700,1.90820068359375,1.2696034639701246,-2.798526557168364,1.1004361070930957
1686428346570146600,1.918146484375,1.0816627253010869,-3.0932302189886567,0.9452801783032715
1686428346580091600,1.928091552734375,0.8803229913547634,-3.1643186021685596,0.8556675657868384
1686428346590037500,1.93803759765625,0.6019952947959304,-2.82428994397819,0.6593073738187551
1686428346599982800,1.94798291015625,0.38096097255945205,-2.407467384442687,0.3660482117183506
1686428346609927700,1.957927734375,0.017179098337888717,-1.9587498034745454,0.2802437593132257
1686428346619873500,1.96787353515625,-0.402240784214437,-0.7905547498852014,0.3767541685193777
1686428346629818600,1.977818603515625,-0.9470996488153934,0.15766893452405928,0.8424014031089841
1686428346639764500,1.987764404296875,-1.456222598646581,0.4313251321405172,1.5152993492543696
1686428346649709800,1.997709716796875,-1.2743581111513078,0.05186228918433189,2.175344974219799
1686428346659655700,2.00765576171875,-0.5245552045017481,-1.2312357393920421,2.1287205856889484
1686428346669600800,2.017600830078125,0.3832891232460737,-2.2925223238795995,2.3268726295098663
1686428346679546600,2.027546630859375,1.1924480358362197,-3.0103233877211806,2.8095135228678583
1686428346689491500,2.037491455078125,1.54431793846786,-4.1035926719248295,4.0146044749170535
1686428346699437600,2.0474375,2.17827109079957,-3.1554736169338224,3.3966713140159843
1686428346709382700,2.057382568359375,1.1899436517998576,-2.0554759012579917,2.902354303650558
1686428346719327700,2.06732763671875,0.03377279800325632,-1.909887280628085,2.88981747816056
1686428346729273600,2.077273681640625,-0.3956304261639714,-2.0775521239876746,2.165723159393668
1686428346739218700,2.08721875,-0.29032179347425696,-2.0480495506495235,0.9739607677340507
1686428346749164500,2.09716455078125,0.4442570944279432,-1.9648750083565711,-0.3088026220604777
1686428346759109600,2.107109619140625,1.3785519144669174,-2.1762895615935323,-1.7593413298517464
1686428346769055500,2.117055419921875,3.392610055926442,-2.5674077710300685,-4.124973898127675
1686428346779000600,2.12700048828125,5.430073915153741,-2.9478198775351045,-7.192690905675292
1686428346788946700,2.13694677734375,5.883820722460746,-2.7281220645993947,-10.26111460018754
1686428346798891500,2.1468916015625,4.688431080214679,-1.691478338459134,-11.858799971705674
1686428346808837600,2.156837646484375,2.411730594845116,0.21207330940663813,-10.264760847735404
1686428346818782500,2.166782470703125,0.40518560549467797,1.5833149008601903,-5.824416931855678
1686428346828728600,2.176728515625,-1.446858557973802,1.967538674607873,-3.487366899463534
1686428346838673700,2.186673583984375,-2.5164833472177386,3.704133335122466,-3.1824712217137217
1686428346848618500,2.196618408203125,-1.411471602772176,5.162918185472488,-3.4087574731290338
1686428346858564600,2.206564697265625,2.4478515634097158,6.330868324390053,-2.3162112425029275
1686428346868509400,2.216509521484375,6.035016077056527,7.171369300705194,-0.9435480938136577
1686428346878455600,2.22645556640625,2.566624511697888,5.427406157249212,-2.4093299634441734
1686428346888400600,2.236400634765625,-2.301164918410033,6.839670663964748,-2.794560283885896
1686428346898346800,2.2463466796875,-3.5709243035942313,9.184471456614137,0.5149944722130895
1686428346908291600,2.25629150390625,-4.0043443621873855,9.184020790237188,4.0997590851113195
1686428346918237700,2.26623779296875,-4.130061576655507,7.788231032982468,5.006039524543285
1686428346928182500,2.2761826171875,-3.865536779999733,6.520147033664584,3.766433431690931
1686428346938128600,2.286128662109375,-3.623732933717966,5.675077434259653,1.220071663559973
1686428346948073700,2.29607373046875,-3.539876838901639,5.285708698838949,-0.4728875611066818
1686428346958018600,2.3060185546875,-3.863296599857509,5.056200270506739,-0.32911563450992104
1686428346967964700,2.315964599609375,-3.6199370485663414,4.351041830617189,-0.3441556749925017
1686428346977909500,2.325909423828125,-3.748216806998849,3.211709883418679,-0.3319429668903351
1686428346987855600,2.335855712890625,-5.740347486549616,2.539861592456698,-0.37189620709419247
1686428346997800700,2.34580078125,-5.454212331110239,1.5483382800251244,0.7964747875839472
1686428347007746800,2.355746826171875,-3.1137907764583823,-0.4620265598744154,2.0517428522095082
1686428347017691600,2.365691650390625,0.9244418268054723,-3.2174364443719385,2.7419626661643384
1686428347027637800,2.3756376953125,1.5413894838005304,-5.520862439581752,2.3262898611858485
1686428347037582600,2.38558251953125,1.5700485920518636,-6.840843214875459,2.9730481345549222
1686428347047528400,2.395528564453125,1.4440778412140904,-7.57173698452413,4.126635693860054
1686428347057473500,2.4054736328125,1.2119056005001068,-7.251279288244247,4.0653944586947555
1686428347067418600,2.415418701171875,1.3159995967030524,-6.207551741322875,1.7721280384495854
1686428347077364500,2.425364501953125,1.6859633744299412,-5.516248223784566,-0.6105649702206254
1686428347087309600,2.4353095703125,1.15842038628906,-5.032798936653137,-1.295586046488583
1686428347097255400,2.44525537109375,0.27096739692389965,-3.8982138917207716,-0.9006178836256266
1686428347107200500,2.455200439453125,-0.6460644458860159,-3.0909535062283275,-0.2481106913410127
1686428347117146400,2.465146484375,-0.4713393087513745,-4.115851849517226,-0.857309780035913
1686428347127091700,2.475091796875,0.5667389802366495,-4.842725277608633,-1.188060614532232
1686428347137037600,2.48503759765625,1.1718765185810625,-5.160786434140801,-0.9759773682534694
1686428347146982400,2.494982421875,1.4044400967001913,-5.4071723475158215,-0.9487807337701321
1686428347156928500,2.504928466796875,1.2034208268798887,-5.350901594239473,-0.3637660921305418
1686428347166873300,2.514873291015625,0.9957168185986578,-5.49059589613378,0.34289807614684104
1686428347176819500,2.5248193359375,1.0893303373195231,-5.304443794447184,0.9053785221561789
1686428347186764500,2.5347646484375,1.153136162275821,-5.890156355223059,0.9023410541564225
1686428347196709600,2.544709716796875,1.0182087825223802,-5.776555110484361,0.7304495330125093
1686428347206655500,2.554655517578125,0.7607296665944159,-4.589980935117602,-0.43450566187277434
1686428347216600300,2.564600341796875,0.06482581565380097,-1.6788456513792276,-1.64053374864161
1686428347226546400,2.57454638671875,-1.097001310338825,0.39513796647191046,-0.6354230787537991
1686428347236491500,2.584491455078125,-2.171027549412101,2.4437761306643484,0.1932422060780227
1686428347246437600,2.594437744140625,-2.6554350140511986,2.6920734306186436,-0.28593597960546613
1686428347256382500,2.604382568359375,-2.6686989847719667,2.103846841195226,-0.3332090413033962
1686428347266328600,2.61432861328125,-2.0208121457643804,1.2124474522918463,-0.03132920424342155
1686428347276273400,2.6242734375,-1.5106220050930976,0.3622194472104311,0.39831484294235703
1686428347286219500,2.634219482421875,-0.8931162758238613,0.6619488282382487,0.3981673972956836
1686428347296164600,2.64416455078125,-0.2968130551896989,0.8302572301983833,-0.6063860771007835
1686428347306110700,2.65411083984375,0.5959155364908277,0.38768297429084775,-1.835782033845037
1686428347316055600,2.6640556640625,1.3213836278289555,-0.1839274113744497,-2.2504786872677505
1686428347326000400,2.67400048828125,1.502258665895462,-0.6967109295397996,-2.3707938965618607
1686428347335946500,2.683946533203125,0.9797516260951756,-0.4783575169503689,-2.775401117646694
1686428347345891600,2.6938916015625,0.14839790589697657,-0.4768529576063156,-3.084080113327503
1686428347355837700,2.703837646484375,2.157431131866574,-0.4592220238476991,-1.7680067207358776
1686428347365782500,2.713782470703125,4.029873940241337,-0.8439221829354763,2.1555568624272943
1686428347375728600,2.723728759765625,1.4888964954972266,0.31741292175650593,4.780017769283056
1686428347385673500,2.733673583984375,1.4376707506507633,5.089770531675219,3.185483555272221
1686428347395619600,2.74361962890625,0.6935667862951755,9.104961866569518,2.4153790343500674
1686428347405564700,2.753564697265625,-0.8473862057842314,10.398325268572568,0.5427594081036746
1686428347415510500,2.763510498046875,-1.985790224482864,10.260362905037402,-0.4540579190827906
1686428347425455600,2.77345556640625,-3.0270529887259006,10.172774637955426,-0.284093566609174
1686428347435401500,2.7834013671875,-2.977468289084732,9.516730649846792,0.15027531714141368
1686428347445346600,2.7933466796875,-1.8262161869898437,7.479780000838637,-0.28496874200850725
1686428347455292400,2.80329248046875,-0.11094517727196215,5.847386888554692,1.6217331865817308
1686428347465237500,2.813237548828125,1.154272618959844,3.964829513400793,3.817534965635836
1686428347475182600,2.8231826171875,1.129227609552443,2.557717567142844,3.4515099886626004
1686428347485128700,2.833128662109375,0.18985621690154075,1.7036667889028787,1.19030284050107
1686428347495073500,2.843073486328125,-1.1387354426100849,1.5985475413054226,-0.8770262878969312
1686428347505019400,2.853019287109375,-2.357168106791377,2.0300468609690663,-2.0707743004158137
1686428347514964500,2.862964599609375,-3.3189141205966473,2.2850042033344504,-2.789864527285099
1686428347524910300,2.872910400390625,-1.4783037898123264,2.6047330008178946,-0.49766734370663757
1686428347534855700,2.882855712890625,0.9064128336399793,2.670612124916911,1.98153636643067
1686428347544801500,2.892801513671875,0.6134653678372501,1.9825848525702952,0.16581541610062123
1686428347554746600,2.90274658203125,1.4633160640388727,2.295404601317644,-0.8795145245160907
1686428347564692500,2.9126923828125,1.6150255056366323,2.4154297416239974,0.48487194034568964
1686428347574637600,2.922637451171875,1.06579500182271,2.6773610146552325,1.6555217666760087
1686428347584583400,2.93258349609375,0.6465723954081535,1.3859627752453088,2.7473823531255124
1686428347594528500,2.942528564453125,0.7388496970891952,-1.4273048394590615,2.733231370437145
1686428347604474600,2.952474609375,0.7455075475431978,-3.644107613226771,2.1187202929392455
1686428347614419500,2.96241943359375,0.5202117684699594,-5.025973474547267,1.992794111895561
1686428347624365600,2.972365478515625,0.6552297491163015,-5.7724429989904165,1.2865469999864696
1686428347634310400,2.982310302734375,0.5409042817562818,-6.225868319258093,0.6584425736829638
1686428347644255700,2.992255859375,0.5257127039737999,-6.515839691859483,0.1988331579528749
1686428347654201600,3.00220166015625,0.8216542370259762,-6.485379671666026,-0.6649913377393036
1686428347664146400,3.012146484375,0.9400649278730153,-6.272673909574746,-1.202771496125683
1686428347674092500,3.022092529296875,0.8326227902859449,-6.1275821325510735,-1.5002601855546236
1686428347684037400,3.032037353515625,0.6152379304677248,-6.135647365584969,-1.30597037011981
1686428347693983500,3.0419833984375,0.286951732519269,-5.758051485544443,-0.9380275037612765
1686428347703928600,3.051928466796875,0.04990180276632308,-5.019590495511889,-0.9361451971460133
1686428347713874700,3.061874755859375,-0.015836963013932108,-4.209650077155232,-1.1305205719724296
1686428347723819500,3.071819580078125,0.12119009243249892,-3.28597222045958,-1.3629203378319739
1686428347733765600,3.081765625,-0.07115618771910667,-2.5081226383686066,-1.632502271746844
1686428347743710500,3.09171044921875,-0.5393459098657593,-1.783005698555708,-2.063007027415186
1686428347753656600,3.101656494140625,-0.9137006525605916,-0.9742255561500787,-2.2525411727555094
1686428347763601700,3.1116015625,-0.9252963978081941,-0.467885222774744,-1.9496411988675593
1686428347773547800,3.1215478515625,-0.5539455496370792,-0.0595171878516674,-1.1832326098538934
1686428347783492600,3.13149267578125,-0.2951028902709484,-0.27053134359419345,-0.2714651538455859
1686428347793438500,3.1414384765625,-0.05168052114294842,-1.8338129257291553,1.0060579606752842
1686428347803383600,3.151383544921875,-0.09454818748878314,-3.028624183565378,2.0137486371189355
1686428347813328400,3.161328369140625,-0.3004103490293026,-3.5584161196768282,2.618014799456298
1686428347823274500,3.1712744140625,-0.2522562667131424,-3.8377170451819893,2.986167143847048
1686428347833219600,3.181219482421875,0.22235037327110765,-3.593334872844815,3.1306895965501664
1686428347843165700,3.191165771484375,1.1895184121251106,-3.121986357873678,2.916885810089111
1686428347853110500,3.201110595703125,2.0259879409670827,-2.962517095929384,2.8407001037701964
1686428347863056400,3.211056396484375,2.133344738358259,-2.9205542694687843,3.557328908962011
1686428347873001500,3.22100146484375,1.0099275686502456,-2.184520798844099,4.361841164790094
1686428347882947300,3.230947265625,0.21682251322772353,-0.5628676917612553,3.5191672283500433
1686428347892892700,3.240892578125,1.822159312814474,1.093757359981537,2.1133583275146783
1686428347902838500,3.250838623046875,2.787790643620491,2.441341012471914,0.5692016440231352
1686428347912783600,3.26078369140625,3.224878577071428,3.318151904052496,-1.4286303889743983
1686428347922729500,3.2707294921875,3.889422682499885,3.799263103625178,-2.9517332515865564
1686428347932674600,3.280674560546875,4.563026877218484,4.4854380261033775,-3.714446639344096
1686428347942620400,3.290620361328125,5.480844317448139,7.2772647933721535,-3.3587370124191045
1686428347952565500,3.3005654296875,-1.0488508812844752,10.656668746244907,-2.2488943406857547
1686428347962511600,3.31051171875,-10.90353104496002,12.41290217320919,-1.5025351447492836
1686428347972456400,3.32045654296875,-10.715473986434937,14.870287142509222,0.0028996304316446183
1686428347982401500,3.330401611328125,-4.700771798610687,15.66797130588293,0.7839066171076148
1686428347992347400,3.340347412109375,0.24435758588518947,9.468980472156405,-0.2119279826518148
1686428348002292700,3.350292724609375,1.6061550936996936,-0.13217910395860671,-1.1574154470302165
1686428348012238600,3.360238525390625,0.38268414309024806,-3.5540830589085814,-0.3421447004962712
1686428348022183400,3.370183349609375,-2.5792788260877133,-1.7774544941693544,1.2831634950280189
1686428348032129500,3.380129638671875,-4.165191342225671,1.5726035372316836,2.323093987753987
1686428348042074400,3.390074462890625,-3.094453623303771,3.543963231432438,2.464896367843449
1686428348052020500,3.4000205078125,-0.2163438263326883,2.8792811788380144,0.8855752858597785
1686428348061965800,3.4099658203125,1.8006833940654992,1.8337229093581437,-1.9878645465388893
1686428348071912000,3.419911865234375,2.1639818686842918,1.4685925431370734,-3.678205697661638
1686428348081856800,3.429856689453125,2.109629516249895,0.1808610095411539,-3.5984848029538985
1686428348091803000,3.439802978515625,1.56856332193017,-1.218701251989603,-2.9975474927783012
1686428348101747700,3.449747802734375,1.688324842864275,0.7901473381280899,-1.8103116386324165
1686428348111693800,3.45969384765625,1.1787971116244793,2.080250277030468,-1.8279133462965487
1686428348121638700,3.469638671875,0.031292525494843716,1.3634136743068694,-2.7242116131573915
1686428348131584800,3.479584716796875,-1.336504624593258,-0.10055939233601092,-2.1155906166113914
1686428348141529900,3.48952978515625,-2.353386688556522,-0.9207494020283221,-0.7229825581327081
1686428348151475700,3.499475830078125,-2.566887546548247,-1.8570108459651469,0.37604908898994327
1686428348161420800,3.5094208984375,-2.0466174720197916,-2.8460873497664925,1.4360910802438855
1686428348171366700,3.51936669921875,-1.1617705734997987,-3.592849719676375,1.9927616709306835
1686428348181311700,3.529311767578125,-0.2560778708279133,-4.159599221307039,1.665889285302907
1686428348191256800,3.5392568359375,0.5166042454972863,-3.9419659396857023,1.3843518329173325
1686428348201202700,3.54920263671875,0.5790875896781683,-3.656963587668538,0.5667048222387209
1686428348211147800,3.559147705078125,-0.02345920152068138,-3.2929262773811816,0.22248744365423917
1686428348221093600,3.56909375,-0.5856615612410009,-3.798605516499281,0.02905621781013906
1686428348231038700,3.579038818359375,-0.83815236736238,-4.576224212443829,-0.2747952481163666
1686428348240984600,3.588984619140625,-1.0554168156713246,-4.5161581585377455,-0.03506170530263334
1686428348250930000,3.598929931640625,-1.1187370490677655,-4.408666336590051,-0.15767525466699153
1686428348260875800,3.608875732421875,-1.0893249304920434,-4.444250275668502,-0.661154901381582
1686428348270820900,3.61882080078125,-0.8963086421243845,-4.176334667530655,-0.8236620697170496
1686428348280766700,3.6287666015625,-0.7748930703729391,-3.050194210338592,-0.13423629221674055
1686428348290711600,3.638711669921875,-0.7049952121518552,-2.7181816853433847,-0.2237022993367165
1686428348300657700,3.64865771484375,-0.795743112308532,-2.572807584246993,-0.29056336541147904
1686428348310602800,3.658602783203125,-0.7737799945645034,-2.3774422485351563,0.024845870106108486
1686428348320548900,3.668548828125,-0.8147356898091733,-2.353268761265278,0.5633377934910356
1686428348330493700,3.67849365234375,-1.0880486269459129,-3.0438690989702937,0.9616861003115773
1686428348340439800,3.688439697265625,-1.543522111915052,-4.0716245852559805,1.2104690648909657
1686428348350384600,3.698384521484375,-1.8470416790060697,-4.388523712271452,1.420395790722966
1686428348360330800,3.708330810546875,-1.8671435329228638,-3.8072663773387667,1.3077875025443733
1686428348370275800,3.71827587890625,-1.8625912764459847,-3.428874963006377,0.28593766010589894
1686428348380222000,3.728221923828125,-1.7224400245644151,-3.064768094614148,-0.8422361295446753
1686428348390166800,3.738166748046875,-1.0543559084415435,-3.3647079035222527,-1.8650136812873184
1686428348400112600,3.748112548828125,-0.4509790961593389,-3.0014012455970045,-2.0337876549325884
1686428348410057700,3.7580576171875,-0.09328092576563357,-2.456779404622316,-1.990133075992763
1686428348420002800,3.7680029296875,-0.11516250270605087,-1.466485926246643,-2.0092546867005527
1686428348429949000,3.777948974609375,-0.38791502948105333,0.08802022875845432,-2.7381372626572844
1686428348439893800,3.787893798828125,-0.506005986854434,2.1521528992027044,-3.6446792756348847
1686428348449839900,3.79783984375,-0.11670841697379947,4.761191488260031,-4.26230322445631
1686428348459784700,3.80778466796875,0.7179281973525882,7.861794281843304,-4.441304577605426
1686428348469730800,3.817730712890625,1.429357680335641,10.084038369882107,-4.17795817707926
1686428348479675600,3.827675537109375,2.3434406102120873,10.16044005703926,-3.2816163633376356
1686428348489621800,3.837621826171875,3.1300495450809596,8.889352784252166,-1.7772979884333908
1686428348499566800,3.84756689453125,2.8178052581340074,7.711934559765457,0.46137540248930453
1686428348509512700,3.8575126953125,0.8567001237049698,7.6048226770460605,4.118218870909512
1686428348519457800,3.867457763671875,-0.4553317384108901,8.501457043993472,6.461886567875743
1686428348529403600,3.877403564453125,0.4055851262062788,8.81109056392014,5.822072999078035
1686428348539348700,3.8873486328125,0.9150213797703385,7.557328519943356,3.833157774442434
1686428348549294600,3.897294677734375,0.17991759121119974,5.5346600787878035,1.8914156582616268
1686428348559239700,3.90723974609375,-0.6085597678780555,4.42185548850894,1.504157192993164
1686428348569185800,3.917185791015625,-1.0670604917138815,4.27692445500493,1.3828896514102815
1686428348579130600,3.927130615234375,-0.5147255921438336,4.215959406432509,0.8042916718799621
1686428348589076700,3.93707666015625,0.8098372502431272,3.7924294582128524,0.04947963183149695
1686428348599021600,3.947021484375,1.8907944576233624,3.3866128613382576,-0.786623109524697
1686428348608967700,3.9569677734375,1.8981649863913654,2.8118536562532186,-1.0188199001580476
1686428348618912800,3.966912841796875,0.7960150611177086,1.8943173710525034,-0.7444678292319178
1686428348628859000,3.97685888671875,0.768751791138947,0.9648170918136835,-1.144015136578679
1686428348638803700,3.9868037109375,0.5247378675922751,0.09052490505576133,-0.6860846138462424
1686428348648749800,3.996749755859375,0.2933656912147999,-0.6734755999028682,-0.19026684352904558
1686428348658694700,4.006694580078125,0.407998032566905,-1.3980243844389915,-0.07660890016704797
1686428348668640800,4.016640869140625,0.5406207886397838,-2.405288871359825,0.25032727141194044
1686428348678585900,4.0265859375,0.7581491485819221,-3.1772564096748828,0.437585873035714
1686428348688531700,4.03653173828125,0.9558344516739249,-3.782891814538836,0.321392273716256
1686428348698476800,4.046476806640625,1.1333291996523738,-3.912420696249604,0.265652850837633
1686428348708422700,4.056422607421875,1.662007621563971,-4.184703851947188,0.275942554987967
1686428348718367700,4.06636767578125,2.039544172632694,-4.535083223760128,0.22373810130245983
1686428348728312800,4.076312744140625,1.7260832033723592,-5.036238263452053,-0.10182444383576511
1686428348738259000,4.086259033203125,1.215826134944707,-5.483460637426376,-0.7349296010360121
1686428348748203800,4.096203857421875,0.7822592152267694,-5.287244237843155,-1.203905468591675
1686428348758150000,4.10614990234375,0.6267531578250229,-4.2816760334461925,-0.9551683889806271
1686428348768094700,4.1160947265625,0.7983060946643352,-3.480806225773692,-0.6995794707134365
1686428348778040600,4.12604052734375,0.9198043762631714,-3.120183107843995,-0.4639165383394807
1686428348787986000,4.13598583984375,0.8172412428893149,-2.908090509214997,-0.2340580909932032
1686428348797931800,4.145931884765625,0.5294172575801611,-2.6707196769446133,0.012343019950948655
1686428348807876900,4.155876953125,0.2166097837924957,-2.2116572275727986,0.27728317420827225
1686428348817822700,4.16582275390625,-0.06244681156277656,-1.5539175414621829,0.30175666733803225
1686428348827767800,4.175767822265625,-0.06209368727616965,-1.2764654586941002,-0.4318346525652334
1686428348837713700,4.185713623046875,0.3672194474548101,-1.837211920517683,-1.4849498036980628
1686428348847658800,4.19565869140625,1.2195679518215357,-3.1327479903846975,-1.7655578662790357
1686428348857604900,4.20560498046875,1.0971317317854612,-3.3744904618680476,-1.2233309576168656
1686428348867549700,4.2155498046875,0.32432365099303423,-3.3692344410359856,-0.42657684163488446
1686428348877495800,4.225495849609375,-0.5898397967737168,-3.040748921123147,0.32148762384951113
1686428348887440600,4.235440673828125,-1.4741928473621606,-2.9237638791650533,0.9644796765528618
1686428348897386800,4.24538671875,-2.1213053409963845,-3.2508331025391817,1.525123700915277
1686428348907331600,4.25533154296875,-2.599810741984844,-3.3427187745541334,2.0924233837746082
1686428348917277700,4.265277587890625,-2.733226109740138,-3.043022126752138,2.6696929642453786
1686428348927222800,4.275222900390625,-2.1168997995138166,-2.5704601443380115,3.3807124051228166
1686428348937169000,4.2851689453125,-0.9269634542375802,-2.0737539007484913,4.28040382155329
1686428348947113700,4.29511376953125,-0.429540550278686,-1.3431857097923754,5.234357866308093
1686428348957059800,4.305059814453125,-0.020773871426843105,-0.46843233526349065,5.7284945516705505
1686428348967004700,4.315004638671875,2.6049165406912564,0.8662696238219737,4.848680094359815
1686428348976950500,4.324950439453125,6.214262637138367,2.506058691576123,3.0212527780145404
1686428348986896000,4.334895751953125,7.121863803780078,4.1885453298062085,0.5530617525398731
1686428348996841700,4.344841796875,5.761854384958744,5.555120098492503,-2.4010646777935323
1686428349006786800,4.354786865234375,4.54440459433496,6.229217629685998,-4.331944331437349
1686428349016732700,4.364732666015625,3.648489189311862,6.3077960763603445,-4.807954700739681
1686428349026677800,4.374677734375,2.208047804903984,6.178022279977798,-4.627358187353611
1686428349036623600,4.38462353515625,-0.41163843489587304,6.865103795906901,-4.220324908165633
1686428349046568700,4.394568603515625,-4.739488190495967,8.234753149732947,-3.1205361590653657
1686428349056514800,4.404514892578125,-8.667470028492808,8.594597099983691,-2.150951560588926
1686428349066459400,4.41445947265625,-8.75657337631285,7.694196658501029,-1.3759174743101
1686428349076405200,4.4244052734375,-5.966238893428445,4.392159438425303,-0.6125225340291858
1686428349086350300,4.434350341796875,-2.7488872047305106,0.6424351494729519,0.04566727046910673
1686428349096296200,4.444296142578125,-0.5510819403668865,-0.041156770774722094,0.6926889805473386
1686428349106241500,4.454241455078125,-0.11882624937798827,1.0929968970030546,0.8504661246862262
1686428349116186400,4.464186279296875,-0.20835224305689334,2.8114450754523275,0.5098153890747577
1686428349126132500,4.474132568359375,-0.12115494805388152,4.303535983076691,-0.35048820248227563
1686428349136077300,4.484077392578125,0.3573205692529678,5.1807192151010035,-1.1765944870136678
1686428349146023200,4.494023193359375,1.8442308593690395,5.096300225704908,-1.5673039695188402
1686428349155968500,4.503968505859375,3.2157898462086916,4.229792701473832,-1.65536979098469
1686428349165914400,4.513914306640625,3.563589722922444,2.726989261177182,-1.2448564145959913
1686428349175859500,4.523859375,2.9270436314880848,1.0205810646116733,-1.1400811581306158
1686428349185805300,4.533805419921875,1.614751657131314,-0.4788654664725065,-1.3372826232284307
1686428349195750400,4.54375048828125,0.27413901269733904,-1.5355255602031945,-1.68279468126595
1686428349205696300,4.5536962890625,-0.6390712259978055,-2.3282336887300015,-1.9891934570550918
1686428349215641300,4.563641357421875,-1.178349952378869,-2.6770664156228303,-1.9517276497527956
1686428349225587500,4.57358740234375,-1.7453092973679303,-2.7894284739553927,-1.5239648862689732
1686428349235532300,4.5835322265625,-2.3908956043481826,-2.9460283179432154,-1.019065034025535
1686428349245478400,4.593478515625,-2.882807014876604,-3.1784768913805483,-0.7184524404224008
1686428349255423200,4.60342333984375,-3.0528830110311507,-3.470785182496905,-0.0997699955239892
1686428349265369300,4.613369384765625,-2.829838810276985,-3.7009511979550123,0.5051311037160456
1686428349275314400,4.623314453125,-2.239450658905506,-3.894266615399718,0.6131880122005939
1686428349285260500,4.633260498046875,-1.5908885509848594,-4.11110611629486,0.4614683780023828
1686428349295205400,4.643205322265625,-1.2307669528365135,-3.9778947466790675,0.45032702545877545
1686428349305151500,4.6531513671875,-1.0320505531311035,-3.4918794084519145,0.8164428590532392
1686428349315096300,4.663096435546875,-0.922515827178955,-2.9106185663878916,1.423640763993561
1686428349325042400,4.67304248046875,-0.7409405318886041,-2.2907138131529092,1.7890139990597962
1686428349334987500,4.682987548828125,-0.2993108633548021,-1.7698183002024888,1.7772344216778873
1686428349344933400,4.692933349609375,0.053315995123982426,-1.4957225421249865,1.6042548130363226
1686428349354878500,4.70287841796875,-0.09967380514051764,-1.2072124742478132,1.475673587439209
1686428349364824300,4.71282421875,-0.8685451675385236,-0.43222938750386236,1.5452859067171811
1686428349374769400,4.722769287109375,-0.518723429608345,-0.11182429819405078,1.7312687893167138
1686428349384715300,4.73271533203125,0.11409100101701915,-0.6968558909684419,1.6737240705817937
1686428349394660400,4.742660400390625,0.2019938870061189,-1.7059522694915532,1.4201298332631587
1686428349404606500,4.7526064453125,-0.1840360593806952,-2.5805057375341653,1.3613961970046162
1686428349414551300,4.76255126953125,-0.8898696220528334,-3.120767045211792,1.6544661201432347
1686428349424497400,4.772497314453125,-1.7858090655386447,-3.2612346695661545,2.140606107663363
1686428349434442200,4.782442138671875,-2.586749600359797,-3.3718472538828848,2.1819820741467177
1686428349444388400,4.792388427734375,-3.1265567345291374,-3.3163469004571438,1.6122405510932205
1686428349454333200,4.802333251953125,-3.2257658812999725,-3.3937393522173163,0.6137853935718536
1686428349464279300,4.812279296875,-3.041021308323741,-3.456297807461023,-0.25616311969226224
1686428349474224400,4.822224365234375,-2.6295605680823324,-3.354729530343413,-0.8752086440157145
1686428349484170500,4.83217041015625,-2.133784883341193,-3.1412919468462466,-1.5184052063152194
1686428349494115300,4.842115234375,-1.5942957290798425,-2.8629309325397014,-2.1502684006303547
1686428349504061400,4.8520615234375,-1.1979648264963179,-2.6126544414669275,-2.7850089039474724
1686428349514006300,4.86200634765625,-0.9641062401305883,-2.129219767382741,-3.167997875203192
1686428349523952400,4.871952392578125,-0.860524942690134,-1.2595745296478271,-3.3314258116453885
1686428349533897500,4.8818974609375,-0.8709059783857315,-0.10938976452350616,-3.6971371926248073
1686428349543843300,4.89184326171875,-0.8164291227888315,1.1886007127583027,-4.336415923893451
1686428349553788400,4.901788330078125,-0.5373672667365521,2.511648474407196,-4.5881092960268255
1686428349563734300,4.911734375,0.10410985135920345,3.8793683214753862,-4.173580108125508
1686428349573679400,4.921679443359375,0.8530027304917573,5.678583396553993,-2.8101009673669934
1686428349583625200,4.931625244140625,0.9928354179434478,6.510663166004419,-0.5694608794812113
1686428349593570600,4.941570556640625,1.59317198574692,5.862943938648701,0.6020694560106843
1686428349603516400,4.951516357421875,2.59933377212286,4.271467358642816,0.504904930277355
1686428349613461200,4.961461181640625,3.313578897048533,3.8073862043261526,-0.3093252942277118
1686428349623407400,4.971407470703125,2.9351755000174045,5.643256062585115,-0.3263608559090644
1686428349633352200,4.981352294921875,1.9049574230104684,8.968149842113256,0.9156528826069086
1686428349643298300,4.99129833984375,1.0404875420868396,11.85065758178234,3.243502028998732
1686428349653243400,5.001243408203125,0.6889224676206708,11.963114917182923,4.846232701207697
1686428349663189500,5.011189453125,0.6026929216712713,9.078247462645173,4.702022675454616
1686428349673134300,5.02113427734375,0.37926118290424343,5.237077646660804,3.6726100696116686
1686428349683079400,5.031079345703125,0.23976386488676069,2.852774864706397,1.8907593863099812
1686428349693025300,5.041025390625,0.3643953299447894,1.9732821866959331,0.01899462332725525
1686428349702970400,5.050970458984375,0.543354597517848,1.8368378265082834,-1.216854382013902
1686428349712916500,5.06091650390625,0.6331120253324508,2.32400291929245,-1.2452421990431843
1686428349722861300,5.070861328125,0.49055152035206556,2.3090987801492213,-0.866212194546312
1686428349732807400,5.080807373046875,0.2846282580077648,1.6944161454766988,-0.21203495015762744
1686428349742752300,5.090752197265625,0.0436444959372282,0.9008721506476401,0.3362565192405134
1686428349752698400,5.100698486328125,-0.020716040292382238,-0.04935469027757644,0.17919884848259388
1686428349762643500,5.1106435546875,0.10181816022545098,-1.0755290448516606,0.061202729785814876
1686428349772589600,5.120589599609375,0.2608665664091706,-2.193651615282893,0.20696232306845486
1686428349782534400,5.130534423828125,0.17735972342193126,-3.0019203010350464,0.47295602323301134
1686428349792480500,5.14048046875,-0.04231032472401857,-3.768136143955588,0.5904192040968685
1686428349802425300,5.15042529296875,-0.031057109303772448,-4.5042274822473525,0.5583735221471637
1686428349812371200,5.16037109375,0.16246230628043412,-4.937245389780402,0.4832173780716955
1686428349822316300,5.17031640625,0.32243834870308635,-5.106054142478108,0.3346692500490695
1686428349832262400,5.180262451171875,0.5826052424103021,-5.184117040845751,0.05805179147422313
1686428349842207500,5.19020751953125,1.0134184795059262,-5.087678527832031,-0.27263949485458433
1686428349852153300,5.2001533203125,1.4171423418849707,-4.869354925858974,-0.6610496143762021
1686428349862098400,5.210098388671875,1.6620643201872705,-4.700438621133566,-0.9940972545728087
1686428349872044300,5.220044189453125,1.5688976684510707,-4.656632797154784,-1.1234819785725325
1686428349881989400,5.2299892578125,1.3151817044489085,-4.64856405698955,-1.0490084099337458
1686428349891935200,5.239935302734375,0.9658711309112608,-4.489528510287403,-0.7504805136501789
1686428349901880300,5.24988037109375,0.5014934778660536,-4.104322739765048,-0.20684191155917941
1686428349911826400,5.259826416015625,0.020511311500519512,-3.6083980019420383,0.4521726898580789
1686428349921771300,5.269771240234375,-0.02626899824440479,-2.8787510174840687,0.48250992392208425
1686428349931717400,5.27971728515625,-0.04821721068024635,-2.0090461585164068,0.2726401159090921
1686428349941662200,5.289662109375,-0.1334426941536367,-1.4258932190954685,-0.2036337266350165
1686428349951608300,5.2996083984375,-0.04805113339833915,-1.1643769566059112,-0.9244364199779928
1686428349961553400,5.309553466796875,0.2628133165627718,-1.125633676713705,-1.4598714765429497
1686428349971499500,5.31949951171875,0.44023200363032516,-1.3010709076404572,-1.5770372818954288
1686428349981444400,5.3294443359375,0.3842313725322485,-1.679553507387638,-1.083566147769615
1686428349991390500,5.339390380859375,-0.07686236347146332,-2.319308039474487,-0.40191389034762975
1686428350001335300,5.349335205078125,-0.7429437614697962,-2.9775428156256676,0.3432787460274994
1686428350011281200,5.35928125,-1.2579203327000141,-3.4427667102366684,1.2954551135852932
1686428350021226500,5.3692265625,-1.538576179945469,-3.7523943849444388,2.339467030405998
1686428350031172400,5.37917236328125,-1.3190782734960318,-3.7489854532837867,3.277110284090042
1686428350041117400,5.389117431640625,-0.8404670740455389,-3.280890387150645,4.291743546213209
1686428350051063300,5.399063232421875,-0.5978430704873055,-2.110012962609529,5.488914811179042
1686428350061008600,5.409008544921875,-0.7859107234716415,-0.20887363658249378,6.550402471196651
1686428350070954800,5.418954833984375,0.34898411806225776,2.4976480061054227,5.966757948866486
1686428350080899800,5.42889990234375,3.1623557776629925,5.950742633610964,3.6895442532777785
1686428350090845700,5.438845703125,5.6996565797209735,9.495684939208626,0.19797935413513332
1686428350100790800,5.448790771484375,8.050325972142815,10.482317556989193,-3.8493601367026566
1686428350110737000,5.45873681640625,8.814493650361895,8.161225556707382,-6.430896970850229
1686428350120681700,5.468681640625,7.723615645208954,5.305408255565166,-6.541065903052687
1686428350130627600,5.478627685546875,5.003181212502717,5.543671068239211,-5.274994412600994
1686428350140572700,5.48857275390625,-2.585433841586113,8.737846464011072,-3.9289620812058446
1686428350150518500,5.4985185546875,-11.904396186232566,12.054604283356666,-3.000246230342984
1686428350160464000,5.5084638671875,-14.079785584115982,13.239383392000198,-2.016336315524578
1686428350170409700,5.51840966796875,-9.5942628023386,9.242980928727984,-0.7957813984923064
1686428350180354800,5.528354736328125,-5.244256159988045,2.13491008797884,0.2733759924355894
1686428350190300700,5.53830078125,-2.6150340300798414,-2.7162685451984405,1.2852622208729385
1686428350200245800,5.548245849609375,-1.0536625193499027,-4.591067561310529,1.8050506493642926
1686428350210191600,5.558191650390625,-0.34747882806584235,-3.8505484697043895,2.1915961440578102
1686428350220136700,5.56813671875,0.13430164907053113,-0.7413789233058691,2.3377855070598423
1686428350230082800,5.578082763671875,0.680867902111262,2.8277152422517537,1.3568059466049074
1686428350240027600,5.588027587890625,0.8685819924175738,5.676410728690028,-0.6908416721802204
1686428350249973800,5.597973876953125,0.3723391285561025,7.0883291984468695,-3.09495923473835
1686428350259918600,5.607918701171875,0.7094774721324444,6.21914164135158,-4.557955273042619
1686428350269864700,5.61786474609375,2.534446581670642,3.7252509419530626,-4.851268065026402
1686428350279809800,5.627809814453125,4.083152525964379,1.1261848808556794,-4.520850115746259
1686428350289756000,5.637755859375,3.840453192147612,-0.7023714395195245,-3.759676943168044
1686428350299700700,5.64770068359375,1.705094045227021,-1.7886761454075575,-2.030542681661993
1686428350309646800,5.657646728515625,-0.8254759872712194,-2.6372528761506078,-0.695160119901225
1686428350319591700,5.667591796875,-2.5529215650379657,-3.3054654409587383,-0.04468230998578947
1686428350329537500,5.67753759765625,-3.7362978211462496,-3.932155908811092,0.36927100968975574
1686428350339483000,5.68748291015625,-4.489809665316343,-4.6013224133431905,0.7944721425246447
1686428350349428700,5.6974287109375,-4.6181379390656945,-5.273675731217861,1.3799658729180693
1686428350359373800,5.707373779296875,-4.237226650866866,-5.83640489129126,1.7516978293612597
1686428350369319700,5.717319580078125,-3.4719688393235204,-6.104893330881,1.7736624084100125
1686428350379264800,5.7272646484375,-2.6192186222881078,-6.09062456703186,1.6927338914781809
1686428350389210600,5.737210693359375,-1.8704151019394397,-5.817138465285301,1.525049905026704
1686428350399156000,5.747156005859375,-1.2906143955558538,-5.346006807935238,1.5017045391440391
1686428350409101800,5.757101806640625,-0.9092805710960179,-4.699135137319565,1.691509902641177
1686428350419046700,5.767046630859375,-0.7293189946126193,-4.0447617127716535,1.7573280903331934
1686428350428992800,5.77699267578125,-0.5415197833061218,-3.295206497272849,1.6139116991758347
1686428350438937600,5.7869375,-0.2885205892711878,-2.313508413285017,1.3896598761975765
1686428350448883700,5.7968837890625,-0.13417758429944515,-1.1200877330243586,1.135199742764607
1686428350458828800,5.806828857421875,-0.1740373740661889,-0.07763269025683403,0.790402481932938
1686428350468775000,5.81677490234375,-0.2232107164274901,0.3049403936743736,0.1222015162310563
1686428350478719700,5.8267197265625,-0.09141279380619526,-0.015587445232272148,-0.5099517653381451
1686428350488665900,5.836665771484375,0.005041574363783001,-0.5689245075821876,-0.5903510342314839
1686428350498610700,5.846610595703125,-0.1575157167237252,-1.3505968628317118,-0.17517299049999563
1686428350508556800,5.856556884765625,-0.7761363484323024,-2.2177257338315246,0.5504087538130581
1686428350518501600,5.866501708984375,-1.6867454647183417,-2.896716297763586,1.098754656812176
1686428350528447700,5.87644775390625,-2.6910440875709054,-3.4488264486670492,1.1740779741480947
1686428350538392800,5.886392822265625,-3.4442309375703335,-3.9324423245370386,0.6315731983926147
1686428350548338700,5.896338623046875,-3.4209716425359247,-4.323591513633728,-0.5435386123152449
1686428350558283800,5.90628369140625,-2.838392119088769,-4.6602971648812295,-1.3510888841323554
1686428350568229600,5.916229736328125,-2.1304478478729725,-4.897363461247086,-1.5231750510655342
1686428350578174700,5.9261748046875,-1.6201982320994137,-4.941674312138558,-1.6701853750616311
1686428350588120600,5.93612060546875,-1.2588333558917044,-4.774715571221709,-2.150765098106116
1686428350598066000,5.94606591796875,-0.7975999922215938,-4.400547912064194,-2.7842607159286734
1686428350608011800,5.95601171875,-0.40995797099564224,-3.8363796590983865,-3.345807388219237
1686428350617956600,5.96595654296875,-0.17496318367421626,-3.0730460936158894,-3.4225922294750806
1686428350627902700,5.97590283203125,-0.2802355760067701,-1.8088456577330827,-3.1654370848044753
1686428350637847600,5.98584765625,-0.4670581243008375,0.385146149289608,-3.0916084630057212
1686428350647793700,5.995793701171875,-0.2473666680406779,3.4108535686254497,-3.7202155781343578
1686428350657738800,6.00573876953125,-0.13614143171831963,7.318612118282914,-4.8516108871147035
1686428350667684900,6.015684814453125,-0.06526932163760066,12.429540004277229,-5.6484495395749805
1686428350677629700,6.025629638671875,1.406594205994159,15.125270788359641,-3.8796550294622776
1686428350687575800,6.035575927734375,3.438901851502061,13.23499830878377,-0.35386177056860174
1686428350697520600,6.045520751953125,4.091827415329218,8.865860849505662,2.0515505445078013
1686428350707466800,6.055466796875,3.4895296304553747,5.7326370583027595,3.4643320608347654
1686428350717411800,6.065411865234375,2.3988594228342173,4.7174306724667545,3.9002652712926267
1686428350727357700,6.075357666015625,1.6707035537168382,5.787457612770796,3.8939381140977143
1686428350737302800,6.085302734375,0.9435551080763339,7.728179007601738,3.762315182717144
1686428350747248600,6.09524853515625,0.21789690099358558,9.200581464415787,3.1533062097668645
1686428350757193700,6.10519384765625,-0.001899403880536556,8.482334410372376,2.9525404763162135
1686428350767139600,6.1151396484375,0.3241296627908945,6.28982611990571,2.9725989294826984
1686428350777085000,6.1250849609375,0.8061807735621929,4.30422864151597,2.4797034763529897
1686428350787030800,6.13503076171875,1.1100430166110395,3.096310649347305,1.2632350979819893
1686428350796975900,6.144975830078125,1.6070543806269764,2.3828929151564835,-0.11319646333009004
1686428350806921700,6.154921630859375,1.9772247868418693,2.08032100417912,-1.1143958780582994
1686428350816866600,6.164866455078125,1.820052111402154,1.6726275075167416,-1.3803582332365214
1686428350826812700,6.174812744140625,1.1975842296808958,1.023822823011875,-1.0422356278631835
1686428350836757800,6.1847578125,0.5505176210150122,0.37739538903236386,-0.6171601307019591
1686428350846703900,6.194703857421875,0.1640425612092018,-0.5425128859966993,-0.32257264260724183
1686428350856648700,6.204648681640625,0.12661533235162495,-1.5761895790249107,0.18604995648637412
1686428350866594800,6.2145947265625,0.12839257115721703,-2.513091658952832,0.7752515284217893
1686428350876539600,6.22453955078125,0.12467384289503097,-3.3863661931008098,1.213749109474942
1686428350886485800,6.23448583984375,0.1808893588528037,-4.090412872356176,1.4917264582261442
1686428350896430800,6.244430908203125,0.3062953154146671,-4.6840720082223415,1.6325697840251028
1686428350906377000,6.254376953125,0.5233268317505717,-5.032388602286577,1.301209439328313
1686428350916321800,6.26432177734375,0.7940899382740259,-5.304034629124403,0.616562968526408
1686428350926268000,6.274267822265625,0.6915713746942579,-5.447423109361529,0.07911357646435499
1686428350936212700,6.284212646484375,0.5838228015065193,-5.527946844884753,-0.40917379834800954
1686428350946158600,6.29415869140625,0.8220295000791549,-5.597265295782685,-0.8733263374004513
1686428350956103700,6.304103759765625,1.0349819304078818,-5.515394237303734,-1.2324055138237773
1686428350966049800,6.3140498046875,1.1229846235096455,-5.345739681431651,-1.3548070278726518
1686428350975995000,6.323994873046875,1.0711147355407475,-5.211342316901684,-1.2522164219699798
1686428350985940700,6.333940673828125,0.9422451945215463,-5.021307236301898,-1.2132565036524086
1686428350995885800,6.3438857421875,0.8139069839000701,-4.705926697155833,-1.164976456869021
1686428351005831700,6.353831787109375,0.5815589482277631,-4.225456718096137,-0.8253736959405243
1686428351015776500,6.363776611328125,0.3933592663615942,-3.3533471360743046,-0.5267058066643774
1686428351025722600,6.37372265625,0.13843933339715003,-1.9673767620444296,-0.273915469607152
1686428351035667700,6.383667724609375,-0.2826209367733449,-0.5961199730217457,-0.09122281505889258
1686428351045613800,6.39361376953125,-0.5412538258463144,0.31328093651831146,-0.2773181724564172
1686428351055558700,6.40355859375,-0.49539274983815845,0.4786977086901664,-0.7125104831527919
1686428351065504500,6.41350439453125,-0.16278116297125816,-0.06555003827512264,-1.0836416241586209
1686428351075449300,6.423449462890625,0.21729126325063405,-1.160830077779293,-0.9858509658835828
1686428351085395500,6.4333955078125,0.392953023648262,-2.491221187928319,0.040387138109095395
1686428351095340500,6.443340576171875,0.23781799151599406,-3.6865135072797535,1.0630622158579528
1686428351105286700,6.45328662109375,-0.19163089842386544,-4.735778814584017,1.6333716019272804
1686428351115231500,6.4632314453125,-0.7339561528939753,-5.450400663867592,1.9866453800074755
1686428351125177300,6.47317724609375,-1.0326122786670922,-5.559177849450707,2.5123729892894624
1686428351135122400,6.483122314453125,-0.7816776890117675,-4.7858314239978785,3.7318706523537633
1686428351145068300,6.493068359375,-0.5296265894819051,-2.8863813662320372,5.106480258935689
1686428351155013600,6.503013671875,-1.723330689793825,-0.420450686904788,6.391921635767817
1686428351164959500,6.51295947265625,-2.2614544009208677,2.4687667795360086,6.352110434383153
1686428351174904600,6.522904541015625,0.10747370176911353,6.140177410230041,4.551323287682235
1686428351184850400,6.532850341796875,3.01810220502913,9.78624492535293,1.4551179984055458
1686428351194795500,6.54279541015625,5.687685571420192,11.214800641655922,-3.012184505417943
1686428351204741400,6.552741455078125,7.362513219329714,9.98561657409668,-6.724136989858746
1686428351214686500,6.5626865234375,6.372300989496708,7.249617492511868,-7.271114454048871
1686428351224632600,6.572632568359375,3.828215641865134,4.9858127290725704,-5.856129582458734
1686428351234577400,6.582577392578125,-0.243365542640537,5.354036385133862,-4.033278195726871
1686428351244523500,6.5925234375,-7.35690823892951,8.68484669522941,-2.0310577915772794
1686428351254468400,6.60246826171875,-13.000864558738469,11.55240645661354,-0.4886817809574306
1686428351264414500,6.61241455078125,-11.691087782073021,11.785130339860915,0.41198695607259866
1686428351274359600,6.622359619140625,-6.039643152335286,7.452756384834647,1.182722614505142
1686428351284305700,6.6323056640625,-1.7185685899585486,1.5022002137064934,2.090738353297114
1686428351294250500,6.64225048828125,0.7801808015175163,-1.852180357068777,2.398242752240598
1686428351304196600,6.652196533203125,2.1220457841001448,-2.4730992557823654,2.3327083499260244
1686428351314141400,6.662141357421875,2.334736933144182,-0.9752619134604931,2.4234198635950683
1686428351324087300,6.67208740234375,2.094050108193606,1.6252642833173274,1.919372901853919
1686428351334032600,6.68203271484375,1.7619312002144754,4.101456828939915,0.28669183947406707
1686428351343978500,6.691978515625,0.8538637312352657,5.5973255015373224,-1.6096360676832495
1686428351353923600,6.701923583984375,-0.17728958079516888,5.620043529301881,-3.2620228973343965
1686428351363869400,6.711869384765625,-0.11406886225044727,3.926027781319618,-4.098248388287425
1686428351373814500,6.721814453125,1.1386410423249005,1.3812760787338019,-4.149280071866512
1686428351383760400,6.731760498046875,2.2099995234936474,-0.9636696753442286,-3.704774263374507
1686428351393705700,6.741705810546875,2.117678382670879,-2.4843571473777293,-3.38053821759969
1686428351403651600,6.751651611328125,0.7455909880429505,-3.1573838344693184,-2.634207224844396
1686428351413596400,6.761596435546875,-0.7099765807610005,-3.609292320433259,-2.1468046700425445
1686428351423542500,6.77154248046875,-1.6522195102602242,-4.009354299303889,-1.8659734662301837
1686428351433487400,6.7814873046875,-2.2581465915471313,-4.386681883797049,-1.5515958205163478
1686428351443433500,6.79143359375,-2.7615228144198656,-4.774596328756213,-1.08842893150039
1686428351453378600,6.801378662109375,-3.0690806971162554,-5.130975233244896,-0.6487478397510945
1686428351463324700,6.81132470703125,-3.01401698154211,-5.420253362885117,-0.3966289356820285
1686428351473269500,6.82126953125,-2.7177245892256496,-5.645742618703842,-0.32676669676359743
1686428351483215600,6.831215576171875,-2.2193518737286326,-5.787853334090113,-0.27026334030777216
1686428351493160400,6.841160400390625,-1.6542559845238922,-5.913955163961648,0.040839558051712806
1686428351503106600,6.8511064453125,-1.1594716489076613,-5.902224978679418,0.5839705759467557
1686428351513051400,6.861051513671875,-0.8856091150641441,-5.566354609212279,1.2309053383938968
1686428351522997500,6.87099755859375,-0.7373526634644717,-4.90703671399951,1.9049436867460607
1686428351532942600,6.880942626953125,-0.7201472616415471,-4.027928651392459,2.242157725907117
1686428351542888400,6.890888427734375,-0.8529342683654279,-2.902331799557805,2.231847928816825
1686428351552833500,6.90083349609375,-1.1117336731117218,-1.6919477095365523,2.0807988508239386
1686428351562779400,6.910779296875,-1.187867137786746,-0.7122329083204268,1.8096083126686513
1686428351572724500,6.920724365234375,-0.854386805261299,-0.4346802877873182,1.3823346478760241
1686428351582670300,6.93067041015625,-0.2771253350317478,-0.6558990266799927,1.1993641719002277
1686428351592615700,6.94061572265625,0.24468320111036299,-1.087005547633767,1.4839444260478019
1686428351602561500,6.9505615234375,0.3781839090615511,-1.6934359022676944,2.0480391753859815
1686428351612506400,6.96050634765625,-0.10322481215298175,-2.221716264772415,2.5587159305304286
1686428351622452500,6.970452392578125,-1.1457342154562473,-2.4121774618297813,2.7037279203161595
1686428351632397300,6.980397216796875,-2.1118740803062916,-2.314413253170252,2.1483223811291157
1686428351642343400,6.990343505859375,-2.529579852417111,-2.413919921582937,0.7478451236452907
1686428351652288500,7.00028857421875,-2.384554126366973,-2.814637149491906,-0.4339296155504882
1686428351662234600,7.010234619140625,-2.1197768162548543,-3.234933522617817,-0.576392541907914
1686428351672179500,7.020179443359375,-1.978538207527995,-3.559268937113881,-0.44706298216152934
1686428351682125600,7.03012548828125,-1.7341414221435785,-3.679673432126641,-0.7748836449574679
1686428351692071400,7.040071533203125,-1.509832316020131,-3.5263036561012266,-1.434486275395751
1686428351702016500,7.0500166015625,-1.6341379101246594,-3.02957110902667,-1.9708299712382256
1686428351711962400,7.05996240234375,-1.8388421520680187,-1.855515054449439,-2.3932703706555065
1686428351721907500,7.069907470703125,-1.7482482734292744,0.1465133342593908,-2.9848014084517955
1686428351731853600,7.079853515625,-1.3655916028678416,2.717278599023819,-3.7633056550592183
1686428351741798400,7.08979833984375,-0.9168208304077387,5.5915439955264326,-3.99149510974735
1686428351751744500,7.09974462890625,-0.5163907488770783,9.392017643985152,-3.722132517671585
1686428351761689300,7.109689453125,0.7562230028249323,12.114828742694854,-2.6455226918458936
1686428351771635500,7.119635498046875,2.4374418130762874,11.317337471544741,-1.2307346580021084
1686428351781580500,7.12958056640625,2.995184855300188,8.11824098598361,-0.3860070769678801
1686428351791526700,7.139526611328125,2.892562685215473,5.402090514206886,-0.3880783668166026
1686428351801471500,7.149471435546875,2.3976775195732714,4.483328486603498,-0.7363083420433104
1686428351811417600,7.15941748046875,2.1827625569999216,5.746993500435352,-0.2811446171430871
1686428351821362400,7.169362548828125,2.1071122727319596,8.128547860464453,1.5914933850102126
1686428351831308500,7.17930859375,1.6896479081615805,9.456638876977562,3.423453814740479
1686428351841253600,7.189253662109375,1.2022811553254722,8.48510562865138,3.752921915949881
1686428351851199500,7.199199462890625,1.1688400734946132,5.807715387901664,3.1976001095235347
1686428351861144600,7.20914453125,1.2254071793690322,3.2482822490125893,2.4333831853352486
1686428351871090400,7.21909033203125,1.1778320659846067,1.9908552527874708,1.3687363306343554
1686428351881035500,7.229035400390625,1.3085612633958459,1.9029297165751455,0.30013861941583453
1686428351890981400,7.2389814453125,1.4724915964022278,2.1334277404665944,-0.3090427144266665
1686428351900926500,7.248926513671875,1.4036965848565102,2.434383448418975,-0.454214717079699
1686428351910872600,7.25887255859375,1.023765247605741,2.200883904623985,-0.30535255467183886
1686428351920817700,7.268817626953125,0.5396352847337722,1.6877771458536386,-0.1443555717036128
1686428351930763500,7.278763427734375,0.1866322864189744,1.0442834272384642,-0.030617768038436768
1686428351940708400,7.288708251953125,0.2477893504321575,-0.056686348339915274,0.1627761214699596
1686428351950654500,7.298654541015625,0.628837124492228,-1.4384037411004305,0.5324729918889701
1686428351960599300,7.308599365234375,0.9687000707268715,-2.8002216706484555,0.7330098119545727
1686428351970545400,7.31854541015625,0.9483376661777496,-3.911653803530335,0.6614335721924901
1686428351980490500,7.328490478515625,0.7348194186598062,-4.568617829093337,0.5034156781002879
1686428351990436600,7.3384365234375,0.5282835773751139,-4.918902508360147,0.5447287354152649
1686428352000381400,7.34838134765625,0.49581455544680353,-5.093334946158528,0.5638427473384887
1686428352010327600,7.35832763671875,0.7137738541521131,-5.136065834382176,0.47485601163543756
1686428352020272400,7.3682724609375,1.057850910950452,-5.200583607000112,0.33542825172282753
1686428352030218500,7.378218505859375,1.2782578950688241,-5.198052042695879,0.14343911444582044
1686428352040163600,7.38816357421875,1.3132014904171228,-5.149122299832105,0.04892009825259447
1686428352050109400,7.398109375,1.2377655795522033,-5.148790291398764,0.019127309796214104
1686428352060054500,7.408054443359375,1.043691014303267,-5.284609797686338,0.01401066090222448
1686428352070000600,7.418000732421875,0.7558442326404153,-5.419739568144083,-0.019386216460727156
1686428352079945500,7.427945556640625,0.43243988844938575,-5.274892705792189,0.11274718519262969
1686428352089891300,7.437891357421875,0.23340375527031718,-4.792476853361726,0.24648583008553832
1686428352099836700,7.447836669921875,0.39783962664604183,-3.71298475009799,-0.014955686667375265
1686428352109782500,7.457782470703125,0.5186147085368633,-2.1987048070192334,-0.36076442609652876
1686428352119727600,7.4677275390625,0.5743862070541829,-0.8246610176265239,-0.8436568099975585
1686428352129673500,7.477673583984375,0.6445506072569638,-0.05634264946877956,-1.55053330585137
1686428352139618600,7.48761865234375,0.6878612681299447,-0.1308937403231859,-2.2239836251825094
1686428352149564400,7.497564453125,0.620420301541686,-0.9198007230013608,-2.3028477569304404
1686428352159509500,7.507509521484375,0.4162188214886933,-2.1999375636845824,-1.4766636213898658
1686428352169455600,7.51745556640625,-0.041083121016621586,-3.469239706620574,-0.2851019399341196
1686428352179400400,7.527400390625,-0.6853472394824027,-4.462028508943319,0.8269142033807932
1686428352189346600,7.5373466796875,-1.2072042909413576,-5.015203658729791,1.7501373020462692
1686428352199291400,7.54729150390625,-1.1753712288290261,-4.896278588619828,2.7830115926504133
1686428352209237500,7.557237548828125,-0.8138187210947274,-3.719984399726987,3.861907483586669
1686428352219182600,7.5671826171875,-1.3908254128456115,-1.628780767005682,5.279059762343764
1686428352229128700,7.577128662109375,-2.587921566748619,1.0000690224587916,6.3649816063940525
1686428352239073500,7.587073486328125,-1.233901159209013,4.269373016712069,5.201105000525713
1686428352249019600,7.59701953125,2.669002936154604,7.7674658928513525,2.1822443783447145
1686428352258964500,7.606964599609375,5.003557060077786,9.63689315279722,-1.738084899072349
1686428352268910600,7.61691064453125,6.053663494381309,8.82698254505694,-5.463436086529493
1686428352278855700,7.626855712890625,5.998535481399298,6.301497852998971,-7.355007958266139
1686428352288801500,7.636801513671875,4.443118056768179,4.028751073691248,-6.726414871662855
1686428352298746600,7.64674658203125,2.4717794053554534,3.487488480016589,-4.931515321695804
1686428352308692500,7.6566923828125,-1.7861159395307302,6.0530631904006,-3.1243130472555753
1686428352318637600,7.666637451171875,-9.828969383835792,9.684983522227405,-2.1479985560022294
1686428352328583400,7.67658349609375,-14.66442905435562,11.705102278900146,-1.3802791766509412
1686428352338529500,7.686529541015625,-10.748443359100818,10.433177970767021,-0.8801393784161656
1686428352348474600,7.696474609375,-4.218051410275698,5.330546788474917,0.0546714283209294
1686428352358420700,7.706420654296875,0.11731164356395601,0.4954267251729965,0.9961983915705234
1686428352368365600,7.716365478515625,2.1955985115669665,-2.0140724622458217,1.5236284939214586
1686428352378311700,7.726311767578125,3.115005997467041,-1.94687991746068,1.8851932766154407
1686428352388256500,7.736256591796875,2.880643699362874,0.8034569015562534,2.069730928842723
1686428352398202400,7.746202392578125,1.843198593711853,4.081511188498139,0.9906782399095594
1686428352408147500,7.7561474609375,0.2718992709465325,6.59917439315021,-0.6207259334247559
1686428352418093600,7.766093505859375,-1.2819960586838424,7.819660774990916,-1.8091259359791874
1686428352428038700,7.77603857421875,-1.4671622180730104,6.808780435660481,-2.4941946507811545
1686428352437984500,7.785984619140625,0.20208799503035843,4.012306719368696,-3.2051588543400165
1686428352447929600,7.7959296875,2.2410779678463935,0.8522054426342248,-3.3021272364467382
1686428352457875500,7.80587548828125,2.768350030091405,-1.1376304039776324,-2.3948614392392336
1686428352467820500,7.815820556640625,1.4958238105423747,-2.0952567075043915,-1.5289900209546088
1686428352477766400,7.825766357421875,-0.21668810972571373,-2.2266905460536477,-1.32229387454167
1686428352487711500,7.83571142578125,-1.5973650535225867,-2.3001818987220526,-1.1786964277289806
1686428352497657600,7.84565771484375,-2.480065003141761,-2.6349130350261927,-1.0748949847318232
1686428352507602400,7.8556025390625,-3.049513826858997,-3.225822579923272,-0.8546249979313463
1686428352517548500,7.865548583984375,-3.22976108841598,-3.9382729303866624,-0.4040467376578599
1686428352527493400,7.875493408203125,-3.0210370894372462,-4.646504201850295,0.04717541914288886
1686428352537439500,7.885439453125,-2.5107909807950257,-5.184414562487602,0.41153110206387933
1686428352547384600,7.895384521484375,-1.9688854130417108,-5.359199466985464,0.8069856602042913
1686428352557330700,7.90533056640625,-1.5894757615774868,-5.211660296809673,1.2487637972980736
1686428352567275500,7.915275634765625,-1.4906459695130585,-4.897050742036104,1.7540309484839438
1686428352577221600,7.9252216796875,-1.5268144304811953,-4.458263018929958,2.211043187327683
1686428352587166500,7.93516650390625,-1.60211487839818,-3.9328935754358767,2.4127495626293123
1686428352597112600,7.945112548828125,-1.5674883861750364,-3.3710768540322777,2.386082504978031
1686428352607057700,7.9550576171875,-1.4459434889554976,-2.8006653227627276,2.3226652409479023
1686428352617003500,7.96500341796875,-1.3897510616123676,-2.2584353453606365,2.249208959592879
1686428352626948600,7.974948486328125,-1.2603349926263092,-1.86618082537055,2.1749927997812626
1686428352636894500,7.98489453125,-0.9811795400064438,-1.7119348510324954,2.0500405783362687
1686428352646839600,7.994839599609375,-0.6938554670434445,-1.8049965810894966,1.823729338610172
1686428352656785400,8.004785400390626,-0.5585491709750146,-2.05952605343163,1.455778946532309
1686428352666730800,8.014730712890625,-0.5725286695539951,-2.3495588008314368,1.292588910499215
1686428352676676600,8.024676513671874,-0.7675754408359527,-2.61889655072689,1.3686555204831063
1686428352686621400,8.034621337890625,-1.2157962512630969,-2.8149077831268308,1.2855242328099905
1686428352696567600,8.044567626953125,-1.7586211988836526,-2.98704889511764,0.9661991938218474
1686428352706512400,8.054512451171876,-2.208510161718726,-3.0249066243469716,0.4327981273025274
1686428352716458500,8.06445849609375,-2.4478455720603463,-2.9333102906674147,-0.3161594145640731
1686428352726403600,8.074403564453124,-2.449707858800888,-2.787156437370181,-1.0007434876542538
1686428352736349700,8.084349609375,-2.2184271600991488,-2.5896178492724893,-1.3626169709712266
1686428352746294500,8.09429443359375,-1.9084259759038686,-2.3715216263145207,-1.358211429488659
1686428352756240600,8.10424072265625,-1.5337123733013867,-2.2458073344558476,-1.2936068553701043
1686428352766185500,8.114185546875,-1.058202646997571,-2.2419062353640795,-1.4156374902799724
1686428352776131600,8.124131591796875,-0.6151233641773461,-2.4193080443620683,-1.6502078781768679
1686428352786077400,8.134077392578124,-0.3212444627434015,-2.8224931236892936,-2.0741241953656075
1686428352796022500,8.1440224609375,-0.33001755178570746,-3.3203456147044896,-2.6670941799238324
1686428352805968600,8.15396875,-0.5286661469519138,-3.6717163356423375,-3.223581815259158
1686428352815913500,8.16391357421875,-0.7958961109131574,-3.567634614399075,-3.442513904519379
1686428352825859600,8.173859619140625,-1.1086655907779932,-2.8278333156734705,-3.4314158796608445
1686428352835804400,8.183804443359374,-1.147056988492608,-1.4683464594215154,-3.3890079397812483
1686428352845750500,8.19375048828125,-1.065910737156868,0.6646873132914304,-3.7732059945657848
1686428352855695400,8.2036953125,-1.1107149245232344,3.292459244391322,-4.422645177581906
1686428352865641500,8.213641357421874,-2.1218851867109536,6.4035103667527435,-4.4929538085609675
1686428352875586600,8.223586669921875,-2.6101585329979655,10.145581510603428,-3.744389065404236
1686428352885532700,8.23353271484375,-0.898869578653574,11.154295611810683,-1.5069558838009833
1686428352895477500,8.2434775390625,2.270852051602304,9.858917947375774,0.5485024818003177
1686428352905423600,8.253423583984375,5.036852595958114,8.602570563080906,1.6670310026839374
1686428352915368400,8.263368408203124,5.471265757241845,8.565123168218136,2.4889897756144403
1686428352925314300,8.273314208984376,4.682972230286896,9.844943198037146,3.531578966155648
1686428352935259600,8.283259765625,3.4028836126595734,11.72460426722765,3.9290325160935518
1686428352945205500,8.29320556640625,1.9822472911790012,11.738174527418613,3.611131226298213
1686428352955150600,8.303150634765625,0.5750444517672062,9.352402841955422,2.827864003072679
1686428352965096400,8.313096435546875,-0.25360212836414575,6.163144444319605,2.6222011452302336
1686428352975041500,8.32304150390625,-0.37881460818052287,3.5038843190222977,2.372826571433246
1686428352984987400,8.3329873046875,0.05434153877943754,2.0788035853534934,1.6359177792787551
1686428352994932700,8.3429326171875,0.7900789490669965,1.9370611187577247,0.6496436926122754
1686428353004878600,8.352878662109376,0.9731073657751083,2.168102748006582,-0.1571965677719563
1686428353014823400,8.362823486328125,0.3575844808861613,2.0774626921385524,-0.3667079177360981
1686428353024769500,8.37276953125,-0.6122898943170905,1.765310467389226,-0.035431305800005794
1686428353034714400,8.38271435546875,-1.413462630458921,1.1237456710100173,0.3357194897543639
1686428353044660500,8.392660400390625,-1.486582957857847,-0.026887422403693198,0.772737718969956
1686428353054605600,8.40260546875,-1.1938712005071341,-1.6499778688132762,1.5737167591705918
1686428353064552200,8.41255224609375,-0.7688489679031073,-3.1652719573706385,2.0055182766512036
1686428353074497000,8.4224970703125,-0.3331964740827679,-4.316002081418037,1.8015078621909022
1686428353084443100,8.432443115234374,0.024784897166490554,-5.132145446068048,1.478200767829269
1686428353094388000,8.442387939453125,0.4446804344065487,-5.611771375519037,1.1534818339083344
1686428353104334000,8.452333984375,0.8493202425867319,-5.779543186384439,0.8943390225518494
1686428353114279000,8.46227880859375,1.170927108901739,-5.828987893033028,0.5413543636113405
1686428353124225000,8.47222509765625,1.3687110500626265,-5.887611346915364,0.00138042150773108
1686428353134171100,8.482171142578125,1.4793062448531389,-5.900384903770685,-0.46574130608122793
1686428353144116000,8.492115966796876,1.6265480395175516,-5.899857665026188,-0.850003402545303
1686428353154062000,8.50206201171875,1.722287902742624,-5.90583849300146,-1.192362184183672
1686428353164007000,8.5120068359375,1.6332909379065035,-5.913104100090265,-1.34935972225219
1686428353173953000,8.521953125,1.291155078303814,-5.774584102672338,-1.4509117788873611
1686428353183897900,8.53189794921875,0.7991151460248976,-5.382988338851928,-1.5727588739238678
1686428353193844000,8.541843994140624,0.2673270311275497,-4.597616544562578,-1.6097760606758296
1686428353203789000,8.5517890625,-0.1704126807630062,-3.330440307739377,-1.39781731755957
1686428353213735200,8.561735107421875,-0.6244622704088687,-1.6779361353188753,-0.9368283571045846
1686428353223680000,8.571679931640626,-1.3759487462311983,-0.07313654788136482,-0.13849036033148876
1686428353233626000,8.581626220703125,-2.057206086051464,0.9202478822469711,0.4702063591986894
1686428353243571000,8.591571044921874,-1.8300924439013002,0.8732569984912871,0.5582706462945789
1686428353253517000,8.60151708984375,-0.8809247566401958,-0.488292050987482,0.10294109984077512
1686428353263462100,8.611462158203125,0.16564824284017085,-2.2652613919883966,0.06831142927985638
1686428353273408000,8.621407958984374,0.7436503753691911,-3.700353232061863,0.9434917605165392
1686428353283353000,8.63135302734375,0.751063866496086,-4.8670530786573885,1.640307100278884
1686428353293299000,8.641298828125,0.24011574706435201,-5.682072992235422,1.7174356404058635
1686428353303244000,8.651244140625,-0.4145060992866754,-6.039842474299669,1.613677598159015
1686428353313190000,8.66118994140625,-0.8578706287890672,-5.777499113336205,1.4285308741226792
1686428353323135200,8.67113525390625,-0.9225263485729693,-4.923607909572124,1.7091773690178989
1686428353333081000,8.6810810546875,-0.5317664510548115,-3.592055938950181,2.7389430260822176
1686428353343026000,8.69102587890625,0.34032150365710256,-1.810237988874316,3.5237826131910084
1686428353352972000,8.700971923828124,0.49858665050864215,0.7507254283219575,4.0196103203803295
1686428353362916900,8.710916748046875,-0.8155307857096195,4.747445871502161,4.4247821896106005
1686428353372863000,8.720863037109375,-0.8238368417620658,8.697597455731033,3.888682970048487
1686428353382808000,8.73080810546875,2.5767028381198642,10.759663841295241,2.5890377112969754
1686428353392754200,8.740754150390625,6.70081807359159,10.865347737038135,-0.4614345853306353
1686428353402699000,8.750698974609374,7.625377973818779,8.117178909710049,-4.687617425744235
1686428353412645000,8.76064501953125,4.527176980680227,4.369248518437147,-7.158366026747227
1686428353422591000,8.770591064453125,1.4934306317955255,3.6153041280686855,-6.2316159229993815
1686428353432536000,8.7805361328125,-3.219067844966054,6.899777634403109,-3.802276606227457
1686428353442482000,8.79048193359375,-10.95232225613594,10.668050556480884,-2.520151222075522
1686428353452427300,8.80042724609375,-14.108983621549605,12.335294032871722,-1.6015290413342416
1686428353462373000,8.810373046875,-9.886201091098785,9.449394312676787,-0.7788632891781627
1686428353472318000,8.82031787109375,-4.297520083788037,2.87442146384716,0.2295674650430679
1686428353482264000,8.83026416015625,-1.4304665183603762,-1.9047370582580565,0.3706269543433562
1686428353492209000,8.840208984375,-1.0550181717425584,-3.840487094417214,-0.7405875537324697
1686428353502155000,8.850155029296875,-2.138113852456212,-3.3675907654821873,-1.914801648415625
1686428353512100000,8.86010009765625,-3.283562821230292,-0.6554857697039842,-0.7888610977098345
1686428353522046200,8.870046142578126,-3.3980554618507623,2.837110847106576,1.1872548511072993
1686428353531991000,8.879990966796875,-2.3070044382184745,6.043531391945481,1.855813452874124
1686428353541937200,8.889937255859374,-0.5528735730240121,7.925016753953694,1.0538584803134203
1686428353551882000,8.899882080078125,1.7935662555366754,7.146369884005188,-0.9180667388156056
1686428353561828000,8.909828125,4.057172866055369,4.694157348906994,-3.442746544231474
1686428353571773000,8.91977294921875,4.655301256290078,2.426361470004916,-4.673821832364798
1686428353581719000,8.929718994140625,3.6442251021265983,1.0281079529851676,-4.188547083371877
1686428353591664000,8.9396640625,1.3133394375830887,-0.314723536542058,-2.8544062653005122
1686428353601610000,8.94960986328125,-0.9736755210518836,-1.780119913986325,-1.553993821568787
1686428353611555000,8.95955517578125,-2.2167115883529185,-2.516765963551402,-0.5370386193040758
1686428353621501000,8.9695009765625,-2.885363713622093,-2.889634815070033,0.12509444292727856
1686428353631446000,8.979446044921875,-3.461841413062811,-3.303980755358934,0.42742684606034304
1686428353641391900,8.989391845703125,-3.9516801089704034,-3.820916132506728,0.7074405594773591
1686428353651337200,8.999337158203126,-4.023274688106775,-4.420283709147572,0.8898908840365707
1686428353661283000,9.009282958984375,-3.712176940846443,-4.971605340021848,1.1230656528566032
1686428353671228000,9.019227783203124,-3.1985072874963283,-5.361415389469266,1.1381630495496093
1686428353681174000,9.029174072265626,-2.7516870645821094,-5.509006582093239,0.9849361160609871
1686428353691118800,9.039118896484375,-2.384737081718445,-5.2758326169908045,1.001322383520752
1686428353701065000,9.04906494140625,-2.135491102737188,-4.7244613017559045,1.1421171940028667
1686428353711010800,9.0590107421875,-1.893667382711172,-4.108246050688624,1.1960741173788905
1686428353720956200,9.0689560546875,-1.7427485069692135,-3.3219255773723124,1.363709880774468
1686428353730902000,9.078902099609374,-1.5656627781830728,-2.307745611974597,1.583122447028011
1686428353740847000,9.08884716796875,-1.7123847867570816,-1.2421604535102844,2.0197367716178296
1686428353750793000,9.09879296875,-2.215971583640575,-0.3051718643426895,2.4386511888660487
1686428353760738000,9.108738037109376,-2.6806208932340145,0.15481412961483002,2.44541030773744
1686428353770684000,9.118683837890625,-2.931095537227392,-0.02483867318034172,2.2315030609019098
1686428353780629000,9.12862890625,-2.9422996528089045,-0.5102589681237936,2.043129191512614
1686428353790575000,9.1385751953125,-3.1014333991885183,-1.1187228744119404,1.7809040501013398
1686428353800520000,9.14852001953125,-3.3274282664418218,-1.9019231698811052,1.1998602117888628
1686428353810466000,9.158466064453124,-3.6764030321538446,-2.6543238379389047,0.5701149960083887
1686428353820411000,9.168410888671875,-4.0778503279030325,-3.3565304422855373,0.020960991496779022
1686428353830357000,9.17835693359375,-4.263230276173353,-3.7759015172600745,-0.5251312508240342
1686428353840302000,9.188302001953126,-4.310069184237718,-4.038003470683098,-1.0486262787483631
1686428353850248200,9.198248291015625,-4.339206431394815,-4.060483598038554,-1.326188982284069
1686428353860193000,9.208193115234375,-4.461301363712549,-4.086814555603265,-1.59789024644047
1686428353870139100,9.21813916015625,-4.508319135475158,-4.2391397910118105,-1.9651751603469252
1686428353880084000,9.228083984375,-4.175060994333029,-4.513136764889955,-2.3985145549193025
1686428353890030000,9.238030029296874,-3.5625779155313966,-4.8481134003877635,-2.820500488567352
1686428353899975200,9.24797509765625,-2.7580945935368537,-4.992278710216284,-2.9800992221102116
1686428353909921000,9.257921142578125,-1.9731518383145332,-4.72579518070817,-2.8380367297798395
1686428353919866000,9.2678662109375,-1.0023169475160538,-3.783659291779995,-2.9196769021123647
1686428353929812000,9.27781201171875,0.27384616723060606,-1.8255740896940231,-3.5543370336696505
1686428353939757000,9.287757080078125,1.4119946037329734,1.234315000706911,-4.278182930633426
1686428353949703000,9.297702880859376,2.514447165215015,5.516722271037102,-3.9813153687775134
1686428353959649000,9.30764892578125,2.1789690099358556,10.01278982770443,-2.7029253717616197
1686428353969594000,9.317593994140625,0.060172911814041434,13.577664914262295,-0.7698805029079318
1686428353979540200,9.327540283203126,1.2890052067935467,14.842495464742182,0.9601699966602026
1686428353989485000,9.337485107421875,5.808536056634783,12.889054873591661,2.502009708446264
1686428353999431200,9.34743115234375,8.356564588934182,10.759371580350399,3.906683321641385
1686428354009376000,9.3573759765625,7.427837632155418,10.19110173728466,5.079653626808524
1686428354019321900,9.36732177734375,5.251076945918798,11.196577587223052,5.323540709105134
1686428354029267200,9.37726708984375,3.2666350673049687,12.674281657576561,4.436604144829511
1686428354039213000,9.387213134765625,0.6205734462767839,12.03186170567274,3.874268075726926
1686428354049158100,9.397158203125,-3.6178386149823663,8.102115780612825,4.898502694410086
1686428354059104000,9.40710400390625,-6.449647848549485,3.8539422037959095,5.316539305910468
1686428354069049000,9.417049072265625,-7.201029110431671,1.4168757999032735,4.0927717104420065
1686428354078995200,9.4269951171875,-6.394106578591465,0.6827513777703046,1.773889495164156
1686428354088940000,9.43693994140625,-4.387397923111915,0.9023509910285472,-0.19245324765741825
1686428354098886000,9.446885986328125,-2.036350491157919,1.2689905927687883,-0.8127346521850675
1686428354108831200,9.456831298828124,0.10614040733873843,1.5681892279207705,-0.9533058099791407
1686428354118777000,9.466777099609375,1.2576093670547008,1.453255273273587,-1.0770889876447618
1686428354128722200,9.47672216796875,1.1868266888231038,0.6935100876718759,-1.125448894731328
1686428354138668000,9.48666796875,0.7467658770412207,-0.5872504378676414,-0.944369931590557
1686428354148613000,9.496613037109375,0.10128259204402565,-2.079341345492005,-0.7903083008434623
1686428354158559000,9.50655908203125,-0.6712561702877282,-3.438632971432805,-0.7792579145189374
1686428354168504300,9.51650439453125,-1.417361537593603,-4.526570831480622,-0.8404041648771613
1686428354178450200,9.5264501953125,-1.8243654445566235,-5.269864063975215,-0.7663953642059117
1686428354188396300,9.536396240234374,-1.7637692292965947,-5.499267278367281,-0.4971240306101739
1686428354198341000,9.546341064453125,-1.6559692181825636,-5.294135166400671,-0.4004194870714098
1686428354208287200,9.556287353515625,-1.7345979337394237,-5.116356925305724,-0.6101658148352056
1686428354218232000,9.566232177734374,-1.991013073697686,-5.068234991693497,-0.7682054093025624
1686428354228178000,9.576177978515625,-2.2525556396722792,-5.138521995362639,-0.7226042994048446
1686428354238123300,9.586123291015625,-2.4272183790951964,-5.2044788608729835,-0.5058699393846094
1686428354248069000,9.596069091796876,-2.679049698394537,-5.158418535965681,-0.3575257364362478
1686428354258014200,9.60601416015625,-3.1182857497900724,-4.861931497859954,-0.464709223087132
1686428354267960000,9.6159599609375,-3.494289976724982,-4.0600580661028625,-1.0545246160719544
1686428354277905200,9.6259052734375,-3.644589259263873,-2.849137969508767,-2.003148624910414
1686428354287851000,9.63585107421875,-3.629167233726382,-1.5135995595991611,-2.658243057209253
1686428354297796000,9.645796142578124,-3.6848902899920937,-0.41511166396439075,-2.4235294614493847
1686428354307742200,9.6557421875,-3.58664911147058,0.13927052352428435,-2.311783196927607
1686428354317687000,9.66568701171875,-3.0384447358340023,-0.026485855865478514,-2.7605823186993597
1686428354327633200,9.675633056640624,-2.342965978437662,-0.3421826213538646,-2.554808401697874
1686428354337578000,9.685577880859375,-1.7229156792521476,-0.46133974665403366,-1.45711019513607
1686428354347524000,9.695524169921875,-1.1776948494710027,-0.5750935516059398,-0.416910457014665
1686428354357469200,9.70546923828125,-0.9884393018763512,-0.6371352894991635,0.3255332825111225
1686428354367415300,9.715415283203125,-0.9432767295263708,0.1090741227030754,1.1550401692662386
1686428354377360100,9.725360107421874,-0.19578502242863177,2.6392490184038877,1.5669100017651916
1686428354387306200,9.73530615234375,0.5270142880916595,7.180168108710646,2.154012555594742
1686428354397251000,9.7452509765625,-1.065203465670347,13.128611817729473,4.803137071324884
1686428354407197200,9.755197265625,-1.1052893923431635,17.209692213594913,4.741533432587981
1686428354417143000,9.76514306640625,1.6168319705367087,15.537449906003474,0.31576555640827864
1686428354427088100,9.775088134765625,2.6117817502856253,7.674520482650399,-4.0327863205567
1686428354437034200,9.7850341796875,2.9684324574530123,0.8450888886272907,-4.517275764390826
1686428354446979000,9.79497900390625,3.4442958195000886,-3.7099008126080033,-3.6001077279806135
1686428354456925200,9.80492529296875,3.0326176371157167,-6.026923956015706,-3.477216092327237
1686428354466870000,9.8148701171875,1.7645850757241248,-6.0264364647597075,-2.572049751617014
1686428354476816100,9.824816162109375,0.424305608767271,-4.136038897499442,-1.0447913767606019
1686428354486761200,9.83476123046875,-0.6498761131286621,-1.3313900580585003,0.06078830376602709
1686428354496707300,9.844707275390626,-1.3960159672260284,0.8782599213451147,0.14432831837050616
1686428354506652200,9.854652099609375,-1.8108920688688754,1.8482669830173253,-1.0258065441749988
1686428354516598300,9.864598388671874,-1.4037421775639056,1.5025672934532164,-3.2979654405921695
1686428354526543000,9.874543212890625,-0.9659235917508602,0.48633624074459075,-6.106532330259681
1686428354536489000,9.884489013671875,-1.5938929934978485,-0.30276772581040856,-9.283518106299638
1686428354546434000,9.89443408203125,-1.7514765878260135,-0.32404490711688994,-10.346612616991996
1686428354556380200,9.904380126953125,-1.6203788493633269,-0.2748901233255863,-10.116077183699607
1686428354566325200,9.9143251953125,-0.2647416908094659,-0.4116360968083143,-9.035576780176163
1686428354576271000,9.92427099609375,1.339042618638277,-0.69436056702137,-6.413364821290969
1686428354586216200,9.93421630859375,0.9464730413496494,-1.6430051071912048,-3.312157339812815
1686428354596162000,9.944162109375,-1.665383527737856,-3.009273001885414,-1.2839562528409063
1686428354606107100,9.954107177734375,-3.1315923906087875,-4.205535043051839,-0.5764182974036782
1686428354616053000,9.964052978515625,-2.984073094177246,-4.720837850561738,-0.18096143770832568
1686428354625999000,9.9739990234375,-1.9026818792939184,-4.762314939332008,0.41108766914531586
1686428354635944200,9.983944091796875,-0.6604536212444305,-4.3112692076772445,0.7924549574833363
1686428354645890300,9.993890380859375,0.3299555559327826,-3.2620132527232166,0.8040705034099519
1686428354655835100,10.003835205078126,0.9784966575980186,-1.7738228596687315,0.2970391555631533
1686428354665781000,10.013781005859375,1.1613223182756454,-0.18340718689262867,-0.2835850142988376
1686428354675726000,10.02372607421875,0.9710404963731765,1.4996499447017908,-0.2423186822024174
1686428354685672000,10.033671875,0.38182252129223193,2.744278249630332,0.28131211919710036
1686428354695617300,10.0436171875,-0.06191964588351547,3.1643133414715527,0.5697801745634525
1686428354705563100,10.053563232421874,0.012854732332751154,2.9978713179051875,0.1699386700430885
1686428354715508200,10.06350830078125,0.23754377768449483,2.6777824549376965,-0.5729560646532104
1686428354725454000,10.0734541015625,0.03655358782820403,2.3697031787157057,-0.9829085557561367
1686428354735399000,10.08339892578125,-0.5479028354067355,2.078099820998311,-0.9197194744586944
1686428354745345000,10.093344970703125,-1.113220842929557,1.6254712040662764,-0.8229432539232074
1686428354755290000,10.1032900390625,-1.58241999784708,1.0989245334863662,-0.7965916188966482
1686428354765236200,10.113236328125,-2.019342073211819,0.5624661252230405,-0.7822308659151196
1686428354775181000,10.12318115234375,-2.513959673959017,0.12953238884210586,-0.7283867552638054
1686428354785127200,10.133127197265624,-2.8947452899515627,-0.25408055953085423,-0.6983847079709172
1686428354795073000,10.143072998046875,-3.2061165934562683,-0.5637134949356317,-0.6378703257754444
1686428354805018000,10.15301806640625,-3.2733681749522683,-0.9512252043128013,-0.3898055924680084
1686428354814964000,10.1629638671875,-3.399562943804264,-1.2210849322557449,-0.06521907102139667
1686428354824909300,10.172909423828125,-3.3628771809637543,-1.388500769290328,0.4047740655517205
1686428354834855200,10.182855224609375,-3.225361392152309,-1.4377712884157896,0.8355337092965841
1686428354844800300,10.19280029296875,-2.9853555352032184,-1.338971891489625,1.1687985724404453
1686428354854746000,10.20274609375,-2.781604063940048,-1.026053358542919,1.4430467446006834
1686428354864691000,10.21269091796875,-2.9390158088326452,-0.5123194077849388,1.6668654368586837
1686428354874637000,10.222636962890626,-3.3062966310858726,0.1394336051315069,1.7325855710037052
1686428354884582100,10.23258203125,-4.008143754470348,0.7475994052559137,1.7273559997871517
1686428354894528300,10.2425283203125,-4.708564936704933,1.2226555425733328,1.6373514653436838
1686428354904473000,10.25247314453125,-5.100431626421213,1.4182961880952119,1.5815971371568738
1686428354914419200,10.262419189453125,-5.016182148373127,1.2753075208306313,1.5218611919879912
1686428354924364000,10.272364013671876,-4.4032524948477745,1.0244377400398255,1.6319458069078623
1686428354934310100,10.28231005859375,-3.625127602946758,0.9942980378419161,1.8904333692260085
1686428354944255200,10.292255126953124,-3.1895056503951547,0.954101636531949,1.794714694919437
1686428354954201300,10.302201416015626,-2.91761529340744,0.7176677928507328,1.2759481568217277
1686428354964146200,10.312146240234375,-2.4012895725905894,0.23160160121917722,0.8021616010487079
1686428354974092000,10.322092041015624,-1.5024619333826004,-0.43893619166612624,0.5214932961804792
1686428354984038100,10.3320380859375,-0.507463346055895,-1.1521405753672123,0.09781951904334127
1686428354993983000,10.34198291015625,0.5262751601621508,-1.8094985686838625,-0.3604687676182016
1686428355003929000,10.35192919921875,1.2180208685100078,-2.2591554763287305,-0.8515779583856463
1686428355013874200,10.361874267578125,1.582118384552002,-2.3995114570021627,-1.5784667301766573
1686428355023820300,10.3718203125,1.8676454910956322,-2.401646715465188,-2.356731468939781
1686428355033765000,10.38176513671875,1.9297417356550692,-2.33694598749578,-2.8950752525582906
1686428355043711200,10.391711181640625,2.0122657050848005,-1.94149004111588,-3.3519016134411093
1686428355053656000,10.401656005859374,2.2743746727705,-1.2292846053242683,-3.6214673268735407
1686428355063602200,10.411602294921876,2.6292028406858443,-0.31725743893384933,-3.561305411377549
1686428355073547000,10.421547119140625,2.815415148127079,1.4531868842124938,-3.3777883343696593
1686428355083492900,10.431492919921874,2.6322330021619793,3.9426661969095464,-3.534449553155899
1686428355093438000,10.44143798828125,1.7903543077528477,6.634091392752528,-3.458630634322762
1686428355103383800,10.4513837890625,0.696965781083703,9.468330483815073,-2.1937303796075285
1686428355113329000,10.461328857421876,1.7235130606234073,10.19779802005291,-0.01622333198301494
1686428355123274800,10.471274658203125,3.4044910478562116,7.300496031355857,2.712207579369843
1686428355133219800,10.4812197265625,4.1909190732002255,3.6232705769032236,5.142126157334447
1686428355143166000,10.491166015625,4.517312589269876,1.0355500856846571,5.307796612006426
1686428355153111000,10.501111083984375,3.775514563769102,-0.7519079161047935,4.698776240879297
1686428355163057000,10.511056884765624,1.8755197316020726,-2.3330764525860546,4.086618740770221
1686428355173003000,10.5210029296875,-0.08745499609112739,-3.504842350399494,3.532368070706725
1686428355182947800,10.53094775390625,-1.4292477902203797,-3.7175989658951756,2.567967743000388
1686428355192894000,10.54089404296875,-2.0920634644210336,-3.263346547153592,1.7813174532078206
1686428355202838800,10.5508388671875,-2.4172335761755703,-2.4514386281162497,1.327728466811031
1686428355212784600,10.56078466796875,-2.3626970993459224,-1.767027792701125,0.6463110410582273
1686428355222730000,10.57072998046875,-1.9352379949837921,-1.3655588696420191,-0.11017106936061755
1686428355232675800,10.58067578125,-1.3999381091058254,-1.0968833830475806,-0.9988838312622159
1686428355242621000,10.590620849609374,-0.8221890745550393,-0.7216115620404482,-1.9094518118202686
1686428355252566800,10.60056689453125,-0.2537326228760183,-0.4413818312525749,-2.582755854548514
1686428355262511900,10.610511962890625,0.11565598531141877,-0.3754945238471031,-2.8532939201444387
1686428355272457700,10.620457763671874,0.46038536853864787,-0.5570838476628065,-3.1460493705064057
1686428355282402800,10.63040283203125,0.7012452119685709,-1.0529261678993702,-3.032263416850567
1686428355292349000,10.640348876953125,0.7298632575571536,-1.6474404592901468,-2.8451369171738623
1686428355302293800,10.650293701171876,0.5802982806421816,-2.11070152939558,-2.6549229728758332
1686428355312239900,10.660239990234375,0.24468027850091456,-2.4279548766762016,-2.4311837755948305
1686428355322184700,10.670184814453124,-0.056642363067716354,-2.6186931371092794,-2.129061069689691
1686428355332130800,10.680130859375,-0.2811326709769666,-2.718122648632526,-1.7116425900876522
1686428355342076700,10.69007666015625,-0.3244096487760544,-2.654105226752162,-1.3810215194508433
1686428355352022000,10.70002197265625,-0.33756562907770277,-2.432529344984889,-1.0172749357383697
1686428355361967900,10.7099677734375,-0.4710848955988884,-2.032508282646537,-0.4922746543502435
1686428355371913000,10.719912841796875,-0.8534935827486216,-1.4093483270078897,0.20172380136046558
1686428355381858800,10.72985888671875,-1.3750786853983998,-0.749400317198038,1.261328825969249
1686428355391804000,10.739803955078125,-1.7359901187501847,-0.07211188100874423,2.1455809734664855
1686428355401749800,10.749749755859375,-1.7947731471084056,0.6929694049239158,2.4382732954643664
1686428355411694800,10.75969482421875,-1.6132112958215177,1.5283774420142173,2.4438474423348904
1686428355421641000,10.769640869140625,-1.2889524536930024,2.2138410013526677,2.31662654530555
1686428355431585800,10.779585693359374,-1.0705438037849961,2.3866437921226025,1.8336491134695707
1686428355441532000,10.789531982421876,-1.1321621286343782,1.676038192743063,1.1837243388935923
1686428355451476700,10.799476806640625,-1.219192688768357,0.702051706045866,0.803622759642452
1686428355461422800,10.8094228515625,-1.2196277191847562,0.0501888030141592,0.7449450913548469
1686428355471368000,10.819367919921875,-1.2040823595285415,-0.2992892360448837,0.9542090424291789
1686428355481314000,10.82931396484375,-1.3446306479036807,-0.39005496411919593,1.3610443148270248
1686428355491260000,10.839260009765624,-1.6209429129868744,-0.28013445371985435,1.9847706721767782
1686428355501205000,10.849205078125,-1.749607725214213,-0.021676994279026984,2.725551045067608
1686428355511150800,10.85915087890625,-1.558335942426324,0.34501521443128585,3.1767271251037714
1686428355521095700,10.869095703125,-0.9747358437597751,1.3523013286620378,2.941059881880879
1686428355531041800,10.879041748046875,-0.17899799214825032,3.7691234014272688,1.9587958345733583
1686428355540987000,10.88898681640625,-0.12092939566969871,7.0118713971883055,1.2334795727960766
1686428355550933000,10.89893310546875,-0.4521401027627289,9.337509224206208,1.3259038817323743
1686428355560877800,10.9088779296875,0.20435046006962657,9.10874430771768,0.1164879426235333
1686428355570824000,10.918823974609374,2.255445954286307,5.908986143377423,-2.507347854603827
1686428355580768800,10.928768798828125,2.8579022907227274,2.2968729203045366,-4.34792515990138
1686428355590715000,10.93871484375,1.5719973880320786,0.06254150410890578,-4.542115314354002
1686428355600660000,10.948659912109376,1.0477998378615825,-1.4115297627002,-3.6688968943074345
1686428355610606000,10.958606201171875,1.5350310546845196,-2.49681330884695,-2.80350463784188
1686428355620551000,10.968551025390624,1.9677461798787115,-3.1849802819252013,-3.113717418961227
1686428355630497000,10.9784970703125,2.0757564727425573,-3.4277404060184953,-3.367650386714935
1686428355640441900,10.98844189453125,1.8794313520878552,-3.3511294600248336,-2.6451369073987006
1686428355650387700,10.9983876953125,1.3236913202494383,-2.5748896512180566,-1.6405939543962478
1686428355660333800,11.008333740234375,0.3781546829670667,-1.4830419242501258,-0.7137820374585687
1686428355670279000,11.01827880859375,-0.5538982033640146,-0.467611082008481,-0.292057092834264
1686428355680224800,11.028224853515624,-1.0433376708209514,0.2550344992548227,-0.7725202768269925
1686428355690169900,11.038169921875,-1.0545289269208908,0.8223188384145498,-1.691497043159604
1686428355700116000,11.048115966796875,-0.6430605878949165,1.1955536006361245,-3.34804990644902
1686428355710060800,11.058060791015626,-0.3119301064312458,1.1926017650932073,-4.875967329736054
1686428355720007000,11.0680068359375,-0.1628489675104618,0.8740040174663066,-5.813990814909339
1686428355729951700,11.07795166015625,0.20773557246327398,0.5213888494253158,-5.757023311540484
1686428355739897900,11.08789794921875,0.5540379040956497,0.16772329554855822,-4.8329672691822045
1686428355749843000,11.097843017578125,0.19585107340216634,-0.3427484385430813,-3.490030273453891
1686428355759788800,11.107788818359374,-0.7691232547998428,-1.1402467239558696,-2.2548265072137115
1686428355769734000,11.11773388671875,-1.8368717287778853,-1.9760019670486448,-1.3754296907931565
1686428355779679700,11.1276796875,-2.729225057405233,-2.5120745908647772,-0.875090643659234
1686428355789624800,11.137624755859376,-3.162310184955597,-2.7626941962867972,-0.42933070692028846
1686428355799570700,11.14757080078125,-2.8986265152990818,-2.8034593373954295,-0.042192269568610934
1686428355809516000,11.15751611328125,-1.9279753105044364,-2.601957106363773,0.20612685862500219
1686428355819462000,11.1674619140625,-0.8051461698174476,-2.1566846974134446,0.3324975685657933
1686428355829408000,11.177407958984375,0.2207844391286373,-1.5041075086325406,0.20202285737227646
1686428355839352800,11.187352783203124,0.9558674771606922,-0.7697147909522056,0.14021971400789915
1686428355849299000,11.197298828125,1.399977856594324,-0.03699263683259487,0.07351776575129479
1686428355859243800,11.207243896484375,1.4916905101299285,0.5402683219403028,0.15005868784920312
1686428355869190000,11.21718994140625,1.1834580891728401,0.8969120148450136,0.4115058580247685
1686428355879135000,11.227135009765625,0.6789397105276584,0.9247177211374044,0.6857786897022277
1686428355889080800,11.237080810546875,0.19685886220522222,0.8114981691926717,0.7475917334061115
1686428355899026000,11.24702587890625,-0.23925302928779274,0.7752870381265878,0.5273470637099817
1686428355908971800,11.2569716796875,-0.7445522926449776,0.8339701132416725,0.23045027575958518
1686428355918916900,11.266916748046874,-1.3081179035425186,0.8369581891417502,-0.028163497620960695
1686428355928862700,11.27686279296875,-1.749426085036993,0.6769687027156353,-0.20074032501475883
1686428355938808000,11.28680810546875,-2.0050819310605523,0.3522802369982004,-0.41003721024431283
1686428355948754000,11.29675390625,-2.2888462657153603,-0.046586979129910465,-0.5301730443835259
1686428355958700000,11.306699951171876,-2.5025907232046127,-0.4435603443354368,-0.5824332468442619
1686428355968644900,11.316644775390625,-2.703292159247398,-0.6937970879197121,-0.6679080289036036
1686428355978591000,11.326591064453124,-2.8885879363656044,-0.8722679874539375,-0.5163211177069693
1686428355988535800,11.336535888671875,-2.8579940606594083,-0.9365542894035577,-0.2282235578871332
1686428355998482000,11.34648193359375,-2.743985404163599,-0.9683324064582586,0.17513417459325864
1686428356008427000,11.356427001953126,-2.5266800393223763,-0.9463128823518753,0.49172158704474567
1686428356018372900,11.366372802734375,-2.3163221555314957,-0.9254992269039154,0.8289345302272587
1686428356028318000,11.37631787109375,-2.102974296144396,-0.8094353914439678,1.0865485976465046
1686428356038263800,11.386263916015626,-2.1659109370507297,-0.5722983679294585,1.3685259027540684
1686428356048209000,11.396208984375,-2.488785485213995,-0.28726971242725846,1.679364999078214
1686428356058154800,11.40615478515625,-2.926500026130676,-0.135513216817379,2.0225164654642342
1686428356068099800,11.416099853515625,-3.3022494015216823,-0.15899872182309627,2.2765125615820287
1686428356078045700,11.426045654296875,-3.645048108947277,-0.2704156082600355,2.301933710825443
1686428356087990800,11.43599072265625,-3.878025674694776,-0.4200432751476764,2.075458951100707
1686428356097936600,11.4459365234375,-3.7423686654925343,-0.4994605107337236,1.8305013169631361
1686428356107881500,11.455881591796874,-3.550451424407959,-0.4527496129631996,1.6558578667625783
1686428356117827600,11.46582763671875,-3.4717280163049695,-0.22530103977024554,1.1561055334754287
1686428356127773700,11.475773681640625,-3.4541210479438305,0.02589431971311569,0.1781070163915865
1686428356137718800,11.48571875,-2.9990625735163685,0.3384720763981342,-0.8599509421944618
1686428356147664600,11.49566455078125,-2.1048982499442994,0.5975783551365137,-1.8277715997382997
1686428356157609700,11.505609619140625,-1.1658593771833925,0.592169189569354,-2.809172746606171
1686428356167555600,11.5155556640625,-0.08046075328961014,0.3748322605460882,-3.744640702077746
1686428356177500700,11.525500732421875,0.8209306719917804,-0.04074176023304462,-4.4777460102960465
1686428356187446500,11.535446533203125,1.5079086544811724,-0.6419090797722339,-4.830856560638547
1686428356197392000,11.545391845703126,2.1408897469103336,-1.0932394735872746,-4.708302194115519
1686428356207337700,11.555337646484375,2.6618974880635737,-0.9995721788525581,-4.225401188516616
1686428356217282800,11.56528271484375,3.2302140928804874,0.05453355422019958,-3.4971558875501154
1686428356227228700,11.575228759765626,4.039895568040013,1.9884785867840051,-3.408408221299946
1686428356237173500,11.585173583984375,4.644306984066963,4.338701989004016,-3.53061421277672
1686428356247119600,11.59511962890625,3.679268942978978,7.187867431041598,-2.5181337447732686
1686428356257065700,11.605065673828125,2.8509201767504213,9.889017317563296,-0.9079124245479703
1686428356267010800,11.6150107421875,3.81608213647902,9.760125564712286,1.684201040932536
1686428356276956700,11.624956787109374,4.441621096208691,6.804923760232329,4.392167037209868
1686428356286901800,11.63490185546875,3.919418592312932,3.4535680902361867,6.831879571697115
1686428356296847600,11.64484765625,3.4281817200452087,0.8753653689473867,7.357118082287907
1686428356306792700,11.654792724609376,1.5927316946335135,-1.3571505222588778,6.576575607851147
1686428356316738600,11.664738525390625,-0.7870059713624418,-3.0153619664102793,4.785534779138863
1686428356326683600,11.67468359375,-2.5282050569325683,-3.6735172475844617,2.650297943423688
1686428356336629500,11.68462939453125,-2.9022242475301026,-3.549790914672613,1.080492439412698
1686428356346574600,11.69457470703125,-2.706149302244186,-2.782086879020929,0.08037650907225906
1686428356356520700,11.704520751953124,-2.5084517241925,-1.9413661224752663,-0.8734565396513789
1686428356366465500,11.714465576171875,-2.0201549970299006,-1.2797305979698896,-1.7873128942303358
1686428356376411600,11.72441162109375,-1.1661905818991363,-0.7229092006355524,-2.6326445055723187
1686428356386356500,11.7343564453125,-0.34311478763744235,-0.20704875924289226,-3.3623251000389454
1686428356396302600,11.744302490234375,0.20570392050519584,0.22980594997406004,-3.8768823498785494
1686428356406248400,11.75424853515625,0.48480040947943925,0.2855284217178821,-3.9485318740725517
1686428356416193800,11.76419384765625,0.6745207250416279,-0.14900398203134535,-3.7337969442412255
1686428356426139600,11.7741396484375,0.753913702969253,-0.9313006066590547,-3.2785128443643448
1686428356436084700,11.784084716796874,0.5196007969647646,-1.7423872724413871,-2.8592507827222344
1686428356446030600,11.794030517578125,0.1587964772492647,-2.3590075971782207,-2.5809751086115837
1686428356455975700,11.8039755859375,-0.1837215135388076,-2.700409297287464,-2.4155551215693354
1686428356465921500,11.813921630859374,-0.4489069660604,-2.836743182837963,-2.1893445657387374
1686428356475866600,11.82386669921875,-0.7075204928457737,-2.8075083205252884,-1.7800284363105892
1686428356485812700,11.833812744140625,-0.9149847010217607,-2.538319623711705,-1.2820165169499813
1686428356495757600,11.843757568359376,-1.017226493486762,-2.0862492251843214,-0.7628584222514182
1686428356505703700,11.85370361328125,-1.1522199242137372,-1.6274802058011293,-0.33015864075683055
1686428356515648500,11.8636484375,-1.351255472870916,-1.251407589805126,0.13857136227898298
1686428356525594600,11.8735947265625,-1.4391957682609557,-0.930576384037733,0.712206604835391
1686428356535540500,11.88354052734375,-1.4885072039186953,-0.6651140142709017,1.2341355524867772
1686428356545485800,11.89348583984375,-1.4599047942906618,-0.23739245958030222,1.0897112994611262
1686428356555431700,11.903431640625,-1.3270996673882007,0.4365244543492794,0.8167518519371747
1686428356565376800,11.913376708984375,-1.0438256735336036,1.265540744575858,0.5444443655159324
1686428356575322600,11.923322509765624,-0.5767103391528129,2.0387398705124853,0.1945517543066293
1686428356585267500,11.933267333984375,0.03934358387291431,2.389773906841874,-0.06652516691759228
1686428356595213600,11.943213623046875,0.5073084477551281,1.8812065450668334,-0.4788708732999861
1686428356605158700,11.95315869140625,0.7755214314043521,0.7670067010372876,-1.002635804206878
1686428356615104800,11.963104736328125,0.8386995529163628,-0.14517887078523636,-0.9588939853750169
1686428356625049600,11.973049560546874,0.7091676755309104,-1.0158867693156004,-0.611284662797302
1686428356634995700,11.98299560546875,0.4403616944245994,-1.7880518760293722,-0.20743695484288036
1686428356644940500,11.9929404296875,0.10412658329829573,-2.3928747954666614,0.14664879720732568
1686428356654886700,12.00288671875,-0.16747545826733112,-2.744458282372355,0.4233561990879476
1686428356664832500,12.01283251953125,-0.1468622938275337,-2.636586521196365,0.6405784887555986
1686428356674777900,12.02277783203125,0.0777459413729608,-1.6454957549631595,0.9697248106647283
1686428356684723700,12.0327236328125,0.19708741026408969,0.010438391906023026,1.547529886251688
1686428356694668800,12.042668701171875,0.22154555969424544,2.0043816738367077,2.396851297882199
1686428356704614700,12.05261474609375,-0.037590529660508035,4.426757873597741,2.7818367036521434
1686428356714559500,12.0625595703125,-0.6949847633343189,7.244496496236324,2.4089858261816204
1686428356724505600,12.072505615234375,-0.5103286723591387,9.700664490962028,0.5940236583296209
1686428356734450700,12.08245068359375,1.6079980912178753,9.786633632409572,-1.5240285991549491
1686428356744396800,12.092396728515626,4.471915112185478,6.2521104294955725,-2.774306892669201
1686428356754341600,12.102341552734375,5.849648403745889,2.164427274364233,-2.5421999722763893
1686428356764287700,12.112287841796874,5.327614826676249,-0.6120400112092494,-2.4008128949895498
1686428356774232600,12.122232666015625,3.6125025146514176,-2.202687154653668,-2.9161686017304658
1686428356784178700,12.1321787109375,1.285438454222679,-2.636219441449642,-2.9987296883001924
1686428356794124500,12.14212451171875,-1.547298415583372,-2.0546195766896007,-2.9107161815434694
1686428356804069600,12.152069580078125,-3.484526707601547,-0.7445482009917497,-2.839943732444942
1686428356814015700,12.162015625,-4.696861931690574,0.010852233403921127,-3.226369107890129
1686428356823960600,12.171960693359376,-5.294276036176085,0.19768705665767192,-4.2686119692116975
1686428356833906700,12.18190673828125,-5.497782592767477,-0.15722586693167687,-5.171720500609278
1686428356843851500,12.1918515625,-4.858088850957155,-0.7584107221275568,-6.109705699598789
1686428356853797600,12.201797607421875,-3.818547065287828,-1.2514964371323585,-6.0605783883363005
1686428356863742500,12.211742431640625,-2.5530676955103875,-1.326677642583847,-5.444643707776069
1686428356873688600,12.2216884765625,-1.4695792160868644,-1.4163292719364164,-4.814113515630364
1686428356883633700,12.231633544921875,-0.6907400384366512,-1.7648761676251887,-4.512266119535267
1686428356893579800,12.241579833984375,-0.1386883031895384,-2.0895412524670363,-3.9281455041259523
1686428356903524600,12.251524658203126,0.16023560667429118,-2.287365087246895,-3.1292420280903577
1686428356913470700,12.261470703125,0.26907299801204354,-2.2564567387640473,-2.491846918611228
1686428356923416600,12.27141650390625,0.30034729373045266,-1.8887264191776514,-1.9812515581399202
1686428356933361700,12.281361572265626,0.3936591991562396,-1.2025438979148864,-1.2701001614458858
1686428356943307500,12.2913076171875,0.558943723250553,-0.36646015352010725,-0.5547995361179113
1686428356953252600,12.301252685546874,0.7359633279979229,0.5634399386912584,0.06101904378198087
1686428356963198700,12.31119873046875,0.8458277242958545,1.13575116610229,0.7074673744190484
1686428356973143600,12.3211435546875,0.8928373858172446,1.0336001206606626,1.2747978177428245
1686428356983089700,12.331089599609374,0.8146511533308773,0.3094406277030706,1.5637489073857664
1686428356993034500,12.341034423828125,0.45093883721418676,-0.6100847854882478,1.4975513649873435
1686428357002980600,12.350980712890625,-0.16670206274203955,-1.3801871144533155,1.4224094686329365
1686428357012925700,12.36092578125,-0.9186673350572585,-1.9394442145019768,1.3891808605089784
1686428357022871800,12.370871826171875,-1.5521324116110802,-2.2673247542589903,1.199591331719607
1686428357032817700,12.380817626953124,-1.9571289242744445,-2.339339604634046,0.8869540999323129
1686428357042762800,12.3907626953125,-2.0662141528934237,-2.1262305224388838,0.7938403474271297
1686428357052708600,12.40070849609375,-1.9544091439217328,-1.8307284037172793,0.6445314641650766
1686428357062653700,12.41065380859375,-1.7962153087407349,-1.5886527547568081,0.13345153504721818
1686428357072599800,12.420599853515625,-1.6178075375705956,-1.4928279897272585,-0.48709779970161615
1686428357082545000,12.430544921875,-1.3412240543305873,-1.5331412954151629,-1.0325365100171415
1686428357092491000,12.440490966796874,-1.066871106621623,-1.609962669289112,-1.3485659415259956
1686428357102435800,12.450435791015625,-0.9872679930746555,-1.6144354307889937,-1.474309459479153
1686428357112382000,12.4603818359375,-1.1157412282526493,-1.6435194864541292,-1.6258479284241794
1686428357122326800,12.470326904296876,-1.3536895681500434,-1.7052566884428262,-1.960593093253672
1686428357132273000,12.48027294921875,-1.3943389739245176,-1.842687137058377,-2.255099478936195
1686428357142218000,12.490218017578124,-1.2385340797066688,-2.1148189015865326,-2.3299659193500877
1686428357152164000,12.5001640625,-1.0435188726067541,-2.53810510417819,-2.3068217751279474
1686428357162109000,12.51010888671875,-0.9214362152487039,-2.8862475107192993,-2.248175524891913
1686428357172054800,12.5200546875,-0.9890601371884346,-3.017446955990791,-2.0604626036293805
1686428357182001000,12.5300009765625,-1.197212473759055,-2.8568203407049175,-1.7269659775562582
1686428357191945700,12.53994580078125,-1.396041101667285,-2.5538801809370515,-1.3710501605346799
1686428357201891800,12.549891845703126,-1.608058296972513,-2.445091889438033,-1.1689267288647591
1686428357211837000,12.5598369140625,-1.8637386929154396,-2.6351474283039567,-1.2349293332129716
1686428357221783000,12.569782958984375,-1.9505600672781467,-3.105207072508335,-1.3514717459701
1686428357231727900,12.579727783203126,-1.6739520341187715,-3.724758190000057,-1.3924831169247627
1686428357241674000,12.589674072265625,-1.2120032156556844,-4.412523596540093,-1.3258674952447413
1686428357251618800,12.599618896484374,-0.9930033218562603,-5.149835416537523,-1.372614341111481
1686428357261565000,12.60956494140625,-0.9839029005557298,-5.902942187038064,-1.6147067950762808
1686428357271509800,12.619509765625,-0.9499328264147042,-6.623483489498495,-2.028946644642204
1686428357281455900,12.629455810546874,-0.8755454747546464,-7.3910045697987075,-2.191178064776212
1686428357291402000,12.639402099609375,-1.056667034928128,-8.039840818485617,-1.6085896273702383
1686428357301346800,12.649346923828125,-1.2573977701306343,-8.044476661592721,-1.1455617814987897
1686428357311293000,12.65929296875,-1.1660316650103777,-7.182856909403204,-1.329383978933096
