time,seconds_elapsed,z,y,x
1686428344770018800,0.118018798828125,-0.030626408755779266,2.503638744354248,-0.009234264492988586
1686428344779965000,0.12796484375,-0.3959406018257141,2.3752429485321045,-0.08001659065485
1686428344789909800,0.13790966796875,-0.6273857951164246,2.166867733001709,-0.22871312499046326
1686428344799855900,0.14785595703125,-0.6874412894248962,2.0530850887298584,-0.44103047251701355
1686428344809801000,0.157801025390625,-0.667588472366333,2.225787878036499,-0.5929137468338013
1686428344819747000,0.1677470703125,-0.7116432785987854,2.436152458190918,-0.6295127868652344
1686428344829692000,0.17769189453125,-0.8295310735702515,2.712398052215576,-0.6957962512969971
1686428344839636700,0.18763671875,-0.9874803423881531,3.103639602661133,-0.8135435581207275
1686428344849582800,0.197582763671875,-1.1825329065322876,3.547337532043457,-0.8618083000183105
1686428344859528000,0.20752783203125,-1.404284119606018,4.243368625640869,-0.8441382050514221
1686428344869474000,0.21747412109375,-1.6108431816101074,4.844572067260742,-0.7213888168334961
1686428344879419000,0.2274189453125,-1.7368587255477905,5.085079193115234,-0.5253194570541382
1686428344889365000,0.237364990234375,-1.6653683185577393,4.818316459655762,-0.328723281621933
1686428344899309800,0.247309814453125,-1.4257975816726685,4.292870998382568,-0.18723063170909882
1686428344909256000,0.257255859375,-1.229544997215271,3.8399479389190674,-0.07875742018222809
1686428344919201000,0.267200927734375,-1.228459358215332,3.6251003742218018,0.054524511098861694
1686428344929147000,0.27714697265625,-1.339552879333496,3.7995870113372803,0.15725408494472504
1686428344939092000,0.287092041015625,-1.442875623703003,4.287970542907715,0.21572749316692352
1686428344949036800,0.297036865234375,-1.4833050966262817,4.958998680114746,0.23646339774131775
1686428344958983000,0.30698291015625,-1.4268885850906372,5.616403579711914,0.16035272181034088
1686428344968927700,0.316927734375,-1.300331473350525,6.111231327056885,0.038198597729206085
1686428344978873900,0.326873779296875,-1.2119179964065552,6.349320411682129,-0.18644922971725464
1686428344988819000,0.33681884765625,-1.3363057374954224,6.778838157653809,-0.38641825318336487
1686428344998765000,0.34676513671875,-1.8175640106201172,7.314833164215088,-0.3726693391799927
1686428345008710000,0.3567099609375,-2.13960862159729,7.551095008850098,-0.19540345668792725
1686428345018656000,0.366656005859375,-2.195523738861084,7.285336494445801,0.13999883830547333
1686428345028600800,0.376600830078125,-2.0192787647247314,6.529751300811768,0.49889788031578064
1686428345038546000,0.3865458984375,-1.8314357995986938,5.938600540161133,0.869427502155304
1686428345048492000,0.396491943359375,-1.7264324426651,5.561443328857422,1.1752665042877197
1686428345058436400,0.406436279296875,-1.7746320962905884,4.873476028442383,1.3726001977920532
1686428345068382500,0.416382568359375,-1.9620747566223145,4.2047810554504395,1.5268089771270752
1686428345078327300,0.426327392578125,-2.234792709350586,3.584333658218384,1.6676247119903564
1686428345088273400,0.4362734375,-2.495640277862549,2.9642107486724854,1.7667975425720215
1686428345098218500,0.446218505859375,-2.704468250274658,2.578460454940796,1.7936887741088867
1686428345108164600,0.45616455078125,-2.873075246810913,2.575662612915039,1.7068071365356445
1686428345118109400,0.466109375,-2.994628429412842,2.4693779945373535,1.4991185665130615
1686428345128055600,0.4760556640625,-3.121799945831299,2.347738742828369,1.2641360759735107
1686428345138000400,0.48600048828125,-3.2250280380249023,2.2355635166168213,1.0414232015609741
1686428345147946500,0.495946533203125,-3.249058485031128,2.173769950866699,0.8448704481124878
1686428345157891600,0.5058916015625,-3.178187370300293,2.2254109382629395,0.7173940539360046
1686428345167836400,0.51583642578125,-2.9954967498779297,2.1859958171844482,0.6155627369880676
1686428345177782500,0.525782470703125,-2.8148365020751953,2.236405372619629,0.48877254128456116
1686428345187727400,0.535727294921875,-2.6945619583129883,2.3449182510375977,0.33477097749710083
1686428345197673500,0.545673583984375,-2.6943271160125732,2.263164520263672,0.18748264014720917
1686428345207618600,0.55561865234375,-2.768216133117676,1.799569010734558,0.05577973276376724
1686428345217564700,0.565564697265625,-2.9555678367614746,1.016954779624939,-0.014197643846273422
1686428345227509500,0.575509521484375,-3.274125099182129,0.13940134644508362,0.16403573751449585
1686428345237455600,0.58545556640625,-3.577512264251709,-0.63651043176651,0.577176570892334
1686428345247400400,0.595400390625,-3.7786502838134766,-1.704450249671936,1.0994088649749756
1686428345257346300,0.60534619140625,-3.8822829723358154,-3.062235116958618,1.593034029006958
1686428345267291600,0.615291748046875,-4.0103840827941895,-4.529618740081787,1.9506523609161377
1686428345277236500,0.625236572265625,-4.127486228942871,-5.773102760314941,2.0012500286102295
1686428345287182600,0.6351826171875,-4.0482707023620605,-4.990885257720947,1.584854245185852
1686428345297127400,0.64512744140625,-3.875990152359009,-4.318014144897461,0.8939909934997559
1686428345307073500,0.655073486328125,-3.5778164863586426,-3.9908697605133057,0.05138332396745682
1686428345317018600,0.6650185546875,-3.1254470348358154,-3.196683406829834,-0.7660805583000183
1686428345326964500,0.674964599609375,-2.7269248962402344,-1.8326447010040283,-1.42560613155365
1686428345336909600,0.68490966796875,-2.5647449493408203,-1.1947245597839355,-1.663156509399414
1686428345346855400,0.69485546875,-2.506443977355957,-1.4333959817886353,-1.433956265449524
1686428345356800500,0.704800537109375,-2.5031869411468506,-1.656657099723816,-0.9157332181930542
1686428345366746400,0.714746337890625,-2.5483062267303467,-1.582011103630066,-0.35527652502059937
1686428345376691500,0.72469140625,-2.5854415893554688,-1.441676378250122,0.13670773804187775
1686428345386636500,0.734636474609375,-2.532273054122925,-1.2881677150726318,0.5649818778038025
1686428345396582700,0.744582763671875,-2.421327829360962,-1.1196264028549194,0.9412084221839905
1686428345406527500,0.754527587890625,-2.30018949508667,-1.181443452835083,1.298218011856079
1686428345416473300,0.764473388671875,-2.1812942028045654,-1.4401040077209473,1.6276847124099731
1686428345426418400,0.77441845703125,-2.0608325004577637,-1.727357029914856,1.8808897733688354
1686428345436364300,0.7843642578125,-1.8696527481079102,-1.8184943199157715,1.9985383749008179
1686428345446309600,0.7943095703125,-1.6214088201522827,-1.8087847232818604,2.0153136253356934
1686428345456255500,0.80425537109375,-1.4246529340744019,-1.829900860786438,2.0013856887817383
1686428345466200600,0.81420068359375,-1.3048967123031616,-3.173696994781494,1.5068217515945435
1686428345476146400,0.824146484375,-1.5492538213729858,-4.3017191886901855,0.02082967944443226
1686428345486091500,0.834091552734375,-1.7264333963394165,-4.857735633850098,-1.4166429042816162
1686428345496036600,0.84403662109375,-1.7542415857315063,-5.2539472579956055,-2.168207883834839
1686428345505982500,0.853982421875,-1.774654507637024,-5.6491851806640625,-2.232675075531006
1686428345515927600,0.863927490234375,-1.8993966579437256,-6.178279876708984,-1.8325573205947876
1686428345525873400,0.873873291015625,-2.035836935043335,-6.363194465637207,-1.3387457132339478
1686428345535818500,0.883818603515625,-2.124269723892212,-6.188895225524902,-0.9724976420402527
1686428345545764400,0.893764404296875,-2.137540578842163,-5.636754989624023,-0.8011940717697144
1686428345555709700,0.903709716796875,-1.912111759185791,-4.903984069824219,-0.8237663507461548
1686428345565655600,0.913655517578125,-1.4637342691421509,-4.350034713745117,-0.8381785750389099
1686428345575600400,0.923600341796875,-0.9266982078552246,-3.65207576751709,-0.6806730031967163
1686428345585546500,0.93354638671875,-0.40979060530662537,-3.0584793090820312,-0.4577192962169647
1686428345595491300,0.9434912109375,-0.025077898055315018,-2.555607557296753,-0.2926318943500519
1686428345605436700,0.953436767578125,0.22464483976364136,-2.162008047103882,-0.2480257898569107
1686428345615382500,0.963382568359375,0.37423473596572876,-1.7307332754135132,-0.38452279567718506
1686428345625327600,0.97332763671875,0.4456106424331665,-1.2008401155471802,-0.6635379791259766
1686428345635273500,0.9832734375,0.48476117849349976,-0.5720698237419128,-0.8768466711044312
1686428345645218600,0.993218505859375,0.6639690399169922,0.17315718531608582,-0.8159050345420837
1686428345655164400,1.003164306640625,0.9718363285064697,0.7900446653366089,-0.6135743856430054
1686428345665109500,1.013109619140625,1.244895339012146,1.042279601097107,-0.3731898069381714
1686428345675055600,1.0230556640625,1.3444801568984985,0.8429046273231506,-0.19551262259483337
1686428345685000400,1.03300048828125,1.138075351715088,0.5344035625457764,-0.3231651186943054
1686428345694946600,1.042946533203125,0.9986218810081482,-0.015379396267235279,-0.5881074070930481
1686428345704891400,1.052891357421875,1.233951210975647,-0.2559962868690491,-0.7855094075202942
1686428345714836500,1.06283642578125,1.8016064167022705,-0.3679027557373047,-0.9077429175376892
1686428345724782600,1.072782470703125,2.3646888732910156,-0.35885491967201233,-0.9757443070411682
1686428345734727400,1.0827275390625,2.886685848236084,-0.26103442907333374,-1.2439606189727783
1686428345744673500,1.092673583984375,3.3972511291503906,0.0010829460807144642,-1.397024154663086
1686428345754618400,1.102618408203125,3.5180983543395996,0.0925888940691948,-1.2530955076217651
1686428345764564500,1.112564453125,3.2600276470184326,-0.025720439851284027,-1.0808111429214478
1686428345774509300,1.12250927734375,2.662571907043457,-0.10780464112758636,-1.013155221939087
1686428345784455400,1.132455322265625,1.949745774269104,0.019438795745372772,-1.0611786842346191
1686428345794400500,1.142400390625,1.346960186958313,0.29178696870803833,-1.2301291227340698
1686428345804346600,1.1523466796875,0.9914865493774414,0.5617241859436035,-1.503660798072815
1686428345814291500,1.16229150390625,0.8537375926971436,0.6695296168327332,-1.7796401977539062
1686428345824236300,1.172236328125,0.7928702235221863,0.5063806176185608,-1.9102035760879517
1686428345834182400,1.182182373046875,0.6645944118499756,0.16053733229637146,-1.8139090538024902
1686428345844127500,1.19212744140625,0.4153329133987427,-0.24632444977760315,-1.5280879735946655
1686428345854073600,1.202073486328125,-0.014586938545107841,-0.6104497909545898,-1.110562801361084
1686428345864018400,1.212018310546875,-0.6606453061103821,-1.4142011404037476,-0.647692859172821
1686428345873964500,1.221964599609375,-1.2662512063980103,-0.7808420658111572,-0.06150013580918312
1686428345883909400,1.231909423828125,-1.5856033563613892,0.22030462324619293,0.6801787614822388
1686428345893855500,1.24185546875,-1.7541500329971313,0.6654464602470398,1.423570156097412
1686428345903800600,1.251800537109375,-2.01965594291687,0.4503434896469116,1.9797955751419067
1686428345913746700,1.26174658203125,-2.4112777709960938,0.17600736021995544,2.218618392944336
1686428345923691500,1.27169140625,-2.9096896648406982,-0.09391094744205475,2.1806890964508057
1686428345933636400,1.28163623046875,-3.4646239280700684,-0.5547394752502441,1.9051262140274048
1686428345943582500,1.29158251953125,-3.944981098175049,-1.1304512023925781,1.4262187480926514
1686428345953527600,1.301527587890625,-4.31649923324585,-1.6916801929473877,0.81407231092453
1686428345963473700,1.3114736328125,-4.462782382965088,-2.131760358810425,0.18348531424999237
1686428345973418500,1.32141845703125,-4.2757697105407715,-2.389617681503296,-0.2766391634941101
1686428345983364600,1.331364501953125,-3.9933876991271973,-2.813836097717285,-0.5908024311065674
1686428345993309400,1.341309326171875,-3.7333004474639893,-3.220900058746338,-0.6108238101005554
1686428346003255600,1.351255615234375,-3.5441088676452637,-2.820953369140625,-0.43221330642700195
1686428346013200600,1.36120068359375,-3.4431569576263428,-2.8176329135894775,-0.8602301478385925
1686428346023146500,1.371146484375,-3.2952659130096436,-3.0902044773101807,-1.4577345848083496
1686428346033091600,1.381091552734375,-3.2678191661834717,-2.7359554767608643,-1.7327194213867188
1686428346043037400,1.391037353515625,-3.237255334854126,-2.3673133850097656,-1.5523203611373901
1686428346052982500,1.400982421875,-3.058391809463501,-1.8325086832046509,-1.062247395515442
1686428346062927600,1.410927734375,-2.6677589416503906,-1.0841662883758545,-0.350270539522171
1686428346072873500,1.42087353515625,-2.2159879207611084,-0.46090608835220337,0.5421895980834961
1686428346082818600,1.430818603515625,-1.9660109281539917,0.33387383818626404,1.3931419849395752
1686428346092764700,1.4407646484375,-1.8580650091171265,1.0658715963363647,1.8701386451721191
1686428346102709500,1.45070947265625,-1.660904049873352,1.6755375862121582,2.115257978439331
1686428346112655600,1.460655517578125,-1.6355656385421753,2.074207305908203,2.1814661026000977
1686428346122600400,1.470600341796875,-1.6635088920593262,2.0261335372924805,2.2023730278015137
1686428346132546600,1.480546630859375,-1.693644642829895,1.6627106666564941,2.4664371013641357
1686428346142491600,1.49049169921875,-1.8756903409957886,1.2787561416625977,2.3754048347473145
1686428346152437800,1.500437744140625,-2.2792112827301025,0.4704602062702179,2.9608805179595947
1686428346162382600,1.510382568359375,-2.5013163089752197,0.7466841340065002,4.608938694000244
1686428346172327400,1.520327392578125,-2.0961034297943115,0.27856922149658203,4.518712043762207
1686428346182273500,1.5302734375,-1.8424367904663086,-0.1013040766119957,3.399559497833252
1686428346192218600,1.540218505859375,-1.8912979364395142,-0.7069140076637268,2.235621929168701
1686428346202164700,1.550164794921875,-1.9120138883590698,-1.0161128044128418,1.6330267190933228
1686428346212109600,1.560109619140625,-1.575811505317688,-0.30417343974113464,2.0784788131713867
1686428346222055700,1.5700556640625,-0.4521748125553131,-0.26473283767700195,0.7813019156455994
1686428346232000500,1.58000048828125,0.7891260981559753,0.17489808797836304,-2.084505081176758
1686428346241946600,1.589946533203125,1.391300916671753,0.4324263036251068,-3.8774471282958984
1686428346251891700,1.5998916015625,1.294547438621521,0.5925432443618774,-3.8273119926452637
1686428346261837800,1.609837890625,1.098851203918457,0.4107026159763336,-3.1121442317962646
1686428346271782700,1.61978271484375,1.1363717317581177,0.28122177720069885,-2.9344189167022705
1686428346281727500,1.6297275390625,1.3583192825317383,0.25499576330184937,-3.1810412406921387
1686428346291673600,1.639673583984375,1.6982972621917725,0.06229734048247337,-3.1532371044158936
1686428346301618700,1.64961865234375,2.0574026107788086,-0.3265902101993561,-2.873213052749634
1686428346311564800,1.659564697265625,2.3708810806274414,-0.21222977340221405,-2.433886766433716
1686428346321509600,1.669509521484375,2.4604742527008057,0.2415877878665924,-1.9967161417007446
1686428346331455700,1.679455810546875,2.1508560180664062,0.9331039786338806,-1.6547232866287231
1686428346341400600,1.689400634765625,2.0526373386383057,1.4952226877212524,-1.3691346645355225
1686428346351346700,1.6993466796875,2.2578086853027344,2.104590654373169,-1.0289126634597778
1686428346361291500,1.70929150390625,2.401130199432373,2.6539828777313232,-0.6430392861366272
1686428346371237600,1.719237548828125,2.6819300651550293,3.231356620788574,-0.25388041138648987
1686428346381182700,1.7291826171875,3.1974337100982666,3.4671831130981445,0.5907626748085022
1686428346391127600,1.73912744140625,3.1205508708953857,3.4863197803497314,1.0285935401916504
1686428346401073700,1.74907373046875,2.5819122791290283,2.984856128692627,1.0845609903335571
1686428346411018500,1.7590185546875,2.0240039825439453,2.4435694217681885,0.8465293049812317
1686428346420964600,1.768964599609375,1.7590067386627197,2.0829572677612305,0.5699352622032166
1686428346430909700,1.77890966796875,1.669127106666565,1.981722116470337,0.3516519069671631
1686428346440855600,1.78885546875,1.4844262599945068,1.9137719869613647,0.22045554220676422
1686428346450800600,1.798800537109375,1.1575058698654175,1.6110843420028687,0.0962214395403862
1686428346460746500,1.80874658203125,0.862785279750824,1.0835204124450684,-0.04214868322014809
1686428346470691600,1.818691650390625,0.5489324331283569,0.5504475831985474,-0.09708119928836823
1686428346480637400,1.828637451171875,0.22341956198215485,0.23411306738853455,-0.08028091490268707
1686428346490582800,1.838582763671875,0.06593732535839081,0.1673593819141388,0.046737100929021835
1686428346500527600,1.848527587890625,0.03237217664718628,0.30784595012664795,0.266295850276947
1686428346510473700,1.8584736328125,-0.04772359877824783,0.39368918538093567,0.46052151918411255
1686428346520418600,1.86841845703125,-0.012162938714027405,0.5077523589134216,0.5489944219589233
1686428346530364400,1.878364501953125,-0.0021306080743670464,0.6161254048347473,0.5661570429801941
1686428346540309800,1.888309814453125,0.002298228442668915,0.6558387279510498,0.5449721217155457
1686428346550255600,1.898255615234375,0.03883522376418114,0.6425668001174927,0.46601587533950806
1686428346560200700,1.90820068359375,0.07159556448459625,0.6025999784469604,0.3756577670574188
1686428346570146600,1.918146484375,0.07653570175170898,0.5285087823867798,0.30592572689056396
1686428346580091600,1.928091552734375,0.08773775398731232,0.34460049867630005,0.31445664167404175
1686428346590037500,1.93803759765625,0.15929023921489716,0.26465773582458496,0.347777783870697
1686428346599982800,1.94798291015625,0.25073280930519104,0.3386337161064148,0.3889918029308319
1686428346609927700,1.957927734375,0.3477323651313782,0.5198724865913391,0.3814048171043396
1686428346619873500,1.96787353515625,0.41283199191093445,0.6402375102043152,0.33790072798728943
1686428346629818600,1.977818603515625,0.43614986538887024,0.5936355590820312,0.3077828288078308
1686428346639764500,1.987764404296875,0.46287789940834045,0.34350085258483887,0.3311161398887634
1686428346649709800,1.997709716796875,0.4626930058002472,-0.07060746848583221,0.37875527143478394
1686428346659655700,2.00765576171875,0.4388987421989441,-0.5357967615127563,0.40179455280303955
1686428346669600800,2.017600830078125,0.5218954682350159,-0.8953759670257568,0.36518868803977966
1686428346679546600,2.027546630859375,0.7693699598312378,-1.060389757156372,0.27475705742836
1686428346689491500,2.037491455078125,1.2647417783737183,-1.1373579502105713,0.1700342297554016
1686428346699437600,2.0474375,1.5920403003692627,-0.9200165271759033,0.04252180457115173
1686428346709382700,2.057382568359375,1.8395664691925049,-0.6938000917434692,0.07050351798534393
1686428346719327700,2.06732763671875,1.9986560344696045,-0.5622739791870117,0.253200888633728
1686428346729273600,2.077273681640625,2.0105559825897217,-0.4570089280605316,0.5272300243377686
1686428346739218700,2.08721875,1.8915475606918335,-0.40258827805519104,0.8045580387115479
1686428346749164500,2.09716455078125,1.7176390886306763,-0.35623690485954285,0.9615052342414856
1686428346759109600,2.107109619140625,1.5053049325942993,-0.1970483362674713,0.93792325258255
1686428346769055500,2.117055419921875,1.187506079673767,-0.014278996735811234,0.5996997356414795
1686428346779000600,2.12700048828125,0.6929235458374023,0.06179659813642502,0.04910532757639885
1686428346788946700,2.13694677734375,0.0028284210711717606,0.0913558155298233,-0.49513426423072815
1686428346798891500,2.1468916015625,-0.7055007815361023,0.15023644268512726,-0.8168926239013672
1686428346808837600,2.156837646484375,-0.9961945414543152,0.38677680492401123,-0.8866093158721924
1686428346818782500,2.166782470703125,-0.5655561089515686,1.087932825088501,-0.8535336256027222
1686428346828728600,2.176728515625,0.10537327080965042,2.0880167484283447,-0.5811458826065063
1686428346838673700,2.186673583984375,0.6109762787818909,3.0208547115325928,-0.13316306471824646
1686428346848618500,2.196618408203125,0.8505204916000366,3.5972988605499268,0.1133229210972786
1686428346858564600,2.206564697265625,0.9956566691398621,3.7487637996673584,-0.37479403614997864
1686428346868509400,2.216509521484375,1.1123014688491821,3.2627182006835938,-1.3510394096374512
1686428346878455600,2.22645556640625,0.8277994394302368,2.233038902282715,-1.5491517782211304
1686428346888400600,2.236400634765625,0.15051090717315674,1.0835950374603271,-0.9023472666740417
1686428346898346800,2.2463466796875,-0.2101583331823349,0.3612120747566223,-0.16309639811515808
1686428346908291600,2.25629150390625,-0.18210455775260925,0.07285039871931076,0.34358224272727966
1686428346918237700,2.26623779296875,-0.048279374837875366,0.02993515506386757,0.5592439770698547
1686428346928182500,2.2761826171875,-0.15816809237003326,-0.22199317812919617,0.6229530572891235
1686428346938128600,2.286128662109375,-0.6309223175048828,-0.7690946459770203,0.5663025379180908
1686428346948073700,2.29607373046875,-1.2232946157455444,-1.571388602256775,0.396907240152359
1686428346958018600,2.3060185546875,-1.625740885734558,-2.216782808303833,0.19453388452529907
1686428346967964700,2.315964599609375,-1.8521181344985962,-2.498906135559082,-0.07645505666732788
1686428346977909500,2.325909423828125,-1.9462907314300537,-2.457212209701538,-0.23092319071292877
1686428346987855600,2.335855712890625,-1.8537944555282593,-2.1033008098602295,-0.07897163182497025
1686428346997800700,2.34580078125,-1.526703119277954,-1.599585771560669,0.09877945482730865
1686428347007746800,2.355746826171875,-1.0358034372329712,-1.340108871459961,-0.04689638689160347
1686428347017691600,2.365691650390625,-0.7257201075553894,-1.2753181457519531,-0.5976197719573975
1686428347027637800,2.3756376953125,-0.6845279335975647,-1.3694950342178345,-1.0296696424484253
1686428347037582600,2.38558251953125,-0.650356113910675,-1.4922305345535278,-1.2354192733764648
1686428347047528400,2.395528564453125,-0.4528362452983856,-1.4622606039047241,-1.236302375793457
1686428347057473500,2.4054736328125,-0.20186476409435272,-1.3182696104049683,-1.0774825811386108
1686428347067418600,2.415418701171875,-0.1398089975118637,-1.079573631286621,-0.9135708212852478
1686428347077364500,2.425364501953125,-0.2502361536026001,-0.7539681196212769,-0.7379904389381409
1686428347087309600,2.4353095703125,-0.3472241163253784,-0.38473331928253174,-0.576267421245575
1686428347097255400,2.44525537109375,-0.24800777435302734,-0.09399443864822388,-0.31927236914634705
1686428347107200500,2.455200439453125,-0.04592874273657799,0.17391441762447357,0.04251859337091446
1686428347117146400,2.465146484375,0.0007721846923232079,0.4038029909133911,0.35822486877441406
1686428347127091700,2.475091796875,0.0002987487241625786,0.45941218733787537,0.5277242660522461
1686428347137037600,2.48503759765625,-0.022449705749750137,0.5000099539756775,0.5293213725090027
1686428347146982400,2.494982421875,-0.06925982236862183,0.4587027132511139,0.4482075870037079
1686428347156928500,2.504928466796875,-0.12196830660104752,0.3554042875766754,0.32036545872688293
1686428347166873300,2.514873291015625,-0.13267961144447327,0.15749089419841766,0.1700405329465866
1686428347176819500,2.5248193359375,-0.08368916064500809,-0.08961210399866104,-0.06906285881996155
1686428347186764500,2.5347646484375,0.0018599256873130798,-0.3894209861755371,-0.3094342052936554
1686428347196709600,2.544709716796875,0.08795273303985596,-0.6509181261062622,-0.5250839591026306
1686428347206655500,2.554655517578125,0.024473242461681366,-0.910635232925415,-0.6930088400840759
1686428347216600300,2.564600341796875,-0.16699419915676117,-1.0391851663589478,-0.82217937707901
1686428347226546400,2.57454638671875,-0.23377151787281036,-0.9784930348396301,-0.9001405835151672
1686428347236491500,2.584491455078125,-0.1998276710510254,-0.753820538520813,-0.9273247718811035
1686428347246437600,2.594437744140625,-0.3096866309642792,-0.5462415218353271,-0.8814716339111328
1686428347256382500,2.604382568359375,-0.45871445536613464,-0.33788856863975525,-0.8608190417289734
1686428347266328600,2.61432861328125,-0.627771258354187,-0.16522203385829926,-0.8518677353858948
1686428347276273400,2.6242734375,-0.6655856966972351,0.1027739942073822,-0.8497284650802612
1686428347286219500,2.634219482421875,-0.5818091630935669,0.3104972839355469,-0.7763073444366455
1686428347296164600,2.64416455078125,-0.5646594762802124,0.464555561542511,-0.6399497389793396
1686428347306110700,2.65411083984375,-0.6520117521286011,0.513792097568512,-0.5277915596961975
1686428347316055600,2.6640556640625,-0.7148959040641785,0.575355589389801,-0.43177738785743713
1686428347326000400,2.67400048828125,-0.7327391505241394,0.7102623581886292,-0.30734097957611084
1686428347335946500,2.683946533203125,-0.8402906656265259,0.7435510754585266,-0.10851334780454636
1686428347345891600,2.6938916015625,-1.2463011741638184,0.5300313830375671,0.33979541063308716
1686428347355837700,2.703837646484375,-1.7724292278289795,1.3634159564971924,0.7853710651397705
1686428347365782500,2.713782470703125,-1.7804254293441772,1.571998119354248,1.2304903268814087
1686428347375728600,2.723728759765625,-0.9940577745437622,0.9527567625045776,1.3450051546096802
1686428347385673500,2.733673583984375,-0.17537789046764374,-0.36989861726760864,1.1386045217514038
1686428347395619600,2.74361962890625,0.4477061927318573,-1.091704249382019,1.1827160120010376
1686428347405564700,2.753564697265625,0.7060043811798096,-0.8722682595252991,1.680176019668579
1686428347415510500,2.763510498046875,0.6426765322685242,-0.24590907990932465,2.529400587081909
1686428347425455600,2.77345556640625,0.47237643599510193,0.4713708758354187,3.430037498474121
1686428347435401500,2.7834013671875,0.2795931398868561,1.1988762617111206,3.973686695098877
1686428347445346600,2.7933466796875,0.0882156640291214,0.8881544470787048,3.7225921154022217
1686428347455292400,2.80329248046875,-0.19857296347618103,0.7553796172142029,3.0619988441467285
1686428347465237500,2.813237548828125,-0.23428282141685486,0.40028491616249084,2.24757981300354
1686428347475182600,2.8231826171875,-0.17670395970344543,-0.047491252422332764,1.3928892612457275
1686428347485128700,2.833128662109375,-0.20328181982040405,-0.45294663310050964,0.588306188583374
1686428347495073500,2.843073486328125,-0.33716344833374023,-0.5344505906105042,-0.15467475354671478
1686428347505019400,2.853019287109375,-0.5023638606071472,-0.267249196767807,-0.8764140009880066
1686428347514964500,2.862964599609375,-0.5692683458328247,1.0310168266296387,-1.6465270519256592
1686428347524910300,2.872910400390625,-0.75776207447052,1.333690881729126,-2.294071674346924
1686428347534855700,2.882855712890625,-1.1081740856170654,1.4271249771118164,-2.6656007766723633
1686428347544801500,2.892801513671875,-1.2974265813827515,1.0922611951828003,-2.896493911743164
1686428347554746600,2.90274658203125,-1.2039188146591187,0.314493328332901,-2.870572328567505
1686428347564692500,2.9126923828125,-0.8866584300994873,-0.05370226502418518,-2.5348689556121826
1686428347574637600,2.922637451171875,-0.5318191051483154,-0.07222188264131546,-1.9535157680511475
1686428347584583400,2.93258349609375,-0.09150995314121246,-0.08393082022666931,-1.293864130973816
1686428347594528500,2.942528564453125,0.11512710899114609,-0.15081290900707245,-0.7914198637008667
1686428347604474600,2.952474609375,-0.02742665447294712,-0.13543269038200378,-0.5579352974891663
1686428347614419500,2.96241943359375,-0.2249208241701126,-0.09332066774368286,-0.4489653706550598
1686428347624365600,2.972365478515625,-0.4258469045162201,0.13007916510105133,-0.444997102022171
1686428347634310400,2.982310302734375,-0.5138614177703857,0.305709570646286,-0.47600188851356506
1686428347644255700,2.992255859375,-0.5308842658996582,0.31800150871276855,-0.5702564716339111
1686428347654201600,3.00220166015625,-0.5363538861274719,0.2694595158100128,-0.7472584247589111
1686428347664146400,3.012146484375,-0.5371025800704956,0.22764059901237488,-0.9788035154342651
1686428347674092500,3.022092529296875,-0.5306143164634705,0.14613881707191467,-1.2120423316955566
1686428347684037400,3.032037353515625,-0.5084829926490784,0.009900582954287529,-1.3680567741394043
1686428347693983500,3.0419833984375,-0.5103924870491028,-0.1535506546497345,-1.4461156129837036
1686428347703928600,3.051928466796875,-0.5363960266113281,-0.39757949113845825,-1.4480341672897339
1686428347713874700,3.061874755859375,-0.562477707862854,-0.6879724264144897,-1.3958090543746948
1686428347723819500,3.071819580078125,-0.5615956783294678,-0.9505062103271484,-1.335429310798645
1686428347733765600,3.081765625,-0.5523544549942017,-1.0386477708816528,-1.256752610206604
1686428347743710500,3.09171044921875,-0.5784536600112915,-0.9821991920471191,-1.0945963859558105
1686428347753656600,3.101656494140625,-0.6046625375747681,-0.8446245193481445,-0.8000782132148743
1686428347763601700,3.1116015625,-0.590799868106842,-0.7084590792655945,-0.4554949998855591
1686428347773547800,3.1215478515625,-0.5281548500061035,-0.6033009886741638,-0.16098320484161377
1686428347783492600,3.13149267578125,-0.4260925054550171,-0.5273511409759521,0.012777037918567657
1686428347793438500,3.1414384765625,-0.25837674736976624,-0.4377474784851074,-0.0567098967730999
1686428347803383600,3.151383544921875,-0.0981520414352417,-0.4103279113769531,-0.24870926141738892
1686428347813328400,3.161328369140625,-0.03850309178233147,-0.49333810806274414,-0.37708958983421326
1686428347823274500,3.1712744140625,-0.0776078850030899,-0.6250972151756287,-0.453991562128067
1686428347833219600,3.181219482421875,-0.07067141681909561,-0.8092201352119446,-0.6159634590148926
1686428347843165700,3.191165771484375,-0.02805490978062153,-1.1480505466461182,-0.9665054082870483
1686428347853110500,3.201110595703125,-0.214617058634758,-1.530472993850708,-1.0714266300201416
1686428347863056400,3.211056396484375,-0.132165789604187,-1.6916003227233887,-1.1179057359695435
1686428347873001500,3.22100146484375,0.2710876762866974,-1.6971317529678345,-0.7299593091011047
1686428347882947300,3.230947265625,0.6209582686424255,-1.6640615463256836,-0.04407906532287598
1686428347892892700,3.240892578125,1.0304720401763916,-1.6456799507141113,0.5414448380470276
1686428347902838500,3.250838623046875,1.300053596496582,-1.3448759317398071,0.9231014847755432
1686428347912783600,3.26078369140625,1.2615400552749634,-0.7948471903800964,0.9644191265106201
1686428347922729500,3.2707294921875,1.0102757215499878,-0.20773407816886902,0.6524037718772888
1686428347932674600,3.280674560546875,0.6130354404449463,0.14320051670074463,0.07543929666280746
1686428347942620400,3.290620361328125,0.2070264369249344,0.2174571305513382,-0.3724481165409088
1686428347952565500,3.3005654296875,0.08150127530097961,0.6490613222122192,-0.08542513847351074
1686428347962511600,3.31051171875,0.141750305891037,1.110819697380066,0.5924474596977234
1686428347972456400,3.32045654296875,0.34841132164001465,0.4588826894760132,1.3511961698532104
1686428347982401500,3.330401611328125,0.6451664566993713,-0.4942903518676758,1.5695164203643799
1686428347992347400,3.340347412109375,0.7360550761222839,-0.9087154865264893,1.1411062479019165
1686428348002292700,3.350292724609375,0.623576283454895,-0.97761070728302,0.5081923007965088
1686428348012238600,3.360238525390625,0.4860149323940277,-0.6442777514457703,0.16249585151672363
1686428348022183400,3.370183349609375,0.3494706451892853,-0.16737255454063416,0.6014472246170044
1686428348032129500,3.380129638671875,0.29900479316711426,0.3386956751346588,1.2038570642471313
1686428348042074400,3.390074462890625,0.17812283337116241,0.8316317796707153,1.5171664953231812
1686428348052020500,3.4000205078125,-0.15785251557826996,0.8378840684890747,1.3495780229568481
1686428348061965800,3.4099658203125,-0.4681239724159241,0.41621896624565125,1.0018973350524902
1686428348071912000,3.419911865234375,-0.5418258905410767,0.10505923628807068,0.7629095911979675
1686428348081856800,3.429856689453125,-0.43131428956985474,0.014528395608067513,0.8192984461784363
1686428348091803000,3.439802978515625,-0.5445238947868347,0.2794239819049835,1.006860375404358
1686428348101747700,3.449747802734375,-0.5677712559700012,0.6094525456428528,0.902221143245697
1686428348111693800,3.45969384765625,-0.51585453748703,0.8084790706634521,0.6149486303329468
1686428348121638700,3.469638671875,-0.4839489459991455,0.8520692586898804,0.35777977108955383
1686428348131584800,3.479584716796875,-0.4104851186275482,0.687421441078186,0.25602278113365173
1686428348141529900,3.48952978515625,-0.31858140230178833,0.5084654092788696,0.3048602044582367
1686428348151475700,3.499475830078125,-0.18095722794532776,0.29935717582702637,0.33978942036628723
1686428348161420800,3.5094208984375,-0.03058071807026863,0.02455386519432068,0.2895645499229431
1686428348171366700,3.51936669921875,0.13229262828826904,-0.26943567395210266,0.1587897688150406
1686428348181311700,3.529311767578125,0.23802678287029266,-0.5643115043640137,-0.05959770083427429
1686428348191256800,3.5392568359375,0.25000301003456116,-0.7833831310272217,-0.3662351369857788
1686428348201202700,3.54920263671875,0.17604604363441467,-0.9503126740455627,-0.5671342015266418
1686428348211147800,3.559147705078125,0.04562918841838837,-0.9549300670623779,-0.5111287236213684
1686428348221093600,3.56909375,-0.08877429366111755,-0.6641612648963928,-0.31824231147766113
1686428348231038700,3.579038818359375,-0.22636118531227112,-0.32977473735809326,-0.08045372366905212
1686428348240984600,3.588984619140625,-0.3030543327331543,0.04541900381445885,0.13526639342308044
1686428348250930000,3.598929931640625,-0.35251107811927795,0.2926333248615265,0.34546756744384766
1686428348260875800,3.608875732421875,-0.4085315763950348,0.47183963656425476,0.4737977981567383
1686428348270820900,3.61882080078125,-0.4832015335559845,0.6042819023132324,0.45063096284866333
1686428348280766700,3.6287666015625,-0.49707648158073425,0.6682814359664917,0.3182041347026825
1686428348290711600,3.638711669921875,-0.5364073514938354,0.681029200553894,0.08881489187479019
1686428348300657700,3.64865771484375,-0.5489351153373718,0.6603175401687622,-0.17659394443035126
1686428348310602800,3.658602783203125,-0.4991132616996765,0.608315110206604,-0.4500819742679596
1686428348320548900,3.668548828125,-0.41462647914886475,0.5262264609336853,-0.6543987393379211
1686428348330493700,3.67849365234375,-0.33435747027397156,0.4934746325016022,-0.7226185202598572
1686428348340439800,3.688439697265625,-0.2853514552116394,0.540340781211853,-0.5793049335479736
1686428348350384600,3.698384521484375,-0.19291101396083832,0.7464467883110046,-0.41586488485336304
1686428348360330800,3.708330810546875,-0.0632660984992981,0.9404209852218628,-0.2884325087070465
1686428348370275800,3.71827587890625,-0.019048567861318588,1.0299854278564453,-0.1666538566350937
1686428348380222000,3.728221923828125,-0.014736240729689598,0.9448342323303223,-0.025486867874860764
1686428348390166800,3.738166748046875,-0.07397346943616867,0.7408901453018188,0.1386496126651764
1686428348400112600,3.748112548828125,-0.047262758016586304,0.497752845287323,0.342024028301239
1686428348410057700,3.7580576171875,-0.020202912390232086,0.28405389189720154,0.6079505681991577
1686428348420002800,3.7680029296875,0.047502607107162476,0.1660241186618805,0.9354683756828308
1686428348429949000,3.777948974609375,0.05419033020734787,0.1375402808189392,1.3379114866256714
1686428348439893800,3.787893798828125,-0.024494845420122147,0.27266252040863037,1.8052743673324585
1686428348449839900,3.79783984375,-0.1603861004114151,0.6510925889015198,2.2917709350585938
1686428348459784700,3.80778466796875,-0.29985079169273376,1.0996849536895752,2.626861095428467
1686428348469730800,3.817730712890625,-0.407723993062973,1.4378422498703003,2.6427950859069824
1686428348479675600,3.827675537109375,-0.4416850805282593,1.379683017730713,2.3450284004211426
1686428348489621800,3.837621826171875,-0.4457501471042633,0.88534015417099,1.9024945497512817
1686428348499566800,3.84756689453125,-0.413251131772995,0.5231003761291504,1.4952259063720703
1686428348509512700,3.8575126953125,-0.12922871112823486,0.3875202238559723,1.4361610412597656
1686428348519457800,3.867457763671875,0.2374083697795868,0.47672581672668457,1.465592861175537
1686428348529403600,3.877403564453125,0.6150795221328735,0.5235223770141602,1.113244891166687
1686428348539348700,3.8873486328125,0.5845013856887817,0.36025625467300415,0.6480731964111328
1686428348549294600,3.897294677734375,0.22734563052654266,0.22838714718818665,0.456267774105072
1686428348559239700,3.90723974609375,0.15054060518741608,0.21962375938892365,0.4460843801498413
1686428348569185800,3.917185791015625,0.257076621055603,0.13220734894275665,0.46381649374961853
1686428348579130600,3.927130615234375,0.4231124222278595,0.045814063400030136,0.38456377387046814
1686428348589076700,3.93707666015625,0.4736243486404419,0.15370804071426392,0.15060745179653168
1686428348599021600,3.947021484375,0.3807869851589203,0.08441314846277237,-0.19127780199050903
1686428348608967700,3.9569677734375,0.24890805780887604,0.1190776526927948,-0.4747830033302307
1686428348618912800,3.966912841796875,0.14518792927265167,0.3920976519584656,-0.5940532684326172
1686428348628859000,3.97685888671875,0.064581498503685,0.5348108410835266,-0.6804424524307251
1686428348638803700,3.9868037109375,0.10720951855182648,0.6352288722991943,-0.7600762248039246
1686428348648749800,3.996749755859375,0.16124239563941956,0.6532049775123596,-0.8209904432296753
1686428348658694700,4.006694580078125,0.1745128184556961,0.5771874785423279,-0.8572315573692322
1686428348668640800,4.016640869140625,0.18344666063785553,0.42303866147994995,-0.8702431917190552
1686428348678585900,4.0265859375,0.1944432258605957,0.26617515087127686,-0.8723368048667908
1686428348688531700,4.03653173828125,0.22748905420303345,0.2071067839860916,-0.9124794602394104
1686428348698476800,4.046476806640625,0.28998810052871704,0.31274861097335815,-1.0640548467636108
1686428348708422700,4.056422607421875,0.32293006777763367,0.4995259642601013,-1.4451148509979248
1686428348718367700,4.06636767578125,0.13631993532180786,0.43738216161727905,-1.8099088668823242
1686428348728312800,4.076312744140625,-0.1983906775712967,0.19413673877716064,-1.9703216552734375
1686428348738259000,4.086259033203125,-0.5440614819526672,-0.06654634326696396,-1.9179325103759766
1686428348748203800,4.096203857421875,-0.7773059010505676,-0.21661625802516937,-1.7803658246994019
1686428348758150000,4.10614990234375,-0.8386169672012329,-0.2765737771987915,-1.645609974861145
1686428348768094700,4.1160947265625,-0.7859857678413391,-0.410995751619339,-1.5231868028640747
1686428348778040600,4.12604052734375,-0.7285273671150208,-0.5926671028137207,-1.3940424919128418
1686428348787986000,4.13598583984375,-0.7029144167900085,-0.8082819581031799,-1.226208209991455
1686428348797931800,4.145931884765625,-0.6762564182281494,-0.9969221353530884,-1.025395154953003
1686428348807876900,4.155876953125,-0.6066866517066956,-1.0912059545516968,-0.8254245519638062
1686428348817822700,4.16582275390625,-0.5130298137664795,-1.0064140558242798,-0.656658947467804
1686428348827767800,4.175767822265625,-0.48123323917388916,-0.8322455286979675,-0.5466586947441101
1686428348837713700,4.185713623046875,-0.6255631446838379,-0.6547400951385498,-0.6118659973144531
1686428348847658800,4.19565869140625,-0.7409682869911194,-0.6117822527885437,-0.9565815925598145
1686428348857604900,4.20560498046875,-0.8453254103660583,-0.7763510346412659,-1.1929250955581665
1686428348867549700,4.2155498046875,-0.9078854322433472,-0.9516221880912781,-1.2895090579986572
1686428348877495800,4.225495849609375,-0.851028323173523,-1.0086902379989624,-1.2286916971206665
1686428348887440600,4.235440673828125,-0.725355863571167,-0.9576478600502014,-1.0698062181472778
1686428348897386800,4.24538671875,-0.5901486277580261,-0.8990288972854614,-0.8474424481391907
1686428348907331600,4.25533154296875,-0.4474618136882782,-0.8672512769699097,-0.6012340188026428
1686428348917277700,4.265277587890625,-0.3266202211380005,-0.9003922939300537,-0.3915964365005493
1686428348927222800,4.275222900390625,-0.19403578341007233,-1.1684666872024536,-0.206888347864151
1686428348937169000,4.2851689453125,-0.023934075608849525,-1.5783947706222534,-0.016387728974223137
1686428348947113700,4.29511376953125,0.22837726771831512,-1.7046754360198975,0.2670056223869324
1686428348957059800,4.305059814453125,0.5092949271202087,-1.6806212663650513,0.5918727517127991
1686428348967004700,4.315004638671875,0.7197403311729431,-1.8922611474990845,0.8204678893089294
1686428348976950500,4.324950439453125,0.7699194550514221,-1.9858537912368774,0.9209101796150208
1686428348986896000,4.334895751953125,0.5925129652023315,-1.2804878950119019,0.88653564453125
1686428348996841700,4.344841796875,0.24443340301513672,-0.20693936944007874,0.635970413684845
1686428349006786800,4.354786865234375,-0.1205379068851471,0.5346311330795288,0.13448520004749298
1686428349016732700,4.364732666015625,-0.3577500879764557,0.7549608945846558,-0.4817201495170593
1686428349026677800,4.374677734375,-0.4906516671180725,0.6321364045143127,-0.9665475487709045
1686428349036623600,4.38462353515625,-0.5044328570365906,0.4038884937763214,-1.1015466451644897
1686428349046568700,4.394568603515625,-0.37761473655700684,0.2719581723213196,-0.8301519751548767
1686428349056514800,4.404514892578125,-0.1658870279788971,0.07834863662719727,-0.24605782330036163
1686428349066459400,4.41445947265625,0.047156281769275665,-0.3585887551307678,0.4749259352684021
1686428349076405200,4.4244052734375,0.20524822175502777,-0.5809402465820312,0.9070166349411011
1686428349086350300,4.434350341796875,0.33049747347831726,-0.6046897768974304,0.8992231488227844
1686428349096296200,4.444296142578125,0.4907885789871216,-0.6773334741592407,0.6623638868331909
1686428349106241500,4.454241455078125,0.6318796873092651,-0.908866822719574,0.5061002373695374
1686428349116186400,4.464186279296875,0.7083842158317566,-0.9682866334915161,0.4351175129413605
1686428349126132500,4.474132568359375,0.6798737645149231,-0.8181458711624146,0.39819014072418213
1686428349136077300,4.484077392578125,0.5519229769706726,-0.5762137770652771,0.32658252120018005
1686428349146023200,4.494023193359375,0.3289615511894226,-0.2969190776348114,0.09724893420934677
1686428349155968500,4.503968505859375,0.08964938670396805,-0.025789175182580948,-0.24907717108726501
1686428349165914400,4.513914306640625,-0.10205720365047455,0.16106674075126648,-0.6287669539451599
1686428349175859500,4.523859375,-0.23871490359306335,0.15538553893566132,-0.9261921644210815
1686428349185805300,4.533805419921875,-0.33075374364852905,0.0463208332657814,-1.085633397102356
1686428349195750400,4.54375048828125,-0.39435264468193054,-0.012253686785697937,-1.1075103282928467
1686428349205696300,4.5536962890625,-0.4521147608757019,-0.024741515517234802,-1.0481595993041992
1686428349215641300,4.563641357421875,-0.48251500725746155,-0.14069074392318726,-0.9441810250282288
1686428349225587500,4.57358740234375,-0.44130977988243103,-0.3547985255718231,-0.7870001792907715
1686428349235532300,4.5835322265625,-0.3353176414966583,-0.5761997103691101,-0.5536571741104126
1686428349245478400,4.593478515625,-0.2209303379058838,-0.7371624708175659,-0.2812890410423279
1686428349255423200,4.60342333984375,-0.08603956550359726,-0.8070635199546814,-0.011662584729492664
1686428349265369300,4.613369384765625,0.058208152651786804,-0.8238462209701538,0.2162209153175354
1686428349275314400,4.623314453125,0.16831205785274506,-0.8121765851974487,0.3665172755718231
1686428349285260500,4.633260498046875,0.20737875998020172,-0.7716856598854065,0.45960062742233276
1686428349295205400,4.643205322265625,0.1782897412776947,-0.6364340782165527,0.5162572264671326
1686428349305151500,4.6531513671875,0.14897365868091583,-0.4238765239715576,0.5479312539100647
1686428349315096300,4.663096435546875,0.15859653055667877,-0.20120112597942352,0.5851181149482727
1686428349325042400,4.67304248046875,0.1767401248216629,0.008760897442698479,0.6042369604110718
1686428349334987500,4.682987548828125,0.15668030083179474,0.19572331011295319,0.5634243488311768
1686428349344933400,4.692933349609375,0.13071393966674805,0.38118794560432434,0.5010539293289185
1686428349354878500,4.70287841796875,0.14214785397052765,0.5249340534210205,0.620851457118988
1686428349364824300,4.71282421875,0.1754288375377655,0.7221379280090332,0.9470564723014832
1686428349374769400,4.722769287109375,0.18646687269210815,1.048214077949524,0.9925913214683533
1686428349384715300,4.73271533203125,0.17437584698200226,1.2909634113311768,0.7324130535125732
1686428349394660400,4.742660400390625,0.1538480818271637,1.4064409732818604,0.21370986104011536
1686428349404606500,4.7526064453125,0.12051329761743546,1.3735557794570923,-0.3842792510986328
1686428349414551300,4.76255126953125,0.049137912690639496,1.1870055198669434,-0.824340283870697
1686428349424497400,4.772497314453125,-0.0026573711074888706,0.9913209676742554,-0.9975818395614624
1686428349434442200,4.782442138671875,0.005739754065871239,0.8414725065231323,-0.9100285172462463
1686428349444388400,4.792388427734375,0.07958627492189407,0.7437805533409119,-0.634190559387207
1686428349454333200,4.802333251953125,0.16672903299331665,0.6910174489021301,-0.27842575311660767
1686428349464279300,4.812279296875,0.22744405269622803,0.6572522521018982,0.07532962411642075
1686428349474224400,4.822224365234375,0.26285499334335327,0.6902787089347839,0.3435843586921692
1686428349484170500,4.83217041015625,0.26671072840690613,0.7359346151351929,0.47959306836128235
1686428349494115300,4.842115234375,0.26358866691589355,0.7226595878601074,0.5116603374481201
1686428349504061400,4.8520615234375,0.2740279734134674,0.6570022702217102,0.4995831251144409
1686428349514006300,4.86200634765625,0.3251614272594452,0.5627745389938354,0.5118911862373352
1686428349523952400,4.871952392578125,0.40094298124313354,0.48544108867645264,0.6220502257347107
1686428349533897500,4.8818974609375,0.4621417224407196,0.490887850522995,0.8532654047012329
1686428349543843300,4.89184326171875,0.44724029302597046,0.5193964838981628,1.2776458263397217
1686428349553788400,4.901788330078125,0.309975802898407,0.6587764024734497,1.8903889656066895
1686428349563734300,4.911734375,0.07136964052915573,0.8368433713912964,2.6324143409729004
1686428349573679400,4.921679443359375,-0.0663255974650383,0.9691622257232666,3.28735089302063
1686428349583625200,4.931625244140625,0.12671415507793427,1.0154011249542236,3.7113540172576904
1686428349593570600,4.941570556640625,0.496761292219162,0.9980455040931702,3.813582181930542
1686428349603516400,4.951516357421875,0.7904738783836365,0.7766942381858826,3.64223313331604
1686428349613461200,4.961461181640625,0.8207894563674927,0.21261271834373474,3.2447006702423096
1686428349623407400,4.971407470703125,0.6620490550994873,-0.1951902061700821,2.6517767906188965
1686428349633352200,4.981352294921875,0.4740271270275116,0.015017294324934483,1.9058138132095337
1686428349643298300,4.99129833984375,0.35384586453437805,0.6597105264663696,1.1647210121154785
1686428349653243400,5.001243408203125,0.2233351767063141,0.9690590500831604,0.6374351978302002
1686428349663189500,5.011189453125,0.07970263063907623,0.679194450378418,0.3575257956981659
1686428349673134300,5.02113427734375,0.1153547465801239,0.2515849173069,0.1937583088874817
1686428349683079400,5.031079345703125,0.2990582585334778,-0.04103417322039604,0.013903594575822353
1686428349693025300,5.041025390625,0.4919434189796448,-0.1916714757680893,-0.2430545836687088
1686428349702970400,5.050970458984375,0.6314195990562439,-0.2593346834182739,-0.5655777454376221
1686428349712916500,5.06091650390625,0.6275736689567566,-0.07988811284303665,-0.9005358815193176
1686428349722861300,5.070861328125,0.43740639090538025,0.18266575038433075,-1.102628469467163
1686428349732807400,5.080807373046875,0.23355166614055634,0.4132789671421051,-1.129548192024231
1686428349742752300,5.090752197265625,0.11026861518621445,0.5812051296234131,-1.0201267004013062
1686428349752698400,5.100698486328125,0.008844937197864056,0.6229541897773743,-0.8580374121665955
1686428349762643500,5.1106435546875,-0.09163666516542435,0.5175920724868774,-0.7382487058639526
1686428349772589600,5.120589599609375,-0.18238776922225952,0.2929418683052063,-0.6991761326789856
1686428349782534400,5.130534423828125,-0.2771664559841156,0.08258648216724396,-0.7276386618614197
1686428349792480500,5.14048046875,-0.38394853472709656,-0.0993691235780716,-0.7654462456703186
1686428349802425300,5.15042529296875,-0.47879621386528015,-0.23430855572223663,-0.8025954961776733
1686428349812371200,5.16037109375,-0.5400581955909729,-0.31534039974212646,-0.8531014919281006
1686428349822316300,5.17031640625,-0.5755858421325684,-0.3286106586456299,-0.9158778190612793
1686428349832262400,5.180262451171875,-0.6085107326507568,-0.29927533864974976,-1.0147534608840942
1686428349842207500,5.19020751953125,-0.6542428135871887,-0.24592529237270355,-1.1750373840332031
1686428349852153300,5.2001533203125,-0.7005946040153503,-0.251034677028656,-1.378786563873291
1686428349862098400,5.210098388671875,-0.7554813027381897,-0.2810002863407135,-1.580324649810791
1686428349872044300,5.220044189453125,-0.7837080955505371,-0.3268001079559326,-1.7288639545440674
1686428349881989400,5.2299892578125,-0.7740751504898071,-0.38158372044563293,-1.800788402557373
1686428349891935200,5.239935302734375,-0.7196596264839172,-0.4701579213142395,-1.7799485921859741
1686428349901880300,5.24988037109375,-0.6184989213943481,-0.5986900925636292,-1.638749122619629
1686428349911826400,5.259826416015625,-0.4810612201690674,-0.7526490688323975,-1.3873704671859741
1686428349921771300,5.269771240234375,-0.38102835416793823,-0.896882176399231,-1.106040596961975
1686428349931717400,5.27971728515625,-0.33394885063171387,-0.9738368988037109,-0.8185321688652039
1686428349941662200,5.289662109375,-0.3673970699310303,-1.0035288333892822,-0.5518472194671631
1686428349951608300,5.2996083984375,-0.4752010107040405,-1.0680748224258423,-0.3482736647129059
1686428349961553400,5.309553466796875,-0.6005648374557495,-1.1642807722091675,-0.22671154141426086
1686428349971499500,5.31949951171875,-0.6825264096260071,-1.2008819580078125,-0.19725817441940308
1686428349981444400,5.3294443359375,-0.6693581342697144,-1.0950919389724731,-0.24296893179416656
1686428349991390500,5.339390380859375,-0.5970408320426941,-0.9349183440208435,-0.2964554727077484
1686428350001335300,5.349335205078125,-0.5069692730903625,-0.8390565514564514,-0.29523763060569763
1686428350011281200,5.35928125,-0.3869759738445282,-0.818774402141571,-0.2523282766342163
1686428350021226500,5.3692265625,-0.23547057807445526,-0.8591194748878479,-0.18373961746692657
1686428350031172400,5.37917236328125,-0.050521641969680786,-0.964461624622345,-0.1276635229587555
1686428350041117400,5.389117431640625,0.19020256400108337,-1.0049121379852295,-0.08038070797920227
1686428350051063300,5.399063232421875,0.6003978848457336,-1.0095041990280151,0.057183101773262024
1686428350061008600,5.409008544921875,1.1743154525756836,-0.9185487627983093,0.32793736457824707
1686428350070954800,5.418954833984375,1.7304532527923584,-1.2118027210235596,0.644366979598999
1686428350080899800,5.42889990234375,2.034649133682251,-1.977348804473877,0.8999814391136169
1686428350090845700,5.438845703125,1.8415976762771606,-2.4641165733337402,1.018612027168274
1686428350100790800,5.448790771484375,1.1500884294509888,-1.9438543319702148,0.816277027130127
1686428350110737000,5.45873681640625,0.39795055985450745,-1.051657795906067,0.3279440402984619
1686428350120681700,5.468681640625,-0.08047649264335632,-0.41247615218162537,-0.2370692938566208
1686428350130627600,5.478627685546875,-0.21319158375263214,0.30260777473449707,-0.62315434217453
1686428350140572700,5.48857275390625,-0.08102316409349442,1.3035632371902466,-0.5302116274833679
1686428350150518500,5.4985185546875,0.22339121997356415,1.8238890171051025,0.08967393636703491
1686428350160464000,5.5084638671875,0.6388810873031616,1.5385433435440063,0.7078191637992859
1686428350170409700,5.51840966796875,0.9044862389564514,0.4702525734901428,1.0559431314468384
1686428350180354800,5.528354736328125,0.9116038084030151,-0.18977034091949463,1.0571277141571045
1686428350190300700,5.53830078125,0.7816065549850464,-0.11915796250104904,0.6866954565048218
1686428350200245800,5.548245849609375,0.5600917339324951,0.039868973195552826,0.09796667844057083
1686428350210191600,5.558191650390625,0.3055247962474823,-0.12534479796886444,-0.4648267328739166
1686428350220136700,5.56813671875,0.08799248933792114,-0.4869445562362671,-0.8247007727622986
1686428350230082800,5.578082763671875,-0.14664560556411743,-0.8190683126449585,-0.884629487991333
1686428350240027600,5.588027587890625,-0.4826054871082306,-1.0070970058441162,-0.5748780369758606
1686428350249973800,5.597973876953125,-0.8974100351333618,-0.8601996302604675,-0.0003347313031554222
1686428350259918600,5.607918701171875,-1.2162346839904785,-0.3330114483833313,0.48644664883613586
1686428350269864700,5.61786474609375,-1.3147386312484741,0.2501881420612335,0.5412523746490479
1686428350279809800,5.627809814453125,-1.2578556537628174,0.7394593358039856,0.17421743273735046
1686428350289756000,5.637755859375,-1.1196900606155396,0.8701843619346619,-0.3625575602054596
1686428350299700700,5.64770068359375,-0.8638285398483276,0.5982676148414612,-0.7862457036972046
1686428350309646800,5.657646728515625,-0.5640993118286133,0.20118488371372223,-1.0349968671798706
1686428350319591700,5.667591796875,-0.3056539297103882,-0.08947758376598358,-1.1400768756866455
1686428350329537500,5.67753759765625,-0.10922524333000183,-0.18878981471061707,-1.0915766954421997
1686428350339483000,5.68748291015625,0.05824524164199829,-0.20464521646499634,-0.9212291836738586
1686428350349428700,5.6974287109375,0.233362078666687,-0.21381700038909912,-0.6959120631217957
1686428350359373800,5.707373779296875,0.3758034110069275,-0.22783908247947693,-0.48867762088775635
1686428350369319700,5.717319580078125,0.43514567613601685,-0.26686903834342957,-0.32184073328971863
1686428350379264800,5.7272646484375,0.41959095001220703,-0.3152749240398407,-0.18622858822345734
1686428350389210600,5.737210693359375,0.33813241124153137,-0.3747507333755493,-0.06592782586812973
1686428350399156000,5.747156005859375,0.22621120512485504,-0.38614240288734436,0.06025487184524536
1686428350409101800,5.757101806640625,0.13645142316818237,-0.23359131813049316,0.19106967747211456
1686428350419046700,5.767046630859375,0.060899410396814346,0.06829237192869186,0.33450832962989807
1686428350428992800,5.77699267578125,0.018089354038238525,0.3854161500930786,0.4643649756908417
1686428350438937600,5.7869375,0.00815096776932478,0.6429927945137024,0.551271915435791
1686428350448883700,5.7968837890625,0.029248487204313278,0.8431762456893921,0.5519417524337769
1686428350458828800,5.806828857421875,0.05730755254626274,0.9825692772865295,0.4580634534358978
1686428350468775000,5.81677490234375,0.019785244017839432,1.036952257156372,0.2638184130191803
1686428350478719700,5.8267197265625,-0.10365413129329681,1.049966812133789,-0.0217419620603323
1686428350488665900,5.836665771484375,-0.2543107867240906,1.0972570180892944,-0.35157689452171326
1686428350498610700,5.846610595703125,-0.3702895939350128,1.2080857753753662,-0.6672344207763672
1686428350508556800,5.856556884765625,-0.4084005653858185,1.3302817344665527,-0.9102876782417297
1686428350518501600,5.866501708984375,-0.3793420195579529,1.4294573068618774,-1.0228608846664429
1686428350528447700,5.87644775390625,-0.2894417941570282,1.4381043910980225,-0.9576987028121948
1686428350538392800,5.886392822265625,-0.1841910183429718,1.3677563667297363,-0.7261152267456055
1686428350548338700,5.896338623046875,-0.13091033697128296,1.207768440246582,-0.4230290651321411
1686428350558283800,5.90628369140625,-0.09191525727510452,1.0500651597976685,-0.12702405452728271
1686428350568229600,5.916229736328125,-0.012581484392285347,0.9009414315223694,0.1387811303138733
1686428350578174700,5.9261748046875,0.09896155446767807,0.8077811002731323,0.3354340195655823
1686428350588120600,5.93612060546875,0.20796984434127808,0.7479743957519531,0.4615834057331085
1686428350598066000,5.94606591796875,0.2998102903366089,0.6590506434440613,0.534214973449707
1686428350608011800,5.95601171875,0.36459970474243164,0.5062925815582275,0.5855363011360168
1686428350617956600,5.96595654296875,0.46365705132484436,0.2956061363220215,0.6607556939125061
1686428350627902700,5.97590283203125,0.6273401379585266,0.10673253983259201,0.8114312291145325
1686428350637847600,5.98584765625,0.8052206635475159,0.13625288009643555,1.0938010215759277
1686428350647793700,5.995793701171875,0.8890846371650696,0.4097042381763458,1.6132469177246094
1686428350657738800,6.00573876953125,0.688515305519104,0.8502504229545593,2.490917921066284
1686428350667684900,6.015684814453125,0.19175180792808533,0.9881325960159302,3.435351848602295
1686428350677629700,6.025629638671875,-0.20173928141593933,1.0380370616912842,3.9215846061706543
1686428350687575800,6.035575927734375,-0.26627880334854126,1.0511677265167236,3.7887461185455322
1686428350697520600,6.045520751953125,-0.0679585337638855,0.7827489972114563,3.31657338142395
1686428350707466800,6.055466796875,0.22230909764766693,0.3283625841140747,2.7272257804870605
1686428350717411800,6.065411865234375,0.34872081875801086,0.1468399465084076,2.1022353172302246
1686428350727357700,6.075357666015625,0.3243083357810974,0.29134777188301086,1.4507781267166138
1686428350737302800,6.085302734375,0.18881577253341675,0.47043576836586,0.9445183873176575
1686428350747248600,6.09524853515625,-0.03338121995329857,0.40957871079444885,0.6792683005332947
1686428350757193700,6.10519384765625,-0.1609482318162918,0.23453845083713531,0.6178858876228333
1686428350767139600,6.1151396484375,-0.02485736459493637,0.05182304605841637,0.5831004977226257
1686428350777085000,6.1250849609375,0.2699412405490875,-0.04859650135040283,0.4463868737220764
1686428350787030800,6.13503076171875,0.5383305549621582,-0.09309783577919006,0.17012281715869904
1686428350796975900,6.144975830078125,0.6755142211914062,-0.1259615123271942,-0.26830461621284485
1686428350806921700,6.154921630859375,0.6077855825424194,-0.08150161057710648,-0.767860472202301
1686428350816866600,6.164866455078125,0.37177038192749023,0.12216869741678238,-1.1272000074386597
1686428350826812700,6.174812744140625,0.13124661147594452,0.38044214248657227,-1.2526201009750366
1686428350836757800,6.1847578125,-0.03466193377971649,0.6117730736732483,-1.1807000637054443
1686428350846703900,6.194703857421875,-0.11640626937150955,0.767371416091919,-1.0065802335739136
1686428350856648700,6.204648681640625,-0.12942060828208923,0.799190878868103,-0.8362224102020264
1686428350866594800,6.2145947265625,-0.13310866057872772,0.6804458498954773,-0.7141457200050354
1686428350876539600,6.22453955078125,-0.1747298687696457,0.4668837785720825,-0.6580512523651123
1686428350886485800,6.23448583984375,-0.24584951996803284,0.23499754071235657,-0.6678867936134338
1686428350896430800,6.244430908203125,-0.31329140067100525,0.01645427942276001,-0.710680365562439
1686428350906377000,6.254376953125,-0.39484378695487976,-0.17482532560825348,-0.7946710586547852
1686428350916321800,6.26432177734375,-0.46741625666618347,-0.30568772554397583,-0.9018760919570923
1686428350926268000,6.274267822265625,-0.5145000219345093,-0.22696340084075928,-0.9920963644981384
1686428350936212700,6.284212646484375,-0.5485570430755615,-0.053309861570596695,-1.0855467319488525
1686428350946158600,6.29415869140625,-0.5881563425064087,0.06324555724859238,-1.1957138776779175
1686428350956103700,6.304103759765625,-0.6515060067176819,0.12085852026939392,-1.3087031841278076
1686428350966049800,6.3140498046875,-0.7111977338790894,0.1060367077589035,-1.4083728790283203
1686428350975995000,6.323994873046875,-0.7521898746490479,0.03455080837011337,-1.476406216621399
1686428350985940700,6.333940673828125,-0.7886179089546204,-0.11364901065826416,-1.5176753997802734
1686428350995885800,6.3438857421875,-0.8188988566398621,-0.333395779132843,-1.5114647150039673
1686428351005831700,6.353831787109375,-0.8089787364006042,-0.5918710231781006,-1.434793472290039
1686428351015776500,6.363776611328125,-0.7606239914894104,-0.8506437540054321,-1.3108024597167969
1686428351025722600,6.37372265625,-0.6777318120002747,-1.0334209203720093,-1.1306984424591064
1686428351035667700,6.383667724609375,-0.5602914690971375,-1.0664374828338623,-0.8790336847305298
1686428351045613800,6.39361376953125,-0.4831485450267792,-0.993935763835907,-0.6191585063934326
1686428351055558700,6.40355859375,-0.4848324656486511,-0.920259952545166,-0.3921663463115692
1686428351065504500,6.41350439453125,-0.558836817741394,-0.9186251759529114,-0.2584630250930786
1686428351075449300,6.423449462890625,-0.6940188407897949,-0.9539507031440735,-0.2246411144733429
1686428351085395500,6.4333955078125,-0.7551856637001038,-0.9488007426261902,-0.2520672380924225
1686428351095340500,6.443340576171875,-0.7168686389923096,-0.9561510682106018,-0.28354689478874207
1686428351105286700,6.45328662109375,-0.6074095964431763,-0.9306846261024475,-0.2837490141391754
1686428351115231500,6.4632314453125,-0.470143586397171,-0.8797785639762878,-0.26688748598098755
1686428351125177300,6.47317724609375,-0.3232082724571228,-0.8470778465270996,-0.25042596459388733
1686428351135122400,6.483122314453125,-0.09703399240970612,-0.8774248361587524,-0.23787419497966766
1686428351145068300,6.493068359375,0.3426767885684967,-0.8696094155311584,-0.11316896975040436
1686428351155013600,6.503013671875,0.9916335344314575,-0.5842460989952087,0.26358604431152344
1686428351164959500,6.51295947265625,1.6603434085845947,-0.5308509469032288,0.8173071146011353
1686428351174904600,6.522904541015625,2.116570234298706,-1.344360589981079,1.3214131593704224
1686428351184850400,6.532850341796875,2.0330913066864014,-2.3913447856903076,1.661961555480957
1686428351194795500,6.54279541015625,1.3338536024093628,-2.3806328773498535,1.5897400379180908
1686428351204741400,6.552741455078125,0.41420629620552063,-1.4250799417495728,1.0749841928482056
1686428351214686500,6.5626865234375,-0.17392992973327637,-0.4012436270713806,0.37618502974510193
1686428351224632600,6.572632568359375,-0.31467798352241516,0.30971524119377136,-0.287929505109787
1686428351234577400,6.582577392578125,-0.1438138484954834,0.9877225160598755,-0.6980634927749634
1686428351244523500,6.5925234375,0.1408921331167221,1.481796383857727,-0.608830451965332
1686428351254468400,6.60246826171875,0.39348122477531433,1.8414586782455444,-0.11125393956899643
1686428351264414500,6.61241455078125,0.47703516483306885,1.42628812789917,0.4709281623363495
1686428351274359600,6.622359619140625,0.36175039410591125,0.29765084385871887,0.9150552749633789
1686428351284305700,6.6323056640625,0.2764968276023865,-0.2411603331565857,0.9666630029678345
1686428351294250500,6.64225048828125,0.26913318037986755,-0.1734449416399002,0.5916036367416382
1686428351304196600,6.652196533203125,0.28417348861694336,-0.1431848555803299,0.00375449750572443
1686428351314141400,6.662141357421875,0.2991873323917389,-0.2975240647792816,-0.5560960173606873
1686428351324087300,6.67208740234375,0.21773076057434082,-0.4015985131263733,-0.9557703137397766
1686428351334032600,6.68203271484375,-0.06259997189044952,-0.37031516432762146,-1.083762526512146
1686428351343978500,6.691978515625,-0.4802898168563843,-0.19134211540222168,-0.8441247940063477
1686428351353923600,6.701923583984375,-0.8874821066856384,0.08611452579498291,-0.3539039194583893
1686428351363869400,6.711869384765625,-1.1343896389007568,0.42047053575515747,0.06639896333217621
1686428351373814500,6.721814453125,-1.1995640993118286,0.6653289794921875,0.13982738554477692
1686428351383760400,6.731760498046875,-1.1132476329803467,0.8611416816711426,-0.10781578719615936
1686428351393705700,6.741705810546875,-0.9250487089157104,0.8055271506309509,-0.457009494304657
1686428351403651600,6.751651611328125,-0.6789357662200928,0.44568997621536255,-0.7325512170791626
1686428351413596400,6.761596435546875,-0.4352858066558838,0.05455760657787323,-0.8896934390068054
1686428351423542500,6.77154248046875,-0.23989106714725494,-0.22093310952186584,-0.928816020488739
1686428351433487400,6.7814873046875,-0.09899359941482544,-0.4007561206817627,-0.8652561902999878
1686428351443433500,6.79143359375,0.033942170441150665,-0.5254999399185181,-0.6996982097625732
1686428351453378600,6.801378662109375,0.15396897494792938,-0.6123237609863281,-0.49713897705078125
1686428351463324700,6.81132470703125,0.2279108762741089,-0.6612353324890137,-0.294388085603714
1686428351473269500,6.82126953125,0.23108722269535065,-0.6862701177597046,-0.11947700381278992
1686428351483215600,6.831215576171875,0.14790210127830505,-0.7157094478607178,0.015071235597133636
1686428351493160400,6.841160400390625,0.03349322825670242,-0.703809380531311,0.10996925830841064
1686428351503106600,6.8511064453125,-0.06297959387302399,-0.6409279704093933,0.1858498752117157
1686428351513051400,6.861051513671875,-0.1033049151301384,-0.5112999677658081,0.276425838470459
1686428351522997500,6.87099755859375,-0.06250287592411041,-0.28820478916168213,0.3785634934902191
1686428351532942600,6.880942626953125,0.02735830470919609,-0.040755048394203186,0.480150043964386
1686428351542888400,6.890888427734375,0.1348744034767151,0.17408856749534607,0.5746650099754333
1686428351552833500,6.90083349609375,0.23079800605773926,0.3422815799713135,0.6360442042350769
1686428351562779400,6.910779296875,0.27898597717285156,0.43506234884262085,0.6220659017562866
1686428351572724500,6.920724365234375,0.2183537781238556,0.45576709508895874,0.49539217352867126
1686428351582670300,6.93067041015625,0.07231374084949493,0.5244874358177185,0.2568840980529785
1686428351592615700,6.94061572265625,-0.08905491232872009,0.725969135761261,-0.0413939468562603
1686428351602561500,6.9505615234375,-0.18482334911823273,0.9881429672241211,-0.3651275336742401
1686428351612506400,6.96050634765625,-0.19334280490875244,1.1695588827133179,-0.6300646662712097
1686428351622452500,6.970452392578125,-0.10790087282657623,1.2024435997009277,-0.7524054646492004
1686428351632397300,6.980397216796875,0.01920807734131813,1.108579397201538,-0.717242956161499
1686428351642343400,6.990343505859375,0.06896569579839706,0.9824218153953552,-0.5780805945396423
1686428351652288500,7.00028857421875,0.048106223344802856,0.8720494508743286,-0.3926720917224884
1686428351662234600,7.010234619140625,0.040117502212524414,0.8408900499343872,-0.21588169038295746
1686428351672179500,7.020179443359375,0.07397560775279999,0.8723545074462891,-0.07708386331796646
1686428351682125600,7.03012548828125,0.12944895029067993,0.8976067304611206,0.03136664628982544
1686428351692071400,7.040071533203125,0.2052512913942337,0.8720683455467224,0.15335699915885925
1686428351702016500,7.0500166015625,0.3081969916820526,0.8614912033081055,0.3581363260746002
1686428351711962400,7.05996240234375,0.4678526818752289,0.8258573412895203,0.6541695594787598
1686428351721907500,7.069907470703125,0.61368328332901,0.8670182824134827,1.0665802955627441
1686428351731853600,7.079853515625,0.6643584370613098,1.0915659666061401,1.645269513130188
1686428351741798400,7.08979833984375,0.5540769100189209,1.4420970678329468,2.4342708587646484
1686428351751744500,7.09974462890625,0.2917878031730652,1.5382946729660034,3.228148937225342
1686428351761689300,7.109689453125,0.11528073251247406,1.3058019876480103,3.670199155807495
1686428351771635500,7.119635498046875,0.10799965262413025,0.9951573014259338,3.6010143756866455
1686428351781580500,7.12958056640625,0.25601726770401,0.6120712757110596,3.2322564125061035
1686428351791526700,7.139526611328125,0.42917466163635254,0.15486590564250946,2.71317458152771
1686428351801471500,7.149471435546875,0.4557042717933655,-0.10309387743473053,2.159292221069336
1686428351811417600,7.15941748046875,0.3819592297077179,0.08787475526332855,1.6011853218078613
1686428351821362400,7.169362548828125,0.31964871287345886,0.5542917847633362,1.107013463973999
1686428351831308500,7.17930859375,0.25288301706314087,0.8881549835205078,0.8072773218154907
1686428351841253600,7.189253662109375,0.11443453282117844,0.8792436718940735,0.7101877927780151
1686428351851199500,7.199199462890625,0.03894536569714546,0.5828828811645508,0.697426438331604
1686428351861144600,7.20914453125,0.1522509604692459,0.21852487325668335,0.6086180806159973
1686428351871090400,7.21909033203125,0.3794899880886078,-0.0064637791365385056,0.3434024155139923
1686428351881035500,7.229035400390625,0.5833650827407837,-0.19085772335529327,-0.11522224545478821
1686428351890981400,7.2389814453125,0.6522964835166931,-0.18540143966674805,-0.6725746989250183
1686428351900926500,7.248926513671875,0.5206193923950195,-0.022550757974386215,-1.1091008186340332
1686428351910872600,7.25887255859375,0.30991485714912415,0.17236439883708954,-1.2667673826217651
1686428351920817700,7.268817626953125,0.10881736129522324,0.33346301317214966,-1.1461764574050903
1686428351930763500,7.278763427734375,-0.0386437363922596,0.5041812062263489,-0.8488787412643433
1686428351940708400,7.288708251953125,-0.12349458783864975,0.598690927028656,-0.5431272387504578
1686428351950654500,7.298654541015625,-0.13175678253173828,0.5361732244491577,-0.39361312985420227
1686428351960599300,7.308599365234375,-0.1477963626384735,0.34776777029037476,-0.451731413602829
1686428351970545400,7.31854541015625,-0.21337324380874634,0.11381441354751587,-0.640217661857605
1686428351980490500,7.328490478515625,-0.3158470094203949,-0.05976481735706329,-0.8574022650718689
1686428351990436600,7.3384365234375,-0.37818652391433716,-0.15794384479522705,-1.0381178855895996
1686428352000381400,7.34838134765625,-0.4003225564956665,-0.18164652585983276,-1.1808249950408936
1686428352010327600,7.35832763671875,-0.419599324464798,-0.12436271458864212,-1.322382926940918
1686428352020272400,7.3682724609375,-0.4633062481880188,-0.020146455615758896,-1.4815465211868286
1686428352030218500,7.378218505859375,-0.537182629108429,0.06490958482027054,-1.6456362009048462
1686428352040163600,7.38816357421875,-0.6127006411552429,0.11076049506664276,-1.7727749347686768
1686428352050109400,7.398109375,-0.6781491637229919,0.1148681566119194,-1.8467365503311157
1686428352060054500,7.408054443359375,-0.7279170751571655,0.04305987432599068,-1.8305175304412842
1686428352070000600,7.418000732421875,-0.762634813785553,-0.11648211628198624,-1.7054455280303955
1686428352079945500,7.427945556640625,-0.7466898560523987,-0.33042722940444946,-1.4833731651306152
1686428352089891300,7.437891357421875,-0.6869814991950989,-0.5335127115249634,-1.2096079587936401
1686428352099836700,7.447836669921875,-0.6163679361343384,-0.7715461254119873,-0.9515576958656311
1686428352109782500,7.457782470703125,-0.5452069044113159,-0.9478012919425964,-0.7184376120567322
1686428352119727600,7.4677275390625,-0.4893089234828949,-1.0287162065505981,-0.5370311141014099
1686428352129673500,7.477673583984375,-0.48050716519355774,-1.0112950801849365,-0.43453454971313477
1686428352139618600,7.48761865234375,-0.5183226466178894,-0.9448114037513733,-0.4014090895652771
1686428352149564400,7.497564453125,-0.5774901509284973,-0.8317580819129944,-0.4175896644592285
1686428352159509500,7.507509521484375,-0.6229708194732666,-0.7269912958145142,-0.44599950313568115
1686428352169455600,7.51745556640625,-0.6189725995063782,-0.707653284072876,-0.4417523145675659
1686428352179400400,7.527400390625,-0.5725663900375366,-0.6795667409896851,-0.38579249382019043
1686428352189346600,7.5373466796875,-0.4828066825866699,-0.7043096423149109,-0.3163108825683594
1686428352199291400,7.54729150390625,-0.32752087712287903,-0.7620623111724854,-0.2704351246356964
1686428352209237500,7.557237548828125,-0.030813852325081825,-0.8812739253044128,-0.19244126975536346
1686428352219182600,7.5671826171875,0.5319911241531372,-0.7150284647941589,0.060754917562007904
1686428352229128700,7.577128662109375,1.2573765516281128,-0.43163856863975525,0.5100741386413574
1686428352239073500,7.587073486328125,1.8798415660858154,-0.9623709321022034,0.9050213694572449
1686428352249019600,7.59701953125,2.0713613033294678,-2.224862575531006,1.0764110088348389
1686428352258964500,7.606964599609375,1.6590793132781982,-2.813140392303467,1.1340579986572266
1686428352268910600,7.61691064453125,0.8790597319602966,-2.161695718765259,1.0269200801849365
1686428352278855700,7.626855712890625,0.19281426072120667,-1.142007827758789,0.7498650550842285
1686428352288801500,7.636801513671875,-0.10695833712816238,-0.34813156723976135,0.413258820772171
1686428352298746600,7.64674658203125,-0.028487462550401688,0.3165610432624817,0.0970960482954979
1686428352308692500,7.6566923828125,0.21811486780643463,1.2835822105407715,0.022006895393133163
1686428352318637600,7.666637451171875,0.4913996458053589,1.901490330696106,0.4136911928653717
1686428352328583400,7.67658349609375,0.71194988489151,1.9280208349227905,1.0111453533172607
1686428352338529500,7.686529541015625,0.7130077481269836,1.0509241819381714,1.3408184051513672
1686428352348474600,7.696474609375,0.5258330702781677,-0.10227619856595993,1.3575252294540405
1686428352358420700,7.706420654296875,0.34601375460624695,-0.5796496868133545,1.0385582447052002
1686428352368365600,7.716365478515625,0.25858375430107117,-0.4391314685344696,0.3892521560192108
1686428352378311700,7.726311767578125,0.25231000781059265,-0.4262799322605133,-0.37722426652908325
1686428352388256500,7.736256591796875,0.25061464309692383,-0.6632797122001648,-1.0315054655075073
1686428352398202400,7.746202392578125,0.05128155276179314,-0.8205550312995911,-1.3877098560333252
1686428352408147500,7.7561474609375,-0.33774450421333313,-0.7600378394126892,-1.3107993602752686
1686428352418093600,7.766093505859375,-0.7694227695465088,-0.5036398768424988,-0.8253391981124878
1686428352428038700,7.77603857421875,-1.075128197669983,-0.13888269662857056,-0.23811271786689758
1686428352437984500,7.785984619140625,-1.2500728368759155,0.28713005781173706,0.0953344851732254
1686428352447929600,7.7959296875,-1.2588170766830444,0.6135110855102539,0.013842284679412842
1686428352457875500,7.80587548828125,-1.0569127798080444,0.6307326555252075,-0.3035065233707428
1686428352467820500,7.815820556640625,-0.7194220423698425,0.4375157654285431,-0.6067175269126892
1686428352477766400,7.825766357421875,-0.41985100507736206,0.007262152619659901,-0.83609938621521
1686428352487711500,7.83571142578125,-0.205491840839386,-0.33207622170448303,-1.0015649795532227
1686428352497657600,7.84565771484375,-0.07195238769054413,-0.46607697010040283,-1.0761243104934692
1686428352507602400,7.8556025390625,0.006935239769518375,-0.5214174389839172,-1.0489842891693115
1686428352517548500,7.865548583984375,0.04964306578040123,-0.5683977603912354,-0.9343363642692566
1686428352527493400,7.875493408203125,0.05963417887687683,-0.6247076392173767,-0.780613124370575
1686428352537439500,7.885439453125,0.04314887523651123,-0.6508848071098328,-0.6246076226234436
1686428352547384600,7.895384521484375,-0.002288916613906622,-0.6321470737457275,-0.4764551520347595
1686428352557330700,7.90533056640625,-0.05828982591629028,-0.5375675559043884,-0.3116217851638794
1686428352567275500,7.915275634765625,-0.1107860580086708,-0.3553943336009979,-0.10319853574037552
1686428352577221600,7.9252216796875,-0.12853007018566132,-0.11486466974020004,0.12929368019104004
1686428352587166500,7.93516650390625,-0.1169692873954773,0.15673887729644775,0.3717137575149536
1686428352597112600,7.945112548828125,-0.07853645831346512,0.4105740785598755,0.572745680809021
1686428352607057700,7.9550576171875,-0.01788962259888649,0.6217515468597412,0.6765839457511902
1686428352617003500,7.96500341796875,0.03737194091081619,0.7895010113716125,0.6662877798080444
1686428352626948600,7.974948486328125,0.06865503638982773,0.8479853868484497,0.5515228509902954
1686428352636894500,7.98489453125,0.06403280049562454,0.8253549337387085,0.33388251066207886
1686428352646839600,7.994839599609375,0.02377060055732727,0.7534410953521729,0.06990333646535873
1686428352656785400,8.004785400390626,-0.057164691388607025,0.7112196683883667,-0.19850465655326843
1686428352666730800,8.014730712890625,-0.13805395364761353,0.7695450186729431,-0.435424268245697
1686428352676676600,8.024676513671874,-0.179074227809906,0.9121233820915222,-0.6193464398384094
1686428352686621400,8.034621337890625,-0.1923796534538269,1.067787766456604,-0.7205236554145813
1686428352696567600,8.044567626953125,-0.1823238581418991,1.17270827293396,-0.7304482460021973
1686428352706512400,8.054512451171876,-0.15631648898124695,1.2387572526931763,-0.6719487309455872
1686428352716458500,8.06445849609375,-0.13470740616321564,1.2693125009536743,-0.561138927936554
1686428352726403600,8.074403564453124,-0.11309053003787994,1.3174129724502563,-0.4351584017276764
1686428352736349700,8.084349609375,-0.07850657403469086,1.3925093412399292,-0.3158527612686157
1686428352746294500,8.09429443359375,-0.035778019577264786,1.4679417610168457,-0.2054024040699005
1686428352756240600,8.10424072265625,0.005743165500462055,1.4890104532241821,-0.12210571020841599
1686428352766185500,8.114185546875,0.044164855033159256,1.4217156171798706,-0.0789201557636261
1686428352776131600,8.124131591796875,0.09896854311227798,1.277415156364441,-0.08973858505487442
1686428352786077400,8.134077392578124,0.17194928228855133,1.0173407793045044,-0.1294148862361908
1686428352796022500,8.1440224609375,0.22601459920406342,0.725936770439148,-0.14207956194877625
1686428352805968600,8.15396875,0.2650514841079712,0.4310949742794037,-0.07897622883319855
1686428352815913500,8.16391357421875,0.33657026290893555,0.20949681103229523,0.07328525185585022
1686428352825859600,8.173859619140625,0.4711379110813141,0.05128613859415054,0.33686283230781555
1686428352835804400,8.183804443359374,0.661040186882019,0.011947577819228172,0.7210015654563904
1686428352845750500,8.19375048828125,0.8066080212593079,0.22239349782466888,1.3244152069091797
1686428352855695400,8.2036953125,0.7707677483558655,0.8343812227249146,2.2529773712158203
1686428352865641500,8.213641357421874,0.5117965936660767,1.3584226369857788,3.4121458530426025
1686428352875586600,8.223586669921875,0.17896269261837006,1.363406777381897,4.314198017120361
1686428352885532700,8.23353271484375,0.041247718036174774,1.1131770610809326,4.7298502922058105
1686428352895477500,8.2434775390625,0.03538309782743454,0.6856581568717957,4.554550647735596
1686428352905423600,8.253423583984375,0.030062368139624596,0.2506079077720642,3.8511219024658203
1686428352915368400,8.263368408203124,-0.010816967114806175,0.16185921430587769,2.9255173206329346
1686428352925314300,8.273314208984376,-0.03166845068335533,0.4033370912075043,1.9574440717697144
1686428352935259600,8.283259765625,-0.06133709475398064,0.6305913925170898,1.1408343315124512
1686428352945205500,8.29320556640625,-0.1396862268447876,0.6247055530548096,0.6091456413269043
1686428352955150600,8.303150634765625,-0.2113705724477768,0.45928269624710083,0.3137611448764801
1686428352965096400,8.313096435546875,-0.08876822143793106,0.34432175755500793,0.07518719136714935
1686428352975041500,8.32304150390625,0.19952313601970673,0.3623685836791992,-0.25854921340942383
1686428352984987400,8.3329873046875,0.4835096001625061,0.4665980637073517,-0.7119672894477844
1686428352994932700,8.3429326171875,0.566194474697113,0.5270024538040161,-1.2570903301239014
1686428353004878600,8.352878662109376,0.3887384533882141,0.620870053768158,-1.67562735080719
1686428353014823400,8.362823486328125,0.09821939468383789,0.7610428929328918,-1.813344955444336
1686428353024769500,8.37276953125,-0.1447487771511078,0.9556984305381775,-1.6345716714859009
1686428353034714400,8.38271435546875,-0.2872826159000397,1.1348602771759033,-1.2240612506866455
1686428353044660500,8.392660400390625,-0.3082616627216339,1.1849322319030762,-0.7720987200737
1686428353054605600,8.40260546875,-0.22427065670490265,0.9538944363594055,-0.4358958899974823
1686428353064552200,8.41255224609375,-0.17561550438404083,0.5866714119911194,-0.3090292811393738
1686428353074497000,8.4224970703125,-0.24642643332481384,0.3182767629623413,-0.36687490344047546
1686428353084443100,8.432443115234374,-0.3935234844684601,0.21118786931037903,-0.5570616126060486
1686428353094388000,8.442387939453125,-0.5300723910331726,0.22717297077178955,-0.8063458204269409
1686428353104334000,8.452333984375,-0.5857667922973633,0.3107163608074188,-1.0459927320480347
1686428353114279000,8.46227880859375,-0.5832608342170715,0.43819767236709595,-1.2398823499679565
1686428353124225000,8.47222509765625,-0.5913573503494263,0.6042398810386658,-1.3953629732131958
1686428353134171100,8.482171142578125,-0.6243038177490234,0.7850636839866638,-1.5259767770767212
1686428353144116000,8.492115966796876,-0.6854119300842285,0.9375682473182678,-1.640687108039856
1686428353154062000,8.50206201171875,-0.7483194470405579,0.9768503308296204,-1.7180535793304443
1686428353164007000,8.5120068359375,-0.8091955780982971,0.9237290620803833,-1.7578762769699097
1686428353173953000,8.521953125,-0.8685110807418823,0.7809614539146423,-1.7451906204223633
1686428353183897900,8.53189794921875,-0.9538187980651855,0.5859352350234985,-1.664384126663208
1686428353193844000,8.541843994140624,-1.0474082231521606,0.3441203236579895,-1.511924386024475
1686428353203789000,8.5517890625,-1.0823781490325928,0.05176835507154465,-1.2972640991210938
1686428353213735200,8.561735107421875,-0.9973281025886536,-0.22643956542015076,-1.0280547142028809
1686428353223680000,8.571679931640626,-0.7910670638084412,-0.25065675377845764,-0.6759051084518433
1686428353233626000,8.581626220703125,-0.5562584400177002,-0.11418509483337402,-0.30622562766075134
1686428353243571000,8.591571044921874,-0.3874547779560089,-0.023928705602884293,-0.0358966663479805
1686428353253517000,8.60151708984375,-0.4045577645301819,-0.06874784082174301,0.06119685247540474
1686428353263462100,8.611462158203125,-0.5131729245185852,-0.17872999608516693,0.0010749264620244503
1686428353273408000,8.621407958984374,-0.5165642499923706,-0.24155861139297485,-0.14058417081832886
1686428353283353000,8.63135302734375,-0.39496326446533203,-0.2781115472316742,-0.26639991998672485
1686428353293299000,8.641298828125,-0.22635583579540253,-0.2949143052101135,-0.34138450026512146
1686428353303244000,8.651244140625,-0.07074413448572159,-0.23556149005889893,-0.369479238986969
1686428353313190000,8.66118994140625,0.0113627128303051,-0.17205114662647247,-0.36375123262405396
1686428353323135200,8.67113525390625,0.05016816407442093,-0.18912148475646973,-0.3310300409793854
1686428353333081000,8.6810810546875,0.12485401332378387,-0.26734185218811035,-0.26720836758613586
1686428353343026000,8.69102587890625,0.2712077498435974,-0.3617277443408966,-0.06945160031318665
1686428353352972000,8.700971923828124,0.545814037322998,-0.31393831968307495,0.42238059639930725
1686428353362916900,8.710916748046875,0.8538272380828857,-0.42417213320732117,1.21444571018219
1686428353372863000,8.720863037109375,1.0188425779342651,-0.7818933725357056,1.8717278242111206
1686428353382808000,8.73080810546875,1.0189129114151,-1.034091591835022,1.9447245597839355
1686428353392754200,8.740754150390625,0.789467990398407,-0.6652513742446899,1.1859182119369507
1686428353402699000,8.750698974609374,0.4249456822872162,0.19093921780586243,-0.060225438326597214
1686428353412645000,8.76064501953125,0.16096358001232147,0.794727623462677,-1.1556423902511597
1686428353422591000,8.770591064453125,0.2065097689628601,1.1105034351348877,-1.8542158603668213
1686428353432536000,8.7805361328125,0.45205190777778625,1.4495089054107666,-1.8291223049163818
1686428353442482000,8.79048193359375,0.7543995380401611,1.5292832851409912,-0.8688748478889465
1686428353452427300,8.80042724609375,1.0827125310897827,1.062551498413086,0.5182727575302124
1686428353462373000,8.810373046875,1.1902440786361694,0.2606086730957031,1.4720038175582886
1686428353472318000,8.82031787109375,1.1174674034118652,-0.21118074655532837,1.5671043395996094
1686428353482264000,8.83026416015625,0.9134991765022278,-0.2761695981025696,1.0130994319915771
1686428353492209000,8.840208984375,0.4960809051990509,-0.08111146837472916,0.2284204363822937
1686428353502155000,8.850155029296875,-0.14723175764083862,0.16956709325313568,-0.4564838707447052
1686428353512100000,8.86010009765625,-0.6279019117355347,0.2907266318798065,-0.7323532700538635
1686428353522046200,8.870046142578126,-0.8672024011611938,0.2564048767089844,-0.5325424075126648
1686428353531991000,8.879990966796875,-1.0145598649978638,0.1433044970035553,-0.027963383123278618
1686428353541937200,8.889937255859374,-1.1619621515274048,0.20160295069217682,0.42967769503593445
1686428353551882000,8.899882080078125,-1.2878987789154053,0.38997969031333923,0.491901159286499
1686428353561828000,8.909828125,-1.3924046754837036,0.49669599533081055,0.06070263311266899
1686428353571773000,8.91977294921875,-1.354834794998169,0.5647172927856445,-0.5873663425445557
1686428353581719000,8.929718994140625,-1.0973174571990967,0.44935792684555054,-1.151366949081421
1686428353591664000,8.9396640625,-0.7412582635879517,0.2758171856403351,-1.4303523302078247
1686428353601610000,8.94960986328125,-0.4444679021835327,0.049772344529628754,-1.4694949388504028
1686428353611555000,8.95955517578125,-0.2393782138824463,-0.16537675261497498,-1.4189984798431396
1686428353621501000,8.9695009765625,-0.0813496932387352,-0.2766058146953583,-1.3495115041732788
1686428353631446000,8.979446044921875,0.07023195922374725,-0.3394494354724884,-1.2484968900680542
1686428353641391900,8.989391845703125,0.20775359869003296,-0.32318949699401855,-1.1488425731658936
1686428353651337200,8.999337158203126,0.3074323534965515,-0.34376198053359985,-1.0586144924163818
1686428353661283000,9.009282958984375,0.34584951400756836,-0.37418538331985474,-0.9729633331298828
1686428353671228000,9.019227783203124,0.282533198595047,-0.41716518998146057,-0.8909586668014526
1686428353681174000,9.029174072265626,0.12167879939079285,-0.43113240599632263,-0.7858173251152039
1686428353691118800,9.039118896484375,-0.04770147427916527,-0.38724133372306824,-0.6483911871910095
1686428353701065000,9.04906494140625,-0.19271406531333923,-0.1262451410293579,-0.49096667766571045
1686428353711010800,9.0590107421875,-0.29245027899742126,0.19596989452838898,-0.3269854187965393
1686428353720956200,9.0689560546875,-0.3624964654445648,0.6176766157150269,-0.20188315212726593
1686428353730902000,9.078902099609374,-0.3616405129432678,0.9148005843162537,-0.12496725469827652
1686428353740847000,9.08884716796875,-0.26995745301246643,1.0475664138793945,-0.09359894692897797
1686428353750793000,9.09879296875,-0.1374850869178772,1.1778489351272583,-0.09763169288635254
1686428353760738000,9.108738037109376,-0.039334021508693695,1.1909575462341309,-0.15639008581638336
1686428353770684000,9.118683837890625,-0.012140552513301373,1.1725438833236694,-0.28924766182899475
1686428353780629000,9.12862890625,0.0017491644248366356,1.0414361953735352,-0.4602851867675781
1686428353790575000,9.1385751953125,0.009171581827104092,1.0038084983825684,-0.6351481080055237
1686428353800520000,9.14852001953125,0.010411550290882587,0.9488621354103088,-0.7804040908813477
1686428353810466000,9.158466064453124,0.022161267697811127,0.8341917991638184,-0.8307942152023315
1686428353820411000,9.168410888671875,0.05633840709924698,0.6737843155860901,-0.7715745568275452
1686428353830357000,9.17835693359375,0.1027572751045227,0.5099351406097412,-0.6411132216453552
1686428353840302000,9.188302001953126,0.16919328272342682,0.3572206497192383,-0.46727511286735535
1686428353850248200,9.198248291015625,0.2823673188686371,0.20683038234710693,-0.27597424387931824
1686428353860193000,9.208193115234375,0.43394672870635986,0.0968458354473114,-0.08640806376934052
1686428353870139100,9.21813916015625,0.6026993989944458,0.02183404564857483,0.0800180435180664
1686428353880084000,9.228083984375,0.7580660581588745,-0.03874035179615021,0.21143971383571625
1686428353890030000,9.238030029296874,0.873541533946991,-0.07654404640197754,0.3251487910747528
1686428353899975200,9.24797509765625,0.9413245916366577,-0.054039277136325836,0.43181878328323364
1686428353909921000,9.257921142578125,0.972665011882782,0.07906580716371536,0.5450264811515808
1686428353919866000,9.2678662109375,0.9622307419776917,0.3641178011894226,0.6280180811882019
1686428353929812000,9.27781201171875,0.8200402855873108,0.7346071600914001,0.6923840045928955
1686428353939757000,9.287757080078125,0.5210093855857849,1.1246010065078735,0.8480771780014038
1686428353949703000,9.297702880859376,0.16472363471984863,1.5194612741470337,1.4505205154418945
1686428353959649000,9.30764892578125,-0.16721543669700623,1.466252326965332,2.9262633323669434
1686428353969594000,9.317593994140625,-0.3400577902793884,1.1484284400939941,4.563596725463867
1686428353979540200,9.327540283203126,-0.19738958775997162,1.3076484203338623,5.389597415924072
1686428353989485000,9.337485107421875,0.07229158282279968,1.629301905632019,5.200344085693359
1686428353999431200,9.34743115234375,0.2318951040506363,2.1198878288269043,4.294525146484375
1686428354009376000,9.3573759765625,0.23141781985759735,2.8304524421691895,3.0235424041748047
1686428354019321900,9.36732177734375,0.0613587349653244,3.463840961456299,1.5657358169555664
1686428354029267200,9.37726708984375,-0.18361914157867432,3.347437858581543,0.21042339503765106
1686428354039213000,9.387213134765625,-0.2977592945098877,2.5514955520629883,-0.6394296288490295
1686428354049158100,9.397158203125,-0.06660132110118866,2.0340659618377686,-0.6465657353401184
1686428354059104000,9.40710400390625,0.40898942947387695,1.9431228637695312,-0.17104396224021912
1686428354069049000,9.417049072265625,0.8593845963478088,1.9406391382217407,0.4518483579158783
1686428354078995200,9.4269951171875,1.0257195234298706,2.0184648036956787,0.9109469652175903
1686428354088940000,9.43693994140625,0.8739442825317383,2.2196686267852783,1.0595898628234863
1686428354098886000,9.446885986328125,0.6119238138198853,2.398730754852295,0.9175806045532227
1686428354108831200,9.456831298828124,0.3634718358516693,2.5353379249572754,0.5479696393013
1686428354118777000,9.466777099609375,0.12125574797391891,2.8652493953704834,0.16226883232593536
1686428354128722200,9.47672216796875,-0.05272693932056427,3.2100183963775635,-0.10308745503425598
1686428354138668000,9.48666796875,-0.14312846958637238,3.3954927921295166,-0.2589888870716095
1686428354148613000,9.496613037109375,-0.16798914968967438,3.231583595275879,-0.3787102699279785
1686428354158559000,9.50655908203125,-0.23104481399059296,2.905468225479126,-0.47537901997566223
1686428354168504300,9.51650439453125,-0.41410526633262634,2.748584032058716,-0.5141682028770447
1686428354178450200,9.5264501953125,-0.6395562291145325,2.6662628650665283,-0.5263007879257202
1686428354188396300,9.536396240234374,-0.7817419767379761,2.6218037605285645,-0.5762745141983032
1686428354198341000,9.546341064453125,-0.8329782485961914,2.626260757446289,-0.6709344387054443
1686428354208287200,9.556287353515625,-0.8397105932235718,2.69433856010437,-0.7761746048927307
1686428354218232000,9.566232177734374,-0.8264909386634827,2.759746789932251,-0.8418002128601074
1686428354228178000,9.576177978515625,-0.7919307947158813,2.7399370670318604,-0.8512001633644104
1686428354238123300,9.586123291015625,-0.7259869575500488,2.610175132751465,-0.7921839952468872
1686428354248069000,9.596069091796876,-0.6320184469223022,2.3641088008880615,-0.6525888442993164
1686428354258014200,9.60601416015625,-0.5152825117111206,2.0913538932800293,-0.42966628074645996
1686428354267960000,9.6159599609375,-0.40694287419319153,1.8007606267929077,-0.15448851883411407
1686428354277905200,9.6259052734375,-0.3080679476261139,1.4478651285171509,0.10396354645490646
1686428354287851000,9.63585107421875,-0.16649089753627777,1.0777904987335205,0.34094327688217163
1686428354297796000,9.645796142578124,0.06064504757523537,0.8388833403587341,0.6170883178710938
1686428354307742200,9.6557421875,0.19990840554237366,0.7462465167045593,0.909704864025116
1686428354317687000,9.66568701171875,0.052749309688806534,0.7439373135566711,1.1413851976394653
1686428354327633200,9.675633056640624,-0.29416072368621826,0.8202139735221863,1.231149673461914
1686428354337578000,9.685577880859375,-0.6327595710754395,0.9267784953117371,1.129533052444458
1686428354347524000,9.695524169921875,-0.9130260944366455,1.0056891441345215,0.8187022805213928
1686428354357469200,9.70546923828125,-1.1407191753387451,1.0710675716400146,0.37937867641448975
1686428354367415300,9.715415283203125,-1.2604739665985107,1.0342689752578735,-0.0841316357254982
1686428354377360100,9.725360107421874,-1.1561741828918457,0.6294738054275513,-0.5127628445625305
1686428354387306200,9.73530615234375,-0.733536422252655,0.2177128940820694,-0.8792138695716858
1686428354397251000,9.7452509765625,0.11670545488595963,0.18043743073940277,-1.0031219720840454
1686428354407197200,9.755197265625,1.0179487466812134,-0.27484309673309326,-0.7618470788002014
1686428354417143000,9.76514306640625,1.4686927795410156,-0.7290843725204468,-0.3238827884197235
1686428354427088100,9.775088134765625,1.3029146194458008,-0.27567070722579956,-0.01594684273004532
1686428354437034200,9.7850341796875,1.0008171796798706,0.7240616083145142,0.03683674335479736
1686428354446979000,9.79497900390625,0.7361606955528259,1.7520278692245483,-0.1905744969844818
1686428354456925200,9.80492529296875,0.438470721244812,2.5363070964813232,-0.6297763586044312
1686428354466870000,9.8148701171875,0.1803651601076126,3.1508851051330566,-1.1953893899917603
1686428354476816100,9.824816162109375,-0.05567425489425659,3.472301483154297,-1.6968770027160645
1686428354486761200,9.83476123046875,-0.22089701890945435,3.199549436569214,-1.890654444694519
1686428354496707300,9.844707275390626,-0.34984061121940613,2.6023781299591064,-1.7300994396209717
1686428354506652200,9.854652099609375,-0.48517248034477234,1.827765703201294,-1.303071141242981
1686428354516598300,9.864598388671874,-0.6415514349937439,1.2636772394180298,-0.8663452863693237
1686428354526543000,9.874543212890625,-0.8530877232551575,0.922539472579956,-0.4655306041240692
1686428354536489000,9.884489013671875,-1.1500046253204346,0.7427979707717896,-0.027828101068735123
1686428354546434000,9.89443408203125,-1.290587067604065,0.6543550491333008,0.28239697217941284
1686428354556380200,9.904380126953125,-1.3701865673065186,0.6769029498100281,0.46208736300468445
1686428354566325200,9.9143251953125,-1.2818822860717773,0.5362112522125244,0.3840656578540802
1686428354576271000,9.92427099609375,-0.9559170603752136,0.07833394408226013,0.05408162996172905
1686428354586216200,9.93421630859375,-0.4738876521587372,-0.317401260137558,-0.2822025418281555
1686428354596162000,9.944162109375,-0.080450639128685,-0.3761337995529175,-0.3285263478755951
1686428354606107100,9.954107177734375,0.09185987710952759,-0.4033862054347992,-0.19769322872161865
1686428354616053000,9.964052978515625,0.1259649693965912,-0.5626835823059082,-0.0703393891453743
1686428354625999000,9.9739990234375,0.14464998245239258,-0.7341413497924805,-0.06725917756557465
1686428354635944200,9.983944091796875,0.18792927265167236,-0.9090593457221985,-0.1739291548728943
1686428354645890300,9.993890380859375,0.21087020635604858,-1.0522130727767944,-0.3361112177371979
1686428354655835100,10.003835205078126,0.11991579085588455,-1.0773508548736572,-0.497378945350647
1686428354665781000,10.013781005859375,-0.1004435196518898,-0.9780240654945374,-0.595191240310669
1686428354675726000,10.02372607421875,-0.3506581485271454,-0.875011682510376,-0.5745283365249634
1686428354685672000,10.033671875,-0.5366548895835876,-0.7231549620628357,-0.445858895778656
1686428354695617300,10.0436171875,-0.59751296043396,-0.5878533124923706,-0.2897934019565582
1686428354705563100,10.053563232421874,-0.5564154982566833,-0.41133424639701843,-0.21677042543888092
1686428354715508200,10.06350830078125,-0.4775291979312897,-0.2890474796295166,-0.26001429557800293
1686428354725454000,10.0734541015625,-0.39268842339515686,-0.2803258001804352,-0.3657107353210449
1686428354735399000,10.08339892578125,-0.29572245478630066,-0.40482616424560547,-0.4998067617416382
1686428354745345000,10.093344970703125,-0.22846737504005432,-0.5663108229637146,-0.6467644572257996
1686428354755290000,10.1032900390625,-0.18959054350852966,-0.6701813340187073,-0.7999177575111389
1686428354765236200,10.113236328125,-0.15529116988182068,-0.8316777944564819,-0.8837202787399292
1686428354775181000,10.12318115234375,-0.12483232468366623,-0.9150368571281433,-0.9063214659690857
1686428354785127200,10.133127197265624,-0.1038517951965332,-0.9798647165298462,-0.8422036170959473
1686428354795073000,10.143072998046875,-0.06630601733922958,-1.0800840854644775,-0.6887634992599487
1686428354805018000,10.15301806640625,-0.04565027356147766,-1.063070297241211,-0.5194467902183533
1686428354814964000,10.1629638671875,-0.01885514333844185,-1.0392554998397827,-0.3098394572734833
1686428354824909300,10.172909423828125,0.03237810730934143,-1.070287823677063,-0.09384819865226746
1686428354834855200,10.182855224609375,0.05510126054286957,-1.0155364274978638,0.04591609165072441
1686428354844800300,10.19280029296875,0.05601571872830391,-0.9365589022636414,0.08825542032718658
1686428354854746000,10.20274609375,0.03878426551818848,-0.8439520001411438,0.0568932369351387
1686428354864691000,10.21269091796875,-0.0009434022940695286,-0.6590397953987122,-0.030410226434469223
1686428354874637000,10.222636962890626,-0.022527791559696198,-0.5708191394805908,-0.11376716196537018
1686428354884582100,10.23258203125,-0.02109447866678238,-0.5207822322845459,-0.15453606843948364
1686428354894528300,10.2425283203125,-0.0051408130675554276,-0.461226224899292,-0.1700013130903244
1686428354904473000,10.25247314453125,0.0021128347143530846,-0.36963942646980286,-0.19637687504291534
1686428354914419200,10.262419189453125,0.0027985991910099983,-0.31269651651382446,-0.2529624104499817
1686428354924364000,10.272364013671876,-0.02634470909833908,-0.1990675926208496,-0.3540128171443939
1686428354934310100,10.28231005859375,-0.09906445443630219,0.0003483074251562357,-0.44135066866874695
1686428354944255200,10.292255126953124,-0.2161281406879425,0.198466494679451,-0.43497171998023987
1686428354954201300,10.302201416015626,-0.3596504330635071,0.30499398708343506,-0.3134671151638031
1686428354964146200,10.312146240234375,-0.47002947330474854,0.34789609909057617,-0.11568871885538101
1686428354974092000,10.322092041015624,-0.5266930460929871,0.43532660603523254,0.09889867901802063
1686428354984038100,10.3320380859375,-0.5608989000320435,0.6247714757919312,0.2860727608203888
1686428354993983000,10.34198291015625,-0.5670185685157776,0.8638181090354919,0.45100897550582886
1686428355003929000,10.35192919921875,-0.5395650267601013,1.1130939722061157,0.6189899444580078
1686428355013874200,10.361874267578125,-0.5011992454528809,1.2964749336242676,0.8220458626747131
1686428355023820300,10.3718203125,-0.4518800675868988,1.516960620880127,1.0652005672454834
1686428355033765000,10.38176513671875,-0.3933885395526886,1.7662184238433838,1.3304839134216309
1686428355043711200,10.391711181640625,-0.35608136653900146,1.975954532623291,1.576812505722046
1686428355053656000,10.401656005859374,-0.28735610842704773,2.0514864921569824,1.7664519548416138
1686428355063602200,10.411602294921876,-0.15726521611213684,1.9276756048202515,1.876487374305725
1686428355073547000,10.421547119140625,0.06811224669218063,1.624855875968933,1.9525859355926514
1686428355083492900,10.431492919921874,0.31743085384368896,1.373456358909607,2.096072196960449
1686428355093438000,10.44143798828125,0.5256947875022888,1.1048179864883423,2.341416120529175
1686428355103383800,10.4513837890625,0.6007412672042847,0.9576227068901062,2.509843349456787
1686428355113329000,10.461328857421876,0.5330197811126709,1.1374225616455078,2.3497140407562256
1686428355123274800,10.471274658203125,0.5009380578994751,1.3467663526535034,1.9400709867477417
1686428355133219800,10.4812197265625,0.5764732956886292,1.310929536819458,1.364201545715332
1686428355143166000,10.491166015625,0.6328650116920471,1.4437506198883057,0.7429994344711304
1686428355153111000,10.501111083984375,0.620394229888916,1.5625888109207153,0.21581526100635529
1686428355163057000,10.511056884765624,0.6033612489700317,1.6271103620529175,-0.052581850439310074
1686428355173003000,10.5210029296875,0.5764276385307312,1.6978862285614014,-0.06615784019231796
1686428355182947800,10.53094775390625,0.526305615901947,1.7819437980651855,0.08906233310699463
1686428355192894000,10.54089404296875,0.5106350779533386,1.8256028890609741,0.3028358817100525
1686428355202838800,10.5508388671875,0.5530606508255005,1.7960959672927856,0.5504157543182373
1686428355212784600,10.56078466796875,0.5939005017280579,1.773132085800171,0.7561209797859192
1686428355222730000,10.57072998046875,0.6058816909790039,1.7381671667099,0.8681155443191528
1686428355232675800,10.58067578125,0.5771693587303162,1.692044734954834,0.8662323951721191
1686428355242621000,10.590620849609374,0.5029172301292419,1.6700294017791748,0.7725785970687866
1686428355252566800,10.60056689453125,0.4280185103416443,1.626823902130127,0.60158771276474
1686428355262511900,10.610511962890625,0.3360617160797119,1.7328165769577026,0.4239601194858551
1686428355272457700,10.620457763671874,0.23167404532432556,1.6832457780838013,0.25010576844215393
1686428355282402800,10.63040283203125,0.1276828646659851,1.677398920059204,0.08923590183258057
1686428355292349000,10.640348876953125,0.024125579744577408,1.605542540550232,-0.08001890778541565
1686428355302293800,10.650293701171876,-0.08442376554012299,1.5559163093566895,-0.24792182445526123
1686428355312239900,10.660239990234375,-0.1878199279308319,1.5007814168930054,-0.3882078230381012
1686428355322184700,10.670184814453124,-0.28833433985710144,1.4383708238601685,-0.48951348662376404
1686428355332130800,10.680130859375,-0.3825055956840515,1.3656777143478394,-0.5627562999725342
1686428355342076700,10.69007666015625,-0.4768645763397217,1.2765181064605713,-0.62962406873703
1686428355352022000,10.70002197265625,-0.565899133682251,1.1669871807098389,-0.6939897537231445
1686428355361967900,10.7099677734375,-0.6225512027740479,1.0518608093261719,-0.7308098077774048
1686428355371913000,10.719912841796875,-0.6133323907852173,0.9637796878814697,-0.7165568470954895
1686428355381858800,10.72985888671875,-0.487439900636673,0.8959689140319824,-0.6410738229751587
1686428355391804000,10.739803955078125,-0.29683107137680054,0.8009366989135742,-0.5034126043319702
1686428355401749800,10.749749755859375,-0.1307530552148819,0.6227243542671204,-0.3066226840019226
1686428355411694800,10.75969482421875,-0.00441243639215827,0.4043094515800476,-0.08613639324903488
1686428355421641000,10.769640869140625,0.09504936635494232,0.2469552904367447,0.1227155476808548
1686428355431585800,10.779585693359374,0.16544364392757416,0.23039229214191437,0.304730623960495
1686428355441532000,10.789531982421876,0.16704602539539337,0.32761406898498535,0.4733281433582306
1686428355451476700,10.799476806640625,0.12063564360141754,0.4761713445186615,0.6034446358680725
1686428355461422800,10.8094228515625,0.05705595016479492,0.6582655310630798,0.6643812656402588
1686428355471368000,10.819367919921875,-0.008771535009145737,0.8767757415771484,0.6456217169761658
1686428355481314000,10.82931396484375,-0.08592867851257324,1.00533127784729,0.5473920702934265
1686428355491260000,10.839260009765624,-0.18135692179203033,1.0032756328582764,0.3886658251285553
1686428355501205000,10.849205078125,-0.27961236238479614,0.9112170934677124,0.19216440618038177
1686428355511150800,10.85915087890625,-0.38655054569244385,0.7488236427307129,-0.005001927725970745
1686428355521095700,10.869095703125,-0.45953014492988586,0.4466456472873688,-0.21934622526168823
1686428355531041800,10.879041748046875,-0.41711345314979553,0.10922796279191971,-0.4537709653377533
1686428355540987000,10.88898681640625,-0.2016923725605011,0.012901678681373596,-0.6517665982246399
1686428355550933000,10.89893310546875,0.16916000843048096,0.10772912204265594,-0.7630028128623962
1686428355560877800,10.9088779296875,0.49135634303092957,-0.0026602097786962986,-0.802076518535614
1686428355570824000,10.918823974609374,0.5627274513244629,-0.21109303832054138,-0.8178746700286865
1686428355580768800,10.928768798828125,0.4577063322067261,-0.043263837695121765,-0.7537685632705688
1686428355590715000,10.93871484375,0.40558668971061707,0.4909971356391907,-0.6008642315864563
1686428355600660000,10.948659912109376,0.44417303800582886,0.9580614566802979,-0.47852638363838196
1686428355610606000,10.958606201171875,0.45725131034851074,1.1264171600341797,-0.4969293773174286
1686428355620551000,10.968551025390624,0.3127158284187317,1.1074936389923096,-0.6620360016822815
1686428355630497000,10.9784970703125,0.09650018066167831,1.0458123683929443,-0.9106718897819519
1686428355640441900,10.98844189453125,-0.02197781205177307,1.0130079984664917,-1.1728451251983643
1686428355650387700,10.9983876953125,0.006234917789697647,1.0121757984161377,-1.3431117534637451
1686428355660333800,11.008333740234375,0.137299045920372,1.0026925802230835,-1.3327895402908325
1686428355670279000,11.01827880859375,0.25104743242263794,0.8946574330329895,-1.1170856952667236
1686428355680224800,11.028224853515624,0.2505837678909302,0.7518138885498047,-0.7626717686653137
1686428355690169900,11.038169921875,0.1446421891450882,0.6376809477806091,-0.37164753675460815
1686428355700116000,11.048115966796875,-0.06894809752702713,0.6013748645782471,-0.07784749567508698
1686428355710060800,11.058060791015626,-0.32500332593917847,0.5709128379821777,0.09653869271278381
1686428355720007000,11.0680068359375,-0.5726869106292725,0.5379658937454224,0.16530196368694305
1686428355729951700,11.07795166015625,-0.7384687066078186,0.4958447813987732,0.08195382356643677
1686428355739897900,11.08789794921875,-0.749119758605957,0.4058198034763336,-0.1463129073381424
1686428355749843000,11.097843017578125,-0.6360903978347778,0.2723211348056793,-0.4027705192565918
1686428355759788800,11.107788818359374,-0.5102546215057373,0.10459992289543152,-0.5719058513641357
1686428355769734000,11.11773388671875,-0.41953372955322266,-0.13353568315505981,-0.5911087989807129
1686428355779679700,11.1276796875,-0.3506406545639038,-0.4476374089717865,-0.445707768201828
1686428355789624800,11.137624755859376,-0.26719796657562256,-0.7087861895561218,-0.20639316737651825
1686428355799570700,11.14757080078125,-0.16666187345981598,-0.8203476667404175,0.016054712235927582
1686428355809516000,11.15751611328125,-0.07706860452890396,-0.7687675356864929,0.12644247710704803
1686428355819462000,11.1674619140625,-0.041545234620571136,-0.6024424433708191,0.11150091886520386
1686428355829408000,11.177407958984375,-0.06742103397846222,-0.5517904162406921,0.009956184774637222
1686428355839352800,11.187352783203124,-0.14942273497581482,-0.4157600402832031,-0.1402669996023178
1686428355849299000,11.197298828125,-0.28107237815856934,-0.29325810074806213,-0.28962692618370056
1686428355859243800,11.207243896484375,-0.4141698181629181,-0.18539521098136902,-0.3929330110549927
1686428355869190000,11.21718994140625,-0.5260193943977356,-0.03836900740861893,-0.4464348554611206
1686428355879135000,11.227135009765625,-0.5724828243255615,0.147863507270813,-0.47850775718688965
1686428355889080800,11.237080810546875,-0.5510979294776917,0.26811933517456055,-0.5244683027267456
1686428355899026000,11.24702587890625,-0.47167542576789856,0.22247445583343506,-0.5982030034065247
1686428355908971800,11.2569716796875,-0.3772234618663788,0.05317411199212074,-0.6750040650367737
1686428355918916900,11.266916748046874,-0.30204179883003235,-0.15509115159511566,-0.7294506430625916
1686428355928862700,11.27686279296875,-0.25902533531188965,-0.2774583399295807,-0.779617965221405
1686428355938808000,11.28680810546875,-0.2279714047908783,-0.40154367685317993,-0.7872278094291687
1686428355948754000,11.29675390625,-0.20838838815689087,-0.3912377655506134,-0.7562142610549927
1686428355958700000,11.306699951171876,-0.18590815365314484,-0.3512169122695923,-0.6828010082244873
1686428355968644900,11.316644775390625,-0.14324085414409637,-0.4058378040790558,-0.5389405488967896
1686428355978591000,11.326591064453124,-0.09844530373811722,-0.3405923843383789,-0.39692118763923645
1686428355988535800,11.336535888671875,-0.0298132486641407,-0.2893526256084442,-0.2594839632511139
1686428355998482000,11.34648193359375,0.05348236486315727,-0.256660521030426,-0.15350976586341858
1686428356008427000,11.356427001953126,0.11648449301719666,-0.2892485558986664,-0.08701541274785995
1686428356018372900,11.366372802734375,0.13832755386829376,-0.20774665474891663,-0.08375392109155655
1686428356028318000,11.37631787109375,0.08825160562992096,-0.06389254331588745,-0.1146673634648323
1686428356038263800,11.386263916015626,-0.012124192900955677,0.1435534805059433,-0.12812528014183044
1686428356048209000,11.396208984375,-0.08006595820188522,0.22198836505413055,-0.08210533112287521
1686428356058154800,11.40615478515625,-0.07994014024734497,0.2647622525691986,-0.00515245646238327
1686428356068099800,11.416099853515625,-0.030747028067708015,0.33163291215896606,0.03707835450768471
1686428356078045700,11.426045654296875,0.045732222497463226,0.3922940790653229,0.037932563573122025
1686428356087990800,11.43599072265625,0.11106355488300323,0.4557521343231201,0.014273570850491524
1686428356097936600,11.4459365234375,0.14488060772418976,0.5586766004562378,-0.03832228109240532
1686428356107881500,11.455881591796874,0.125325009226799,0.7283082604408264,-0.062241993844509125
1686428356117827600,11.46582763671875,0.0439751073718071,0.8828057050704956,-0.007889935746788979
1686428356127773700,11.475773681640625,-0.07547326385974884,0.9446496367454529,0.13099737465381622
1686428356137718800,11.48571875,-0.1775154322385788,0.9276918768882751,0.292477011680603
1686428356147664600,11.49566455078125,-0.2431892454624176,0.9277653694152832,0.4650471806526184
1686428356157609700,11.505609619140625,-0.2947036623954773,0.997556746006012,0.6513578295707703
1686428356167555600,11.5155556640625,-0.34093934297561646,1.1882086992263794,0.8488341569900513
1686428356177500700,11.525500732421875,-0.37947624921798706,1.46750807762146,1.0920621156692505
1686428356187446500,11.535446533203125,-0.37835344672203064,1.7554982900619507,1.352338433265686
1686428356197392000,11.545391845703126,-0.3409460783004761,1.9892363548278809,1.5871511697769165
1686428356207337700,11.555337646484375,-0.2426687628030777,2.1087872982025146,1.778806447982788
1686428356217282800,11.56528271484375,-0.03585759922862053,2.1017537117004395,1.945319652557373
1686428356227228700,11.575228759765626,0.19722652435302734,2.0082664489746094,2.130528450012207
1686428356237173500,11.585173583984375,0.41143009066581726,1.9873660802841187,2.3579962253570557
1686428356247119600,11.59511962890625,0.5308265089988708,2.2271223068237305,2.5652084350585938
1686428356257065700,11.605065673828125,0.4396040141582489,2.528103828430176,2.492567300796509
1686428356267010800,11.6150107421875,0.2731418013572693,2.659330129623413,2.030912160873413
1686428356276956700,11.624956787109374,0.1769951730966568,2.556934356689453,1.3875117301940918
1686428356286901800,11.63490185546875,0.24887840449810028,2.293437957763672,0.7657213807106018
1686428356296847600,11.64484765625,0.3940131962299347,2.0778908729553223,0.2677086889743805
1686428356306792700,11.654792724609376,0.5517296195030212,1.9074362516403198,0.02467847242951393
1686428356316738600,11.664738525390625,0.6323752403259277,1.8702199459075928,0.08073676377534866
1686428356326683600,11.67468359375,0.5804073810577393,2.0219061374664307,0.2833476662635803
1686428356336629500,11.68462939453125,0.48731324076652527,2.1184988021850586,0.4871973693370819
1686428356346574600,11.69457470703125,0.4141612648963928,2.14949107170105,0.6468716859817505
1686428356356520700,11.704520751953124,0.35710009932518005,2.158440351486206,0.8073107600212097
1686428356366465500,11.714465576171875,0.315896213054657,2.19368839263916,0.9350351691246033
1686428356376411600,11.72441162109375,0.28728851675987244,2.2607104778289795,0.9779905080795288
1686428356386356500,11.7343564453125,0.25115448236465454,2.3345372676849365,0.9070516228675842
1686428356396302600,11.744302490234375,0.21628683805465698,2.3612160682678223,0.7310540676116943
1686428356406248400,11.75424853515625,0.18082578480243683,2.4321699142456055,0.4961770474910736
1686428356416193800,11.76419384765625,0.1394856870174408,2.3651130199432373,0.2342510223388672
1686428356426139600,11.7741396484375,0.08036245405673981,2.2920916080474854,-0.017962845042347908
1686428356436084700,11.784084716796874,0.019056936725974083,2.1914734840393066,-0.20128396153450012
1686428356446030600,11.794030517578125,-0.04635615646839142,2.0834298133850098,-0.3230538070201874
1686428356455975700,11.8039755859375,-0.11345610022544861,1.9788392782211304,-0.40889573097229004
1686428356465921500,11.813921630859374,-0.18972237408161163,1.8870882987976074,-0.47828173637390137
1686428356475866600,11.82386669921875,-0.25778618454933167,1.818179726600647,-0.5399177074432373
1686428356485812700,11.833812744140625,-0.326092004776001,1.7586274147033691,-0.5864596962928772
1686428356495757600,11.843757568359376,-0.38171249628067017,1.6874035596847534,-0.618738055229187
1686428356505703700,11.85370361328125,-0.41908809542655945,1.610844373703003,-0.6201844215393066
1686428356515648500,11.8636484375,-0.42304152250289917,1.5589454174041748,-0.580935537815094
1686428356525594600,11.8735947265625,-0.3640354871749878,1.5092804431915283,-0.5052050948143005
1686428356535540500,11.88354052734375,-0.2583131492137909,1.4348151683807373,-0.3919869661331177
1686428356545485800,11.89348583984375,-0.1780470758676529,1.2844421863555908,-0.25748932361602783
1686428356555431700,11.903431640625,-0.1011667549610138,1.0620691776275635,-0.12234241515398026
1686428356565376800,11.913376708984375,-0.005031696520745754,0.8277087211608887,-0.006618212908506393
1686428356575322600,11.923322509765624,0.09893175214529037,0.6043441295623779,0.06010916456580162
1686428356585267500,11.933267333984375,0.1907748579978943,0.49126896262168884,0.08526778221130371
1686428356595213600,11.943213623046875,0.18171052634716034,0.5208214521408081,0.07643908262252808
1686428356605158700,11.95315869140625,0.05836568772792816,0.6821954250335693,0.04823807626962662
1686428356615104800,11.963104736328125,-0.07335026562213898,0.8581379055976868,0.01740734837949276
1686428356625049600,11.973049560546874,-0.16820485889911652,1.014174461364746,-0.006990935653448105
1686428356634995700,11.98299560546875,-0.23483727872371674,1.1312615871429443,-0.009574773721396923
1686428356644940500,11.9929404296875,-0.29384681582450867,1.2268894910812378,0.009139259345829487
1686428356654886700,12.00288671875,-0.3719337582588196,1.2786040306091309,0.005042720586061478
1686428356664832500,12.01283251953125,-0.4480575621128082,1.2493231296539307,-0.04513789340853691
1686428356674777900,12.02277783203125,-0.41266030073165894,1.115902066230774,-0.11688250303268433
1686428356684723700,12.0327236328125,-0.1965024322271347,0.9400871396064758,-0.14889129996299744
1686428356694668800,12.042668701171875,0.186785027384758,0.7796798944473267,-0.11263076215982437
1686428356704614700,12.05261474609375,0.659457266330719,0.5768865346908569,0.06666495651006699
1686428356714559500,12.0625595703125,1.088175892829895,0.3760337233543396,0.38615578413009644
1686428356724505600,12.072505615234375,1.2366098165512085,0.22537203133106232,0.6318987011909485
1686428356734450700,12.08245068359375,1.0036978721618652,0.1911628097295761,0.6583887338638306
1686428356744396800,12.092396728515626,0.5872440338134766,0.4051600396633148,0.40834560990333557
1686428356754341600,12.102341552734375,0.27483630180358887,0.9521424770355225,-0.11410573869943619
1686428356764287700,12.112287841796874,0.07554874569177628,1.696912407875061,-0.7912631630897522
1686428356774232600,12.122232666015625,-0.07522661238908768,2.409083843231201,-1.4470051527023315
1686428356784178700,12.1321787109375,-0.1798744648694992,2.7399871349334717,-1.8722724914550781
1686428356794124500,12.14212451171875,-0.25617995858192444,2.7311089038848877,-1.8930574655532837
1686428356804069600,12.152069580078125,-0.3219565749168396,2.490596294403076,-1.5925389528274536
1686428356814015700,12.162015625,-0.36116865277290344,2.053402900695801,-1.0813595056533813
1686428356823960600,12.171960693359376,-0.38295918703079224,1.5200107097625732,-0.4579947292804718
1686428356833906700,12.18190673828125,-0.42073872685432434,1.0488049983978271,0.17180375754833221
1686428356843851500,12.1918515625,-0.4799903333187103,0.6935328841209412,0.6523458957672119
1686428356853797600,12.201797607421875,-0.494242787361145,0.5080262422561646,0.9189124703407288
1686428356863742500,12.211742431640625,-0.46638157963752747,0.3960410952568054,0.9577416181564331
1686428356873688600,12.2216884765625,-0.42790406942367554,0.33594605326652527,0.8202704191207886
1686428356883633700,12.231633544921875,-0.4197816848754883,0.3084976375102997,0.5763331055641174
1686428356893579800,12.241579833984375,-0.40963926911354065,0.30652427673339844,0.30693909525871277
1686428356903524600,12.251524658203126,-0.3708135783672333,0.32806071639060974,0.10269063711166382
1686428356913470700,12.261470703125,-0.32793164253234863,0.3668188154697418,0.00430669030174613
1686428356923416600,12.27141650390625,-0.31273725628852844,0.3833615481853485,0.019892306998372078
1686428356933361700,12.281361572265626,-0.30357813835144043,0.3372403681278229,0.11304924637079239
1686428356943307500,12.2913076171875,-0.2848108410835266,0.308314710855484,0.271058052778244
1686428356953252600,12.301252685546874,-0.2939235270023346,0.2757726311683655,0.43171900510787964
1686428356963198700,12.31119873046875,-0.3290575444698334,0.22245214879512787,0.5282652378082275
1686428356973143600,12.3211435546875,-0.3524124324321747,0.1562197059392929,0.527208685874939
1686428356983089700,12.331089599609374,-0.35709482431411743,0.12062177062034607,0.41602838039398193
1686428356993034500,12.341034423828125,-0.32598450779914856,0.1293814778327942,0.23230554163455963
1686428357002980600,12.350980712890625,-0.21920397877693176,0.1672995686531067,0.025777408853173256
1686428357012925700,12.36092578125,-0.07825462520122528,0.25199925899505615,-0.1596081256866455
1686428357022871800,12.370871826171875,0.042299218475818634,0.3328453600406647,-0.32742002606391907
1686428357032817700,12.380817626953124,0.10364474356174469,0.39311131834983826,-0.4443027675151825
1686428357042762800,12.3907626953125,0.17044055461883545,0.39666369557380676,-0.5270559191703796
1686428357052708600,12.40070849609375,0.2508544623851776,0.3385506868362427,-0.5713664889335632
1686428357062653700,12.41065380859375,0.31208693981170654,0.2583959102630615,-0.5679352283477783
1686428357072599800,12.420599853515625,0.3407430946826935,0.15840089321136475,-0.5169692635536194
1686428357082545000,12.430544921875,0.3386181592941284,0.046054109930992126,-0.42672431468963623
1686428357092491000,12.440490966796874,0.3150889277458191,-0.06188710033893585,-0.30483540892601013
1686428357102435800,12.450435791015625,0.2991568446159363,-0.11223442852497101,-0.15829230844974518
1686428357112382000,12.4603818359375,0.288161039352417,-0.08037470281124115,-0.00015956605784595013
1686428357122326800,12.470326904296876,0.2580675780773163,0.02461588941514492,0.13398465514183044
1686428357132273000,12.48027294921875,0.2011326551437378,0.1287301778793335,0.20063915848731995
1686428357142218000,12.490218017578124,0.11385421454906464,0.2008752077817917,0.18128889799118042
