time,seconds_elapsed,z,y,x
1686445535374405400,0.1374052734375,0.0058571030385792255,0.008254223503172398,0.002012568758800626
1686445535384421600,0.147421630859375,0.0025039168540388346,0.007029968313872814,-0.002779789501801133
1686445535394438400,0.1574384765625,0.00570983812212944,0.005163310095667839,-0.005008885636925697
1686445535404455400,0.167455322265625,0.002780893351882696,0.004772890824824572,-0.0006258549401536584
1686445535414472700,0.17747265625,0.006848355755209923,0.0065176961943507195,0.00047610129695385695
1686445535424489500,0.187489501953125,0.008357835933566093,0.009381393902003765,0.007796864490956068
1686445535434505500,0.19750537109375,0.01223787385970354,0.009362002834677696,0.008693881332874298
1686445535444522500,0.2075224609375,0.01569092832505703,0.010472007095813751,0.01023611705750227
1686445535454539500,0.21753955078125,0.016511421650648117,0.01148521900177002,0.01053128857165575
1686445535464556500,0.227556640625,0.017947398126125336,0.010054568760097027,0.003635565284639597
1686445535474573300,0.2375732421875,0.01864372193813324,0.0038395989686250687,-0.002626596949994564
1686445535484589600,0.247589599609375,0.01452274527400732,0.0026989667676389217,-0.00852922722697258
1686445535494606600,0.257606689453125,0.008978132158517838,0.008509179577231407,-0.013602610677480698
1686445535504623400,0.267623291015625,0.001604372402653098,0.01798151060938835,-0.01657256670296192
1686445535514640600,0.277640625,-0.010008227080106735,0.018252743408083916,-0.021837696433067322
1686445535524657400,0.287657470703125,-0.0172504261136055,0.011859824880957603,-0.024994874373078346
1686445535534673400,0.29767333984375,-0.013566233217716217,0.003386327065527439,-0.02562994882464409
1686445535544690400,0.3076904296875,-0.01154223084449768,-0.0021437269169837236,-0.018393874168395996
1686445535554707500,0.31770751953125,-0.009521257132291794,0.007633848115801811,-0.0068429457023739815
1686445535564724500,0.327724365234375,-0.0032196850515902042,0.01659059152007103,-0.0012532369000837207
1686445535574741200,0.3377412109375,-0.004250908270478249,0.02069508284330368,-0.003392110113054514
1686445535584757500,0.347757568359375,-0.006847756914794445,0.01564919203519821,-0.00870485045015812
1686445535594774500,0.3577744140625,-0.009725113399326801,0.010418913327157497,-0.010760536417365074
1686445535604791300,0.367791259765625,-0.00797115545719862,0.00016654259525239468,-0.010774916037917137
1686445535614808600,0.37780859375,-0.003946912474930286,-0.015299910679459572,-0.004579199478030205
1686445535624825600,0.38782568359375,-0.004388997331261635,-0.021396951749920845,-0.0028193825855851173
1686445535634841300,0.39784130859375,-0.003681880421936512,-0.025327272713184357,0.0022303257137537003
1686445535644858400,0.4078583984375,-0.0009066006168723106,-0.025312092155218124,0.006665554363280535
1686445535654875400,0.41787548828125,-0.0004737311974167824,-0.022795766592025757,0.0032905000261962414
1686445535664892400,0.427892333984375,-0.0007728040218353271,-0.022142227739095688,-0.004286193288862705
1686445535674909400,0.437909423828125,-0.002709075342863798,-0.016805661842226982,-0.013997201807796955
1686445535684925400,0.447925537109375,-0.005749872885644436,-0.0031601577065885067,-0.021806655451655388
1686445535694942500,0.4579423828125,-0.005673603154718876,0.004035607445985079,-0.023706583306193352
1686445535704959500,0.46795947265625,-0.006829947233200073,0.011873023584485054,-0.02472364343702793
1686445535714976500,0.4779765625,-0.004456186201423407,0.014690382406115532,-0.023078572005033493
1686445535724993000,0.487992919921875,-0.004706790205091238,0.012783026322722435,-0.01933443360030651
1686445535735009000,0.498009033203125,-0.006808682810515165,0.0030693821609020233,-0.019920574501156807
1686445535745025800,0.50802587890625,-0.00503048999235034,-0.00504420418292284,-0.012700478546321392
1686445535755042800,0.518042724609375,-0.004587419796735048,-0.006059444043785334,-0.007521399296820164
1686445535765059800,0.528059814453125,-0.00039986567571759224,-0.012061409652233124,-0.007030845154076815
1686445535775076900,0.538076904296875,0.0005935020744800568,-0.015442075207829475,-0.005168260540813208
1686445535785094000,0.548093994140625,-0.0022693960927426815,-0.01198103092610836,-0.010152899660170078
1686445535795110000,0.55810986328125,-0.000785894226282835,-0.008765457198023796,-0.011276841163635254
1686445535805127000,0.568126953125,-0.006026463117450476,-0.008873581886291504,-0.01672300510108471
1686445535815144000,0.57814404296875,-0.008545340970158577,-0.002013473305851221,-0.017504693940281868
1686445535825161000,0.588160888671875,-0.004644875880330801,0.0022904612123966217,-0.013674268499016762
1686445535835178000,0.598177978515625,-0.004475937224924564,0.004289429634809494,-0.014811508357524872
1686445535845194000,0.608194091796875,-0.004240513779222965,0.005276396870613098,-0.016045616939663887
1686445535855210800,0.618210693359375,-0.003253781236708164,0.0016436490695923567,-0.014668881893157959
1686445535865228000,0.62822802734375,-0.0026676198467612267,0.0013150149025022984,-0.013532244600355625
1686445535875244800,0.638244873046875,-0.0003853552043437958,-0.002665487118065357,-0.00762831000611186
1686445535885261800,0.64826171875,0.002224809257313609,-0.002233256120234728,-0.006988885346800089
1686445535895278000,0.658278076171875,-0.000009644310921430588,-0.003369288519024849,-0.004881310276687145
1686445535905294800,0.668294921875,-0.0006453408859670162,-0.006528862752020359,-0.006801981944590807
1686445535915311900,0.678311767578125,-0.0035450258292257786,-0.008695103228092194,-0.0019416643772274256
1686445535925329000,0.688328857421875,-0.0038270545192062855,-0.003975449129939079,-0.0009440442663617432
1686445535935346000,0.698345947265625,-0.0038016093894839287,-0.002550198696553707,-0.00015486113261431456
1686445535945362000,0.70836181640625,-0.0054610250517725945,-0.0000944978091865778,-0.0043671829625964165
1686445535955378700,0.718378662109375,-0.006934560369700193,0.0017378057818859816,-0.005134410224854946
1686445535965396000,0.72839599609375,-0.005598718766123056,0.00031913979910314083,-0.004719756077975035
1686445535975412700,0.738412841796875,-0.0046310159377753735,-0.0036284676752984524,-0.004751209169626236
1686445535985430000,0.748429931640625,-0.002829920034855604,-0.007480730302631855,-0.0028044385835528374
1686445535995446000,0.758446044921875,-0.0069273775443434715,-0.008812790736556053,-0.005765815731137991
1686445536005462800,0.768462890625,-0.0034381039440631866,-0.0057632047683000565,-0.005207883194088936
1686445536015479800,0.778479736328125,0.0007652845233678818,-0.005855010822415352,-0.004838591441512108
1686445536025496800,0.788496826171875,-0.003536253236234188,-0.003852047026157379,-0.00009124050848186016
1686445536035513900,0.798513916015625,0.0018587696831673384,0.0006487439386546612,0.004646020475775003
1686445536045529900,0.80852978515625,0.00003849901258945465,-0.003050386905670166,0.007339009083807468
1686445536055547000,0.818546875,0.0012758993543684483,-0.008318433538079262,0.00540582463145256
1686445536065564000,0.82856396484375,0.0006428658962249756,-0.007585798390209675,0.003388746175915003
1686445536075581000,0.838580810546875,-0.0031638476066291332,-0.006965063512325287,-0.001092851860448718
1686445536085598000,0.848597900390625,-0.0012245336547493935,-0.0017545890295878053,-0.009978488087654114
1686445536095614000,0.858614013671875,-0.006698559038341045,0.004487763624638319,-0.012046724557876587
1686445536105631000,0.868630859375,-0.0035365885123610497,0.008843895979225636,-0.012620901688933372
1686445536115647700,0.878647705078125,-0.001125602051615715,0.01190878264605999,-0.013631132431328297
1686445536125665000,0.8886650390625,-0.00012611737474799156,0.010475203394889832,-0.005290111526846886
1686445536135681800,0.898681884765625,0.0033618579618632793,0.007533548399806023,0.002686732914298773
1686445536145697800,0.90869775390625,0.001670217840000987,0.010806040838360786,0.004953083116561174
1686445536155715000,0.918715087890625,0.00048687122762203217,0.004908831790089607,0.007633583154529333
1686445536165731800,0.92873193359375,0.0006115068681538105,0.0020288892555981874,0.006570982281118631
1686445536175748900,0.938748779296875,0.0011057141236960888,-0.0008010804885998368,0.006077238358557224
1686445536185766000,0.948765869140625,0.0007890644483268261,-0.0025523751974105835,0.001625231932848692
1686445536195782000,0.958781982421875,-0.0015114517882466316,-0.0012408175971359015,-0.005614636465907097
1686445536205799000,0.968798828125,0.0012100324966013432,0.0014899878297001123,-0.010682099498808384
1686445536215815700,0.978815673828125,-0.0016039768233895302,0.004891254939138889,-0.012276741676032543
1686445536225833000,0.9888330078125,-0.0017579072155058384,0.005770097486674786,-0.015400630421936512
1686445536235850000,0.99885009765625,0.0011925180442631245,0.011884178966283798,-0.013643770478665829
1686445536245865700,1.00886572265625,-0.0024959598667919636,0.014234684407711029,-0.012605137191712856
1686445536255883000,1.018883056640625,0.003267273772507906,0.015267344191670418,-0.009632631205022335
1686445536265899800,1.028899658203125,0.0038680830039083958,0.013317377306520939,-0.0027970955707132816
1686445536275916800,1.038916748046875,0.00040511181578040123,0.009370957501232624,-0.002428638283163309
1686445536285934000,1.04893408203125,0.005849412176758051,0.00047360314056277275,0.005513707175850868
1686445536295949800,1.05894970703125,0.0009162942878901958,-0.008695587515830994,0.0010680037084966898
1686445536305966800,1.068966796875,-0.0013884054496884346,-0.013998739421367645,-0.0016827753279358149
1686445536315984000,1.07898388671875,-0.0026054014451801777,-0.015562191605567932,-0.0009213752346113324
1686445536326001000,1.0890009765625,-0.0033414987847208977,-0.00965237058699131,-0.0015727843856438994
1686445536336018000,1.099017822265625,-0.0048702978529036045,-0.00018023140728473663,0.004202457144856453
1686445536346034000,1.109033935546875,-0.0010337475687265396,0.006602840032428503,0.005743894726037979
1686445536356051000,1.119051025390625,0.00019868463277816772,0.011711006984114647,0.0075689880177378654
1686445536366068000,1.12906787109375,-0.00034460006281733513,0.010450799018144608,0.00841214507818222
1686445536376084700,1.139084716796875,-0.000466951634734869,0.007933723740279675,0.007740820292383432
1686445536386102000,1.14910205078125,0.0008827382698655128,0.00012959586456418037,0.006506710778921843
1686445536396118000,1.159117919921875,0.0030408180318772793,-0.0015949937514960766,0.00347594590857625
1686445536406134800,1.169134765625,0.0030655853915959597,-0.0016530507709831,0.0005557896802201867
1686445536416152000,1.179152099609375,-0.0003458913415670395,0.0001126960851252079,-0.009186971932649612
1686445536426168800,1.1891689453125,0.0011462774127721786,-0.002576830331236124,-0.009870072826743126
1686445536436185900,1.199185791015625,0.00024369219318032265,-0.004809380508959293,-0.014525394886732101
1686445536446201900,1.209201904296875,-0.0004143752157688141,-0.0030471666250377893,-0.010984722524881363
1686445536456219000,1.219218994140625,0.0036862308625131845,-0.00501313665881753,-0.008815992623567581
1686445536466236000,1.22923583984375,0.0020260161254554987,-0.005085041746497154,-0.004516318906098604
1686445536476252700,1.239252685546875,0.003964643459767103,-0.008978195488452911,0.001035515801049769
1686445536486270000,1.24927001953125,0.0017211965750902891,-0.005530467256903648,0.0022073066793382168
1686445536496286000,1.259285888671875,0.0020703370682895184,-0.002412704285234213,0.006653453689068556
1686445536506302700,1.269302734375,0.003258106764405966,-0.0022217556834220886,0.008273455314338207
1686445536516320000,1.279320068359375,-0.0045140208676457405,-0.002269403776153922,0.005288966000080109
1686445536526337000,1.2893369140625,-0.0012836065143346786,-0.0012470162473618984,0.004666851367801428
1686445536536353800,1.299353759765625,-0.002991589717566967,-0.003982569556683302,0.005294558592140675
1686445536546369800,1.309369873046875,-0.0034943940117955208,-0.002220089780166745,0.0014662645990028977
1686445536556387000,1.319386962890625,-0.0023116995580494404,0.0016618322115391493,-0.0012431765208020806
1686445536566403800,1.32940380859375,-0.005162880290299654,0.0006160088814795017,-0.007216114550828934
1686445536576420900,1.3394208984375,-0.0032428153790533543,0.007778753060847521,-0.0058696153573691845
1686445536586438000,1.34943798828125,-0.004223390948027372,0.012064311653375626,-0.009012145921587944
1686445536596454000,1.359453857421875,-0.0019607520662248135,0.017228350043296814,-0.004191352520138025
1686445536606471000,1.369470947265625,0.0019833894912153482,0.021612180396914482,0.0015458953566849232
1686445536616488000,1.379488037109375,-0.0016141952946782112,0.016924526542425156,0.005212770309299231
1686445536626505000,1.3895048828125,0.002096919808536768,0.015374301932752132,0.0069251833483576775
1686445536636521700,1.399521728515625,0.00042484281584620476,0.010091728530824184,0.01008892897516489
1686445536646537700,1.409537841796875,0.0021407175809144974,0.004549157805740833,0.006860910914838314
1686445536656555000,1.419554931640625,0.001808565342798829,-0.004431477747857571,0.004975335672497749
1686445536666571800,1.42957177734375,0.0012362520210444927,-0.016201850026845932,0.003518053563311696
1686445536676588800,1.4395888671875,0.005577761679887772,-0.0221477709710598,0.0047861612401902676
1686445536686605800,1.449605712890625,0.0017617184203118086,-0.01913919858634472,0.005621594842523336
1686445536696621800,1.459621826171875,0.0018896949477493763,-0.013207660987973213,0.005068354308605194
1686445536706638800,1.469638916015625,0.0006811525672674179,-0.003023466095328331,-0.001078221364878118
1686445536716655900,1.47965576171875,0.0005098534747958183,0.005116076208651066,0.00017439806833863258
1686445536726673000,1.4896728515625,0.0015383665449917316,0.009549972601234913,0.0030210507102310658
1686445536736690000,1.49968994140625,0.0021067699417471886,0.007608527783304453,0.0037167053669691086
1686445536746706000,1.509705810546875,0.002489732578396797,0.005751772318035364,0.003581416793167591
1686445536756723000,1.519722900390625,-0.0023229257203638554,0.0016543534584343433,0.002443852601572871
1686445536766740000,1.529739990234375,0.00021959422156214714,-0.00006578234024345875,0.0032507902942597866
1686445536776757000,1.539757080078125,0.0019746259786188602,-0.0023984936997294426,-0.003401815891265869
1686445536786774000,1.54977392578125,-0.0009188982658088207,-0.006100287660956383,-0.00316692516207695
1686445536796789800,1.559789794921875,-0.0005228701047599316,-0.002742938231676817,-0.006190205458551645
1686445536806807000,1.56980712890625,-0.0018254220485687256,-0.00028430798556655645,-0.011413462460041046
1686445536816824000,1.579823974609375,-0.0013952255249023438,-0.0010239147813990712,-0.011318120174109936
1686445536826840800,1.5898408203125,-0.00017523160204291344,0.0038280985318124294,-0.010445934720337391
1686445536836858000,1.599858154296875,-0.0045034438371658325,0.008195391856133938,-0.012272709980607033
1686445536846874000,1.6098740234375,-0.005523434840142727,0.00968569703400135,-0.004409993067383766
1686445536856891000,1.619890869140625,-0.00426597660407424,0.006790308281779289,-0.00456555699929595
1686445536866908200,1.629908203125,-0.004801804665476084,0.006860349327325821,-0.0035490281879901886
1686445536876925000,1.639925048828125,-0.002504897303879261,0.0034628091380000114,-0.004128285683691502
1686445536886942000,1.64994189453125,-0.0017411024309694767,-0.003196957753971219,-0.0018086722120642662
1686445536896958000,1.6599580078125,0.0009856647811830044,-0.008071583695709705,0.0021262257359921932
1686445536906975000,1.66997509765625,0.0012818083632737398,-0.00860554724931717,0.003104937495663762
1686445536916992000,1.679991943359375,0.00013548694550991058,-0.010713925585150719,0.0018388701137155294
1686445536927008800,1.6900087890625,0.0021600218024104834,-0.008188717067241669,0.0051350644789636135
1686445536937026000,1.700026123046875,-0.003716524690389633,-0.0045653884299099445,0.005011819303035736
1686445536947042000,1.7100419921875,0.00016636354848742485,-0.0023400511126965284,0.0025800871662795544
1686445536957058800,1.720058837890625,-0.001498968806117773,-0.003830281086266041,0.005596061237156391
1686445536967076000,1.730076171875,-0.003684625495225191,-0.004073693882673979,0.005096718668937683
1686445536977092900,1.7400927734375,-0.0032806582748889923,0.0014696030411869287,0.005738929845392704
1686445536987110000,1.75010986328125,-0.0016862237825989723,0.004457403440028429,0.0071400185115635395
1686445536997126000,1.7601259765625,0.003901180811226368,0.006061956286430359,0.006680822465568781
1686445537007143000,1.770142822265625,0.004941944032907486,0.005173791199922562,0.009818293154239655
1686445537017160000,1.780159912109375,0.0031191473826766014,0.002019519219174981,0.00648599723353982
1686445537027177000,1.790177001953125,0.007282200735062361,-0.001634071348235011,0.006043912377208471
1686445537037194000,1.800194091796875,0.005184887442737818,-0.0013244403526186943,0.008502814918756485
1686445537047210000,1.8102099609375,0.008119424805045128,-0.0036397925578057766,0.01030976977199316
1686445537057227000,1.82022705078125,0.005276824813336134,-0.0035615693777799606,0.010190512984991074
1686445537067244000,1.830244140625,0.0064107985235750675,-0.004895813297480345,0.009433643892407417
1686445537077261000,1.840260986328125,0.0054211183451116085,-0.004595383070409298,0.007743516471236944
1686445537087277800,1.85027783203125,0.004838152322918177,-0.0028651272878050804,0.0086391381919384
1686445537097293800,1.8602939453125,0.0029971341136842966,-0.001868451596237719,0.008510415442287922
1686445537107311000,1.87031103515625,-0.0018508844077587128,-0.003415215527638793,0.006408914923667908
1686445537117328000,1.880327880859375,-0.0004445812664926052,-0.0024930851068347692,0.004182836972177029
1686445537127345200,1.89034521484375,-0.000006491318345069885,0.004632201977074146,-0.001130435848608613
1686445537137362000,1.90036181640625,-0.0014655329287052155,0.0045681907795369625,-0.002630622126162052
1686445537147378000,1.9103779296875,-0.0015731249004602432,0.00712775532156229,-0.0011978414840996265
1686445537157395000,1.92039501953125,0.003392484039068222,0.01070643775165081,0.005336312111467123
1686445537167412000,1.930411865234375,0.003497412893921137,0.012412459589540958,0.01288184616714716
1686445537177429000,1.940428955078125,0.004623337648808956,0.013946512714028358,0.011948889121413231
1686445537187445800,1.95044580078125,0.007557874545454979,0.017955368384718895,0.018111176788806915
1686445537197462000,1.9604619140625,0.008377010002732277,0.017274469137191772,0.018188519403338432
1686445537207479000,1.97047900390625,0.0097205750644207,0.014560976065695286,0.02190895564854145
1686445537217495800,1.980495849609375,0.007701212540268898,0.011715509928762913,0.024318791925907135
1686445537227513000,1.99051318359375,0.010280217975378036,0.003491135546937585,0.021893717348575592
1686445537237530000,2.000530029296875,-0.0006887540221214294,-0.0017657544231042266,0.010546311736106873
1686445537247545900,2.0105458984375,-0.0023676110431551933,-0.00175190600566566,-0.010862307623028755
1686445537257563000,2.02056298828125,-0.00984740350395441,-0.0033237249590456486,-0.017399951815605164
1686445537267580200,2.030580078125,-0.010379237122833729,0.0012166982050985098,-0.021616801619529724
1686445537277597000,2.040596923828125,-0.007058154791593552,0.008886942639946938,-0.01369292102754116
1686445537287614000,2.050614013671875,-0.006406479515135288,0.012487269937992096,-0.007863794453442097
1686445537297630000,2.0606298828125,-0.00460178405046463,0.013225207105278969,0.00005230389069765806
1686445537307647000,2.07064697265625,-0.003919748589396477,0.0071113877929747105,0.006308868061751127
1686445537317664000,2.0806640625,-0.002861965447664261,-0.003342704614624381,0.008531100116670132
1686445537327681000,2.090680908203125,-0.00039880815893411636,-0.00864505860954523,0.0115908058360219
1686445537337698000,2.100697998046875,0.0003466019406914711,-0.00722314789891243,0.01127365417778492
1686445537347714000,2.110714111328125,0.003160497872158885,-0.007326212711632252,0.010641686618328094
1686445537357730800,2.120730712890625,0.0026611718349158764,-0.009044847451150417,0.012080265209078789
1686445537367748000,2.130748046875,0.0031959344632923603,-0.012622005306184292,0.006553406361490488
1686445537377764900,2.140764892578125,0.003484586253762245,-0.01614677906036377,0.0027070341166108847
1686445537387782000,2.150781982421875,0.0033306553959846497,-0.017430156469345093,0.001845501596108079
1686445537397798100,2.160798095703125,0.002815522952005267,-0.01696787402033806,0.0027169149834662676
1686445537407815000,2.17081494140625,0.007515735924243927,-0.015969453379511833,0.002831963589414954
1686445537417832000,2.18083203125,0.003558278549462557,-0.015421109274029732,-0.00017820741049945354
1686445537427849000,2.190848876953125,0.004890391603112221,-0.015676772221922874,0.00003990542609244585
1686445537437866000,2.200865966796875,0.008085370063781738,-0.015728607773780823,0.005194514058530331
1686445537447882000,2.210882080078125,0.006309574004262686,-0.00500086136162281,0.011724318377673626
1686445537457898800,2.220898681640625,0.00271057803183794,0.007320253178477287,0.015161660499870777
1686445537467916000,2.230916015625,0.0009992308914661407,0.010642812587320805,0.013080932199954987
1686445537477933000,2.24093310546875,-0.00443601468577981,-0.004852789919823408,0.009190053679049015
1686445537487950000,2.2509501953125,-0.0032272054813802242,-0.02010844089090824,0.0032400197815150023
1686445537497966000,2.260966064453125,-0.0060356054455041885,-0.026198511943221092,-0.0028652783948928118
1686445537507982800,2.27098291015625,-0.008482784032821655,-0.018733670935034752,-0.0010410130489617586
1686445537517999900,2.280999755859375,-0.01147241797298193,-0.004343743436038494,-0.0035812538117170334
1686445537528017200,2.29101708984375,-0.01339894998818636,0.028111400082707405,0.003934985492378473
1686445537538034000,2.301033935546875,-0.008200854063034058,0.050615888088941574,0.010155982337892056
1686445537548050000,2.3110498046875,-0.006043427158147097,0.058144643902778625,0.021358301863074303
1686445537558067200,2.321067138671875,-0.0032565086148679256,0.04850102961063385,0.0262412391602993
1686445537568084000,2.331083984375,-0.0013531479053199291,0.023870782926678658,0.024207117035984993
1686445537578101000,2.34110107421875,-0.0036146962083876133,-0.003957701381295919,0.015646889805793762
1686445537588118000,2.351117919921875,-0.0077005173079669476,-0.01781572587788105,0.011826316826045513
1686445537598134000,2.361134033203125,-0.007977494969964027,-0.014455568045377731,0.016096992418169975
1686445537608151000,2.371151123046875,0.007444604765623808,-0.011204114183783531,0.02075379714369774
1686445537618167800,2.381167724609375,0.012957372702658176,-0.007959464564919472,0.030964000150561333
1686445537628185000,2.39118505859375,0.01538457814604044,-0.011281225830316544,0.036390721797943115
1686445537638201900,2.401201904296875,0.020341262221336365,-0.016449937596917152,0.030130397528409958
1686445537648217900,2.4112177734375,0.020260300487279892,-0.019701657816767693,0.020230097696185112
1686445537658235100,2.421235107421875,0.01647164672613144,-0.02099437825381756,0.0047399727627635
1686445537668252000,2.431251953125,0.01358957402408123,-0.025388594716787338,-0.01129358820617199
1686445537678269000,2.44126904296875,0.007735721301287413,-0.027128947898745537,-0.027590421959757805
1686445537688286000,2.451285888671875,0.00010789511725306511,-0.025855423882603645,-0.025536591187119484
1686445537698302000,2.461302001953125,-0.00659492751583457,-0.0063624149188399315,-0.01429641991853714
1686445537708319000,2.471319091796875,-0.009684992954134941,0.009310821071267128,0.0028436840511858463
1686445537718335700,2.481335693359375,-0.009180686436593533,0.01943088136613369,0.013224417343735695
1686445537728353000,2.49135302734375,-0.007848306559026241,0.0194961279630661,0.016237249597907066
1686445537738370000,2.5013701171875,-0.013045191764831543,0.019049732014536858,0.01347951777279377
1686445537748385800,2.5113857421875,-0.012138385325670242,0.015407594852149487,0.006072468124330044
1686445537758403000,2.521403076171875,-0.010978199541568756,0.024077637121081352,0.007569106295704842
1686445537768420000,2.531420166015625,-0.01184079796075821,0.03573109582066536,0.00906047597527504
1686445537778436900,2.541436767578125,-0.00523453438654542,0.04192253574728966,0.01286950521171093
1686445537788454100,2.5514541015625,-0.00021500885486602783,0.04809014871716499,0.010777592658996582
1686445537798470100,2.56147021484375,0.003783660940825939,0.050580594688653946,0.010703799314796925
1686445537808487000,2.57148681640625,0.006955219432711601,0.05054836720228195,0.009941602125763893
1686445537818504200,2.581504150390625,0.009775927290320396,0.051060907542705536,0.008327251300215721
1686445537828521000,2.59152099609375,0.011075816117227077,0.05281832814216614,0.004183105658739805
1686445537838538000,2.6015380859375,0.00803926307708025,0.044373802840709686,-0.005855085793882608
1686445537848554000,2.611553955078125,0.004077811259776354,0.02995705045759678,-0.011425619013607502
1686445537858571000,2.621571044921875,-0.0014366675168275833,0.010437434539198875,-0.01720825955271721
1686445537868588000,2.631588134765625,-0.0010363943874835968,-0.007320523262023926,-0.016741139814257622
1686445537878605000,2.64160498046875,-0.001366850920021534,-0.025193238630890846,-0.008831704966723919
1686445537888622000,2.6516220703125,-0.00012954650446772575,-0.03320802375674248,-0.0032795467413961887
1686445537898638000,2.66163818359375,0.002843477763235569,-0.034642960876226425,0.002688182983547449
1686445537908654800,2.67165478515625,0.0023923381231725216,-0.038306672126054764,0.0020098756067454815
1686445537918672100,2.681672119140625,0.004454311449080706,-0.03949722275137901,0.0037175528705120087
1686445537928689000,2.69168896484375,0.0013690395280718803,-0.038900140672922134,0.006046753376722336
1686445537938706000,2.701705810546875,-0.0006496286951005459,-0.0324404314160347,0.010679557919502258
1686445537948722200,2.71172216796875,-0.0013052988797426224,-0.021054616197943687,0.007730374578386545
1686445537958739000,2.721739013671875,-0.003377101384103298,-0.006017901003360748,0.002783404663205147
1686445537968756000,2.731755859375,-0.00159731088206172,0.013172571547329426,0.0009958907030522823
1686445537978773000,2.74177294921875,-0.0015606577508151531,0.02837820164859295,-0.0005617908318527043
1686445537988790000,2.7517900390625,-0.0009388094767928123,0.03944816440343857,0.0021857924293726683
1686445537998806000,2.761805908203125,-0.0015218551270663738,0.04108782857656479,0.005707586649805307
1686445538008823000,2.771822998046875,-0.0045043290592730045,0.03809496760368347,0.0016236294759437442
1686445538018840000,2.781840087890625,-0.004490036517381668,0.025997290387749672,0.002963433973491192
1686445538028857000,2.791857177734375,-0.007667453959584236,0.014282843098044395,0.004270247183740139
1686445538038873900,2.801873779296875,-0.0035450919531285763,0.005349199287593365,0.007334633730351925
1686445538048890000,2.81189013671875,-0.0019714301452040672,-0.009503782726824284,0.012552299536764622
1686445538058907100,2.8219072265625,-0.0017573828808963299,-0.024278566241264343,0.020680705085396767
1686445538068924000,2.831923828125,0.008135994896292686,-0.03552323207259178,0.0245478805154562
1686445538078941200,2.841941162109375,0.007495179772377014,-0.04285456985235214,0.021691586822271347
1686445538088958000,2.8519580078125,0.00545093696564436,-0.03899379074573517,0.015219041146337986
1686445538098974000,2.861973876953125,0.0030037187971174717,-0.02613767236471176,0.007735612336546183
1686445538108991000,2.871990966796875,0.0021341966930776834,-0.010850595310330391,-0.00023203319869935513
1686445538119008000,2.882008056640625,0.0035037794150412083,0.016884051263332367,-0.005288544576615095
1686445538129025000,2.89202490234375,0.0052864993922412395,0.03472909703850746,-0.003921277355402708
1686445538139041800,2.902041748046875,0.010664034634828568,0.04450773447751999,-0.0013851820258423686
1686445538149058000,2.91205810546875,0.009264543652534485,0.05057068541646004,0.006685793865472078
1686445538159075000,2.922074951171875,0.01051009725779295,0.05226051062345505,0.012381525710225105
1686445538169091800,2.932091796875,0.00013095932081341743,0.05073212459683418,0.014700872823596
1686445538179109000,2.942109130859375,0.00040829973295331,0.04699055477976799,0.012693086639046669
1686445538189126000,2.9521259765625,-0.006017641164362431,0.04877806827425957,0.010313285514712334
1686445538199142000,2.962141845703125,-0.0072482009418308735,0.04873891919851303,0.009853922761976719
1686445538209159000,2.972158935546875,-0.006721959915012121,0.04867766797542572,0.014774912968277931
1686445538219176000,2.982176025390625,-0.008595460094511509,0.044437188655138016,0.016854187473654747
1686445538229193000,2.99219287109375,-0.009001858532428741,0.03353234380483627,0.008381074294447899
1686445538239210200,3.002210205078125,-0.007353919558227062,0.028866630047559738,0.00012509897351264954
1686445538249226000,3.01222607421875,-0.0058993007987737656,0.027401892468333244,-0.011430091224610806
1686445538259243000,3.022242919921875,-0.0069852969609200954,0.02778247930109501,-0.0122145414352417
1686445538269260000,3.032260009765625,-0.0006389841437339783,0.027584340423345566,-0.01095832884311676
1686445538279277000,3.042277099609375,0.0016519378405064344,0.029086461290717125,-0.00885513611137867
1686445538289294000,3.052294189453125,0.0034066946245729923,0.03861445188522339,-0.0031791413202881813
1686445538299310000,3.06231005859375,0.0016848056111484766,0.03869100660085678,-0.0002957929391413927
1686445538309327000,3.0723271484375,-0.0034801289439201355,0.03470159322023392,0.0006743966368958354
1686445538319344000,3.08234423828125,-0.0034171324223279953,0.02082059159874916,-0.003554349998012185
1686445538329361000,3.09236083984375,-0.004003027454018593,0.004020572640001774,-0.010660196654498577
1686445538339378200,3.102378173828125,-0.005745031870901585,-0.005586857907474041,-0.012805083766579628
1686445538349394200,3.112394287109375,-0.005693899467587471,-0.011970721185207367,-0.010398118756711483
1686445538359411000,3.122410888671875,-0.004478197079151869,-0.009851714596152306,-0.0015307386638596654
1686445538369428000,3.132427978515625,-0.002595342230051756,0.0065155415795743465,0.010537376627326012
1686445538379445000,3.142445068359375,0.0007531708106398582,0.01397725846618414,0.01448835339397192
1686445538389462000,3.1524619140625,0.0004924475215375423,0.020556066185235977,0.00666451919823885
1686445538399478000,3.16247802734375,-0.005199989769607782,0.01989356242120266,0.003590433392673731
1686445538409495000,3.1724951171875,-0.009951867163181305,0.01705835945904255,-0.002736438298597932
1686445538419512000,3.182511962890625,-0.005231072660535574,0.011431736871600151,-0.005443454720079899
1686445538429528800,3.19252880859375,-0.004130388144403696,0.0071933153085410595,-0.0033874944783747196
1686445538439546000,3.202546142578125,-0.005764544941484928,0.008906237781047821,-0.005713881924748421
1686445538449562000,3.21256201171875,-0.0007644603028893471,0.011643434874713421,-0.00016491918358951807
1686445538459579000,3.222578857421875,-0.0006439150311052799,0.013794251717627048,-0.002296782098710537
1686445538469596000,3.232595947265625,0.002024039626121521,0.022218095138669014,0.0006928825750946999
1686445538479613200,3.24261328125,0.005602479912340641,0.02160346321761608,0.007145370822399855
1686445538489630000,3.2526298828125,0.006302358582615852,0.020735539495944977,0.01267142966389656
1686445538499646000,3.26264599609375,0.004673763643950224,0.01208437979221344,0.02117621712386608
1686445538509663200,3.272663330078125,0.003760033054277301,0.0016141626983880997,0.02483753114938736
1686445538519680000,3.282679931640625,0.0044342163018882275,-0.007840301841497421,0.019386082887649536
1686445538529697000,3.292697021484375,-0.0033408822491765022,-0.011298948898911476,0.0050002196803689
1686445538539714000,3.302714111328125,-0.007475771475583315,-0.010568587109446526,-0.008919881656765938
1686445538549730000,3.31272998046875,-0.009905640035867691,0.0032486917916685343,-0.01494581624865532
1686445538559747000,3.3227470703125,-0.010418875142931938,0.01629389449954033,-0.018946262076497078
1686445538569763800,3.332763916015625,-0.01000422053039074,0.02797185629606247,-0.011517641134560108
1686445538579781000,3.342781005859375,-0.009408436715602875,0.034789085388183594,-0.006319008301943541
1686445538589798000,3.3527978515625,-0.00989393051713705,0.037401117384433746,-0.006356026511639357
1686445538599814000,3.36281396484375,-0.012826906517148018,0.03850412368774414,-0.008106397464871407
1686445538609831200,3.3728310546875,-0.0039742919616401196,0.028866145759820938,-0.0074605816043913364
1686445538619848000,3.382847900390625,-0.006395698059350252,0.019807524979114532,-0.0033176299184560776
1686445538629865000,3.392864990234375,-0.005593020934611559,0.0043191127479076385,0.002467288402840495
1686445538639882000,3.402882080078125,-0.003057118970900774,-0.014917410910129547,0.0037582397926598787
1686445538649898000,3.41289794921875,-0.009740587323904037,-0.029360264539718628,-0.001511889509856701
1686445538659915000,3.4229150390625,-0.007306439336389303,-0.030740991234779358,-0.009180717170238495
1686445538669932000,3.43293212890625,-0.007283802609890699,-0.02034134790301323,-0.010398580692708492
1686445538679949000,3.442948974609375,-0.006968947593122721,0.000586716691032052,-0.006983056664466858
1686445538689966000,3.452966064453125,-0.00596972880885005,0.024630533531308174,-0.007809169590473175
1686445538699981800,3.46298193359375,-0.0009204638190567493,0.03655611723661423,-0.006343855056911707
1686445538709999000,3.4729990234375,-0.005839854944497347,0.036729756742715836,-0.007044532801955938
1686445538720016100,3.48301611328125,-0.006224610842764378,0.02580535039305687,-0.007459967862814665
1686445538730033700,3.49303369140625,-0.006760438904166222,0.017180437222123146,-0.004524631891399622
1686445538740050400,3.503050537109375,-0.0025808406062424183,0.012482160702347755,0.002284151269122958
1686445538750066400,3.51306640625,0.0032565423753112555,0.006027457304298878,0.00551962573081255
1686445538760083700,3.523083740234375,0.005277000367641449,-0.0032220203429460526,0.007030644454061985
1686445538770100500,3.5331005859375,0.00526901101693511,-0.01118194218724966,-0.0005676207365468144
1686445538780117500,3.543117431640625,0.005381419323384762,-0.015541677363216877,-0.0002893145428970456
1686445538790134800,3.553134765625,0.0033989620860666037,-0.01721254363656044,-0.0017013226170092821
1686445538800151600,3.563151611328125,0.006524852477014065,-0.013766705058515072,-0.00016669149044901133
1686445538810167600,3.57316748046875,0.0024422265123575926,-0.0038376408629119396,-0.003908965270966291
1686445538820184800,3.583184814453125,0.0016343696042895317,0.00047048204578459263,-0.0007314609247259796
1686445538830201600,3.59320166015625,-0.0023222886957228184,-0.003468333277851343,-0.0016707578906789422
1686445538840218600,3.603218505859375,-0.004681816324591637,-0.01566181145608425,-0.0072928122244775295
1686445538850235600,3.613235595703125,-0.005100465379655361,-0.034580107778310776,-0.01632998324930668
1686445538860251600,3.623251708984375,-0.007515782956033945,-0.03821048513054848,-0.021597716957330704
1686445538870268700,3.6332685546875,-0.00291091063991189,-0.0370354987680912,-0.02175990305840969
1686445538880285400,3.643285400390625,-0.004914121236652136,-0.03527688980102539,-0.027361584827303886
1686445538890302700,3.653302734375,-0.002996911760419607,-0.02437417209148407,-0.027216177433729172
1686445538900319500,3.663319580078125,0.0001223287545144558,-0.016288088634610176,-0.028457123786211014
1686445538910335500,3.67333544921875,0.0007380517199635506,-0.01456901803612709,-0.02385571412742138
1686445538920352800,3.683352783203125,0.005479088053107262,-0.022412465885281563,-0.01966923289000988
1686445538930369500,3.69336962890625,0.004879610612988472,-0.03624225780367851,-0.009486636146903038
1686445538940386600,3.703386474609375,0.008137172088027,-0.04759042337536812,-0.002043041167780757
1686445538950403600,3.713403564453125,0.008188837207853794,-0.057354636490345,0.0028470554389059544
1686445538960419600,3.723419677734375,0.008811166509985924,-0.06805305927991867,0.006609486881643534
1686445538970436600,3.7334365234375,0.009305182844400406,-0.07315114885568619,0.005920527037233114
1686445538980453400,3.743453369140625,0.009801965206861496,-0.08050237596035004,0.005856852978467941
1686445538990470700,3.753470703125,0.0070258853957057,-0.07859928160905838,0.005161767825484276
1686445539000487700,3.76348779296875,0.005171321798115969,-0.07592660188674927,0.00790114514529705
1686445539010503400,3.77350341796875,0.007262968458235264,-0.07248473167419434,0.017004894092679024
1686445539020520700,3.783520751953125,0.004055279307067394,-0.07090228796005249,0.023587102070450783
1686445539030537700,3.793537841796875,0.0026997304521501064,-0.06399457901716232,0.02970384992659092
1686445539040554500,3.803554443359375,0.0031717405654489994,-0.04206354171037674,0.026869524270296097
1686445539050571800,3.81357177734375,0.005984039045870304,-0.027123475447297096,0.019580451771616936
1686445539060587500,3.82358740234375,0.0013634390197694302,-0.02089872397482395,0.014407511800527573
1686445539070604500,3.8336044921875,0.004060954786837101,-0.016280269250273705,0.006246520206332207
1686445539080621600,3.84362158203125,0.005285096354782581,-0.01950681209564209,0.0018286611884832382
1686445539090638600,3.853638671875,0.0018032793886959553,-0.02124612219631672,-0.004663859028369188
1686445539100655600,3.863655517578125,0.0039143674075603485,-0.025135667994618416,-0.005060403607785702
1686445539110671600,3.873671630859375,0.0025795907713472843,-0.021417628973722458,-0.00002756202593445778
1686445539120688600,3.883688720703125,0.003984238486737013,-0.02107332833111286,0.0068039800971746445
1686445539130705700,3.89370556640625,0.0064793541096150875,-0.0167909674346447,0.019926972687244415
1686445539140722400,3.903722412109375,0.007190247531980276,-0.01047532819211483,0.021295839920639992
1686445539150739700,3.91373974609375,0.003990192897617817,-0.0010144483530893922,0.01355829369276762
1686445539160755700,3.923755615234375,0.00004381733015179634,0.004403849132359028,0.002106194384396076
1686445539170772500,3.9337724609375,0.00015567010268568993,0.006008137948811054,-0.014549480751156807
1686445539180789800,3.943789794921875,-0.005015414673835039,0.009275183081626892,-0.02047332376241684
1686445539190806500,3.953806640625,-0.007252203766256571,0.012302931398153305,-0.016497492790222168
1686445539200823600,3.963823486328125,-0.0063568162731826305,0.017305485904216766,-0.012740426696836948
1686445539210839600,3.973839599609375,-0.005533632356673479,0.019953731447458267,-0.005268129054456949
1686445539220856600,3.983856689453125,-0.0016686925664544106,0.030213074758648872,0.00007427739910781384
1686445539230873600,3.99387353515625,-0.0024673747830092907,0.030653027817606926,0.004253043793141842
1686445539240890600,4.003890625,0.00013333046808838844,0.029319074004888535,0.01619374193251133
1686445539250907600,4.01390771484375,0.0003367960453033447,0.02309606783092022,0.023193061351776123
1686445539260923600,4.023923583984375,-0.0038041756488382816,0.019112972542643547,0.022785609588027
1686445539270940400,4.0339404296875,-0.0017562052235007286,0.020717794075608253,0.016680313274264336
1686445539280957700,4.043957763671875,-0.0033602784387767315,0.010338413529098034,0.009796757251024246
1686445539290974700,4.053974609375,-0.0024177851155400276,0.004986525513231754,0.002467738464474678
1686445539300991500,4.063991455078125,-0.0016371291130781174,0.006478740833699703,-0.002416269388049841
1686445539311007500,4.074007568359375,-0.00312663521617651,0.0071109747514128685,-0.004719903692603111
1686445539321024800,4.084024658203125,-0.0014236094430088997,0.007975827902555466,-0.0019433170091360807
1686445539331041500,4.09404150390625,0.0011130510829389095,0.010911429300904274,-0.007231289520859718
1686445539341058600,4.10405859375,0.0025010118260979652,0.0038758402224630117,-0.006327476352453232
1686445539351075600,4.11407568359375,0.003217934863641858,-0.006511819548904896,-0.011955801397562027
1686445539361091600,4.124091552734375,-0.0011021411046385765,-0.009255769662559032,-0.01210416667163372
1686445539371108600,4.134108642578125,0.0013801914174109697,-0.008173727430403233,-0.009075886569917202
1686445539381125600,4.144125732421875,0.005135481245815754,-0.006701338104903698,-0.0060797082260251045
1686445539391142700,4.154142578125,0.0014494000934064388,-0.004384388215839863,-0.0010964010143652558
1686445539401159400,4.164159423828125,0.004768119193613529,0.0034033730626106262,-0.002754428656771779
1686445539411175400,4.174175537109375,0.002257557353004813,0.002442504744976759,0.0010730664944276214
1686445539421192700,4.184192626953125,0.006677468307316303,-0.0013231812044978142,0.006194207351654768
1686445539431209500,4.19420947265625,0.004487817175686359,0.0010760605800896883,0.011955423280596733
1686445539441226500,4.2042265625,0.0019461256451904774,-0.00014737481251358986,0.016670243814587593
1686445539451243500,4.214243408203125,0.001656373729929328,0.00007606437429785728,0.014447304420173168
1686445539461259500,4.224259521484375,-0.0010768328793346882,0.003920436836779118,0.010700184851884842
1686445539471276500,4.234276611328125,-0.001866459846496582,0.006259491667151451,0.0056465701200068
1686445539481293600,4.24429345703125,-0.002336549572646618,0.005565980449318886,0.005614498630166054
1686445539491310600,4.254310546875,0.00026029860600829124,0.007677867077291012,0.005511434283107519
1686445539501327600,4.26432763671875,0.001029281411319971,0.005270128138363361,0.007050624117255211
1686445539511343400,4.27434326171875,0.0008441917598247528,0.001987781608477235,0.009847208857536316
1686445539521360600,4.284360595703125,-0.0014027170836925507,0.0005640557501465082,0.004258831962943077
1686445539531377700,4.294377685546875,0.0008596382103860378,0.0014546168968081474,-0.001846464816480875
1686445539541394700,4.304394775390625,0.00321378605440259,-0.002184060635045171,-0.007675626780837774
1686445539551411700,4.31441162109375,0.0007346495985984802,-0.0006924241315573454,-0.007642869837582111
1686445539561427700,4.324427734375,0.0017327771056443453,0.0009729962330311537,-0.01011286024004221
1686445539571444500,4.334444580078125,0.000880831852555275,-0.0025048258248716593,-0.00507415970787406
1686445539581461800,4.344461669921875,-0.003847396932542324,-0.0054068490862846375,-0.004755459725856781
1686445539591478500,4.354478515625,0.0007201908156275749,-0.0010291446233168244,-0.00039400102104991674
1686445539601495600,4.36449560546875,0.002262656344100833,0.00477327685803175,0.004358536563813686
1686445539611511800,4.37451171875,0.0025942199863493443,0.013147586956620216,0.008726653642952442
1686445539621528600,4.384528564453125,0.0036864373832941055,0.01049052830785513,0.014488213695585728
1686445539631545600,4.394545654296875,0.0024517958518117666,0.007949606515467167,0.017221149057149887
1686445539641562600,4.404562744140625,0.002937229350209236,0.00009686383418738842,0.013811111450195312
1686445539651579600,4.41457958984375,-0.0013768253847956657,-0.00743748527020216,0.008092239499092102
1686445539661595600,4.424595703125,-0.000038757454603910446,-0.012503664009273052,0.0008175513939931989
1686445539671612400,4.4346123046875,-0.0018643545918166637,-0.014333255589008331,0.0012657615588977933
1686445539681629700,4.444629638671875,-0.0004272875376045704,-0.010600714944303036,-0.0035599777474999428
1686445539691646500,4.454646484375,-0.0007652430795133114,-0.008929315023124218,-0.009623995050787926
1686445539701663500,4.46466357421875,-0.004641378298401833,-0.0036216829903423786,-0.0053179264068603516
1686445539711680800,4.4746806640625,-0.0008972398936748505,-0.0013465445954352617,-0.008580564521253109
1686445539721696500,4.484696533203125,0.00010492419824004173,0.0036475849337875843,-0.006616544909775257
1686445539731713500,4.494713623046875,-0.00040933210402727127,0.010740116238594055,-0.0005232323310337961
1686445539741730800,4.504730712890625,0.002018637489527464,0.01302050705999136,0.0024806701112538576
1686445539751747600,4.51474755859375,0.003822662867605686,0.016082875430583954,0.010280270129442215
1686445539761764600,4.5247646484375,0.005792309530079365,0.013992172665894032,0.013392267748713493
1686445539771780600,4.534780517578125,0.0034170360304415226,0.009009931236505508,0.015027714893221855
1686445539781797600,4.544797607421875,0.002976860385388136,0.004971805028617382,0.010241592302918434
1686445539791814700,4.554814697265625,0.0007640398107469082,-0.0026307208463549614,0.0024683577939867973
1686445539801831400,4.56483154296875,-0.00169855123385787,-0.007395043503493071,-0.004112169146537781
1686445539811848700,4.5748486328125,0.0010154759511351585,-0.014139764942228794,-0.005258127115666866
1686445539821864700,4.58486474609375,-0.0033168774098157883,-0.014129330404102802,-0.007960637100040913
1686445539831881500,4.594881591796875,-0.004338199272751808,-0.008401935920119286,-0.0063923015259206295
1686445539841898800,4.604898681640625,-0.0011682207696139812,-0.0016983237583190203,-0.00728505477309227
1686445539851915500,4.61491552734375,-0.0021181702613830566,0.009507991373538971,-0.004930553957819939
1686445539861932500,4.6249326171875,0.001015733927488327,0.01701980084180832,0.002379316370934248
1686445539871948500,4.634948486328125,-0.0006998744793236256,0.02449156530201435,0.007674479857087135
1686445539881965600,4.644965576171875,0.004615973215550184,0.02183559350669384,0.012103019282221794
1686445539891982600,4.654982666015625,0.007351572625339031,0.016552679240703583,0.012878531590104103
1686445539901999600,4.66499951171875,0.00745704211294651,0.006989705376327038,0.015031209215521812
1686445539912016600,4.6750166015625,0.005749955773353577,-0.0009686189005151391,0.013621863909065723
1686445539922032600,4.68503271484375,0.0026161130517721176,-0.015087535604834557,0.005008424632251263
1686445539932049400,4.69504931640625,-0.0001668902114033699,-0.021765679121017456,0.0033034691587090492
1686445539942066700,4.705066650390625,-0.004457336850464344,-0.021351508796215057,-0.0018433613004162908
1686445539952083700,4.715083740234375,-0.0051854457706213,-0.013079462572932243,-0.003990135621279478
1686445539962100500,4.7251005859375,-0.007506880909204483,-0.0033618323504924774,-0.002019813284277916
1686445539972116700,4.73511669921875,-0.0061574578285217285,0.00651929434388876,-0.003778032260015607
1686445539982133500,4.745133544921875,-0.003793556708842516,0.00693319970741868,-0.0015680775977671146
1686445539992150500,4.755150634765625,-0.0030151144601404667,0.009507410228252411,-0.0020173529628664255
1686445540002167800,4.765167724609375,0.000671739224344492,0.011914254166185856,0.006110707297921181
1686445540012184600,4.7751845703125,0.0013814715202897787,0.0067562442272901535,0.004050752148032188
1686445540022200600,4.78520068359375,-0.0002780817449092865,0.0036347773857414722,0.001486010616645217
1686445540032217600,4.795217529296875,0.0035789741668850183,-0.0012089802185073495,0.0028503481298685074
1686445540042234600,4.805234619140625,0.004535031039267778,-0.0005572085501626134,0.0064432816579937935
1686445540052251600,4.815251708984375,0.005282846745103598,-0.0011745293159037828,0.0123160844668746
1686445540062268400,4.825268310546875,0.0027400096878409386,-0.003570502158254385,0.01490558311343193
1686445540072285700,4.83528564453125,0.0015061672311276197,-0.0031910017132759094,0.012745492160320282
1686445540082301700,4.8453017578125,0.004106477834284306,-0.006705042906105518,0.010348115116357803
1686445540092318500,4.855318359375,0.0012459764257073402,-0.0042413524352014065,0.007480156607925892
1686445540102335700,4.865335693359375,-0.0004076487384736538,-0.0022124352399259806,0.00009678839705884457
1686445540112352500,4.8753525390625,-0.000889947172254324,0.004204983823001385,-0.003677709959447384
1686445540122369500,4.88536962890625,-0.0008133002556860447,0.009065590798854828,-0.004526883363723755
1686445540132385500,4.895385498046875,0.000010415446013212204,0.011432342231273651,-0.006951957941055298
1686445540142402600,4.905402587890625,0.0008532893843948841,0.013190925121307373,-0.0030841887928545475
1686445540152419600,4.915419677734375,0.002814175095409155,0.011111263185739517,0.002171559492126107
1686445540162436600,4.9254365234375,0.003037314163520932,0.005542520433664322,0.0037344247102737427
1686445540172453600,4.93545361328125,0.003590186359360814,-0.0002373380120843649,0.007125161122530699
1686445540182469600,4.9454697265625,0.003027038648724556,-0.002820483176037669,0.01269590575248003
1686445540192486400,4.955486328125,0.0019436648581176996,-0.004162450321018696,0.008886787109076977
1686445540202503700,4.965503662109375,0.0019621176179498434,-0.0021071929950267076,0.0050334506668150425
1686445540212520700,4.975520751953125,-0.001547396183013916,-0.003533848561346531,0.0002911596093326807
1686445540222537500,4.985537353515625,-0.0018442869186401367,-0.00012027984485030174,-0.007472862955182791
1686445540232553500,4.995553466796875,-0.0014504054561257362,0.004837993532419205,-0.010737897828221321
1686445540242570800,5.00557080078125,-0.002393387258052826,0.0062963650561869144,-0.012757794000208378
1686445540252587500,5.01558740234375,-0.0005432893522083759,0.005072376225143671,-0.009989437647163868
1686445540262604800,5.025604736328125,-0.0006671263836324215,0.012398999184370041,-0.009702349081635475
1686445540272621600,5.03562158203125,-0.00238726194947958,0.018202824518084526,-0.006439178250730038
1686445540282637600,5.045637451171875,-0.0016731396317481995,0.016582848504185677,-0.0005529112531803548
1686445540292654600,5.055654541015625,-0.0005570086650550365,0.01080006081610918,0.0021467353217303753
1686445540302671600,5.065671630859375,0.001932341605424881,0.0037884414196014404,0.009735951200127602
1686445540312688600,5.075688720703125,-0.002748429775238037,-0.00032081594690680504,0.008951384574174881
1686445540322705400,5.085705322265625,-0.0015017776750028133,-0.0063381073996424675,0.012913275510072708
1686445540332721700,5.0957216796875,-0.0014069690369069576,-0.010000486858189106,0.009465280920267105
1686445540342738700,5.10573876953125,-0.0018894048407673836,-0.010039078071713448,0.003973991144448519
1686445540352755500,5.11575537109375,-0.0006726067513227463,-0.007858481258153915,0.0038874386809766293
1686445540362772700,5.125772705078125,0.00030249636620283127,-0.003286294173449278,-0.0017092811176553369
1686445540372789500,5.13578955078125,0.0030724501702934504,0.0057037388905882835,-0.0026163537986576557
1686445540382805500,5.145805419921875,0.0004668310284614563,0.014532020315527916,0.0001490109134465456
1686445540392822500,5.155822509765625,0.002953957300633192,0.020315075293183327,0.0027067107148468494
1686445540402839600,5.165839599609375,0.0017971997149288654,0.024027859792113304,0.0013265738962218165
1686445540412856600,5.175856689453125,-0.001042529009282589,0.02797120250761509,-0.004700426012277603
1686445540422873600,5.18587353515625,-0.0028793015517294407,0.027394047006964684,-0.004699125420302153
1686445540432889600,5.1958896484375,-0.007581645157188177,0.021853074431419373,-0.0010806883219629526
1686445540442906600,5.20590673828125,-0.0054757557809352875,0.013045758940279484,0.0031357768457382917
1686445540452923600,5.215923583984375,-0.0009419904090464115,0.0009020110592246056,0.006390692666172981
1686445540462940700,5.225940673828125,-0.000446962658315897,-0.00933409295976162,0.008446307852864265
1686445540472957700,5.235957763671875,0.002251884900033474,-0.014209807850420475,0.009272420778870583
1686445540482974500,5.245974365234375,0.001640665577724576,-0.014296432957053185,0.009274031966924667
1686445540492990500,5.255990478515625,0.0013149611186236143,-0.009755210019648075,0.006935776676982641
1686445540503007700,5.2660078125,0.0026463528629392385,-0.003768641036003828,0.0046026455238461494
1686445540513024500,5.2760244140625,0.0020519352983683348,0.0004375556018203497,-0.0015220919158309698
1686445540523041500,5.28604150390625,0.004026678390800953,0.003149936441332102,-0.007249783258885145
1686445540533058600,5.29605859375,-0.0007606199942529202,0.007968926802277565,-0.00732408557087183
1686445540543074600,5.306074462890625,-0.00038349954411387444,0.008158180862665176,-0.010581991635262966
1686445540553091600,5.316091552734375,0.0005368888378143311,0.015411032363772392,-0.00886558461934328
1686445540563108600,5.326108642578125,-0.0026169386692345142,0.01846102997660637,-0.002953043207526207
1686445540573125600,5.336125732421875,-0.0011037308722734451,0.012230564840137959,0.0005340998759493232
1686445540583142400,5.346142333984375,-0.0012806421145796776,0.008616825565695763,0.006441534496843815
1686445540593158400,5.356158447265625,0.00030207447707653046,0.00279115978628397,0.013801978901028633
1686445540603175700,5.36617578125,0.0037196159828454256,-0.005027566105127335,0.01093774288892746
1686445540613192400,5.3761923828125,-0.0017380001954734325,-0.012030348181724548,0.009148631244897842
1686445540623209700,5.386209716796875,-0.00024033384397625923,-0.01613449677824974,0.003153851255774498
1686445540633226800,5.396226806640625,-0.000027813483029603958,-0.011183947324752808,-0.006543783470988274
1686445540643242500,5.406242431640625,0.0012347043957561255,-0.003660299815237522,-0.006586618255823851
1686445540653259500,5.416259521484375,0.0007337639108300209,0.011119178496301174,-0.004962089937180281
1686445540663276800,5.42627685546875,0.0010198489762842655,0.012396092526614666,-0.0048685637302696705
1686445540673293600,5.43629345703125,-0.0005450244061648846,0.013540718704462051,-0.004004101734608412
1686445540683310600,5.446310546875,0.0004125111736357212,0.010415790602564812,-0.0034833052195608616
1686445540693326600,5.45632666015625,0.0009800312109291553,0.010049073025584221,-0.0005343870143406093
1686445540703343600,5.466343505859375,-0.002235927153378725,0.0009581542108207941,0.0010095163015648723
1686445540713360600,5.476360595703125,-0.0023629600182175636,-0.0029769325628876686,0.0005804810207337141
1686445540723377700,5.486377685546875,0.0030523387249559164,-0.009974799118936062,0.0018057074630632997
1686445540733394200,5.496394287109375,-0.001816718839108944,-0.005468730814754963,-0.0028241979889571667
1686445540743410400,5.506410400390625,-0.00261547788977623,-0.0018673862796276808,-0.005778509192168713
1686445540753427200,5.51642724609375,-0.0007254322990775108,0.006061110645532608,-0.002966210711747408
1686445540763444200,5.5264443359375,-0.000785396434366703,0.009413739666342735,-0.004207356832921505
1686445540773461200,5.536461181640625,0.001585349440574646,0.009736781008541584,-0.0017271552933380008
1686445540783478300,5.546478271484375,0.001287607941776514,0.00808988232165575,0.002455339301377535
1686445540793495300,5.556495361328125,0.003207481000572443,0.007150053046643734,0.006035692989826202
1686445540803511300,5.56651123046875,-0.000655047595500946,0.004137824289500713,0.007151204627007246
1686445540813528300,5.5765283203125,-0.0013898140750825405,0.0006666600238531828,-0.0033544334582984447
1686445540823545300,5.58654541015625,0.0012241050135344267,-0.003752201795578003,-0.0029872762970626354
1686445540833562400,5.596562255859375,0.0009058574214577675,-0.004712005145847797,-0.0032511954195797443
1686445540843578400,5.606578369140625,0.0006578904576599598,-0.006500172894448042,0.00009329488966614008
1686445540853595100,5.61659521484375,0.0008903844282031059,-0.0030407265294343233,-0.0007903419900685549
1686445540863612200,5.626612060546875,0.00013992376625537872,0.0006713569164276123,-0.0008005238487385213
1686445540873629400,5.63662939453125,-0.00005715014412999153,0.0023368981201201677,0.001893530017696321
1686445540883646200,5.646646240234375,-0.002235294319689274,0.003142380155622959,0.002758126240223646
1686445540893663200,5.656663330078125,0.0043749380856752396,0.0008363488595932722,0.0031743780709803104
1686445540903679500,5.666679443359375,-0.0029106074944138527,-0.003131830831989646,0.004714529495686293
1686445540913696300,5.6766962890625,0.0018034540116786957,-0.006181682925671339,0.0026524439454078674
1686445540923713300,5.68671337890625,-0.00029558176174759865,-0.00837118923664093,0.002054320415481925
1686445540933730300,5.696730224609375,-0.0017209057696163654,-0.006433473899960518,-0.0022850341629236937
1686445540943747300,5.706747314453125,-0.0005787801928818226,-0.0038432348519563675,-0.01019398681819439
1686445540953763300,5.716763427734375,-0.0019772062078118324,-0.002036546589806676,-0.01197510864585638
1686445540963780000,5.726780029296875,0.000023706350475549698,0.0009441613219678402,-0.010278687812387943
1686445540973797400,5.73679736328125,-0.00016804086044430733,0.0038033309392631054,-0.009159095585346222
1686445540983814100,5.746814208984375,-0.001475741621106863,0.00910163950175047,-0.0031648080330342054
1686445540993831200,5.7568310546875,0.0031424458138644695,0.012376529164612293,0.0015665639657527208
1686445541003847400,5.766847412109375,0.0002978909760713577,0.007143395021557808,0.005767477676272392
1686445541013864200,5.7768642578125,0.00036526890471577644,0.001100416062399745,0.0026710201054811478
1686445541023881200,5.786881103515625,0.002932814182713628,-0.0066333552822470665,0.003931524697691202
1686445541033898200,5.796898193359375,-0.0013639298267662525,-0.010151923634111881,0.005265235900878906
1686445541043915300,5.806915283203125,0.00048788683488965034,-0.009641855023801327,0.0015662837540730834
1686445541053931300,5.81693115234375,0.00010199472308158875,0.00021956395357847214,-0.0010896866442635655
1686445541063948000,5.826947998046875,-0.005135927349328995,-0.0023015541955828667,-0.0006342247361317277
1686445541073965300,5.83696533203125,-0.00023144995793700218,0.0009725361596792936,-0.005977325141429901
1686445541083982300,5.846982421875,-0.0049582356587052345,0.0012856500688940287,-0.008650551550090313
1686445541093999000,5.8569990234375,0.0001995079219341278,0.004655081778764725,-0.0074896798469126225
1686445541104015400,5.867015380859375,-0.003051742445677519,0.0031816279515624046,-0.004839622415602207
1686445541114032400,5.877032470703125,-0.000853302888572216,0.0035179853439331055,-0.008234886452555656
1686445541124049200,5.887049072265625,0.00014025671407580376,0.0017782149370759726,-0.006717237643897533
1686445541134066400,5.89706640625,0.0025261826813220978,0.00393857154995203,-0.001873480505309999
1686445541144083200,5.907083251953125,0.005011024884879589,-0.0009152598213404417,0.0036593079566955566
1686445541154100200,5.917100341796875,0.0023260258603841066,-0.0024993079714477062,0.0074615031480789185
1686445541164116200,5.9271162109375,0.001073235645890236,-0.006074890494346619,0.006014915648847818
1686445541174133200,5.93713330078125,-0.0004833820275962353,-0.010827034711837769,-0.00023392541334033012
1686445541184150300,5.947150390625,-0.00569500308483839,-0.011851288378238678,-0.0027549052610993385
1686445541194167300,5.957167236328125,-0.002816658467054367,-0.009549785405397415,-0.002908037044107914
1686445541204184300,5.967184326171875,-0.004547135438770056,-0.0033731372095644474,-0.005193110555410385
1686445541214200300,5.977200439453125,-0.008053986355662346,-0.0027307828422635794,-0.011644352227449417
1686445541224217000,5.987217041015625,-0.006444877479225397,0.004682779312133789,-0.009796743281185627
1686445541234234400,5.997234375,-0.004525004420429468,0.009543580934405327,0.0005528331967070699
1686445541244251100,6.007251220703125,-0.00045087607577443123,0.009220660664141178,0.005378656089305878
1686445541254268200,6.01726806640625,0.0009866985492408276,0.001927593955770135,0.009862087666988373
1686445541264284400,6.027284423828125,-0.0006715832278132439,-0.0039254045113921165,0.009414240717887878
1686445541274301200,6.03730126953125,0.0014767886605113745,-0.007932662963867188,0.011481653898954391
1686445541284318200,6.047318115234375,0.002767320489510894,-0.006820601411163807,0.003886709688231349
1686445541294335500,6.05733544921875,0.004969488363713026,-0.00548236258327961,0.00046294997446238995
1686445541304352300,6.067352294921875,0.0032026637345552444,-0.008031805045902729,-0.002828756347298622
1686445541314368300,6.0773681640625,0.001856702147051692,-0.007265879772603512,-0.008274654857814312
1686445541324385300,6.08738525390625,0.0006517507135868073,-0.004246896132826805,-0.011163502931594849
1686445541334402300,6.09740234375,-0.0005594547837972641,-0.0002452306216582656,-0.008871054276823997
1686445541344419300,6.10741943359375,0.0014282548800110817,0.003104611299932003,-0.0037559340707957745
1686445541354436000,6.11743603515625,0.00005539506673812866,0.00637870142236352,-0.0013966395054012537
1686445541364452400,6.127452392578125,-0.0015290360897779465,0.008523855358362198,0.0028516408056020737
1686445541374469400,6.137469482421875,0.00015461444854736328,0.00839043129235506,0.003778420854359865
1686445541384486100,6.147486083984375,-0.0018799146637320518,0.008500393480062485,0.00449397461488843
1686445541394503400,6.15750341796875,0.0006426316685974598,0.002154880203306675,0.008159282617270947
1686445541404520200,6.167520263671875,0.00035855406895279884,-0.0017361650243401527,0.0061531076207757
1686445541414536200,6.1775361328125,0.0024243684019893408,-0.0090316291898489,0.006546988617628813
1686445541424553200,6.18755322265625,-0.00011658947914838791,-0.006469474174082279,-0.0018690085271373391
1686445541434570200,6.1975703125,-0.002160831820219755,-0.004513915162533522,-0.008418520912528038
1686445541444587300,6.207587158203125,0.00012239022180438042,-0.00040971837006509304,-0.01649569161236286
1686445541454604000,6.21760400390625,-0.003150900825858116,0.004675321280956268,-0.01846829615533352
1686445541464620300,6.227620361328125,-0.0005568373017013073,0.008091236464679241,-0.01276976428925991
1686445541474637300,6.23763720703125,-0.0029922984540462494,0.015069251880049706,-0.006377379409968853
1686445541484654000,6.247654052734375,-0.0032146181911230087,0.018606705591082573,-0.00124911789316684
1686445541494671400,6.25767138671875,0.002221958711743355,0.018197378143668175,0.005318503826856613
1686445541504688400,6.2676884765625,-0.0004514683969318867,0.009970679879188538,0.00409309659153223
1686445541514705200,6.277705078125,0.0008228542283177376,0.0026472527533769608,0.0029127835296094418
1686445541524721200,6.28772119140625,-0.003438838291913271,-0.004499508999288082,0.00043846573680639267
1686445541534738200,6.29773828125,0.00024910736829042435,-0.012852514162659645,-0.0013240142725408077
1686445541544755200,6.307755126953125,0.002615720732137561,-0.012371789664030075,-0.001197365578263998
1686445541554772500,6.3177724609375,0.002411189954727888,-0.00791126023977995,0.00010678439866751432
1686445541564789200,6.327789306640625,0.0026394561864435673,-0.002669022185727954,-0.0016393058467656374
1686445541574805200,6.33780517578125,0.0013179956004023552,0.00048788893036544323,-0.0002446083817631006
1686445541584822300,6.347822265625,-0.0017449655570089817,0.005880330689251423,-0.00034133298322558403
1686445541594839300,6.35783935546875,0.000957343727350235,0.00995123852044344,-0.0008105820161290467
1686445541604856300,6.367856201171875,-0.0023150471970438957,0.008858179673552513,0.0022645466960966587
1686445541614873000,6.377873046875,-0.0005365884862840176,0.002283367095515132,0.001206206507049501
1686445541624889300,6.387889404296875,0.001216451870277524,0.0009229523129761219,-0.004174358211457729
1686445541634906400,6.39790625,-0.0031276969239115715,0.007138770539313555,-0.004904863424599171
1686445541644923100,6.407923095703125,-0.004610389471054077,0.010717405937612057,-0.005496828816831112
1686445541654940400,6.4179404296875,-0.005174979567527771,0.016795272007584572,-0.006105361040681601
1686445541664957200,6.427957275390625,-0.004415308590978384,0.01744372770190239,0.0009326924337074161
1686445541674973200,6.43797314453125,-0.00342834135517478,0.018189944326877594,0.005991899408400059
1686445541684990200,6.447990234375,-0.0008375342004001141,0.013156302273273468,0.005620693787932396
1686445541695007200,6.45800732421875,-0.0026309071108698845,0.005027003586292267,0.002870714059099555
1686445541705024300,6.468024169921875,-0.0009290422312915325,0.003542243968695402,0.003513762727379799
1686445541715041300,6.478041259765625,-0.0041336240246891975,0.0001794705167412758,0.002161675598472357
1686445541725057300,6.488057373046875,-0.0004929620772600174,-0.001735535915941,0.0006134923314675689
1686445541735074000,6.498073974609375,-0.0013899151235818863,-0.0019778835121542215,0.0005855292547494173
1686445541745091000,6.508091064453125,0.0009443033486604691,0.0016202896367758512,-0.003639955073595047
1686445541755108000,6.518108154296875,0.004486041143536568,0.002240007510408759,-0.0072259013541042805
1686445541765125000,6.528125,0.0006944532506167889,-0.0035233651287853718,-0.006165807135403156
1686445541775141000,6.53814111328125,0.0003628898411989212,-0.004487696103751659,-0.007860642857849598
1686445541785158100,6.548158203125,-0.001317382324486971,-0.004598215688019991,-0.007528319023549557
1686445541795175200,6.558175048828125,-0.0005613109096884727,-0.00409514456987381,-0.0044345250353217125
1686445541805192200,6.568192138671875,-0.00011752545833587646,-0.0024904210586100817,0.001151697593741119
1686445541815209200,6.578209228515625,-0.0005987589247524738,-0.0011636342387646437,0.002716571092605591
1686445541825226000,6.58822607421875,-0.00028243474662303925,-0.0005605731857940555,0.002816577209159732
1686445541835242000,6.598241943359375,-0.0026712901890277863,0.0005134798120707273,-0.0009677747148089111
1686445541845259300,6.60825927734375,0.00012631714344024658,0.0005307663232088089,-0.0008312678546644747
1686445541855276000,6.618276123046875,-0.0012026000767946243,-0.0025198846124112606,0.0006949896924197674
1686445541865293000,6.62829296875,-0.00007579848170280457,-0.003478985745459795,0.004259036388248205
1686445541875310000,6.63831005859375,0.003525327891111374,-0.0007055698661133647,0.003532792441546917
1686445541885326000,6.648326171875,-0.0019043968059122562,0.005750850774347782,0.0033082712907344103
1686445541895343000,6.658343017578125,-0.0013667047023773193,0.00682144146412611,-0.0022819701116532087
1686445541905360100,6.668360107421875,-0.000577995553612709,0.009928479790687561,-0.005853716284036636
1686445541915377200,6.678377197265625,0.0013282953295856714,0.005923084914684296,-0.0031974792946130037
1686445541925394200,6.688394287109375,0.0003622286021709442,0.0020820319186896086,-0.007121764589101076
1686445541935410000,6.698409912109375,-0.0004977062344551086,0.0012734963092952967,-0.0051803202368319035
1686445541945427200,6.70842724609375,-0.002702931873500347,-0.0022661350667476654,-0.0015508468495681882
1686445541955444200,6.7184443359375,-0.002713317982852459,-0.005471249110996723,-0.005991667974740267
1686445541965461200,6.728461181640625,-0.002309019211679697,-0.0037948216777294874,-0.004611944779753685
1686445541975478300,6.738478271484375,-0.00011111283674836159,-0.00013617100194096565,-0.001183923683129251
1686445541985494000,6.748493896484375,0.0009653246961534023,0.0033498427364975214,0.0009324882412329316
1686445541995511000,6.758510986328125,0.00349239818751812,0.000045925378799438477,0.004448127467185259
1686445542005528300,6.7685283203125,0.0004329937510192394,-0.002505842363461852,0.0037427982315421104
1686445542015545000,6.778545166015625,0.0027986797504127026,-0.005634523928165436,0.006316210608929396
1686445542025562000,6.78856201171875,0.0030001436825841665,-0.0074222800321877,0.005716348998248577
1686445542035578400,6.798578369140625,-0.002072645351290703,-0.010376791469752789,-0.0008664524066261947
1686445542045595100,6.80859521484375,0.0001440146006643772,-0.012175901792943478,-0.008801929652690887
1686445542055612200,6.818612060546875,-0.0033921310678124428,-0.00839607696980238,-0.008792341686785221
1686445542065629200,6.828629150390625,-0.0012537776492536068,-0.003985447809100151,-0.00820833444595337
1686445542075646200,6.838646240234375,-0.0011355332098901272,0.0036828580778092146,-0.005276460200548172
1686445542085663000,6.8486630859375,-0.003017517738044262,0.009207895956933498,0.00002170773223042488
1686445542095679000,6.858678955078125,-0.0012547713704407215,0.008976999670267105,0.0018473046366125345
1686445542105696300,6.8686962890625,-0.0011908821761608124,0.008563392795622349,-0.0003510998794808984
1686445542115713000,6.878713134765625,0.0007542907260358334,0.005740441381931305,-0.0059437379240989685
1686445542125730000,6.88872998046875,-0.00015286821871995926,0.0020138800609856844,0.0018867193721234798
1686445542135747000,6.8987470703125,0.00023222481831908226,-0.0036352169699966908,0.002628942485898733
1686445542145763000,6.90876318359375,0.0029766536317765713,-0.007049680687487125,0.004747944418340921
1686445542155780000,6.918780029296875,0.0006024455651640892,-0.007217993028461933,0.00353487441316247
1686445542165797000,6.928797119140625,-0.0012153666466474533,-0.008311394602060318,-0.0008730818517506123
1686445542175814100,6.938814208984375,-0.0028241826221346855,-0.004315055441111326,-0.009391202591359615
1686445542185831200,6.9488310546875,-0.003331833053380251,-0.0014909128658473492,-0.009607590734958649
1686445542195847000,6.958846923828125,-0.0023845466785132885,-0.0024054422974586487,-0.010971928015351295
1686445542205864200,6.9688642578125,-0.0021267347037792206,0.0026973444037139416,-0.003636846086010337
1686445542215881200,6.978881103515625,-0.0019253995269536972,0.004425736144185066,-0.00483367033302784
1686445542225898000,6.98889794921875,-0.0005202889442443848,0.002846868708729744,-0.002771944273263216
1686445542235915300,6.998915283203125,-0.0027442947030067444,-0.00034706026781350374,-0.005386102944612503
1686445542245931300,7.00893115234375,0.001613160129636526,0.004273040220141411,-0.0014997213147580624
1686445542255948000,7.018947998046875,0.002495998051017523,-0.0005398244829848409,-0.004501370247453451
1686445542265965300,7.02896533203125,-0.0011643772013485432,0.0010849412064999342,0.0020398185588419437
1686445542275982000,7.038982177734375,0.0024226345121860504,-0.0031513492576777935,0.0022185170091688633
1686445542285999000,7.0489990234375,-0.0011552046053111553,-0.005293833091855049,0.00454405602067709
1686445542296015000,7.05901513671875,-0.0006092567928135395,-0.010145047679543495,0.00457414984703064
1686445542306032000,7.0690322265625,-0.0031568678095936775,-0.010545030236244202,0.0038911979645490646
1686445542316049200,7.079049072265625,-0.0044128140434622765,-0.010613473132252693,-0.0011024953564628959
1686445542326066200,7.089066162109375,-0.002764340490102768,-0.00776459276676178,-0.008176358416676521
1686445542336083200,7.099083251953125,-0.002639703918248415,-0.0029354828875511885,-0.008807261474430561
1686445542346099200,7.10909912109375,0.00009543308988213539,0.00025261053815484047,-0.0071449968963861465
1686445542356116000,7.119115966796875,0.00017319712787866592,0.002994867507368326,-0.007793210446834564
1686445542366133200,7.12913330078125,-0.0012930463999509811,0.003935278858989477,-0.00844835489988327
1686445542376150000,7.13914990234375,0.001969059696421027,0.007624289486557245,-0.003371570259332657
1686445542386167000,7.1491669921875,0.0009638303890824318,0.006856330670416355,-0.0011027969885617495
1686445542396184300,7.159184326171875,-0.002541688270866871,-0.0002484506694599986,0.010113105177879333
1686445542406200000,7.169199951171875,-0.0034188274294137955,-0.00545493233948946,0.011804021894931793
1686445542416217000,7.179217041015625,-0.0032997839152812958,-0.01086967159062624,0.006632695905864239
1686445542426234400,7.189234375,-0.0023618726991117,-0.018997762352228165,0.005006399005651474
1686445542436251100,7.199251220703125,-0.0035371254198253155,-0.017686687409877777,0.002262810245156288
1686445542446268200,7.20926806640625,-0.001532598864287138,-0.011663197539746761,0.0005141465226188302
1686445542456284200,7.2192841796875,-0.0004420340992510319,-0.004748033359646797,-0.0017966784071177244
1686445542466301200,7.22930126953125,-0.0008700424805283546,-0.0015629627741873264,-0.001147620496340096
1686445542476318200,7.239318115234375,-0.0004987982101738453,0.0029420405626296997,-0.01038932241499424
1686445542486335000,7.2493349609375,0.0010147667489945889,0.008258726447820663,-0.010152331553399563
1686445542496352300,7.259352294921875,0.0032411692664027214,0.01125345192849636,-0.009102779440581799
1686445542506368300,7.2693681640625,0.0034093179274350405,0.01013133954256773,0.002329927636310458
1686445542516385000,7.279385009765625,0.0018441781867295504,0.006238597445189953,0.0034620375372469425
1686445542526402300,7.28940234375,0.005993010010570288,0.0012446381151676178,0.011232945136725903
1686445542536419000,7.299419189453125,0.0017663072794675827,-0.0033650274854153395,0.011114700697362423
1686445542546436000,7.30943603515625,0.001797626493498683,-0.011012464761734009,0.012409326620399952
1686445542556452000,7.3194521484375,-0.002085528802126646,-0.010501403361558914,0.00830353144556284
1686445542566469000,7.32946923828125,-0.0012524635531008244,-0.010556748136878014,0.00216493709012866
1686445542576486100,7.339486083984375,-0.002153943758457899,-0.007215013727545738,-0.0003208576235920191
1686445542586503000,7.3495029296875,-0.003529457375407219,-0.004616785328835249,-0.0015006428584456444
1686445542596520200,7.359520263671875,-0.0004417882300913334,0.0023995786905288696,-0.00544371921569109
1686445542606536200,7.3695361328125,-0.0010578436776995659,0.010424481704831123,-0.002905690809711814
1686445542616553000,7.379552978515625,0.0008724154904484749,0.014564365148544312,-0.0016297702677547932
1686445542626570200,7.3895703125,-0.0007463125512003899,0.01636248268187046,-0.0029656034894287586
1686445542636587300,7.399587158203125,-0.001444859430193901,0.012781595811247826,-0.0006486534839496017
1686445542646604000,7.40960400390625,0.00173239316791296,0.013649472035467625,0.000911927199922502
1686445542656621300,7.419621337890625,0.0006966898217797279,0.009779899381101131,0.0008850292069837451
1686445542666637000,7.429636962890625,0.001537729986011982,0.004176899790763855,-0.005292097572237253
1686445542676654000,7.439654052734375,0.0020075116772204638,-0.0043175192549824715,-0.003914178349077702
1686445542686671400,7.44967138671875,-0.0016742199659347534,-0.008225539699196815,-0.0016217890661209822
1686445542696688000,7.459688232421875,-0.0000733938068151474,-0.00878986343741417,-0.0018694630125537515
1686445542706705200,7.469705078125,-0.0038946284912526608,-0.008536184206604958,-0.004636627621948719
1686445542716721200,7.47972119140625,0.0012894803658127785,-0.0017563082510605454,-0.003555118106305599
1686445542726738200,7.48973828125,-0.002730955369770527,0.003377922810614109,-0.0019245627336204052
1686445542736755700,7.499755615234375,0.00019239680841565132,0.003965682350099087,0.0029074768535792828
1686445542746772700,7.509772705078125,0.0005572177469730377,0.01058925874531269,0.002973555587232113
1686445542756789800,7.519789794921875,0.0022387374192476273,0.011240402236580849,0.006844992749392986
1686445542766805800,7.5298056640625,-0.0005553648807108402,0.008447762578725815,0.006987974513322115
1686445542776822800,7.53982275390625,0.0029062116518616676,0.005579537712037563,0.005614049267023802
1686445542786839800,7.54983984375,0.00130260712467134,-0.000568301766179502,0.0037695744540542364
1686445542796856600,7.559856689453125,0.002971610287204385,-0.0030208067037165165,0.004513927735388279
1686445542806873900,7.569873779296875,0.0027475585229694843,-0.004978492856025696,0.00618768110871315
1686445542816889900,7.579889892578125,0.0014577896799892187,-0.004743069410324097,0.00847134180366993
1686445542826906600,7.58990673828125,-0.0007410412654280663,-0.0012677639024332166,0.0015620907070115209
1686445542836924000,7.599923828125,0.0008264952339231968,-0.0007284737657755613,0.0005892381304875016
1686445542846940700,7.609940673828125,-0.00005943933501839638,0.004225950688123703,-0.00006051815580576658
1686445542856957700,7.619957763671875,-0.0017060721293091774,0.0060930922627449036,-0.003028078470379114
1686445542866974700,7.629974609375,0.0025297030806541443,0.0057941400445997715,-0.00035964627750217915
1686445542876990700,7.63999072265625,-0.0017883460968732834,0.007309212815016508,0.00023690180387347937
1686445542887007700,7.6500078125,0.0010057021863758564,0.006956585682928562,0.004870050586760044
1686445542897024500,7.6600244140625,-0.00025423942133784294,0.0024265481624752283,0.004893752746284008
1686445542907041800,7.670041748046875,0.00040749460458755493,-0.003784435335546732,0.005861202720552683
1686445542917058800,7.680058837890625,0.0008304044604301453,-0.003377504413947463,0.0007897448958829045
1686445542927074600,7.690074462890625,0.000014170072972774506,-0.001953164115548134,0.0019149838481098413
1686445542937091800,7.700091796875,0.0030610929243266582,0.001301218755543232,0.0017666458152234554
1686445542947108900,7.71010888671875,0.004399420693516731,0.0015026982873678207,0.0004950795555487275
1686445542957125600,7.720125732421875,0.001423870911821723,0.0020995126105844975,-0.0017739336472004652
1686445542967143000,7.730142822265625,0.003944506868720055,0.0018521291203796864,-0.005771722178906202
1686445542977159000,7.740158935546875,-0.002225238364189863,-0.0008118307450786233,-0.001585233025252819
1686445542987175700,7.75017578125,-0.0004968461580574512,-0.001260628690943122,-0.00446485448628664
1686445542997192700,7.760192626953125,-0.004067612811923027,0.004175415728241205,-0.004298673011362553
1686445543007209700,7.770209716796875,-0.003054260276257992,0.0028329240158200264,-0.003212226089090109
1686445543017226800,7.780226806640625,-0.0009005614556372166,0.0027644806541502476,-0.0018998202867805958
1686445543027242800,7.79024267578125,-0.005925346165895462,0.004398425575345755,-0.001910107210278511
1686445543037259800,7.800259765625,0.00021643564105033875,-0.00029779260512441397,0.0008409380679950118
1686445543047276800,7.81027685546875,-0.001642792485654354,-0.003310141619294882,0.0033769975416362286
1686445543057293600,7.82029345703125,-0.0028297635726630688,-0.010906542651355267,-0.00014370132703334093
1686445543067310800,7.830310791015625,-0.00024443818256258965,-0.011841991916298866,-0.001351461629383266
1686445543077326800,7.840326904296875,-0.002236216329038143,-0.007622212171554565,-0.009124163538217545
1686445543087343600,7.850343505859375,0.000031060539186000824,-0.0026367511600255966,-0.009135998785495758
1686445543097360600,7.860360595703125,-0.0014033177867531776,0.002516732085496187,-0.008647042326629162
1686445543107377700,7.870377685546875,0.000019894447177648544,0.0038988166488707066,-0.0052403900772333145
1686445543117394700,7.880394775390625,0.0031488423701375723,0.0011589564383029938,-0.00177668291144073
1686445543127411700,7.89041162109375,-0.001778244972229004,0.004160993732511997,-0.0019184569828212261
1686445543137427700,7.900427734375,0.00019995076581835747,-0.0026993092615157366,-0.00231153960339725
1686445543147444700,7.91044482421875,-0.0017932788468897343,-0.003515374381095171,-0.002902674488723278
1686445543157461800,7.920461669921875,0.0006568292155861855,-0.006603576242923737,-0.0019548553973436356
1686445543167478800,7.930478759765625,0.00334908370859921,-0.005178157240152359,-0.003098048036918044
1686445543177495800,7.940495849609375,0.0018641049973666668,-0.004533139988780022,-0.007622758857905865
1686445543187511800,7.95051171875,0.0015514686238020658,-0.003202720545232296,-0.012878304347395897
1686445543197528800,7.96052880859375,-0.0029647196643054485,-0.002402174286544323,-0.014891654253005981
1686445543207545900,7.9705458984375,-0.0007935529574751854,-0.0013739375863224268,-0.013792742975056171
1686445543217562600,7.980562744140625,-0.002468414604663849,0.0005462015978991985,-0.009315170347690582
1686445543227580000,7.990579833984375,-0.001342508476227522,0.0016495552845299244,-0.003902875818312168
1686445543237596000,8.000595947265625,0.0013451538980007172,0.0067812008783221245,0.005545486696064472
1686445543247612700,8.01061279296875,0.000007320661097764969,0.010607872158288956,0.00443959329277277
1686445543257629700,8.020629638671876,-0.0007362342439591885,0.007364940829575062,0.010921195149421692
1686445543267646700,8.030646728515626,0.002275543985888362,0.004044197965413332,0.017349768429994583
1686445543277663700,8.040663818359375,0.0026084391865879297,-0.002834214363247156,0.012468991801142693
1686445543287679700,8.0506796875,0.0036537395790219307,-0.00789560005068779,0.009626035578548908
1686445543297696800,8.06069677734375,0.0035080646630376577,-0.00757815083488822,0.00760442903265357
1686445543307713800,8.0707138671875,0.0016621274407953024,-0.004916755482554436,-0.0025624327827244997
1686445543317730600,8.08073046875,0.0027897099498659372,0.0034833874087780714,-0.0059262714348733425
1686445543327747800,8.090747802734375,-0.0011475649662315845,0.00025495956651866436,-0.007716312073171139
1686445543337764900,8.100764892578125,-0.00043490296229720116,0.0010107648558914661,-0.008242286741733551
1686445543347780600,8.110780517578124,-0.0006885062903165817,0.003420246299356222,-0.010271900333464146
1686445543357797600,8.120797607421874,0.000009241513907909393,0.005880208685994148,-0.006785556208342314
1686445543367814700,8.130814697265626,-0.0011569946072995663,0.007820513099431992,-0.0025062616914510727
1686445543377831700,8.140831787109375,-0.0004078475758433342,0.005192238837480545,0.006466460879892111
1686445543387848700,8.1508486328125,0.0033200550824403763,0.002144736470654607,0.007191341370344162
1686445543397864700,8.16086474609375,0.0016965921968221664,-0.0034404448233544827,0.014384806156158447
1686445543407881700,8.1708818359375,0.0027517268899828196,-0.005836177617311478,0.01647035777568817
1686445543417898800,8.180898681640626,0.0024454633239656687,-0.005267326254397631,0.013812524266541004
1686445543427915800,8.190915771484375,0.00018758932128548622,-0.0026309872046113014,0.008139559999108315
1686445543437932800,8.200932861328125,-0.0008965833112597466,0.0006305861752480268,-0.0015988217201083899
1686445543447948800,8.21094873046875,-0.006359973922371864,0.005591787863522768,-0.009280671365559101
1686445543457965600,8.220965576171874,-0.006652389653027058,0.006937749683856964,-0.01868961937725544
1686445543467982800,8.23098291015625,-0.009790953248739243,0.015581183135509491,-0.017942242324352264
1686445543477999600,8.24099951171875,-0.006079838145524263,0.025587212294340134,-0.015375752933323383
1686445543488016600,8.2510166015625,-0.002478849608451128,0.03303396701812744,-0.009308124892413616
1686445543498033000,8.261032958984375,-0.0017366264946758747,0.034075796604156494,-0.003157820086926222
1686445543508049700,8.271049560546874,0.0024339831434190273,0.02386646717786789,-0.0013815117999911308
1686445543518066700,8.281066650390626,0.00540047837421298,0.010437477380037308,-0.0020222682505846024
1686445543528083700,8.291083740234376,0.0029634481761604548,-0.004965323954820633,-0.002910795621573925
1686445543538100700,8.301100830078125,0.0006986958906054497,-0.01825503073632717,-0.004308688919991255
1686445543548117800,8.31111767578125,-0.0032278308644890785,-0.024721376597881317,-0.006978902034461498
1686445543558133500,8.321133544921874,-0.0034371549263596535,-0.022783126682043076,-0.004068333189934492
1686445543568150800,8.33115087890625,-0.008173605427145958,-0.01667853444814682,-0.006856066174805164
1686445543578167600,8.34116748046875,-0.00591231556609273,-0.011939172632992268,0.0009720290545374155
1686445543588184800,8.351184814453125,-0.0058638183400034904,-0.006731771398335695,-0.0008581900037825108
1686445543598201900,8.361201904296875,-0.004541292786598206,-0.0026251771487295628,0.000004407833330333233
1686445543608217600,8.371217529296874,-0.002230267506092787,0.0011549822520464659,0.003367670811712742
1686445543618234600,8.381234619140624,0.002124799881130457,0.0056096515618264675,0.010006931610405445
1686445543628252000,8.391251953125,0.0031209406442940235,0.0014196084812283516,0.018332095816731453
1686445543638268700,8.4012685546875,0.006436576135456562,0.0006992232520133257,0.016721416264772415
1686445543648285700,8.41128564453125,0.005303650628775358,-0.0003270620945841074,0.010278758592903614
1686445543658302000,8.421302001953125,0.005324956029653549,-0.003755881916731596,0.0048512364737689495
1686445543668318700,8.431318603515624,0.003917990252375603,-0.006324404384940863,-0.0028188717551529408
1686445543678335700,8.441335693359376,0.0026817508041858673,-0.006038913503289223,0.004855292849242687
1686445543688352800,8.451352783203125,0.001234110677614808,-0.005799620412290096,0.00521255936473608
1686445543698369800,8.461369873046875,-0.0006788377650082111,-0.0023494951892644167,0.0081886425614357
1686445543708385800,8.4713857421875,0.0006788978353142738,0.00033921143040060997,0.00239687436260283
1686445543718402600,8.481402587890624,-0.0028029191307723522,0.0020188672933727503,-0.0005525766173377633
1686445543728418800,8.491418701171876,-0.0029475102201104164,0.005256908480077982,-0.008484864607453346
1686445543738435800,8.501435791015625,0.0003143288195133209,0.0037088128738105297,-0.01067185215651989
1686445543748452600,8.51145263671875,-0.004308707546442747,0.003730406053364277,-0.012806719169020653
1686445543758470000,8.521469970703125,-0.00018826453015208244,0.006329917348921299,-0.007843119092285633
1686445543768486000,8.53148583984375,0.0023675900883972645,0.008517874404788017,0.002039274899289012
1686445543778502700,8.541502685546876,0.004397451411932707,0.009401777759194374,0.009607979096472263
1686445543788519700,8.551519775390625,0.002026621950790286,0.012602899223566055,0.008751200512051582
1686445543798536700,8.56153662109375,0.00017892057076096535,0.012854834087193012,0.006291771307587624
1686445543808553700,8.5715537109375,0.0010631736367940903,0.013548586517572403,0.0032859009224921465
1686445543818569700,8.58156982421875,-0.0006140852347016335,0.004220864735543728,-0.00022334663663059473
1686445543828586800,8.591586669921876,-0.0008151265792548656,0.0026297480799257755,-0.005398496054112911
1686445543838603800,8.601603759765625,0.0008759810589253902,0.004785044584423304,-0.004376374650746584
1686445543848620500,8.61162060546875,-0.001380029134452343,0.010663946159183979,-0.00690542021766305
1686445543858637800,8.621637939453125,-0.000841271597892046,0.013950553722679615,-0.008807982318103313
1686445543868653800,8.63165380859375,-0.0001404755748808384,0.013354077003896236,-0.006378732156008482
1686445543878670600,8.641670654296876,-0.0022574225440621376,0.009828850626945496,-0.008326567709445953
1686445543888687600,8.6516875,-0.0030896314419806004,0.007089645601809025,-0.003421121509745717
1686445543898704600,8.66170458984375,-0.001604386605322361,0.006717335432767868,-0.0012117631267756224
1686445543908721700,8.6717216796875,0.004515199456363916,0.001270156353712082,0.008186791092157364
1686445543918738700,8.68173876953125,0.002416362054646015,0.00020222878083586693,0.006187289021909237
1686445543928754700,8.691754638671876,0.0012307765427976847,-0.009451323188841343,0.006991700269281864
1686445543938771700,8.701771728515626,0.0004182462580502033,-0.010819921270012856,0.0040494403801858425
1686445543948788700,8.711788818359375,0.0008477051742374897,-0.013351907953619957,0.0032393592409789562
1686445543958805800,8.7218056640625,0.00041547417640686035,-0.005147507414221764,-0.0014187758788466454
1686445543968822800,8.73182275390625,0.000625083688646555,-0.0031875167042016983,-0.0013096500188112259
1686445543978838800,8.7418388671875,0.0007047122344374657,0.0020730250980705023,-0.004805848002433777
1686445543988855800,8.751855712890626,0.001118833664804697,0.004060542210936546,-0.00009578117169439793
1686445543998872800,8.761872802734375,-0.00226364703848958,0.0034488143865019083,-0.0010132401948794723
1686445544008889600,8.7718896484375,0.00046527525410056114,0.009005862288177013,0.0004616822116076946
1686445544018907000,8.781906982421875,-0.0009914739057421684,0.010394700802862644,0.0008963100844994187
1686445544028923000,8.7919228515625,-0.0017818356864154339,0.01313688699156046,0.0010143336839973927
1686445544038939600,8.801939697265626,-0.00020551076158881187,0.010547496378421783,0.005142766050994396
1686445544048956700,8.811956787109375,0.0022413742262870073,0.007719363085925579,0.008660096675157547
1686445544058973700,8.8219736328125,0.003519425168633461,0.0007983404211699963,0.007538107223808765
1686445544068990700,8.83199072265625,0.0021209814585745335,-0.003856502939015627,0.005730150267481804
1686445544079006700,8.8420068359375,0.0019084610976278782,-0.00849626213312149,-0.00235627219080925
1686445544089023700,8.852023681640626,0.0011471533216536045,-0.007728257682174444,-0.004648177418857813
1686445544099040800,8.862040771484375,-0.0007242499850690365,-0.00610958831384778,-0.012430200353264809
1686445544109057800,8.872057861328125,-0.0004798527806997299,-0.001331341452896595,-0.01500685140490532
1686445544119074800,8.88207470703125,-0.00024176621809601784,0.003536117961630225,-0.011680296622216702
1686445544129091800,8.892091796875,0.002385864732787013,0.011715631000697613,-0.004551226738840342
1686445544139107600,8.902107666015626,-0.003331142943352461,0.013044015504419804,-0.003087553195655346
1686445544149124600,8.91212451171875,-0.0012074699625372887,0.012380767613649368,-0.0003130516270175576
1686445544159142000,8.922141845703125,-0.00025512371212244034,0.010318148881196976,0.0011154678650200367
1686445544169158700,8.93215869140625,-0.0010474473237991333,0.007526551838964224,0.004518044181168079
1686445544179175700,8.94217578125,0.0005347365513443947,0.0017336439341306686,0.0034519811160862446
1686445544189192000,8.95219189453125,-0.0004132739268243313,-0.00010016211308538914,0.0035905344411730766
1686445544199208700,8.962208740234376,0.0034866591449826956,-0.0028794370591640472,0.0035724248737096786
1686445544209225700,8.972225830078125,0.0013009749818593264,-0.004378386773169041,0.0004656770033761859
1686445544219242800,8.98224267578125,-0.0006862757727503777,-0.0011887187138199806,-0.00465052155777812
1686445544229259800,8.992259765625,0.001124462578445673,0.002101861871778965,-0.006937301717698574
1686445544239275800,9.00227587890625,0.00023629842326045036,0.007624192163348198,-0.004033124074339867
1686445544249292500,9.01229248046875,0.0032937799114733934,0.008087631314992905,0.0011131622595712543
1686445544259309800,9.022309814453125,-0.0013702139258384705,0.013309823349118233,0.0020966678857803345
1686445544269326600,9.03232666015625,-0.003747386857867241,0.013612018898129463,0.004728792700916529
1686445544279343600,9.042343505859375,-0.0010493379086256027,0.0075144460424780846,0.0053690169006586075
1686445544289360600,9.052360595703124,-0.0007363241165876389,0.0020637044217437506,0.002616914687678218
1686445544299376600,9.062376708984376,-0.0016884044744074345,-0.009375105611979961,0.001953787636011839
1686445544309393700,9.0723935546875,-0.0011120960116386414,-0.015389855019748211,-0.00032960681710392237
1686445544319410700,9.08241064453125,-0.0008716126903891563,-0.01517307385802269,-0.005078289192169905
1686445544329427700,9.092427734375,0.0005783899687230587,-0.01218191534280777,-0.0033591934479773045
1686445544339444700,9.10244482421875,0.00009635789319872856,-0.006924568675458431,-0.0036121937446296215
1686445544349460700,9.112460693359376,0.0021253987215459347,-0.00045976077672094107,0.0012579577742144465
1686445544359477800,9.122477783203125,0.0008249771781265736,-0.00031275430228561163,0.001413486315868795
1686445544369494800,9.132494873046875,0.0005987184122204781,-0.006503152661025524,0.0011359306517988443
1686445544379511800,9.14251171875,-0.001261233352124691,-0.011645716615021229,-0.001884360215626657
1686445544389528800,9.15252880859375,0.0010780561715364456,-0.014354804530739784,-0.00288592092692852
1686445544399544800,9.162544921875,-0.0009997421875596046,-0.014141751453280449,-0.003196978010237217
1686445544409561600,9.1725615234375,-0.006055453792214394,-0.011534031480550766,-0.005438059102743864
1686445544419579000,9.182578857421875,-0.0008356585167348385,-0.009043975733220577,-0.004640176426619291
1686445544429595600,9.192595703125,0.001158357597887516,-0.004984207917004824,-0.0032563249114900827
1686445544439612700,9.20261279296875,-0.0006201011128723621,-0.004363425076007843,-0.00026692659594118595
1686445544449629000,9.21262890625,0.0023297269362956285,-0.0012393887154757977,0.0006508121732622385
1686445544459645700,9.222645751953126,-0.0012500942684710026,0.00282459519803524,0.00551054859533906
1686445544469662700,9.232662841796875,0.0003731120377779007,0.004306474234908819,0.0003296972718089819
1686445544479679700,9.2426796875,0.0009755189530551434,0.006610375363379717,-0.000001600012183189392
1686445544489696800,9.25269677734375,0.0004384308122098446,0.009464891627430916,0.001578591763973236
1686445544499713500,9.262713623046874,0.00003309780731797218,0.006325823254883289,-0.002947184257209301
1686445544509729500,9.2727294921875,-0.0027324873954057693,0.004905443638563156,-0.004248127806931734
1686445544519746800,9.282746826171875,-0.0033655203878879547,0.00381567794829607,-0.010078053921461105
1686445544529763600,9.292763671875,-0.0019204369746148586,-0.000054427655413746834,-0.01245545782148838
1686445544539780600,9.302780517578125,-0.0038807899691164494,-0.001179613289423287,-0.008244200609624386
1686445544549798000,9.3127978515625,-0.0037900046445429325,0.00009746989235281944,-0.010994689539074898
1686445544559813600,9.322813720703126,-0.0017913025803864002,0.006410493515431881,-0.008088115602731705
1686445544569830700,9.33283056640625,0.003093654289841652,0.014806278049945831,-0.005090751685202122
1686445544579848000,9.342847900390625,0.004439615644514561,0.02082022838294506,0.000017457292415201664
1686445544589864700,9.35286474609375,0.003177277510985732,0.023074859753251076,0.00004249101039022207
1686445544599881700,9.3628818359375,0.005499553866684437,0.019923008978366852,-0.0008390152361243963
1686445544609898800,9.372898681640624,0.0006683855317533016,0.01449340209364891,0.0004412401467561722
1686445544619914800,9.382914794921875,0.0012486882042139769,0.007812061812728643,0.0008590901270508766
1686445544629931800,9.392931884765625,-0.0013634497299790382,-0.0031789224594831467,-0.0026804644148796797
1686445544639948500,9.402948486328125,-0.0066759237088263035,-0.004483072552829981,-0.005392095074057579
1686445544649965800,9.4129658203125,-0.004979874938726425,-0.006368396803736687,-0.007458622567355633
1686445544659982600,9.422982666015624,-0.010758135467767715,-0.004606715403497219,-0.004500383511185646
1686445544669998600,9.43299853515625,-0.005738408770412207,0.0009357607923448086,0.0016993547324091196
1686445544680016000,9.443015869140625,-0.003599358256906271,0.00323140574619174,-0.00009028962813317776
1686445544690032600,9.45303271484375,-0.0035022441297769547,0.01130366139113903,0.0014437389327213168
1686445544700049700,9.463049560546875,-0.0030060969293117523,0.02025827392935753,0.006015321239829063
1686445544710066700,9.473066650390624,0.007143917493522167,0.004982965067028999,0.005209438502788544
1686445544720082700,9.483082763671876,0.00379179697483778,-0.002588135190308094,0.0018053862731903791
1686445544730100200,9.493100341796875,-0.0007805568166077137,-0.010641679167747498,-0.019700530916452408
1686445544740117000,9.503116943359375,-0.004575561732053757,-0.010575898922979832,-0.02146141231060028
1686445544750134000,9.513134033203125,-0.0004943534731864929,-0.011332768946886063,-0.012025869451463223
1686445544760151000,9.523151123046874,0.0021810580510646105,-0.01636348105967045,0.00366414338350296
1686445544770167000,9.5331669921875,-0.0006791641935706139,-0.018138892948627472,0.00648924708366394
1686445544780184000,9.54318408203125,-0.0005476041696965694,-0.019421737641096115,-0.0010538906790316105
1686445544790201000,9.553201171875,0.00018576625734567642,-0.019406117498874664,0.0006363134598359466
1686445544800218000,9.563218017578125,0.0015011015348136425,-0.016505669802427292,0.0034717810340225697
1686445544810235100,9.573235107421874,0.0032868245616555214,-0.013805977068841457,0.004184515215456486
1686445544820252200,9.583252197265624,0.0015488455537706614,-0.009261292405426502,0.0005335875321179628
1686445544830268200,9.59326806640625,0.0013004003558307886,-0.016820287331938744,-0.0027613709680736065
1686445544840285200,9.60328515625,-0.00031240982934832573,-0.016761165112257004,-0.012233701534569263
1686445544850302000,9.613302001953125,-0.0004624738357961178,-0.011729944497346878,-0.009082798846065998
1686445544860319200,9.6233193359375,0.005240153055638075,-0.0032959794625639915,-0.0005734667065553367
1686445544870336000,9.6333359375,0.0011797407642006874,0.00011351937428116798,0.0012392932549118996
1686445544880352000,9.64335205078125,0.001288131345063448,0.004676313139498234,0.005353344604372978
1686445544890369300,9.653369384765625,-0.00434171874076128,0.00676304753869772,0.009333987720310688
1686445544900386000,9.663385986328125,-0.0004433831200003624,0.0072733089327812195,0.010806183330714703
1686445544910403000,9.673403076171875,-0.0017451811581850052,0.01091169472783804,0.008840392343699932
1686445544920420000,9.683420166015624,-0.0007012221030890942,0.014248101972043514,0.009085936471819878
1686445544930436000,9.69343603515625,0.0012301933020353317,0.010306838899850845,0.00606911676004529
1686445544940453000,9.703453125,-0.0013999445363879204,0.0007530157454311848,0.0006527801742777228
1686445544950470100,9.71347021484375,0.0003724801354110241,-0.008338963612914085,-0.00559983728453517
1686445544960487200,9.723487060546875,-0.0010211518965661526,-0.015397671610116959,-0.006428080145269632
1686445544970504000,9.73350390625,0.0006773308850824833,-0.010459737852215767,-0.004187014419585466
1686445544980521200,9.743521240234376,0.001395585248246789,-0.007568877190351486,-0.005805684253573418
1686445544990537200,9.753537109375,0.0012480837758630514,0.0008025774732232094,-0.003734936472028494
1686445545000554000,9.763553955078125,0.0012749815359711647,0.0063912211917340755,-0.00533496355637908
1686445545010571000,9.773571044921875,0.00003716209903359413,0.011120099574327469,-0.005439422558993101
1686445545020588000,9.783588134765624,-0.0032798051834106445,0.014239460229873657,-0.005398942157626152
1686445545030605000,9.79360498046875,-0.0007536862976849079,0.014417213387787342,-0.006895960308611393
1686445545040621000,9.80362109375,0.00005964282900094986,0.011256573721766472,-0.004519887734204531
1686445545050638000,9.81363818359375,0.0005346229299902916,0.0038886484690010548,0.0012302609393373132
1686445545060655000,9.823655029296875,-0.0017000357620418072,0.004725680220872164,0.0012632840080186725
1686445545070672100,9.833672119140624,-0.0014024050906300545,0.001130291959270835,0.000313123338855803
1686445545080689200,9.843689208984374,0.00042958324775099754,0.0028078174218535423,-0.0029567056335508823
1686445545090705200,9.853705078125,-0.001697281375527382,0.0038933916948735714,-0.0013420768082141876
1686445545100722200,9.86372216796875,-0.0004131053574383259,0.003996988292783499,-0.003889123909175396
1686445545110739000,9.873739013671875,-0.0036141257733106613,0.008746104314923286,0.0032324146013706923
1686445545120756200,9.883756103515625,-0.0031944112852215767,0.009568754583597183,0.004965865984559059
1686445545130773000,9.89377294921875,-0.0011640978045761585,0.010815916582942009,0.005715502426028252
1686445545140790000,9.9037900390625,-0.0017872774042189121,0.004038704559206963,0.003918135538697243
1686445545150806300,9.91380615234375,0.0002285321243107319,-0.002204082440584898,0.004132566973567009
1686445545160823000,9.923822998046875,-0.0015075826086103916,-0.008362376131117344,0.0014465030981227756
1686445545170840000,9.933840087890625,0.00007891841232776642,-0.009789421223104,-0.004710059612989426
1686445545180857000,9.943857177734374,0.0010578962974250317,-0.007903636433184147,-0.0034120348282158375
1686445545190874000,9.9538740234375,-0.0023296913132071495,-0.00463719479739666,-0.005417026579380035
1686445545200890000,9.96389013671875,-0.0009991759434342384,-0.00048958754632622,0.0009186335373669863
1686445545210907000,9.973906982421875,0.004123983904719353,0.006453778129070997,0.004722356330603361
1686445545220924200,9.983924072265625,0.002265630289912224,0.006147514563053846,0.00587337464094162
1686445545230941200,9.993941162109374,0.004242789465934038,0.009297358803451061,0.012750626541674137
1686445545240958200,10.003958251953126,0.003176459576934576,0.0062051620334386826,0.012898432090878487
1686445545250975200,10.013975341796876,0.002806427190080285,0.0038521874230355024,0.013942742720246315
1686445545260991000,10.023990966796875,0.0031622257083654404,-0.0051330518908798695,0.0056246258318424225
1686445545271008000,10.034008056640625,0.0014951734337955713,-0.004464144818484783,-0.00032097590155899525
1686445545281025300,10.044025390625,-0.0008995411917567253,-0.009033330716192722,-0.004152199253439903
1686445545291042000,10.0540419921875,-0.0014132480137050152,-0.0018924729665741324,-0.004389052279293537
1686445545301059000,10.06405908203125,0.000017668120563030243,0.005863983184099197,-0.0014800812350586057
1686445545311075300,10.074075439453125,0.0012413125950843096,0.009152676910161972,-0.0030524858739227057
1686445545321092000,10.084092041015625,0.002326817251741886,0.012763923034071922,-0.0040405187755823135
1686445545331109000,10.094109130859374,0.0019214905332773924,0.006305975373834372,-0.0024410556070506573
1686445545341126100,10.104126220703124,-0.000534743070602417,0.0067280870862305164,0.0006530049722641706
1686445545351143200,10.11414306640625,0.0008402843959629536,0.0051865228451788425,0.00025313638616353273
1686445545361159200,10.1241591796875,-0.004992038942873478,0.005752178840339184,0.001420133514329791
1686445545371176000,10.134176025390625,0.0006258198991417885,0.007432104088366032,-0.0024494831450283527
1686445545381193200,10.144193115234375,-0.001903383992612362,0.007684838026762009,-0.0004124310798943043
1686445545391210000,10.1542099609375,0.0008739023469388485,0.005971650592982769,-0.0031127273105084896
1686445545401227000,10.16422705078125,-0.001379398163408041,0.0034752036444842815,0.0011238292790949345
1686445545411244000,10.174244140625,-0.0012110932730138302,-0.0007034190930426121,-0.0016556158661842346
1686445545421260000,10.184260009765625,-0.0019972585141658783,-0.0045450287871062756,-0.004071635659784079
1686445545431277000,10.194277099609375,-0.002550144214183092,-0.0034012463875114918,-0.006289056967943907
1686445545441294000,10.204294189453124,0.000003028661012649536,0.0024601048789918423,-0.00924596469849348
1686445545451311000,10.21431103515625,-0.0013730996288359165,0.004278002772480249,-0.0036033764481544495
1686445545461328100,10.224328125,-0.0023571373894810677,0.00883573666214943,-0.0056944903917610645
1686445545471343900,10.23434375,0.001782033359631896,0.0016493182629346848,-0.003922250121831894
1686445545481361200,10.244361083984375,0.0010073198936879635,0.002206185134127736,0.0034331344068050385
1686445545491378200,10.254378173828124,0.000745777040719986,-0.0021394435316324234,0.004708774387836456
1686445545501395000,10.26439501953125,0.0031905588693916798,-0.006481194868683815,0.0049085114151239395
1686445545511412200,10.274412109375,0.0030486059840768576,-0.009766781702637672,0.00721233943477273
1686445545521428200,10.28442822265625,0.0036435560323297977,-0.011698372662067413,0.002613592892885208
1686445545531445000,10.294445068359375,0.0008165976032614708,-0.013371349312365055,0.004272133111953735
1686445545541462300,10.304462158203124,0.0008275164291262627,-0.01753067411482334,-0.00030424294527620077
1686445545551479000,10.31447900390625,0.00004472117871046066,-0.011477114632725716,0.0009422015864402056
1686445545561496000,10.32449609375,-0.001141717191785574,-0.0077452268451452255,0.005463450215756893
1686445545571513000,10.33451318359375,-0.0009369379840791225,-0.002548505086451769,0.002936706878244877
1686445545581529000,10.344529052734375,-0.0017995359376072884,0.004534438252449036,0.0027454919181764126
1686445545591546000,10.354546142578124,0.00020145997405052185,0.005509035661816597,0.0018344779964536428
1686445545601563100,10.364563232421874,0.0007942798547446728,-0.0008255592547357082,0.0022187719587236643
1686445545611580200,10.374580078125,-0.0003154757432639599,-0.008610149845480919,-0.0032046916894614697
1686445545621597000,10.384596923828125,-0.0016803457401692867,-0.005556303076446056,-0.006549621932208538
1686445545631613000,10.394613037109375,-0.0024122027680277824,-0.011224308982491493,-0.011110285297036171
1686445545641630200,10.404630126953125,-0.002745363861322403,-0.010160109028220177,-0.00935606099665165
1686445545651647000,10.41464697265625,-0.0018862495198845863,-0.008355237543582916,-0.00880289077758789
1686445545661664000,10.4246640625,-0.0012393677607178688,-0.009388010948896408,-0.005888327024877071
1686445545671681300,10.434681396484375,-0.001953582279384136,-0.010518592782318592,-0.003264802508056164
1686445545681698000,10.444697998046875,-0.004017266444861889,-0.01122379768639803,-0.003187837079167366
1686445545691714000,10.454714111328125,-0.004809148609638214,-0.012863589450716972,-0.002440602984279394
1686445545701731300,10.4647314453125,-0.0016090944409370422,-0.01248568668961525,-0.0002815783955156803
1686445545711748000,10.474748046875,-0.0021520876325666904,-0.006356121972203255,0.003183517837896943
1686445545721765000,10.48476513671875,-0.0018285135738551617,-0.004584320820868015,0.004199780523777008
1686445545731782400,10.494782470703125,-0.0007767542265355587,-0.0028184123802930117,0.00115306640509516
1686445545741798400,10.50479833984375,-0.001994884107261896,0.00007617729716002941,-0.0004573470796458423
1686445545751815700,10.514815673828124,0.000963323749601841,-0.0011467403965070844,0.000938900513574481
1686445545761832400,10.52483251953125,-0.0007751877419650555,-0.0034700820688158274,-0.0033791488967835903
1686445545771849500,10.534849365234376,0.003293949645012617,-0.007271424401551485,-0.007961701601743698
1686445545781866500,10.544866455078125,0.003624448087066412,-0.014586062170565128,-0.007687662728130817
1686445545791882500,10.554882568359375,0.003672127379104495,-0.016229281201958656,-0.006352917291224003
1686445545801899500,10.5648994140625,0.003538969438523054,-0.017588824033737183,-0.0103093096986413
1686445545811916500,10.57491650390625,0.0017597852274775505,-0.01650167629122734,-0.00817391648888588
1686445545821933600,10.58493359375,0.003591241082176566,-0.01859145797789097,-0.004387167282402515
1686445545831950300,10.594950439453125,-0.0024282922968268394,-0.017961936071515083,0.001507708104327321
1686445545841967600,10.604967529296875,0.002077776473015547,-0.024730093777179718,0.007395957596600056
1686445545851983600,10.614983642578125,0.0030793913174420595,-0.02406909689307213,0.01046045683324337
1686445545862000400,10.62500048828125,0.0039710174314677715,-0.024774834513664246,0.010324901901185513
1686445545872017700,10.635017578125,0.004061496816575527,-0.021821321919560432,0.008087805472314358
1686445545882034400,10.645034423828125,-0.007996231317520142,-0.007947583682835102,0.0019351047230884433
1686445545892051500,10.655051513671875,-0.003800509963184595,0.009143570438027382,-0.006637623533606529
1686445545902067500,10.6650673828125,-0.0021035438403487206,0.029187317937612534,-0.003116125473752618
1686445545912084500,10.67508447265625,0.002181225921958685,0.02749190479516983,0.004544158931821585
1686445545922101500,10.6851015625,0.0007327324710786343,0.01271828543394804,0.006253375671803951
1686445545932118500,10.695118408203125,-0.0005590477958321571,0.0004134869668632746,-0.0010794569971039891
1686445545942135600,10.705135498046875,-0.0031284652650356293,-0.005619371775537729,0.001815665396861732
1686445545952152600,10.715152587890625,0.00009807245805859566,-0.00204081111587584,0.0021287682466208935
1686445545962168600,10.72516845703125,-0.0022100890055298805,0.0019952096045017242,0.004447849001735449
1686445545972185600,10.735185546875,0.002335521625354886,0.00997326523065567,0.005804345943033695
1686445545982202600,10.74520263671875,0.0018428368493914604,0.016388021409511566,0.010295234620571136
1686445545992219400,10.755219482421875,0.0028240540996193886,0.015484794974327087,0.014228139072656631
1686445546002236700,10.765236572265625,0.00027114758267998695,0.009501204825937748,0.012377242557704449
1686445546012252700,10.775252685546874,0.0023245832417160273,0.003991367295384407,0.010944844223558903
1686445546022269400,10.78526953125,-0.0015942584723234177,-0.004772296641021967,0.004172693006694317
1686445546032286500,10.795286376953126,-0.002089438959956169,-0.006289399228990078,-0.0033664307557046413
1686445546042303500,10.805303466796875,-0.0029030349105596542,-0.010478817857801914,-0.011403584852814674
1686445546052320500,10.815320556640625,-0.003474726341664791,-0.007296925876289606,-0.009954011999070644
1686445546062337300,10.825337158203125,0.001549859531223774,-0.00017110584303736687,-0.005163518246263266
1686445546072353500,10.835353515625,0.0015603052452206612,0.0108780637383461,-0.002123448299244046
1686445546082370600,10.84537060546875,0.003980319481343031,0.013758539222180843,0.0015815413789823651
1686445546092387300,10.85538720703125,0.0050448039546608925,0.013612234964966774,0.001131935976445675
1686445546102404600,10.865404541015625,0.0025664663407951593,0.010719243437051773,0.002576434751972556
1686445546112421600,10.875421630859375,0.0036612730473279953,0.0070985062047839165,0.0019192303298041224
1686445546122437400,10.885437255859374,0.003696160390973091,0.000803858507424593,0.005432738922536373
1686445546132454400,10.895454345703126,0.003238559700548649,-0.0061676986515522,0.006568271666765213
1686445546142471400,10.905471435546875,0.0019402687903493643,-0.006750930100679398,0.0032515707425773144
1686445546152488400,10.915488525390625,0.001762548228725791,-0.005750328302383423,0.0011362083023414016
1686445546162505700,10.925505615234375,-0.0016100788488984108,0.00028945482335984707,-0.006968855857849121
1686445546172521500,10.935521484375,-0.003653089515864849,0.007371698506176472,-0.007985364645719528
1686445546182538500,10.94553857421875,-0.0032964926213026047,0.011475363746285439,-0.007050327956676483
1686445546192555500,10.955555419921875,-0.004811288323253393,0.01280636340379715,-0.0017067273147404194
1686445546202572500,10.965572509765625,-0.0030807661823928356,0.015530243515968323,0.0009353947825729847
1686445546212589600,10.975589599609375,-0.0010741529986262321,0.015307186171412468,0.0037434236146509647
1686445546222606300,10.9856064453125,-0.00004910258576273918,0.014706643298268318,0.006098723504692316
1686445546232622600,10.99562255859375,0.0016735359095036983,0.01185121014714241,0.007162037305533886
1686445546242639600,11.0056396484375,0.004122312646359205,0.006335003767162561,0.012622050009667873
1686445546252656400,11.015656494140625,0.0016967379488050938,0.0016661854460835457,0.012882444076240063
1686445546262673700,11.025673583984375,0.0025108661502599716,0.001288549043238163,0.00501573272049427
1686445546272690400,11.0356904296875,0.0019564549438655376,-0.004161895252764225,0.0019720778800547123
1686445546282706400,11.04570654296875,-0.0005889944732189178,-0.009624038822948933,0.00016006315127015114
1686445546292723500,11.055723388671876,-0.0014830082654953003,-0.012081385590136051,-0.008931734599173069
1686445546302740500,11.065740478515625,-0.0034516165032982826,-0.0061502596363425255,-0.01239517517387867
1686445546312757500,11.075757568359375,0.000287727452814579,0.0025819791480898857,-0.007304542697966099
1686445546322774500,11.0857744140625,-0.0027314983308315277,0.009226832538843155,-0.004065873101353645
1686445546332791600,11.09579150390625,-0.00023791054263710976,0.013728151097893715,0.0003534534480422735
1686445546342807600,11.1058076171875,0.001609258120879531,0.013414695858955383,0.004292268771678209
1686445546352824600,11.115824462890625,0.002961473073810339,0.01089403871446848,0.007784620858728886
1686445546362841600,11.125841552734375,0.0047162300907075405,0.001155657460913062,0.011048058979213238
1686445546372858600,11.135858642578125,0.005136230960488319,0.0011118864640593529,0.011546270921826363
1686445546382875400,11.14587548828125,0.004375099204480648,-0.0009334211936220527,0.010107099078595638
1686445546392891400,11.155891357421876,0.005299026146531105,-0.006930709350854158,0.010458912700414658
1686445546402908700,11.16590869140625,0.006386927329003811,-0.005477689206600189,0.006723829545080662
1686445546412925400,11.175925537109375,0.0011056847870349884,-0.004187076352536678,0.0016178246587514877
1686445546422942500,11.1859423828125,-0.00018248660489916801,-0.004968181252479553,-0.0008210981613956392
1686445546432959500,11.19595947265625,0.00011496851220726967,0.0013060548808425665,0.0006769950268790126
1686445546442975500,11.2059755859375,-0.0021998509764671326,0.00253137550316751,0.0003121418412774801
1686445546452992500,11.215992431640625,0.0005626850761473179,0.0059232525527477264,0.0031570675782859325
1686445546463009500,11.226009521484375,-0.0009848778136074543,0.011498580686748028,0.0077246553264558315
1686445546473026600,11.236026611328125,0.0007637045346200466,0.01399819552898407,0.006688314955681562
1686445546483043300,11.246043212890624,0.00119034294039011,0.014697274193167686,0.007541059050709009
1686445546493060600,11.256060546875,-0.0010644970461726189,0.009760820306837559,0.007398918271064758
1686445546503076600,11.26607666015625,0.0018585885409265757,0.000652276910841465,0.0031735473312437534
1686445546513093400,11.27609326171875,0.0009731571190059185,-0.001677413354627788,0.0019541624933481216
1686445546523110700,11.286110595703125,-0.0001102169044315815,-0.0005666088545694947,0.0025714836083352566
1686445546533127400,11.29612744140625,0.0005438858643174171,0.0033350461162626743,0.004199376329779625
1686445546543144400,11.30614453125,-0.0004627890884876251,0.006852016784250736,0.005066235084086657
1686445546553161700,11.31616162109375,0.001120240893214941,0.004514853470027447,0.0015906494809314609
1686445546563177500,11.326177490234375,0.0012680464424192905,0.004849347285926342,0.0014553609071299434
1686445546573194500,11.336194580078125,0.002972864778712392,0.0036767807323485613,0.007803687825798988
1686445546583211500,11.34621142578125,-0.0000716610811650753,0.004298362880945206,0.0078715980052948
1686445546593228500,11.356228515625,0.00236564502120018,0.0007583184633404016,0.005675352644175291
1686445546603245600,11.36624560546875,0.002143004909157753,0.005253467708826065,-0.0017308982787653804
1686445546613261600,11.376261474609375,-0.0004902803339064121,0.0007762988097965717,-0.002763794269412756
1686445546623278600,11.386278564453125,0.00023116962984204292,0.003527610329911113,-0.006993426941335201
1686445546633295600,11.396295654296875,-0.0026503908447921276,-5.599576979875565e-7,-0.008962275460362434
1686445546643312400,11.4063125,-0.002541201189160347,-0.003938309848308563,-0.002589863259345293
1686445546653329700,11.41632958984375,-0.0006372071802616119,0.0003982826601713896,-0.002726238686591387
1686445546663345700,11.426345703125,-0.002304346300661564,0.0029107090085744858,-0.000540316104888916
1686445546673362400,11.436362548828125,0.000339447520673275,0.003542559454217553,0.00033987266942858696
1686445546683379500,11.44637939453125,0.0001980336382985115,0.0008599571883678436,0.004407851491123438
1686445546693396500,11.456396484375,0.002713838592171669,0.004560318775475025,0.010761905461549759
1686445546703413500,11.46641357421875,0.0020834682509303093,0.0070580979809165,0.008106733672320843
1686445546713430500,11.476430419921876,0.0009761452674865723,0.0027873574290424585,0.007283486425876617
1686445546723446500,11.486446533203125,0.002919720485806465,0.0011508448515087366,0.008331973105669022
1686445546733463000,11.496463134765625,0.0016262922435998917,-0.008492951281368732,0.006372496485710144
1686445546743480000,11.50647998046875,-0.0004696156829595566,-0.006241248920559883,0.006877432111650705
1686445546753497000,11.5164970703125,-0.0010112924501299858,-0.009421376511454582,0.004698134493082762
1686445546763514000,11.52651416015625,-0.0006738696247339249,-0.0075249397195875645,-0.0005067476304247975
1686445546773530000,11.536530029296875,-0.0015758140943944454,-0.0019209174206480384,-0.004341126419603825
1686445546783547000,11.546546875,-0.002560651395469904,0.00323416362516582,-0.007657826878130436
1686445546793564200,11.556564208984375,-0.000225946307182312,0.003833004040643573,-0.005826346110552549
1686445546803581000,11.566580810546874,-0.0013772309757769108,0.006792841479182243,-0.006149653811007738
1686445546813598000,11.576597900390626,-0.0005310941487550735,0.006312169600278139,-0.002712475135922432
1686445546823615000,11.586614990234375,0.0025837388820946217,0.003495610784739256,-0.003970019519329071
1686445546833631000,11.596630859375,0.0014229051303118467,0.004727664403617382,-0.00040550687117502093
1686445546843648000,11.60664794921875,0.00119360676035285,0.0009976408910006285,0.000020865234546363354
1686445546853665000,11.6166650390625,0.0019856602884829044,0.001199208665639162,0.0019950084388256073
1686445546863682000,11.62668212890625,0.0007337084971368313,-0.00586882047355175,0.003606220707297325
1686445546873699000,11.636698974609375,0.0004184204153716564,-0.010402727872133255,0.002707304898649454
1686445546883714800,11.64671484375,-0.0011573717929422855,-0.014371637254953384,0.0031150346621870995
1686445546893732000,11.656732177734375,-0.0021464205347001553,-0.009598158299922943,-0.005370491649955511
1686445546903748900,11.666748779296874,-0.006999498698860407,-0.008119039237499237,-0.009272821247577667
1686445546913766000,11.676765869140626,-0.008900058455765247,0.0025210645981132984,-0.008593065664172173
1686445546923783200,11.686783203125,-0.005896812304854393,0.00703086145222187,-0.0074452427215874195
1686445546933800000,11.696800048828125,-0.0036685639061033726,0.009583596140146255,-0.0022693253122270107
1686445546943816000,11.70681591796875,-0.002563352230936289,0.011547679081559181,0.006212576292455196
1686445546953833200,11.716833251953124,0.0016997852362692356,0.006698032841086388,0.008226089179515839
1686445546963850000,11.72685009765625,0.0017237537540495396,0.0012113885022699833,0.008942480199038982
1686445546973867000,11.736866943359376,0.004563067574054003,-0.008226783946156502,0.0045897262170910835
1686445546983884000,11.746884033203125,0.002737737027928233,-0.010091529227793217,-0.00024257961194962263
1686445546993900000,11.756900146484375,0.0010797134600579739,-0.012458564713597298,-0.0013040462508797646
1686445547003917000,11.7669169921875,0.0011881045065820217,-0.009827894158661366,-0.00700827082619071
1686445547013933800,11.776933837890626,-0.0013049519620835781,-0.009045125916600227,-0.007940679788589478
1686445547023951000,11.786951171875,-0.000345681793987751,-0.008452305570244789,-0.01096656359732151
1686445547033967900,11.7969677734375,-0.0028925491496920586,0.0012128916569054127,-0.011707204394042492
1686445547043985200,11.806985107421875,-0.001208632718771696,0.0062172370962798595,-0.0012273989850655198
1686445547054001200,11.817001220703125,0.0032076772768050432,0.006429006811231375,0.004732521716505289
1686445547064018000,11.827017822265624,0.0019759652204811573,0.0036657103337347507,0.004550361540168524
