time,seconds_elapsed,z,y,x
1686445535364388400,0.127388427734375,-0.0011579424608498812,0.005018460564315319,0.005654157139360905
1686445535374405400,0.1374052734375,0.0007717840489931405,0.010432134382426739,0.0033771544694900513
1686445535384421600,0.147421630859375,-0.0025814019609242678,0.009207879193127155,-0.0014152037911117077
1686445535394438400,0.1574384765625,0.000624777574557811,0.0073412698693573475,-0.003644536016508937
1686445535404455400,0.167455322265625,-0.0023041670210659504,0.00695085059851408,0.0007384945638477802
1686445535414472700,0.17747265625,0.0017638115677982569,0.008695753291249275,0.0018399780383333564
1686445535424489500,0.187489501953125,0.0032732912804931402,0.01155945099890232,0.009160741232335567
1686445535434505500,0.19750537109375,0.007151652593165636,0.011539743281900883,0.010059292428195477
1686445535444522500,0.2075224609375,0.010604707524180412,0.012649748474359512,0.011601528152823448
1686445535454539500,0.21753955078125,0.011424428783357143,0.01366281509399414,0.011897405609488487
1686445535464556500,0.227556640625,0.012860405258834362,0.012232164852321148,0.005001682788133621
1686445535474573300,0.2375732421875,0.013557886704802513,0.0060174125246703625,-0.001261539408005774
1686445535484589600,0.247589599609375,0.009436910971999168,0.0048767803236842155,-0.007164169568568468
1686445535494606600,0.257606689453125,0.0038951393216848373,0.010687531903386116,-0.012240154668688774
1686445535504623400,0.267623291015625,-0.0034786208998411894,0.02015986293554306,-0.015210111625492573
1686445535514640600,0.277640625,-0.015091867186129093,0.020430972799658775,-0.020474648103117943
1686445535524657400,0.287657470703125,-0.022334067150950432,0.014038054272532463,-0.023631826043128967
1686445535534673400,0.29767333984375,-0.01865064911544323,0.005564408842474222,-0.024266190826892853
1686445535544690400,0.3076904296875,-0.016626646742224693,0.00003435477628954686,-0.01703011617064476
1686445535554707500,0.31770751953125,-0.014604508876800537,0.009812151081860065,-0.005480252671986818
1686445535564724500,0.327724365234375,-0.008302937261760235,0.01876889355480671,0.00010945591930067167
1686445535574741200,0.3377412109375,-0.009335710667073727,0.02287309058010578,-0.002027997048571706
1686445535584757500,0.347757568359375,-0.011932559311389923,0.017827199772000313,-0.0073407371528446674
1686445535594774500,0.3577744140625,-0.014812235720455647,0.012596485204994678,-0.009394301101565361
1686445535604791300,0.367791259765625,-0.013058277778327465,0.0023441144730895758,-0.009408681653439999
1686445535614808600,0.37780859375,-0.009031844325363636,-0.01312192715704441,-0.0032149681355804205
1686445535624825600,0.38782568359375,-0.009473929181694984,-0.019218968227505684,-0.001455151243135333
1686445535634841300,0.39784130859375,-0.008765261620283127,-0.023148994892835617,0.0035931370221078396
1686445535644858400,0.4078583984375,-0.0059899818152189255,-0.023133814334869385,0.008028365671634674
1686445535654875400,0.41787548828125,-0.005558017175644636,-0.020617660135030746,0.0046541402116417885
1686445535664892400,0.427892333984375,-0.005857090000063181,-0.019964121282100677,-0.0029225528705865145
1686445535674909400,0.437909423828125,-0.007794007193297148,-0.014627678319811821,-0.012632970698177814
1686445535684925400,0.447925537109375,-0.010834804736077785,-0.00098217383492738,-0.020442424342036247
1686445535694942500,0.4579423828125,-0.010759437456727028,0.006213421002030373,-0.022341525182127953
1686445535704959500,0.46795947265625,-0.011915781535208225,0.014050837606191635,-0.023358585312962532
1686445535714976500,0.4779765625,-0.009543437510728836,0.016867930069565773,-0.02171221934258938
1686445535724993000,0.487992919921875,-0.009794041514396667,0.014960573986172676,-0.017968080937862396
1686445535735009000,0.498009033203125,-0.011891546659171581,0.005247758701443672,-0.018558237701654434
1686445535745025800,0.50802587890625,-0.010113353841006756,-0.0028658276423811913,-0.01133814174681902
1686445535755042800,0.518042724609375,-0.009672867134213448,-0.003881557146087289,-0.006156695540994406
1686445535765059800,0.528059814453125,-0.0054853130131959915,-0.009883522987365723,-0.005666141398251057
1686445535775076900,0.538076904296875,-0.004491687286645174,-0.013264140114188194,-0.0038037928752601147
1686445535785094000,0.548093994140625,-0.007354585453867912,-0.00980309583246708,-0.008788431994616985
1686445535795110000,0.55810986328125,-0.005871471017599106,-0.006587595213204622,-0.009912019595503807
1686445535805127000,0.568126953125,-0.011112039908766747,-0.006695719435811043,-0.015358183532953262
1686445535815144000,0.57814404296875,-0.01363272126764059,0.00016405072528868914,-0.016138223931193352
1686445535825161000,0.588160888671875,-0.009732255712151527,0.00446798512712121,-0.012307798489928246
1686445535835178000,0.598177978515625,-0.009560481645166874,0.00646748673170805,-0.01344763208180666
1686445535845194000,0.608194091796875,-0.009325058199465275,0.007454453967511654,-0.014681740663945675
1686445535855210800,0.618210693359375,-0.00833729188889265,0.0038219024427235126,-0.013305951841175556
1686445535865228000,0.62822802734375,-0.007751130498945713,0.0034932682756334543,-0.012169314548373222
1686445535875244800,0.638244873046875,-0.005470931995660067,-0.0004876247840002179,-0.0062634884379804134
1686445535885261800,0.64826171875,-0.0028607675340026617,-0.000055393749789800495,-0.005624063778668642
1686445535895278000,0.658278076171875,-0.005097024142742157,-0.0011917646043002605,-0.0035148400347679853
1686445535905294800,0.668294921875,-0.005732720717787743,-0.004351338837295771,-0.005435511935502291
1686445535915311900,0.678311767578125,-0.008629441261291504,-0.0065170214511454105,-0.0005779059720225632
1686445535925329000,0.688328857421875,-0.00891146995127201,-0.0017973673529922962,0.00041971419705078006
1686445535935346000,0.698345947265625,-0.008885636925697327,-0.00037204360705800354,0.0012085424968972802
1686445535945362000,0.70836181640625,-0.010545052587985992,0.0020836573094129562,-0.0030037793330848217
1686445535955378700,0.718378662109375,-0.012018846347928047,0.003915912006050348,-0.0037707698065787554
1686445535965396000,0.72839599609375,-0.01068300474435091,0.0024972460232675076,-0.003356115659698844
1686445535975412700,0.738412841796875,-0.00971387978643179,-0.0014500912511721253,-0.0033888723701238632
1686445535985430000,0.748429931640625,-0.00791278388351202,-0.005302353762090206,-0.0014421016676351428
1686445535995446000,0.758446044921875,-0.012011921964585781,-0.00663473317399621,-0.0044019389897584915
1686445536005462800,0.768462890625,-0.008522648364305496,-0.003585147438570857,-0.00384400668554008
1686445536015479800,0.778479736328125,-0.004319647327065468,-0.0036770266015082598,-0.00347435986623168
1686445536025496800,0.788496826171875,-0.008621185086667538,-0.0016740630380809307,0.001272990950383246
1686445536035513900,0.798513916015625,-0.0032264196779578924,0.002826679265126586,0.006010488141328096
1686445536045529900,0.80852978515625,-0.005046690348535776,-0.0008724515791982412,0.008703476749360561
1686445536055547000,0.818546875,-0.0038104509003460407,-0.006140716839581728,0.006771353539079428
1686445536065564000,0.82856396484375,-0.004443484358489513,-0.005408081226050854,0.00475427508354187
1686445536075581000,0.838580810546875,-0.008249940350651741,-0.004787298385053873,0.0002724413643591106
1686445536085598000,0.848597900390625,-0.006310626398772001,0.00042317630141042173,-0.008613195270299911
1686445536095614000,0.858614013671875,-0.011785552836954594,0.00666535971686244,-0.01068060752004385
1686445536105631000,0.868630859375,-0.008623582310974598,0.011021492071449757,-0.011254784651100636
1686445536115647700,0.878647705078125,-0.00621182331815362,0.014086524024605751,-0.012265721336007118
1686445536125665000,0.8886650390625,-0.005212338641285896,0.012652944773435593,-0.003924700431525707
1686445536135681800,0.898681884765625,-0.0017233315156772733,0.009711483493447304,0.004051200579851866
1686445536145697800,0.90869775390625,-0.0034149715211242437,0.012983975932002068,0.006317550782114267
1686445536155715000,0.918715087890625,-0.004597414750605822,0.00708693778142333,0.00899722333997488
1686445536165731800,0.92873193359375,-0.004472779110074043,0.004206995479762554,0.007934622466564178
1686445536175748900,0.938748779296875,-0.003980893176048994,0.0013765880139544606,0.007443002425134182
1686445536185766000,0.948765869140625,-0.004297542851418257,-0.00037470675306394696,0.0029909962322562933
1686445536195782000,0.958781982421875,-0.006596383638679981,0.000937166390940547,-0.004250404890626669
1686445536205799000,0.968798828125,-0.0038748993538320065,0.003667971817776561,-0.009317868389189243
1686445536215815700,0.978815673828125,-0.006688262801617384,0.007069360930472612,-0.010913101024925709
1686445536225833000,0.9888330078125,-0.006842193193733692,0.007948203943669796,-0.014036989770829678
1686445536235850000,0.99885009765625,-0.0038903458043932915,0.014062555506825447,-0.012281433679163456
1686445536245865700,1.00886572265625,-0.0075788237154483795,0.016413060948252678,-0.011242800392210484
1686445536255883000,1.018883056640625,-0.0018192053539678454,0.0174450371414423,-0.008266984485089779
1686445536265899800,1.028899658203125,-0.0012183962389826775,0.01549507025629282,-0.0014314490836113691
1686445536275916800,1.038916748046875,-0.0046791741624474525,0.011549063958227634,-0.001064998097717762
1686445536285934000,1.04893408203125,0.0007651261985301971,0.0026517093647271395,0.006877347361296415
1686445536295949800,1.05894970703125,-0.004168379586189985,-0.006517554167658091,0.0024319987278431654
1686445536305966800,1.068966796875,-0.006473079323768616,-0.01182070653885603,-0.00031878036679700017
1686445536315984000,1.07898388671875,-0.00768774701282382,-0.013383716344833374,0.00044048685231246054
1686445536326001000,1.0890009765625,-0.00842384435236454,-0.007473895326256752,-0.0002109223569277674
1686445536336018000,1.099017822265625,-0.009953032247722149,0.0019981698133051395,0.005564675200730562
1686445536346034000,1.109033935546875,-0.006116481963545084,0.00878124125301838,0.007106112781912088
1686445536356051000,1.119051025390625,-0.004886634182184935,0.013888917863368988,0.008933573961257935
1686445536366068000,1.12906787109375,-0.0054299188777804375,0.012628709897398949,0.00977673102170229
1686445536376084700,1.139084716796875,-0.00555162550881505,0.01011175662279129,0.009104815311729908
1686445536386102000,1.14910205078125,-0.004201935604214668,0.0023076289799064398,0.007870705798268318
1686445536396118000,1.159117919921875,-0.0020442423410713673,0.0005829659639857709,0.004840295296162367
1686445536406134800,1.169134765625,-0.002019474981352687,0.0005249090609140694,0.0019201391842216253
1686445536416152000,1.179152099609375,-0.0054299188777804375,0.002290851203724742,-0.00782356783747673
1686445536426168800,1.1891689453125,-0.003937750123441219,-0.00039867521263659,-0.008506668731570244
1686445536436185900,1.199185791015625,-0.00484162662178278,-0.0026314693968743086,-0.013160808943212032
1686445536446201900,1.209201904296875,-0.005499694030731916,-0.0008692557457834482,-0.009620136581361294
1686445536456219000,1.219218994140625,-0.0013989584986120462,-0.002835201332345605,-0.007451524492353201
1686445536466236000,1.22923583984375,-0.003059173235669732,-0.002907106652855873,-0.0031518512405455112
1686445536476252700,1.239252685546875,-0.0011211908422410488,-0.006800381932407618,0.002400573343038559
1686445536486270000,1.24927001953125,-0.003364637726917863,-0.003352653468027711,0.0035723643377423286
1686445536496286000,1.259285888671875,-0.0030154972337186337,-0.0002348908019484952,0.008018511347472668
1686445536506302700,1.269302734375,-0.0018277274211868644,-0.00004394215648062527,0.009638512507081032
1686445536516320000,1.279320068359375,-0.00959856528788805,-0.00009134642459684983,0.006652842741459608
1686445536526337000,1.2893369140625,-0.006368150934576988,0.000931041082367301,0.006030728109180927
1686445536536353800,1.299353759765625,-0.008074970915913582,-0.0018042916199192405,0.006657369900494814
1686445536546369800,1.309369873046875,-0.008577775210142136,-0.000041811628761934116,0.002829076023772359
1686445536556387000,1.319386962890625,-0.007395598106086254,0.0038400120101869106,0.00012010856153210625
1686445536566403800,1.32940380859375,-0.010246778838336468,0.002794188680127263,-0.005852829199284315
1686445536576420900,1.3394208984375,-0.008329036645591259,0.009956493973731995,-0.004504204262048006
1686445536586438000,1.34943798828125,-0.009309612214565277,0.014242053031921387,-0.007646734360605478
1686445536596454000,1.359453857421875,-0.0070464578457176685,0.019406188279390335,-0.002826412906870246
1686445536606471000,1.369470947265625,-0.003102316288277507,0.023790018633008003,0.0029108349699527025
1686445536616488000,1.379488037109375,-0.006697317585349083,0.019102854654192924,0.00657534459605813
1686445536626505000,1.3895048828125,-0.0029862024821341038,0.017552629113197327,0.008287757635116577
1686445536636521700,1.399521728515625,-0.004658667836338282,0.012269982136785984,0.011451859027147293
1686445536646537700,1.409537841796875,-0.002942793071269989,0.006727410946041346,0.008223840966820717
1686445536656555000,1.419554931640625,-0.0032767534721642733,-0.0022535668686032295,0.006339921150356531
1686445536666571800,1.42957177734375,-0.0038490667939186096,-0.014023940078914165,0.0048826392740011215
1686445536676588800,1.4395888671875,0.0004932174342684448,-0.01996971294283867,0.006150037981569767
1686445536686605800,1.449605712890625,-0.003322825999930501,-0.01696114055812359,0.006985471583902836
1686445536696621800,1.459621826171875,-0.003198456484824419,-0.011030280962586403,0.006435528863221407
1686445536706638800,1.469638916015625,-0.004406998865306377,-0.0008460862445645034,0.0002889529860112816
1686445536716655900,1.47965576171875,-0.004576109815388918,0.00729386555030942,0.0015395734226331115
1686445536726673000,1.4896728515625,-0.0035475967451930046,0.011727762408554554,0.0043862261809408665
1686445536736690000,1.49968994140625,-0.002980609890073538,0.009786051698029041,0.005083175376057625
1686445536746706000,1.509705810546875,-0.002597647253423929,0.007929296232759953,0.004947886802256107
1686445536756723000,1.519722900390625,-0.007408115081489086,0.003832288784906268,0.003808320267125964
1686445536766740000,1.529739990234375,-0.004865595139563084,0.002112152986228466,0.0046152579598128796
1686445536776757000,1.539757080078125,-0.0031103058718144894,-0.0002205097407568246,-0.002037584548816085
1686445536786774000,1.54977392578125,-0.00600383011624217,-0.003922303672879934,-0.001802693703211844
1686445536796789800,1.559789794921875,-0.005607285536825657,-0.0005648564547300339,-0.004826446995139122
1686445536806807000,1.56980712890625,-0.006909837480634451,0.0018937737913802266,-0.01004970446228981
1686445536816824000,1.579823974609375,-0.006480802316218615,0.00115394766908139,-0.009953298605978489
1686445536826840800,1.5898408203125,-0.005260808393359184,0.0060059609822928905,-0.009081113152205944
1686445536836858000,1.599858154296875,-0.009590309113264084,0.010373012162744999,-0.010906710289418697
1686445536846874000,1.6098740234375,-0.010610300116240978,0.011863317340612411,-0.003043993143364787
1686445536856891000,1.619890869140625,-0.009351423941552639,0.00896819494664669,-0.003200853243470192
1686445536866908200,1.629908203125,-0.009887252002954483,0.009038235992193222,-0.0021843246649950743
1686445536876925000,1.639925048828125,-0.007592406123876572,0.00564030883833766,-0.00276169809512794
1686445536886942000,1.64994189453125,-0.006828611250966787,-0.0010194580536335707,-0.0004420847399160266
1686445536896958000,1.6599580078125,-0.004099137615412474,-0.005893575493246317,0.0034903388004750013
1686445536906975000,1.66997509765625,-0.0038029940333217382,-0.006427539046853781,0.00446905056014657
1686445536916992000,1.679991943359375,-0.004948153160512447,-0.008535697124898434,0.0032019184436649084
1686445536927008800,1.6900087890625,-0.0029236183036118746,-0.006010488141328096,0.0064981128089129925
1686445536937026000,1.700026123046875,-0.008800681680440903,-0.0023872575256973505,0.006375341210514307
1686445536947042000,1.7100419921875,-0.004917793441563845,-0.00016192019393201917,0.003943609073758125
1686445536957058800,1.720058837890625,-0.006584932096302509,-0.0016524913953617215,0.006961236707866192
1686445536967076000,1.730076171875,-0.008770588785409927,-0.0018959043081849813,0.006461894139647484
1686445536977092900,1.7400927734375,-0.00836765207350254,0.00364719913341105,0.007105047348886728
1686445536987110000,1.75010986328125,-0.006773217581212521,0.00663499953225255,0.008506136015057564
1686445536997126000,1.7601259765625,-0.0011829761788249016,0.00824008695781231,0.008044344373047352
1686445537007143000,1.770142822265625,-0.00014221279707271606,0.007351922336965799,0.011181814596056938
1686445537017160000,1.780159912109375,-0.0019648801535367966,0.004197674337774515,0.007849400863051414
1686445537027177000,1.790177001953125,0.002198173198848963,0.0005440838285721838,0.007407316006720066
1686445537037194000,1.800194091796875,0.00009853696246864274,0.0008532768115401268,0.009868343360722065
1686445537047210000,1.8102099609375,0.0030330740846693516,-0.0014620753936469555,0.01167529821395874
1686445537057227000,1.82022705078125,0.00019228023302275687,-0.001383512164466083,0.01155439019203186
1686445537067244000,1.830244140625,0.0013262542197480798,-0.0027177559677511454,0.01079752016812563
1686445537077261000,1.840260986328125,0.0003350256592966616,-0.0024176177103072405,0.009108809754252434
1686445537087277800,1.85027783203125,-0.0002479403046891093,-0.000687361869495362,0.010004431009292603
1686445537097293800,1.8602939453125,-0.0020881847012788057,0.0003094593121204525,0.009875001385807991
1686445537107311000,1.87031103515625,-0.006936203222721815,-0.0012373046483844519,0.007773500867187977
1686445537117328000,1.880327880859375,-0.005529255140572786,-0.0003150519623886794,0.005546831991523504
1686445537127345200,1.89034521484375,-0.005091165192425251,0.006810235325247049,0.0002335592289455235
1686445537137362000,1.90036181640625,-0.006551109720021486,0.006746053230017424,-0.0012658004416152835
1686445537147378000,1.9103779296875,-0.006658701691776514,0.009305617772042751,0.00016698020044714212
1686445537157395000,1.92039501953125,-0.001692705205641687,0.012884372845292091,0.006700779777020216
1686445537167412000,1.930411865234375,-0.0015877765836194158,0.01459039468318224,0.014246313832700253
1686445537177429000,1.940428955078125,-0.00046365635353140533,0.01612410880625248,0.013315006159245968
1686445537187445800,1.95044580078125,0.0024708807468414307,0.020132964476943016,0.019477294757962227
1686445537197462000,1.9604619140625,0.0032924660481512547,0.019452527165412903,0.01955239661037922
1686445537207479000,1.97047900390625,0.0046360306441783905,0.01673903316259384,0.023272832855582237
1686445537217495800,1.980495849609375,0.0026160231791436672,0.013893445022404194,0.025683259591460228
1686445537227513000,1.99051318359375,0.005195028148591518,0.00566907087340951,0.023258185014128685
1686445537237530000,2.000530029296875,-0.005772135220468044,0.00041252365917898715,0.0119091235101223
1686445537247545900,2.0105458984375,-0.007450992241501808,0.00042637207661755383,-0.009499495849013329
1686445537257563000,2.02056298828125,-0.014932077378034592,-0.0011456918437033892,-0.016035957261919975
1686445537267580200,2.030580078125,-0.01546391099691391,0.003394731320440769,-0.020252807065844536
1686445537277597000,2.040596923828125,-0.012143215164542198,0.011064901947975159,-0.012328571639955044
1686445537287614000,2.050614013671875,-0.011491539888083935,0.014665229246020317,-0.006499444600194693
1686445537297630000,2.0606298828125,-0.00968671590089798,0.01540319062769413,0.0014165353495627642
1686445537307647000,2.07064697265625,-0.009004680439829826,0.009289371781051159,0.007673099637031555
1686445537317664000,2.0806640625,-0.007947671227157116,-0.0011648666113615036,0.009896039962768555
1686445537327681000,2.090680908203125,-0.0054845139384269714,-0.00646722037345171,0.012955745682120323
1686445537337698000,2.100697998046875,-0.004739361349493265,-0.005045358557254076,0.01263882964849472
1686445537347714000,2.110714111328125,-0.0019254654180258512,-0.005148422904312611,0.012006862089037895
1686445537357730800,2.120730712890625,-0.002424275502562523,-0.006866960786283016,0.01344496849924326
1686445537367748000,2.130748046875,-0.0018895127577707171,-0.01044411864131689,0.007918110117316246
1686445537377764900,2.140764892578125,-0.001597630325704813,-0.013968279585242271,0.004068777430802584
1686445537387782000,2.150781982421875,-0.0017515610670670867,-0.015251656994223595,0.003207244910299778
1686445537397798100,2.160798095703125,-0.002269279444590211,-0.014789865352213383,0.004081028047949076
1686445537407815000,2.17081494140625,0.002430933527648449,-0.013791445642709732,0.004196076653897762
1686445537417832000,2.18083203125,-0.001526523963548243,-0.013243100605905056,0.0011859056539833546
1686445537427849000,2.190848876953125,-0.00019441076437942684,-0.013498764485120773,0.001404018490575254
1686445537437866000,2.200865966796875,0.0030000510159879923,-0.013550695963203907,0.0065590995363891125
1686445537447882000,2.210882080078125,0.0012242551892995834,-0.002822950715199113,0.013088904321193695
1686445537457898800,2.220898681640625,-0.002374740783125162,0.009498164057731628,0.016526246443390846
1686445537467916000,2.230916015625,-0.004086087923496962,0.012820723466575146,0.014445518143475056
1686445537477933000,2.24093310546875,-0.009521333500742912,-0.002674879040569067,0.010554639622569084
1686445537487950000,2.2509501953125,-0.008312524296343327,-0.0179305300116539,0.004604605492204428
1686445537497966000,2.260966064453125,-0.011119762435555458,-0.024020381271839142,-0.0015017564874142408
1686445537507982800,2.27098291015625,-0.013566941022872925,-0.0165555402636528,0.0003225088003091514
1686445537517999900,2.280999755859375,-0.0165555402636528,-0.0021654162555933,-0.0022186795249581337
1686445537528017200,2.29101708984375,-0.01848207227885723,0.030289728194475174,0.005297559779137373
1686445537538034000,2.301033935546875,-0.013283847831189632,0.05279424041509628,0.011518438346683979
1686445537548050000,2.3110498046875,-0.011126420460641384,0.060322996228933334,0.022720757871866226
1686445537558067200,2.321067138671875,-0.008342085406184196,0.05067889019846916,0.027606060728430748
1686445537568084000,2.331083984375,-0.0064387246966362,0.02604864537715912,0.02557193860411644
1686445537578101000,2.34110107421875,-0.008700015023350716,-0.0017797905020415783,0.017011474817991257
1686445537588118000,2.351117919921875,-0.01278583612293005,-0.01563781499862671,0.013190902769565582
1686445537598134000,2.361134033203125,-0.013063071295619011,-0.01227770559489727,0.017461813986301422
1686445537608151000,2.371151123046875,0.002359027974307537,-0.00902625173330307,0.022118618711829185
1686445537618167800,2.381167724609375,0.007872570306062698,-0.005781456362456083,0.03232811391353607
1686445537628185000,2.39118505859375,0.010299775749444962,-0.009103217162191868,0.037754833698272705
1686445537638201900,2.401201904296875,0.01525671686977148,-0.014271880500018597,0.031494274735450745
1686445537648217900,2.4112177734375,0.015175756998360157,-0.017523599788546562,0.0215939749032259
1686445537658235100,2.421235107421875,0.011385812424123287,-0.018816564232110977,0.006105030421167612
1686445537668252000,2.431251953125,0.008503739722073078,-0.023210780695080757,-0.009928531013429165
1686445537678269000,2.44126904296875,0.002651176881045103,-0.024950889870524406,-0.026226544752717018
1686445537688286000,2.451285888671875,-0.0049766493029892445,-0.023677365854382515,-0.024172713980078697
1686445537698302000,2.461302001953125,-0.011680890806019306,-0.00418462511152029,-0.01293124444782734
1686445537708319000,2.471319091796875,-0.014770956709980965,0.011488610878586769,0.004208859521895647
1686445537718335700,2.481335693359375,-0.01426548883318901,0.02160888910293579,0.01458853017538786
1686445537728353000,2.49135302734375,-0.01293310895562172,0.021674135699868202,0.017601363360881805
1686445537738370000,2.5013701171875,-0.018129736185073853,0.021227790042757988,0.014843394979834557
1686445537748385800,2.5113857421875,-0.017222929745912552,0.017585651949048042,0.007436344865709543
1686445537758403000,2.521403076171875,-0.0160633884370327,0.026255572214722633,0.008933573961257935
1686445537768420000,2.531420166015625,-0.016925986856222153,0.03790903091430664,0.010424943640828133
1686445537778436900,2.541436767578125,-0.010318949818611145,0.04410061612725258,0.01423326414078474
1686445537788454100,2.5514541015625,-0.005299424286931753,0.050268229097127914,0.012141351588070393
1686445537798470100,2.56147021484375,-0.0013028184184804559,0.05275828763842583,0.01206944603472948
1686445537808487000,2.57148681640625,0.0018687400734052062,0.05272606015205383,0.01130724884569645
1686445537818504200,2.581504150390625,0.004690092988312244,0.05323871970176697,0.009692308492958546
1686445537828521000,2.59152099609375,0.0059899818152189255,0.05499614030122757,0.005548163317143917
1686445537838538000,2.6015380859375,0.0029529130551964045,0.04655152186751366,-0.004489556886255741
1686445537848554000,2.611553955078125,-0.001008539111353457,0.0321347676217556,-0.010060090571641922
1686445537858571000,2.621571044921875,-0.0065231467597186565,0.012615127488970757,-0.015842612832784653
1686445537868588000,2.631588134765625,-0.00612287363037467,-0.005142830312252045,-0.01537549402564764
1686445537878605000,2.64160498046875,-0.006452040281146765,-0.023015303537249565,-0.007467237301170826
1686445537888622000,2.6516220703125,-0.0052147358655929565,-0.031030086800456047,-0.0019150790758430958
1686445537898638000,2.66163818359375,-0.0022415826097130775,-0.032464999705553055,0.004052532371133566
1686445537908654800,2.67165478515625,-0.002692722249776125,-0.03612871095538139,0.0033742249943315983
1686445537918672100,2.681672119140625,-0.0006301039247773588,-0.03731914237141609,0.005081311333924532
1686445537928689000,2.69168896484375,-0.003715375903993845,-0.03672206029295921,0.007410511840134859
1686445537938706000,2.701705810546875,-0.005733785685151815,-0.0302622988820076,0.012043080292642117
1686445537948722200,2.71172216796875,-0.006389455869793892,-0.018876485526561737,0.009093896485865116
1686445537958739000,2.721739013671875,-0.008461128920316696,-0.0038397456519305706,0.0041468082927167416
1686445537968756000,2.731755859375,-0.006681338418275118,0.015350726433098316,0.002359294332563877
1686445537978773000,2.74177294921875,-0.006643521599471569,0.030556578189134598,0.0008005462004803121
1686445537988790000,2.7517900390625,-0.006021673325449228,0.04162653908133507,0.0035481294617056847
1686445537998806000,2.761805908203125,-0.006607302464544773,0.04326571524143219,0.007072290405631065
1686445538008823000,2.771822998046875,-0.009589776396751404,0.04027285426855087,0.0029883331153541803
1686445538018840000,2.781840087890625,-0.009574064053595066,0.028175445273518562,0.004326837603002787
1686445538028857000,2.791857177734375,-0.012751481495797634,0.016460997983813286,0.005633650813251734
1686445538038873900,2.801873779296875,-0.00863157119601965,0.007526892237365246,0.008700280450284481
1686445538048890000,2.81189013671875,-0.0070579093880951405,-0.0073260897770524025,0.013917946256697178
1686445538058907100,2.8219072265625,-0.0068419273011386395,-0.022100508213043213,0.022044582292437553
1686445538068924000,2.831923828125,0.0030514500103890896,-0.03334517404437065,0.025911757722496986
1686445538078941200,2.841941162109375,0.0024088292848318815,-0.04067685455083847,0.0230571161955595
1686445538088958000,2.8519580078125,0.00036458674003370106,-0.0368160717189312,0.016584569588303566
1686445538098974000,2.861973876953125,-0.002079662401229143,-0.023959394544363022,0.009098423644900322
1686445538108991000,2.871990966796875,-0.0029491845052689314,-0.008672317489981651,0.001130778226070106
1686445538119008000,2.882008056640625,-0.0015821839915588498,0.019061841070652008,-0.003923369105905294
1686445538129025000,2.89202490234375,0.00020053602929692715,0.0369068868458271,-0.0025561018846929073
1686445538139041800,2.902041748046875,0.00558065390214324,0.04668601229786873,-0.000022370553779182956
1686445538149058000,2.91205810546875,0.004181162919849157,0.05274896323680878,0.008048605173826218
1686445538159075000,2.922074951171875,0.005426457151770592,0.05443874001502991,0.013744574040174484
1686445538169091800,2.932091796875,-0.0049526807852089405,0.05291035398840904,0.01606392115354538
1686445538179109000,2.942109130859375,-0.0046762446872889996,0.04916861280798912,0.014056962914764881
1686445538189126000,2.9521259765625,-0.01110218558460474,0.0509561263024807,0.01167716272175312
1686445538199142000,2.962141845703125,-0.01233416423201561,0.05091670900583267,0.01121909823268652
1686445538209159000,2.972158935546875,-0.011807923205196857,0.05085545778274536,0.016140088438987732
1686445538219176000,2.982176025390625,-0.013680391944944859,0.04661517217755318,0.018218418583273888
1686445538229193000,2.99219287109375,-0.014086790382862091,0.035710327327251434,0.00974530540406704
1686445538239210200,3.002210205078125,-0.012439625337719917,0.03104446828365326,0.0014900385867804289
1686445538249226000,3.01222607421875,-0.01098500657826662,0.029579730704426765,-0.010065151378512383
1686445538259243000,3.022242919921875,-0.01206971239298582,0.02996056154370308,-0.010850783437490463
1686445538269260000,3.032260009765625,-0.005723399575799704,0.029762422665953636,-0.009594570845365524
1686445538279277000,3.042277099609375,-0.0034344124142080545,0.031264178454875946,-0.00748960766941309
1686445538289294000,3.052294189453125,-0.0016796556301414967,0.04079217091202736,-0.0018136126454919577
1686445538299310000,3.06231005859375,-0.0034021881874650717,0.0408686026930809,0.0010703244479373097
1686445538309327000,3.0723271484375,-0.008567122742533684,0.03687918931245804,0.002040514023974538
1686445538319344000,3.08234423828125,-0.008503739722073078,0.022998260334134102,-0.0021885856986045837
1686445538329361000,3.09236083984375,-0.009089634753763676,0.006198240909725428,-0.00929443258792162
1686445538339378200,3.102378173828125,-0.0108284130692482,-0.0034085798542946577,-0.011442271992564201
1686445538349394200,3.112394287109375,-0.010777280665934086,-0.009792443364858627,-0.009035306982696056
1686445538359411000,3.122410888671875,-0.009562612511217594,-0.007673632353544235,-0.00016698020044714212
1686445538369428000,3.132427978515625,-0.007679757662117481,0.00869362335652113,0.011901134625077248
1686445538379445000,3.142445068359375,-0.00433163158595562,0.016155267134308815,0.015852466225624084
1686445538389462000,3.1524619140625,-0.004592354875057936,0.02273407392203808,0.008028632029891014
1686445538399478000,3.16247802734375,-0.010282465256750584,0.022072013467550278,0.0049524144269526005
1686445538409495000,3.1724951171875,-0.015034343115985394,0.019236810505390167,-0.001374457380734384
1686445538419512000,3.182511962890625,-0.0103154880926013,0.013609818182885647,-0.0040796962566673756
1686445538429528800,3.19252880859375,-0.009214803576469421,0.009371397085487843,-0.0020237360149621964
1686445538439546000,3.202546142578125,-0.010850250720977783,0.011084076017141342,-0.004348942078649998
1686445538449562000,3.21256201171875,-0.005850166082382202,0.013821273110806942,0.0012000204296782613
1686445538459579000,3.222578857421875,-0.0057284594513475895,0.015972308814525604,-0.0009329052991233766
1686445538469596000,3.232595947265625,-0.0030605047941207886,0.024396153166890144,0.0020567593164741993
1686445538479613200,3.24261328125,0.0005163869354873896,0.023781228810548782,0.008510664105415344
1686445538489630000,3.2526298828125,0.001216265605762601,0.022913305088877678,0.014036723412573338
1686445538499646000,3.26264599609375,-0.00041438787593506277,0.01426175981760025,0.022543391212821007
1686445538509663200,3.272663330078125,-0.0013281183782964945,0.0037915424909442663,0.026204705238342285
1686445538519680000,3.282679931640625,-0.0006498112925328314,-0.005662146955728531,0.020749486982822418
1686445538529697000,3.292697021484375,-0.0084249097853899,-0.009120794013142586,0.006363623309880495
1686445538539714000,3.302714111328125,-0.012561864219605923,-0.008390821516513824,-0.0075545888394117355
1686445538549730000,3.31272998046875,-0.014991732314229012,0.005426457151770592,-0.013580523431301117
1686445538559747000,3.3227470703125,-0.015506255440413952,0.01847141794860363,-0.01757979206740856
1686445538569763800,3.332763916015625,-0.015091600827872753,0.03014937974512577,-0.010151171125471592
1686445538579781000,3.342781005859375,-0.014494786970317364,0.036966804414987564,-0.004953479394316673
1686445538589798000,3.3527978515625,-0.01498028077185154,0.03957883641123772,-0.004990497604012489
1686445538599814000,3.36281396484375,-0.017914285883307457,0.04068164899945259,-0.006739927921444178
1686445538609831200,3.3728310546875,-0.009061671793460846,0.03104366920888424,-0.00609411159530282
1686445538619848000,3.382847900390625,-0.011480887420475483,0.021985460072755814,-0.0019531622529029846
1686445538629865000,3.392864990234375,-0.01067821029573679,0.00649704784154892,0.003831756068393588
1686445538639882000,3.402882080078125,-0.008141017518937588,-0.012739230878651142,0.005121524911373854
1686445538649898000,3.41289794921875,-0.014824486337602139,-0.027182085439562798,-0.00014860439114272594
1686445538659915000,3.4229150390625,-0.01239381916821003,-0.028563467785716057,-0.007814247161149979
1686445538669932000,3.43293212890625,-0.012371182441711426,-0.01816382445394993,-0.009032110683619976
1686445538679949000,3.442948974609375,-0.012054266408085823,0.002764627570286393,-0.005618470720946789
1686445538689966000,3.452966064453125,-0.011055047623813152,0.026808444410562515,-0.006444583646953106
1686445538699981800,3.46298193359375,-0.0060083577409386635,0.03873354569077492,-0.004976915195584297
1686445538709999000,3.4729990234375,-0.010927748866379261,0.038907185196876526,-0.005677592940628529
1686445538720016100,3.48301611328125,-0.01131044514477253,0.02798316441476345,-0.006094910204410553
1686445538730033700,3.49303369140625,-0.011846273206174374,0.019358251243829727,-0.00315957423299551
1686445538740050400,3.503050537109375,-0.007665643002837896,0.014660169370472431,0.0036482643336057663
1686445538750066400,3.51306640625,-0.0018282600212842226,0.008205465972423553,0.006883738562464714
1686445538760083700,3.523083740234375,0.00019387812062632293,-0.0010436928132548928,0.008393218740820885
1686445538770100500,3.5331005859375,0.000185888638952747,-0.009003615006804466,0.0007949535502120852
1686445538780117500,3.543117431640625,0.0002948119363281876,-0.013364008627831936,0.0010764497565105557
1686445538790134800,3.553134765625,-0.0016876452136784792,-0.015034875832498074,-0.0003355582884978503
1686445538800151600,3.563151611328125,0.0014383733505383134,-0.01158901210874319,0.001198955113068223
1686445538810167600,3.57316748046875,-0.0026442527305334806,-0.001659948262386024,-0.002543318783864379
1686445538820184800,3.583184814453125,-0.003451723139733076,0.00264824740588665,0.00063383235828951
1686445538830201600,3.59320166015625,-0.007408381439745426,-0.0012905678013339639,-0.00030546457855962217
1686445538840218600,3.603218505859375,-0.009766876697540283,-0.013483851216733456,-0.005928462836891413
1686445538850235600,3.613235595703125,-0.010185525752604008,-0.032402146607637405,-0.014965633861720562
1686445538860251600,3.623251708984375,-0.012599681504070759,-0.0360323041677475,-0.020234432071447372
1686445538870268700,3.6332685546875,-0.007994809187948704,-0.03485731780529022,-0.02039661817252636
1686445538880285400,3.643285400390625,-0.010001501068472862,-0.03309936448931694,-0.02599511481821537
1686445538890302700,3.653302734375,-0.008084291592240334,-0.02219664864242077,-0.025849707424640656
1686445538900319500,3.663319580078125,-0.0049646650440990925,-0.014110492542386055,-0.027091005817055702
1686445538910335500,3.67333544921875,-0.004348942078649998,-0.01239142194390297,-0.022489596158266068
1686445538920352800,3.683352783203125,0.0003944141499232501,-0.020234432071447372,-0.018305238336324692
1686445538930369500,3.69336962890625,-0.00020506340661086142,-0.03406422585248947,-0.00812264159321785
1686445538940386600,3.703386474609375,0.003051982494071126,-0.04541248828172684,-0.0006785734440200031
1686445538950403600,3.713403564453125,0.0031036478467285633,-0.05517670139670372,0.004211523104459047
1686445538960419600,3.723419677734375,0.003724430687725544,-0.06587541848421097,0.00797536876052618
1686445538970436600,3.7334365234375,0.004218447022140026,-0.07097350805997849,0.007286408916115761
1686445538980453400,3.743453369140625,0.004714327864348888,-0.07832489907741547,0.007223558146506548
1686445538990470700,3.753470703125,0.0019382486352697015,-0.07642180472612381,0.0065284729935228825
1686445539000487700,3.76348779296875,0.00008548746700398624,-0.07374878972768784,0.009266202338039875
1686445539010503400,3.77350341796875,0.002177134156227112,-0.0703069195151329,0.018369952216744423
1686445539020520700,3.783520751953125,-0.0010277138790115714,-0.06872393935918808,0.024949558079242706
1686445539030537700,3.793537841796875,-0.002383262850344181,-0.06181623041629791,0.031066305935382843
1686445539040554500,3.803554443359375,-0.001916410750709474,-0.03988616168498993,0.028236698359251022
1686445539050571800,3.81357177734375,0.0008958873804658651,-0.024946095421910286,0.02094762586057186
1686445539060587500,3.82358740234375,-0.003721234854310751,-0.01872069016098976,0.01577150635421276
1686445539070604500,3.8336044921875,-0.0010237190872430801,-0.014102236367762089,0.007610515225678682
1686445539080621600,3.84362158203125,0.00020106865849811584,-0.0173286572098732,0.003192064817994833
1686445539090638600,3.853638671875,-0.0032807481475174427,-0.01906796731054783,-0.0033004553988575935
1686445539100655600,3.863655517578125,-0.0011696603614836931,-0.022957513108849525,-0.0036970002111047506
1686445539110671600,3.873671630859375,-0.0025044367648661137,-0.019239474087953568,0.001335841603577137
1686445539120688600,3.883688720703125,-0.001100950757972896,-0.01889539323747158,0.008168447762727737
1686445539130705700,3.89370556640625,0.0013941648649051785,-0.014613031409680843,0.021291440352797508
1686445539140722400,3.903722412109375,0.002103897277265787,-0.008297611027956009,0.022661369293928146
1686445539150739700,3.91373974609375,-0.0010961571242660284,0.001163268811069429,0.0149238221347332
1686445539160755700,3.923755615234375,-0.005041630007326603,0.006581736262887716,0.0034708979073911905
1686445539170772500,3.9337724609375,-0.004929777234792709,0.008186024613678455,-0.013184777460992336
1686445539180789800,3.943789794921875,-0.010101635940372944,0.011452924460172653,-0.019107913598418236
1686445539190806500,3.953806640625,-0.012338425032794476,0.014480671845376492,-0.015132080763578415
1686445539200823600,3.963823486328125,-0.011442005634307861,0.019483420997858047,-0.011375959031283855
1686445539210839600,3.973839599609375,-0.01061882171779871,0.02213166654109955,-0.0039036613889038563
1686445539220856600,3.983856689453125,-0.0067569720558822155,0.03239043056964874,0.0014415690675377846
1686445539230873600,3.99387353515625,-0.007555654272437096,0.032830383628606796,0.005620335228741169
1686445539240890600,4.003890625,-0.0049550775438547134,0.031496405601501465,0.01756115071475506
1686445539250907600,4.01390771484375,-0.004751611966639757,0.02527339942753315,0.02456047013401985
1686445539260923600,4.023923583984375,-0.008889365009963512,0.021290907636284828,0.024150077253580093
1686445539270940400,4.0339404296875,-0.006841394584625959,0.022895729169249535,0.01804478093981743
1686445539280957700,4.043957763671875,-0.008447014726698399,0.012516058050096035,0.01116263959556818
1686445539290974700,4.053974609375,-0.007504521403461695,0.007164169568568468,0.0038336203433573246
1686445539300991500,4.063991455078125,-0.006721286103129387,0.008656871505081654,-0.0010527475969865918
1686445539311007500,4.074007568359375,-0.00821079220622778,0.009289105422794819,-0.0033563817851245403
1686445539321024800,4.084024658203125,-0.006509830709546804,0.010153568349778652,-0.0005779059720225632
1686445539331041500,4.09404150390625,-0.003973170183598995,0.013089170679450035,-0.00586587842553854
1686445539341058600,4.10405859375,-0.0025835325941443443,0.006053897552192211,-0.004963599611073732
1686445539351075600,4.11407568359375,-0.0018666095566004515,-0.004333761986345053,-0.01059192419052124
1686445539361091600,4.124091552734375,-0.006187588442116976,-0.007077882997691631,-0.01073946338146925
1686445539371108600,4.134108642578125,-0.0037052559200674295,-0.0059958407655358315,-0.007711182814091444
1686445539381125600,4.144125732421875,0.00004900216299574822,-0.004523645620793104,-0.004714061506092548
1686445539391142700,4.154142578125,-0.0036370791494846344,-0.0022066952660679817,0.0002692455891519785
1686445539401159400,4.164159423828125,-0.0003177151083946228,0.00558118661865592,-0.001389371114782989
1686445539411175400,4.174175537109375,-0.002828276949003339,0.004620318301022053,0.0024381240364164114
1686445539421192700,4.184192626953125,0.001591505017131567,0.0008546083699911833,0.007559382822364569
1686445539431209500,4.19420947265625,-0.000598145998083055,0.0032538501545786858,0.013320598751306534
1686445539441226500,4.2042265625,-0.0031427964568138123,0.0020298613235354424,0.018038121983408928
1686445539451243500,4.214243408203125,-0.0034325483720749617,0.0022533005103468895,0.01581518165767193
1686445539461259500,4.224259521484375,-0.006162022240459919,0.006098372396081686,0.012064652517437935
1686445539471276500,4.234276611328125,-0.006951649207621813,0.008437426760792732,0.007011037785559893
1686445539481293600,4.24429345703125,-0.007423028815537691,0.007743673399090767,0.00698014535009861
1686445539491310600,4.254310546875,-0.004826180636882782,0.009855560027062893,0.006877081003040075
1686445539501327600,4.26432763671875,-0.004057325888425112,0.007447796408087015,0.008416388183832169
1686445539511343400,4.27434326171875,-0.00424241553992033,0.004165450111031532,0.011212972924113274
1686445539521360600,4.284360595703125,-0.0064893243834376335,0.0027417242527008057,0.005624596029520035
1686445539531377700,4.294377685546875,-0.004226969089359045,0.003632285399362445,-0.00048070057528093457
1686445539541394700,4.304394775390625,-0.001871403306722641,-0.000006125270374468528,-0.006311159115284681
1686445539551411700,4.31441162109375,-0.0043505397625267506,0.0014855111949145794,-0.006278402172029018
1686445539561427700,4.324427734375,-0.003353186184540391,0.003150785807520151,-0.008747684769332409
1686445539571444500,4.334444580078125,-0.004205131437629461,-0.0003270361921750009,-0.0037089844699949026
1686445539581461800,4.344461669921875,-0.008934905752539635,-0.0032293491531163454,-0.0033888723701238632
1686445539591478500,4.354478515625,-0.004367318004369736,0.001148355077020824,0.0009725864510983229
1686445539601495600,4.36449560546875,-0.002825880190357566,0.00695058424025774,0.0057260626927018166
1686445539611511800,4.37451171875,-0.0024943165481090546,0.015324894338846207,0.010094179771840572
1686445539621528600,4.384528564453125,-0.0014005564153194427,0.01266812440007925,0.015854330733418465
1686445539631545600,4.394545654296875,-0.0026351979468017817,0.010127202607691288,0.0185872670263052
1686445539641562600,4.404562744140625,-0.002147573046386242,0.0022748722694814205,0.015175224281847477
1686445539651579600,4.41457958984375,-0.006461627781391144,-0.005259476602077484,0.009456352330744267
1686445539661595600,4.424595703125,-0.005124720744788647,-0.010325874201953411,0.0021827267482876778
1686445539671612400,4.4346123046875,-0.0069503178820014,-0.01215546578168869,0.002630936913192272
1686445539681629700,4.444629638671875,-0.005512476898729801,-0.008422779850661755,-0.00219551008194685
1686445539691646500,4.454646484375,-0.005850432440638542,-0.0067513794638216496,-0.008259527385234833
1686445539701663500,4.46466357421875,-0.009727728553116322,-0.0014439659425988793,-0.003952397499233484
1686445539711680800,4.4746806640625,-0.0059835901483893394,0.0008311725687235594,-0.007215036079287529
1686445539721696500,4.484696533203125,-0.00498091010376811,0.005825398489832878,-0.005251487251371145
1686445539731713500,4.494713623046875,-0.005495166406035423,0.012917929328978062,0.000841825210954994
1686445539741730800,4.504730712890625,-0.0030682277865707874,0.01519812736660242,0.003846669802442193
1686445539751747600,4.51474755859375,-0.001264202524907887,0.018260495737195015,0.01164626982063055
1686445539761764600,4.5247646484375,0.0007046724203974009,0.016169648617506027,0.014758972451090813
1686445539771780600,4.534780517578125,-0.0016706009628251195,0.011187407188117504,0.016394419595599174
1686445539781797600,4.544797607421875,-0.002109489869326353,0.007149522192776203,0.011607120744884014
1686445539791814700,4.554814697265625,-0.004322310443967581,-0.00045300371129997075,0.0038338867016136646
1686445539801831400,4.56483154296875,-0.0067838700488209724,-0.0052171326242387295,-0.0027475832030177116
1686445539811848700,4.5748486328125,-0.004069842863827944,-0.011961854062974453,-0.003893541404977441
1686445539821864700,4.58486474609375,-0.008403871208429337,-0.011951734311878681,-0.006594519596546888
1686445539831881500,4.594881591796875,-0.009425193071365356,-0.0062243398278951645,-0.005026184022426605
1686445539841898800,4.604898681640625,-0.0062547000125050545,0.00047936898772604764,-0.005919408053159714
1686445539851915500,4.61491552734375,-0.00720464950427413,0.011685684323310852,-0.003564907470718026
1686445539861932500,4.6249326171875,-0.004069842863827944,0.01919766329228878,0.0037441381718963385
1686445539871948500,4.634948486328125,-0.005785451270639896,0.026669427752494812,0.009039301425218582
1686445539881965600,4.644965576171875,-0.00046818371629342437,0.02401372417807579,0.013466540724039078
1686445539891982600,4.654982666015625,0.002267415402457118,0.018730809912085533,0.014242053031921387
1686445539901999600,4.66499951171875,0.002369148191064596,0.009167132899165154,0.016398148611187935
1686445539912016600,4.6750166015625,0.0006620618514716625,0.0012088088551536202,0.014988803304731846
1686445539922032600,4.68503271484375,-0.0024708807468414307,-0.012909939512610435,0.006374542135745287
1686445539932049400,4.69504931640625,-0.005253884010016918,-0.019588083028793335,0.0046695866622030735
1686445539942066700,4.705066650390625,-0.009543171152472496,-0.019173694774508476,-0.00047830372932367027
1686445539952083700,4.715083740234375,-0.010271280072629452,-0.010901649482548237,-0.002625077962875366
1686445539962100500,4.7251005859375,-0.012591425329446793,-0.0011837751371785998,-0.0006559365428984165
1686445539972116700,4.73511669921875,-0.011242002248764038,0.008697351440787315,-0.0024141555186361074
1686445539982133500,4.745133544921875,-0.00887977797538042,0.009110940620303154,-0.00020266656065359712
1686445539992150500,4.755150634765625,-0.008101335726678371,0.011685151606798172,-0.0006519418093375862
1686445540002167800,4.765167724609375,-0.004415254574269056,0.014091850258409977,0.007476824801415205
1686445540012184600,4.7751845703125,-0.0037055222783237696,0.008933840319514275,0.005416869651526213
1686445540022200600,4.78520068359375,-0.005365204066038132,0.005812349263578653,0.0028522454667836428
1686445540032217600,4.795217529296875,-0.0015081481542438269,0.0009685916593298316,0.004216582980006933
1686445540042234600,4.805234619140625,-0.0005526058957912028,0.0016202671686187387,0.007809986360371113
1686445540052251600,4.815251708984375,0.00019520970818120986,0.0010029464028775692,0.013682789169251919
1686445540062268400,4.825268310546875,-0.0023451796732842922,-0.001392566948197782,0.016270050778985023
1686445540072285700,4.83528564453125,-0.003579022129997611,-0.0010130665032193065,0.014109959825873375
1686445540082301700,4.8453017578125,-0.000978711643256247,-0.00452710734680295,0.011712582781910896
1686445540092318500,4.855318359375,-0.0038392129354178905,-0.0020634171087294817,0.008844624273478985
1686445540102335700,4.865335693359375,-0.005494900047779083,-0.00003488740912871435,0.0014631407102569938
1686445540112352500,4.8753525390625,-0.005977198481559753,0.006382531952112913,-0.002311357529833913
1686445540122369500,4.88536962890625,-0.005898102652281523,0.011243599466979504,-0.003162770066410303
1686445540132385500,4.895385498046875,-0.005074386950582266,0.013610350899398327,-0.005587844643741846
1686445540142402600,4.905402587890625,-0.004232029430568218,0.015368836000561714,-0.001719603082165122
1686445540152419600,4.915419677734375,-0.0022711437195539474,0.013289174064993858,0.0035361452028155327
1686445540162436600,4.9254365234375,-0.002049036091193557,0.007720237597823143,0.00509995361790061
1686445540172453600,4.93545361328125,-0.0014961638953536749,0.0019403791520744562,0.008490690030157566
1686445540182469600,4.9454697265625,-0.0020599551498889923,-0.0006428870838135481,0.014062022790312767
1686445540192486400,4.955486328125,-0.0031433289404958487,-0.001984853995963931,0.010252904146909714
1686445540202503700,4.965503662109375,-0.0031225562561303377,0.00007084008393576369,0.006397445686161518
1686445540212520700,4.975520751953125,-0.006632070057094097,-0.0013558153295889497,0.0016551546286791563
1686445540222537500,4.985537353515625,-0.006931409239768982,0.0020572920329868793,-0.006106628105044365
1686445540232553500,4.995553466796875,-0.0065375277772545815,0.007015565410256386,-0.009371663443744183
1686445540242570800,5.00557080078125,-0.007479221560060978,0.008474178612232208,-0.011392736807465553
1686445540252587500,5.01558740234375,-0.005629123654216528,0.007250189781188965,-0.008624380454421043
1686445540262604800,5.025604736328125,-0.0057529606856405735,0.014576812274754047,-0.00833729188889265
1686445540272621600,5.03562158203125,-0.007473096251487732,0.020380638539791107,-0.005074120592325926
1686445540282637600,5.045637451171875,-0.006759102921932936,0.018760638311505318,0.0008122641011141241
1686445540292654600,5.055654541015625,-0.005642971955239773,0.012977850623428822,0.0035119105596095324
1686445540302671600,5.065671630859375,-0.0031547807157039642,0.0059660132974386215,0.01110218558460474
1686445540312688600,5.075688720703125,-0.007835552096366882,0.001856755930930376,0.01031761895865202
1686445540322705400,5.085705322265625,-0.006588127929717302,-0.004160390235483646,0.014278803952038288
1686445540332721700,5.0957216796875,-0.006493319291621447,-0.007822769694030285,0.010830809362232685
1686445540342738700,5.10573876953125,-0.006975884083658457,-0.007861385121941566,0.005339637864381075
1686445540352755500,5.11575537109375,-0.0057590859942138195,-0.005680788774043322,0.005253085400909185
1686445540362772700,5.125772705078125,-0.00478436890989542,-0.0011086739832535386,-0.0003432814555708319
1686445540372789500,5.13578955078125,-0.002014415105804801,0.007881359197199345,-0.0012503541074693203
1686445540382805500,5.145805419921875,-0.004619519226253033,0.016709737479686737,0.001514539704658091
1686445540392822500,5.155822509765625,-0.002132392954081297,0.022492792457342148,0.004072239622473717
1686445540402839600,5.165839599609375,-0.0032895365729928017,0.026205504313111305,0.002692455891519785
1686445540412856600,5.175856689453125,-0.006129265297204256,0.03014884702861309,-0.003334543900564313
1686445540422873600,5.18587353515625,-0.007965780794620514,0.029571739956736565,-0.0033334787003695965
1686445540432889600,5.1958896484375,-0.01266812440007925,0.024030767381191254,0.0002849582233466208
1686445540442906600,5.20590673828125,-0.01056236308068037,0.015223427675664425,0.004501541145145893
1686445540452923600,5.215923583984375,-0.006028597708791494,0.003079679561778903,0.007756456732749939
1686445540462940700,5.225940673828125,-0.005535114090889692,-0.007156712934374809,0.009813481941819191
1686445540472957700,5.235957763671875,-0.0028362665325403214,-0.012032427825033665,0.010639594867825508
1686445540482974500,5.245974365234375,-0.0034442662727087736,-0.012118448503315449,0.010638263076543808
1686445540492990500,5.255990478515625,-0.0037699707318097353,-0.007577226031571627,0.00830000825226307
1686445540503007700,5.2660078125,-0.0024402544368058443,-0.0015909724170342088,0.0059684100560843945
1686445540513024500,5.2760244140625,-0.003034672001376748,0.002615224104374647,-0.00015632755821570754
1686445540523041500,5.28604150390625,-0.0010596717474982142,0.005327653605490923,-0.005884254351258278
1686445540533058600,5.29605859375,-0.005846970248967409,0.010146643966436386,-0.005958556663244963
1686445540543074600,5.306074462890625,-0.0054693338461220264,0.010335994884371758,-0.009216934442520142
1686445540553091600,5.316091552734375,-0.004548945464193821,0.017588846385478973,-0.007500526960939169
1686445540563108600,5.326108642578125,-0.007702128030359745,0.02063896507024765,-0.001588575541973114
1686445540573125600,5.336125732421875,-0.006188920233398676,0.01440849993377924,0.0018985675415024161
1686445540583142400,5.346142333984375,-0.006368150934576988,0.010794324800372124,0.007808121852576733
1686445540593158400,5.356158447265625,-0.00478543434292078,0.004968659486621618,0.015168566256761551
1686445540603175700,5.36617578125,-0.0013667342718690634,-0.00284984870813787,0.01230327133089304
1686445540613192400,5.3761923828125,-0.0068243504501879215,-0.009852631017565727,0.010514159686863422
1686445540623209700,5.386209716796875,-0.00532552320510149,-0.01395656168460846,0.004518318921327591
1686445540633226800,5.396226806640625,-0.005113002844154835,-0.009006012231111526,-0.005179315805435181
1686445540643242500,5.406242431640625,-0.003853061469271779,-0.0014828480780124664,-0.0052197957411408424
1686445540653259500,5.416259521484375,-0.004354001954197884,0.01329663023352623,-0.0035952674224972725
1686445540663276800,5.42627685546875,-0.004066114313900471,0.014573882333934307,-0.0035033884923905134
1686445540673293600,5.43629345703125,-0.005630987696349621,0.015718508511781693,-0.002638926263898611
1686445540683310600,5.446310546875,-0.004673581570386887,0.012593556195497513,-0.002118011936545372
1686445540693326600,5.45632666015625,-0.0041060615330934525,0.012226838618516922,0.0008309062686748803
1686445540703343600,5.466343505859375,-0.0073236930184066296,0.00313560594804585,0.0023763386998325586
1686445540713360600,5.476360595703125,-0.007450725883245468,-0.0007994809420779347,0.0019473034190014005
1686445540723377700,5.486377685546875,-0.002034655073657632,-0.007797203026711941,0.003171824850142002
1686445540733394200,5.496394287109375,-0.006903712637722492,-0.003291134489700198,-0.001458080718293786
1686445540743410400,5.506410400390625,-0.007700796704739332,0.0003105245705228299,-0.0044139232486486435
1686445540753427200,5.51642724609375,-0.005810751114040613,0.00823902152478695,-0.0016016251174733043
1686445540763444200,5.5264443359375,-0.005872003734111786,0.011591408401727676,-0.0028415927663445473
1686445540773461200,5.536461181640625,-0.003501257859170437,0.011914449743926525,-0.00036139096482656896
1686445540783478300,5.546478271484375,-0.003798999357968569,0.010267551057040691,0.0038211036007851362
1686445540793495300,5.556495361328125,-0.0018791264155879617,0.009327721782028675,0.00740145705640316
1686445540803511300,5.56651123046875,-0.005742041394114494,0.0063154203817248344,0.00851732213050127
1686445540813528300,5.5765283203125,-0.006476807873696089,0.002844256116077304,-0.0019883159548044205
1686445540823545300,5.58654541015625,-0.003862116253003478,-0.0015744607662782073,-0.0016218650853261352
1686445540833562400,5.596562255859375,-0.004180363845080137,-0.00253426400013268,-0.001885784324258566
1686445540843578400,5.606578369140625,-0.0044291033409535885,-0.004322576802223921,0.0014594122767448425
1686445540853595100,5.61659521484375,-0.004196609370410442,-0.0008631304954178631,0.0005757753970101476
1686445540863612200,5.626612060546875,-0.0049465554766356945,0.0028490496333688498,0.000565122754778713
1686445540873629400,5.63662939453125,-0.005143629387021065,0.004514590837061405,0.0032591766212135553
1686445540883646200,5.646646240234375,-0.00732395937666297,0.005319664254784584,0.004125769250094891
1686445540893663200,5.656663330078125,-0.0007137271459214389,0.003013632958754897,0.004542021080851555
1686445540903679500,5.666679443359375,-0.007997472770512104,-0.0009542105835862458,0.006080529186874628
1686445540913696300,5.6766962890625,-0.0032834112644195557,-0.004004062619060278,0.004018443636596203
1686445540923713300,5.68671337890625,-0.005380384158343077,-0.006193181034177542,0.003418433479964733
1686445540933730300,5.696730224609375,-0.0068057081662118435,-0.004255465231835842,-0.0009209210984408855
1686445540943747300,5.706747314453125,-0.005666674114763737,-0.00166580721270293,-0.008827047422528267
1686445540953763300,5.716763427734375,-0.007065100129693747,0.00014088122406974435,-0.010608169250190258
1686445540963780000,5.726780029296875,-0.005061870440840721,0.0031220237724483013,-0.008913866244256496
1686445540973797400,5.73679736328125,-0.005253617651760578,0.0059811933897435665,-0.007794273551553488
1686445540983814100,5.746814208984375,-0.006563893053680658,0.01127901952713728,-0.0017976337112486362
1686445540993831200,5.7568310546875,-0.001945705502294004,0.014553909189999104,0.00293373828753829
1686445541003847400,5.766847412109375,-0.004787298385053873,0.009321330115199089,0.007131945341825485
1686445541013864200,5.7768642578125,-0.004719920456409454,0.0032783513888716698,0.004035487771034241
1686445541023881200,5.786881103515625,-0.0021526331547647715,-0.004455468617379665,0.00529622845351696
1686445541033898200,5.796898193359375,-0.006449377164244652,-0.00797403696924448,0.006629939656704664
1686445541043915300,5.806915283203125,-0.004597947467118502,-0.007464041467756033,0.0029313412960618734
1686445541053931300,5.81693115234375,-0.004983839578926563,0.002397377509623766,0.00027537086862139404
1686445541063948000,5.826947998046875,-0.010222277604043484,-0.00012383698776829988,0.0007313040550798178
1686445541073965300,5.83696533203125,-0.005317800212651491,0.0031502533238381147,-0.004611796233803034
1686445541083982300,5.846982421875,-0.010042780078947544,0.003463707398623228,-0.0072866748087108135
1686445541093999000,5.8569990234375,-0.004885036498308182,0.0068331388756632805,-0.006125803105533123
1686445541104015400,5.867015380859375,-0.008139685727655888,0.005359345115721226,-0.00347409350797534
1686445541114032400,5.877032470703125,-0.005941246170550585,0.005695702508091927,-0.006869357544928789
1686445541124049200,5.887049072265625,-0.004948153160512447,0.00395585922524333,-0.005351355765014887
1686445541134066400,5.89706640625,-0.0025622271932661533,0.006116215605288744,-0.0005075985100120306
1686445541144083200,5.907083251953125,-0.00007909588020993397,0.0012620720081031322,0.005026716738939285
1686445541154100200,5.917100341796875,-0.002764094853773713,-0.00032197617110796273,0.008828911930322647
1686445541164116200,5.9271162109375,-0.004013916477560997,-0.003897003596648574,0.007379619404673576
1686445541174133200,5.93713330078125,-0.005570534151047468,-0.008649148046970367,0.001130778226070106
1686445541184150300,5.947150390625,-0.010780742391943932,-0.009673133492469788,-0.0013915016315877438
1686445541194167300,5.957167236328125,-0.007902397774159908,-0.0073716300539672375,-0.0015446334145963192
1686445541204184300,5.967184326171875,-0.009635583497583866,-0.0011954930378124118,-0.0038272286765277386
1686445541214200300,5.977200439453125,-0.013142433948814869,-0.0005531385540962219,-0.010278469882905483
1686445541224217000,5.987217041015625,-0.011532552540302277,0.00686056911945343,-0.008431567810475826
1686445541234234400,5.997234375,-0.009612679481506348,0.011721370741724968,0.0019180085510015488
1686445541244251100,6.007251220703125,-0.005537777207791805,0.01139859575778246,0.006743123754858971
1686445541254268200,6.01726806640625,-0.0041002025827765465,0.00410552928224206,0.011226555332541466
1686445541264284400,6.027284423828125,-0.005760417319834232,-0.0017478326335549355,0.010780476033687592
1686445541274301200,6.03730126953125,-0.003612045431509614,-0.005755091086030006,0.01284788828343153
1686445541284318200,6.047318115234375,-0.0023225427139550447,-0.004643221385776997,0.005253884010016918
1686445541294335500,6.05733544921875,-0.0001203748834086582,-0.003304982790723443,0.0018301242962479591
1686445541304352300,6.067352294921875,-0.001885784324258566,-0.005854160524904728,-0.0014628743520006537
1686445541314368300,6.0773681640625,-0.0032317459117621183,-0.005088235717266798,-0.006908772513270378
1686445541324385300,6.08738525390625,-0.004436826333403587,-0.0020692760590463877,-0.009797503240406513
1686445541334402300,6.09740234375,-0.005648031830787659,0.0019323896849527955,-0.007505054119974375
1686445541344419300,6.10741943359375,-0.003662378992885351,0.005281847435981035,-0.0023880566004663706
1686445541354436000,6.11743603515625,-0.005035238806158304,0.008555937558412552,-0.000028762138754245825
1686445541364452400,6.127452392578125,-0.006615292280912399,0.010701912455260754,0.004215517546981573
1686445541374469400,6.137469482421875,-0.0049316417425870895,0.010568488389253616,0.005142297595739365
1686445541384486100,6.147486083984375,-0.006970291491597891,0.01067767757922411,0.005861617624759674
1686445541394503400,6.15750341796875,-0.004447745159268379,0.0043321643024683,0.009526926092803478
1686445541404520200,6.167520263671875,-0.004729507956653833,0.0004415521107148379,0.007518636528402567
1686445541414536200,6.1775361328125,-0.0026636936236172915,-0.006853911560028791,0.00791251752525568
1686445541424553200,6.18755322265625,-0.0052056810818612576,-0.004291950259357691,-0.0005025385180488229
1686445541434570200,6.1975703125,-0.007249923422932625,-0.0023363912478089333,-0.0070520504377782345
1686445541444587300,6.207587158203125,-0.004963865969330072,0.0017683389596641064,-0.01513181533664465
1686445541454604000,6.21760400390625,-0.008237157016992569,0.006853378843516111,-0.017104418948292732
1686445541464620300,6.227620361328125,-0.005646700505167246,0.010268616490066051,-0.011402590200304985
1686445541474637300,6.23763720703125,-0.008082161657512188,0.017246631905436516,-0.00501020485535264
1686445541484654000,6.247654052734375,-0.008302937261760235,0.020784374326467514,0.00011664645717246458
1686445541494671400,6.25767138671875,-0.0028663603588938713,0.020375046879053116,0.006684267893433571
1686445541504688400,6.2676884765625,-0.005540173966437578,0.012148275971412659,0.005459214095026255
1686445541514705200,6.277705078125,-0.004265851341187954,0.004824848845601082,0.004278901033103466
1686445541524721200,6.28772119140625,-0.008526642806828022,-0.0023217438720166683,0.0018037590198218822
1686445541534738200,6.29773828125,-0.004838697146624327,-0.010674748569726944,0.000041278995922766626
1686445541544755200,6.307755126953125,-0.002472212305292487,-0.010194048285484314,0.0001680454588495195
1686445541554772500,6.3177724609375,-0.00267674308270216,-0.005733519326895475,0.0014721954939886928
1686445541564789200,6.327789306640625,-0.0024474449455738068,-0.00049108691746369,-0.0002748382103163749
1686445541574805200,6.33780517578125,-0.003768905531615019,0.002665824256837368,0.0011198592837899923
1686445541584822300,6.347822265625,-0.006833671126514673,0.008057926781475544,0.0010247844038531184
1686445541594839300,6.35783935546875,-0.0041313618421554565,0.01212883461266756,0.0005555353709496558
1686445541604856300,6.367856201171875,-0.007404652889817953,0.011035607196390629,0.003631486324593425
1686445541614873000,6.377873046875,-0.005626194179058075,0.004460794851183891,0.002573146251961589
1686445541624889300,6.387889404296875,-0.00387276872061193,0.0031004520133137703,-0.002807770622894168
1686445541634906400,6.39790625,-0.008216917514801025,0.009316270239651203,-0.0035382758360356092
1686445541644923100,6.407923095703125,-0.009698966518044472,0.012895026244223118,-0.0041308291256427765
1686445541654940400,6.4179404296875,-0.010263556614518166,0.018972892314195633,-0.004739361349493265
1686445541664957200,6.427957275390625,-0.009503756649792194,0.01962137222290039,0.0022985744290053844
1686445541674973200,6.43797314453125,-0.00851678941398859,0.020367588847875595,0.007357781287282705
1686445541684990200,6.447990234375,-0.005927397403866053,0.015333682298660278,0.006987868342548609
1686445541695007200,6.45800732421875,-0.007720770314335823,0.00720438314601779,0.004237888380885124
1686445541705024300,6.468024169921875,-0.006015814375132322,0.005720203742384911,0.004878112114965916
1686445541715041300,6.478041259765625,-0.009220396168529987,0.0023574302904307842,0.0035260252188891172
1686445541725057300,6.488057373046875,-0.00558012118563056,0.0004423510399647057,0.001978195970878005
1686445541735074000,6.498073974609375,-0.006477074231952429,0.00020000340009573847,0.0019502328941598535
1686445541745091000,6.508091064453125,-0.004144144710153341,0.0037979339249432087,-0.0022740731947124004
1686445541755108000,6.518108154296875,-0.0006024070316925645,0.0044176517985761166,-0.005860019475221634
1686445541765125000,6.528125,-0.0043952809646725655,-0.0013459615875035524,-0.004798749927431345
1686445541775141000,6.53814111328125,-0.004726844374090433,-0.0023102923296391964,-0.006493585649877787
1686445541785158100,6.548158203125,-0.006405701395124197,-0.0024205471854656935,-0.006162554491311312
1686445541795175200,6.558175048828125,-0.005649629980325699,-0.0019174759509041905,-0.0030687605030834675
1686445541805192200,6.568192138671875,-0.00520674604922533,-0.0003129214164800942,0.0025182850658893585
1686445541815209200,6.578209228515625,-0.005687979515641928,0.0010138654615730047,0.004083158448338509
1686445541825226000,6.58822607421875,-0.005369465332478285,0.0016173376934602857,0.004181162919849157
1686445541835242000,6.598241943359375,-0.007758320774883032,0.0026913906913250685,0.0003968109958805144
1686445541845259300,6.60825927734375,-0.0049620019271969795,0.0027084348257631063,0.0005344964447431266
1686445541855276000,6.618276123046875,-0.00629091914743185,-0.00034221619716845453,0.0020607539918273687
1686445541865293000,6.62829296875,-0.005163602996617556,-0.0013012205017730594,0.005624329671263695
1686445541875310000,6.63831005859375,-0.0015624766238033772,0.0014721954939886928,0.0048980857245624065
1686445541885326000,6.648326171875,-0.006994260009378195,0.007928230799734592,0.0046754456125199795
1686445541895343000,6.658343017578125,-0.006456567905843258,0.00899882148951292,-0.0009147958480753005
1686445541905360100,6.668360107421875,-0.005667473189532757,0.012105931527912617,-0.004486893769353628
1686445541915377200,6.678377197265625,-0.0037611823063343763,0.008100536651909351,-0.0018306568963453174
1686445541925394200,6.688394287109375,-0.004727377090603113,0.004259459674358368,-0.005754824727773666
1686445541935410000,6.698409912109375,-0.005587311927229166,0.003450924064964056,-0.0038133803755044937
1686445541945427200,6.70842724609375,-0.007792409509420395,-0.00008868326403899118,-0.0001840244367485866
1686445541955444200,6.7184443359375,-0.007802795618772507,-0.003293797606602311,-0.004624845460057259
1686445541965461200,6.728461181640625,-0.00740119069814682,-0.0016178702935576439,-0.003242664970457554
1686445541975478300,6.738478271484375,-0.005203284323215485,0.002040780382230878,0.0001853560097515583
1686445541985494000,6.748493896484375,-0.00412363838404417,0.005527390632778406,0.002298840554431081
1686445541995511000,6.758510986328125,-0.0015965650090947747,0.0022234732750803232,0.005814479663968086
1686445542005528300,6.7685283203125,-0.0046549392864108086,-0.0003281014505773783,0.005108209326863289
1686445542015545000,6.778545166015625,-0.0022892532870173454,-0.003456783015280962,0.007681621704250574
1686445542025562000,6.78856201171875,-0.0020879183430224657,-0.005244562868028879,0.007081877905875444
1686445542035578400,6.798578369140625,-0.007160707376897335,-0.008199074305593967,0.0004990763845853508
1686445542045595100,6.80859521484375,-0.004944690968841314,-0.009998305700719357,-0.007435812149196863
1686445542055612200,6.818612060546875,-0.008480836637318134,-0.0062184808775782585,-0.007426224648952484
1686445542065629200,6.828629150390625,-0.006343383342027664,-0.0018080200534313917,-0.006841394584625959
1686445542075646200,6.838646240234375,-0.006225138902664185,0.005860285833477974,-0.003909520339220762
1686445542085663000,6.8486630859375,-0.008108792826533318,0.011385013349354267,0.0013901700731366873
1686445542095679000,6.858678955078125,-0.006346046458929777,0.011154117062687874,0.003215766977518797
1686445542105696300,6.8686962890625,-0.0062792012467980385,0.01074106153100729,0.001014664419926703
1686445542115713000,6.878713134765625,-0.004334028344601393,0.007918110117316246,-0.004577973857522011
1686445542125730000,6.88872998046875,-0.005239769350737333,0.004191815387457609,0.003251187037676573
1686445542135747000,6.8987470703125,-0.004854676313698292,-0.0014572817599400878,0.003993410151451826
1686445542145763000,6.90876318359375,-0.002112952060997486,-0.00487225316464901,0.006114884279668331
1686445542155780000,6.918780029296875,-0.004487160127609968,-0.00504056503996253,0.00490181427448988
1686445542165797000,6.928797119140625,-0.006306897848844528,-0.006134325172752142,0.0004956142511218786
1686445542175814100,6.938814208984375,-0.00791571382433176,-0.0021379857789725065,-0.008022506721317768
1686445542185831200,6.9488310546875,-0.008421181701123714,0.0006865629111416638,-0.00824088603258133
1686445542195847000,6.958846923828125,-0.007473895326256752,-0.00022796659322921187,-0.009605223312973976
1686445542205864200,6.9688642578125,-0.007215568795800209,0.004874916281551123,-0.002270611235871911
1686445542215881200,6.978881103515625,-0.007014233618974686,0.006603308022022247,-0.0034674357157200575
1686445542225898000,6.98889794921875,-0.005608350969851017,0.005024585872888565,-0.0014064153656363487
1686445542235915300,6.998915283203125,-0.007832356728613377,0.0018306568963453174,-0.004020574036985636
1686445542245931300,7.00893115234375,-0.0034751589410007,0.006450708955526352,-0.00013395700079854578
1686445542255948000,7.018947998046875,-0.0025923210196197033,0.0016378440195694566,-0.00313560594804585
1686445542265965300,7.02896533203125,-0.0062666842713952065,0.0032621060963720083,0.0034080471377819777
1686445542275982000,7.038982177734375,-0.002679672557860613,-0.0009741843095980585,0.0035867453552782536
1686445542285999000,7.0489990234375,-0.0062552327290177345,-0.0031161648221313953,0.005909820552915335
1686445542296015000,7.05901513671875,-0.005709284916520119,-0.007967378944158554,0.005939914379268885
1686445542306032000,7.0690322265625,-0.008257397450506687,-0.0083673857152462,0.005257079843431711
1686445542316049200,7.079049072265625,-0.009513343684375286,-0.008435828611254692,0.0002633866388350725
1686445542326066200,7.089066162109375,-0.007864315062761307,-0.005586779210716486,-0.0068113007582724094
1686445542336083200,7.099083251953125,-0.007739678490906954,-0.0007576693315058947,-0.007442203816026449
1686445542346099200,7.10909912109375,-0.005006476305425167,0.002430134452879429,-0.00577852688729763
1686445542356116000,7.119115966796875,-0.0049287122674286366,0.005172391422092915,-0.006426740437746048
1686445542366133200,7.12913330078125,-0.006394249852746725,0.006113019771873951,-0.0070829433389008045
1686445542376150000,7.13914990234375,-0.0031321437563747168,0.009802030399441719,-0.0020061591640114784
1686445542386167000,7.1491669921875,-0.0041369544342160225,0.009034241549670696,0.000261788722127676
1686445542396184300,7.159184326171875,-0.007642473094165325,0.0019294602097943425,0.011477691121399403
1686445542406200000,7.169199951171875,-0.008522914722561836,-0.0032775523141026497,0.013171195983886719
1686445542416217000,7.179217041015625,-0.008403871208429337,-0.00869229156523943,0.007999869994819164
1686445542426234400,7.189234375,-0.007467237301170826,-0.016820525750517845,0.006374276243150234
1686445542436251100,7.199251220703125,-0.008642490021884441,-0.015509450808167458,0.0036306874826550484
1686445542446268200,7.20926806640625,-0.006638195365667343,-0.009485913440585136,0.0018817896489053965
1686445542456284200,7.2192841796875,-0.005547630600631237,-0.002570749493315816,-0.0004290352517273277
1686445542466301200,7.22930126953125,-0.0059742690064013,0.0006146575906313956,0.00021837920940015465
1686445542476318200,7.239318115234375,-0.005603024736046791,0.005119660869240761,-0.009023322723805904
1686445542486335000,7.2493349609375,-0.004089550115168095,0.010436395183205605,-0.008786567486822605
1686445542496352300,7.259352294921875,-0.0018631474813446403,0.013431120663881302,-0.007737015374004841
1686445542506368300,7.2693681640625,-0.0016932378057390451,0.012309396639466286,0.0036938043776899576
1686445542516385000,7.279385009765625,-0.0032583775464445353,0.008416654542088509,0.004825914278626442
1686445542526402300,7.28940234375,0.0008873652550391853,0.003422162029892206,0.012599415145814419
1686445542536419000,7.299419189453125,-0.0033393376506865025,-0.001187503570690751,0.01248117070645094
1686445542546436000,7.30943603515625,-0.003308711340650916,-0.008835037238895893,0.013776266016066074
1686445542556452000,7.3194521484375,-0.007191866636276245,-0.008323975838720798,0.009670470841228962
1686445542566469000,7.32946923828125,-0.006357764359563589,-0.008379103615880013,0.0035308189690113068
1686445542576486100,7.339486083984375,-0.007259244564920664,-0.005037369206547737,0.0010450243717059493
1686445542586503000,7.3495029296875,-0.00863370206207037,-0.002438922878354788,-0.0001358212175546214
1686445542596520200,7.359520263671875,-0.005546032916754484,0.004577441141009331,-0.004078897647559643
1686445542606536200,7.3695361328125,-0.006163619924336672,0.012602077797055244,-0.0015395734226331115
1686445542616553000,7.379552978515625,-0.004233360756188631,0.016741961240768433,-0.00026365293888375163
1686445542626570200,7.3895703125,-0.005853361915796995,0.01853986270725727,-0.0015984292840585113
1686445542636587300,7.399587158203125,-0.006551908794790506,0.014958975836634636,0.0007185208378359675
1686445542646604000,7.40960400390625,-0.0033744913525879383,0.01582689955830574,0.00227886694483459
1686445542656621300,7.419621337890625,-0.00441019469872117,0.011957326903939247,0.002251968951895833
1686445542666637000,7.429636962890625,-0.0035665053874254227,0.006354834884405136,-0.00392762990668416
1686445542676654000,7.439654052734375,-0.003096723696216941,-0.002139583695679903,-0.002549710450693965
1686445542686671400,7.44967138671875,-0.0067780110985040665,-0.006047506351023912,-0.00025779398856684566
1686445542696688000,7.459688232421875,-0.0051771849393844604,-0.006611830089241266,-0.0005054679932072759
1686445542706705200,7.469705078125,-0.009000685065984726,-0.006358563434332609,-0.0032706281635910273
1686445542716721200,7.47972119140625,-0.0038165762089192867,0.0004213120846543461,-0.002189118415117264
1686445542726738200,7.48973828125,-0.007839547470211983,0.005555087700486183,-0.000556334329303354
1686445542736755700,7.499755615234375,-0.0049161952920258045,0.006142847239971161,0.004275705199688673
1686445542746772700,7.509772705078125,-0.004547347314655781,0.012767193838953972,0.004338023252785206
1686445542756789800,7.519789794921875,-0.0028658276423811913,0.01341833733022213,0.00820946041494608
1686445542766805800,7.5298056640625,-0.005659749731421471,0.010625746101140976,0.008352206088602543
1686445542776822800,7.53982275390625,-0.002198173198848963,0.007757521700114012,0.00697828084230423
1686445542786839800,7.54983984375,-0.0038064562249928713,0.0016088156262412667,0.005138036794960499
1686445542796856600,7.559856689453125,-0.0021374530624598265,-0.0008436894277110696,0.005882390309125185
1686445542806873900,7.569873779296875,-0.002360093407332897,-0.0028011128306388855,0.0075548551976680756
1686445542816889900,7.579889892578125,-0.003649862250313163,-0.0025656893849372864,0.009838515892624855
1686445542826906600,7.58990673828125,-0.005848035216331482,0.0009097357979044318,0.0029286781791597605
1686445542836924000,7.599923828125,-0.004280498716980219,0.001449025934562087,0.0019558256026357412
1686445542846940700,7.609940673828125,-0.0051657333970069885,0.006403570994734764,0.0013054815353825688
1686445542856957700,7.619957763671875,-0.0068123661912977695,0.008270712569355965,-0.0016620787791907787
1686445542866974700,7.629974609375,-0.0025771409273147583,0.00797163974493742,0.0010069411946460605
1686445542876990700,7.63999072265625,-0.006895190104842186,0.009486712515354156,0.001603489276021719
1686445542887007700,7.6500078125,-0.004098072182387114,0.009134642779827118,0.0062339273281395435
1686445542897024500,7.6600244140625,-0.005358013790100813,0.004604605492204428,0.0062576294876635075
1686445542907041800,7.670041748046875,-0.004702077247202396,-0.0016074840677902102,0.007230482529848814
1686445542917058800,7.680058837890625,-0.004279167391359806,-0.0012005530297756195,0.002159024588763714
1686445542927074600,7.690074462890625,-0.005091431550681591,0.00022450447431765497,0.0032807481475174427
1686445542937091800,7.700091796875,-0.0020445086993277073,0.0034788872580975294,0.003132410114631057
1686445542947108900,7.71010888671875,-0.0007068029372021556,0.003680222202092409,0.0018615495646372437
1686445542957125600,7.720125732421875,-0.0036823528353124857,0.004277036525309086,-0.00040746363811194897
1686445542967143000,7.730142822265625,-0.0011616708943620324,0.004029628820717335,-0.0044051348231732845
1686445542977159000,7.740158935546875,-0.007331416010856628,0.001365668955259025,-0.000218645524000749
1686445542987175700,7.75017578125,-0.005605421494692564,0.000916393706575036,-0.0030959248542785645
1686445542997192700,7.760192626953125,-0.00917618814855814,0.006352438125759363,-0.002929743379354477
1686445543007209700,7.770209716796875,-0.008158594369888306,0.00501073757186532,-0.0018471685471013188
1686445543017226800,7.780226806640625,-0.0060048955492675304,0.004942294210195541,-0.0005347627447918057
1686445543027242800,7.79024267578125,-0.011031611822545528,0.00657587731257081,-0.0005432848702184856
1686445543037259800,7.800259765625,-0.004889830015599728,0.0018796591321006417,0.002207760466262698
1686445543047276800,7.81027685546875,-0.006747385021299124,-0.0011323761427775025,0.004742290824651718
1686445543057293600,7.82029345703125,-0.007934356108307838,-0.008728777058422565,0.0012215919559821486
1686445543067310800,7.830310791015625,-0.005351089406758547,-0.009664611890912056,0.000015712650565546937
1686445543077326800,7.840326904296875,-0.0073428675532341,-0.0054448326118290424,-0.007756989449262619
1686445543087343600,7.850343505859375,-0.005075718741863966,-0.0004593952908180654,-0.007768707349896431
1686445543097360600,7.860360595703125,-0.0065100970678031445,0.0046940878964960575,-0.007279750891029835
1686445543107377700,7.870377685546875,-0.005086371209472418,0.006076268386095762,-0.00387356779538095
1686445543117394700,7.880394775390625,-0.001957423286512494,0.0033364081755280495,-0.00040986048406921327
1686445543127411700,7.89041162109375,-0.006883738562464714,0.006338589824736118,-0.0005523395957425237
1686445543137427700,7.900427734375,-0.004905542824417353,-0.0005217132274992764,-0.0009454221581108868
1686445543147444700,7.91044482421875,-0.006898385938256979,-0.0013377057621255517,-0.0015369103057309985
1686445543157461800,7.920461669921875,-0.004448277875781059,-0.0044259075075387955,-0.000589091214351356
1686445543167478800,7.930478759765625,-0.001757952617481351,-0.0030008498579263687,-0.0017305220244452357
1686445543177495800,7.940495849609375,-0.003242931328713894,-0.0023558323737233877,-0.0062552327290177345
1686445543187511800,7.95051171875,-0.003555053612217307,-0.0010253170039504766,-0.011511247605085373
1686445543197528800,7.96052880859375,-0.008071241900324821,-0.0002247707889182493,-0.013524597510695457
1686445543207545900,7.9705458984375,-0.005902896635234356,0.0008029430755414069,-0.01242311391979456
1686445543217562600,7.980562744140625,-0.007577758282423019,0.0027230822015553713,-0.00794554129242897
1686445543227580000,7.990579833984375,-0.006450442597270012,0.003826696192845702,-0.00253453035838902
1686445543237596000,8.000595947265625,-0.003762780223041773,0.008958341553807259,0.006913832388818264
1686445543247612700,8.01061279296875,-0.005100485868752003,0.01278503704816103,0.00580782163888216
1686445543257629700,8.020629638671876,-0.005844040773808956,0.009542105719447136,0.012289423495531082
1686445543267646700,8.030646728515626,-0.002832005498930812,0.0062214103527367115,0.01871776208281517
1686445543277663700,8.040663818359375,-0.002499110298231244,-0.0006570018595084548,0.013836986385285854
1686445543287679700,8.0506796875,-0.0014535533264279366,-0.00571833923459053,0.010993795469403267
1686445543297696800,8.06069677734375,-0.0015992282424122095,-0.005400890484452248,0.008972189389169216
1686445543307713800,8.0707138671875,-0.0034442662727087736,-0.0027393274940550327,-0.0011954930378124118
1686445543317730600,8.08073046875,-0.0023166837636381388,0.005660815164446831,-0.004559331573545933
1686445543327747800,8.090747802734375,-0.0062517705373466015,0.002432797569781542,-0.006351372692734003
1686445543337764900,8.100764892578125,-0.005539108533412218,0.0031886028591543436,-0.006877347361296415
1686445543347780600,8.110780517578124,-0.005794771946966648,0.005597698036581278,-0.008905078284442425
1686445543357797600,8.120797607421874,-0.005097024142742157,0.008057660423219204,-0.005418733693659306
1686445543367814700,8.130814697265626,-0.0062642875127494335,0.009997772984206676,-0.0011385013349354267
1686445543377831700,8.140831787109375,-0.0055151404812932014,0.007369499187916517,0.007834221236407757
1686445543387848700,8.1508486328125,-0.0017869811272248626,0.004322044085711241,0.008558867499232292
1686445543397864700,8.16086474609375,-0.0034104441292583942,-0.0012631373247131705,0.015752332285046577
1686445543407881700,8.1708818359375,-0.0023555660154670477,-0.003658917034044862,0.017838118597865105
1686445543417898800,8.180898681640626,-0.0026618295814841986,-0.0030900659039616585,0.015180284157395363
1686445543427915800,8.190915771484375,-0.004917260725051165,-0.00045327001134864986,0.009505088441073895
1686445543437932800,8.200932861328125,-0.006001433357596397,0.002808303339406848,-0.00023329291434492916
1686445543447948800,8.21094873046875,-0.01146623957902193,0.007769239600747824,-0.00791384931653738
1686445543457965600,8.220965576171874,-0.011758655309677124,0.00911520142108202,-0.01732279732823372
1686445543467982800,8.23098291015625,-0.014897989109158516,0.01775849051773548,-0.016574716195464134
1686445543477999600,8.24099951171875,-0.011186874471604824,0.027764519676566124,-0.014008226804435253
1686445543488016600,8.2510166015625,-0.007586014457046986,0.03521125018596649,-0.007940481416881084
1686445543498033000,8.261032958984375,-0.006843791343271732,0.036253079771995544,-0.0017901768442243338
1686445543508049700,8.271049560546874,-0.002674079965800047,0.026043584570288658,-0.00001304948909819359
1686445543518066700,8.281066650390626,0.0002924150903709233,0.012614594772458076,-0.0006538060260936618
1686445543528083700,8.291083740234376,-0.0021438447292894125,-0.002788063371554017,-0.0015430354978889227
1686445543538100700,8.301100830078125,-0.004408597014844418,-0.016077769920229912,-0.0029409287963062525
1686445543548117800,8.31111767578125,-0.008334096521139145,-0.022543923929333687,-0.00561207951977849
1686445543558133500,8.321133544921874,-0.00854342058300972,-0.020605675876140594,-0.002701510675251484
1686445543568150800,8.33115087890625,-0.013280385173857212,-0.01450117863714695,-0.005488774739205837
1686445543578167600,8.34116748046875,-0.011019094847142696,-0.009761816821992397,0.0023393207229673862
1686445543588184800,8.351184814453125,-0.010969826951622963,-0.004554271697998047,0.0005083974683657289
1686445543598201900,8.361201904296875,-0.009647301398217678,-0.00044767739018425345,0.0013709953054785728
1686445543608217600,8.371217529296874,-0.0073380740359425545,0.00333214714191854,0.004735899157822132
1686445543618234600,8.381234619140624,-0.0029830066487193108,0.007786816451698542,0.011375159956514835
1686445543628252000,8.391251953125,-0.0019835224375128746,0.003597398055717349,0.019697271287441254
1686445543638268700,8.4012685546875,0.0013321131700649858,0.002877012826502323,0.018086591735482216
1686445543648285700,8.41128564453125,0.00019867181254085153,0.00185063062235713,0.01164440531283617
1686445543658302000,8.421302001953125,0.00021997711155563593,-0.0015781891997903585,0.006216883193701506
1686445543668318700,8.431318603515624,-0.001187503570690751,-0.0041468082927167416,-0.0014527543680742383
1686445543678335700,8.441335693359376,-0.002423742786049843,-0.003861317178234458,0.0062214103527367115
1686445543688352800,8.451352783203125,-0.00387356779538095,-0.0036224317736923695,0.006580670829862356
1686445543698369800,8.461369873046875,-0.005786516238003969,-0.00017230652156285942,0.009556753560900688
1686445543708385800,8.4713857421875,-0.004427238833159208,0.002516687149181962,0.003763579297810793
1686445543718402600,8.481402587890624,-0.007909055799245834,0.004196343012154102,0.0008141283178701997
1686445543728419800,8.491419921875,-0.008053132332861423,0.007434480357915163,-0.00711862975731492
1686445543738435800,8.501435791015625,-0.004791293293237686,0.005886384751647711,-0.009305617772042751
1686445543748452600,8.51145263671875,-0.009415872395038605,0.005907690152525902,-0.011439075693488121
1686445543758470000,8.521469970703125,-0.00529542937874794,0.008507201448082924,-0.006475476082414389
1686445543768486000,8.53148583984375,-0.0027390611357986927,0.010695254430174828,0.003406449221074581
1686445543778502700,8.541502685546876,-0.0007091998122632504,0.011579157784581184,0.010975153185427189
1686445543788519700,8.551519775390625,-0.003078614128753543,0.014780543744564056,0.010117082856595516
1686445543798536700,8.56153662109375,-0.004926315508782864,0.015032478608191013,0.00765765318647027
1686445543808553700,8.5715537109375,-0.004043477587401867,0.015725966542959213,0.004653075244277716
1686445543818569700,8.58156982421875,-0.005720736458897591,0.006398244295269251,0.0011438276851549745
1686445543828586800,8.591586669921876,-0.005921006202697754,0.004807271994650364,-0.004032026045024395
1686445543838603800,8.601603759765625,-0.004229898564517498,0.006962568499147892,-0.0030099046416580677
1686445543848620500,8.61162060546875,-0.006487193983048201,0.012841230258345604,-0.005537777207791805
1686445543858637800,8.621637939453125,-0.005948436446487904,0.01612783782184124,-0.007440339308232069
1686445543868653800,8.63165380859375,-0.005248025059700012,0.015531289391219616,-0.00501073757186532
1686445543878670600,8.641670654296876,-0.007364972028881311,0.012006063014268875,-0.006958573590964079
1686445543888687600,8.6516875,-0.008196410723030567,0.009267001412808895,-0.0020538298413157463
1686445543898704600,8.66170458984375,-0.006711165886372328,0.008894691243767738,0.0001555285998620093
1686445543908721700,8.6717216796875,-0.0005904228310100734,0.003447728231549263,0.009553025476634502
1686445543918738700,8.68173876953125,-0.002689260058104992,0.002379800658673048,0.007553523872047663
1686445543928754700,8.691754638671876,-0.003877029987052083,-0.007274158298969269,0.008359928615391254
1686445543938771700,8.701771728515626,-0.004689560271799564,-0.008642756380140781,0.005417668726295233
1686445543948788700,8.711788818359375,-0.004259459674358368,-0.011174623854458332,0.004607002250850201
1686445543958805800,8.7218056640625,-0.004691690672188997,-0.0029702235478907824,-0.000051132694352418184
1686445543968822800,8.73182275390625,-0.004481567535549402,-0.0010101370280608535,0.00005752427750849165
1686445543978838800,8.7418388671875,-0.0044019389897584915,0.004250404890626669,-0.0034386736806482077
1686445543988855800,8.751855712890626,-0.00398781755939126,0.006237922236323357,0.0012713931500911713
1686445543998872800,8.761872802734375,-0.007370298262685537,0.005626194179058075,0.0003539340978022665
1686445544008889600,8.7718896484375,-0.0046418895944952965,0.011183146387338638,0.0018293253378942609
1686445544018907000,8.781906982421875,-0.006098638754338026,0.012571984902024269,0.002263953210785985
1686445544028923000,8.7919228515625,-0.006887200754135847,0.01531450729817152,0.002380333375185728
1686445544038939600,8.801939697265626,-0.005310875829309225,0.012725116685032845,0.006508765742182732
1686445544048956700,8.811956787109375,-0.002864762442186475,0.009896839037537575,0.010026801377534866
1686445544058973700,8.8219736328125,-0.0015867113834246993,0.0029758161399513483,0.008904811926186085
1686445544068990700,8.83199072265625,-0.0029856697656214237,-0.0016791230300441384,0.007097324356436729
1686445544079006700,8.8420068359375,-0.003198190126568079,-0.00631888210773468,-0.0009890979854390025
1686445544089023700,8.852023681640626,-0.003960653208196163,-0.00555109279230237,-0.0032799490727484226
1686445544099040800,8.862040771484375,-0.005832056514918804,-0.003932423423975706,-0.011061972007155418
1686445544109057800,8.872057861328125,-0.005586246494203806,0.0008460862445645034,-0.013639912009239197
1686445544119074800,8.88207470703125,-0.005348159931600094,0.0057135457172989845,-0.010313357226550579
1686445544129091800,8.892091796875,-0.0027198863681405783,0.013893178664147854,-0.0031848743092268705
1686445544139107600,8.902107666015626,-0.008436894044280052,0.015221563167870045,-0.0017212009988725185
1686445544149124600,8.91212451171875,-0.006311159115284681,0.01455870270729065,0.0010514160385355353
1686445544159142000,8.922141845703125,-0.005358812864869833,0.012496083974838257,0.0024799355305731297
1686445544169158700,8.93215869140625,-0.0061521683819592,0.009704292751848698,0.005883455276489258
1686445544179175700,8.94217578125,-0.004569984506815672,0.0039113848470151424,0.004817392211407423
1686445544189192000,8.95219189453125,-0.005519667640328407,0.00207726564258337,0.004957474302500486
1686445544199208700,8.962208740234376,-0.0016197345685213804,-0.000702009245287627,0.004939364735037088
1686445544209225700,8.972225830078125,-0.0038061898667365313,-0.0022011026740074158,0.0018333201296627522
1686445544219242800,8.98224267578125,-0.005793440621346235,0.0009885653853416443,-0.0032828785479068756
1686445544229259800,8.992259765625,-0.003981159534305334,0.004279433749616146,-0.005571066867560148
1686445544239275800,9.00227587890625,-0.004869323689490557,0.009801764041185379,-0.0026668894570320845
1686445544249292500,9.01229248046875,-0.0018106831703335047,0.010265421122312546,0.002478337613865733
1686445544259309800,9.022309814453125,-0.006474677007645369,0.015487613156437874,0.0034618431236594915
1686445544269326600,9.03232666015625,-0.008852880448102951,0.015789614990353584,0.006094910204410553
1686445544279343600,9.042343505859375,-0.006154831498861313,0.009692042134702206,0.006735134404152632
1686445544289360600,9.052360595703124,-0.005842975340783596,0.004241084214299917,0.003984089009463787
1686445544299376600,9.062376708984376,-0.006795055698603392,-0.007197725586593151,0.003320961957797408
1686445544309393700,9.0723935546875,-0.0062187472358345985,-0.0132124749943614,0.0010375675046816468
1686445544319410700,9.08241064453125,-0.0059782639145851135,-0.01299569383263588,-0.0037111148703843355
1686445544329427700,9.092427734375,-0.004530569538474083,-0.010004963725805283,-0.001989913871511817
1686445544339444700,9.10244482421875,-0.005012601613998413,-0.004747617058455944,-0.002242914168164134
1686445544349460700,9.112460693359376,-0.002980609890073538,0.0017177389236167073,0.002624545246362686
1686445544359477800,9.122477783203125,-0.004281031433492899,0.0018647453980520368,0.0027800737880170345
1686445544369494800,9.132494873046875,-0.004507932811975479,-0.004325772635638714,0.0025031049735844135
1686445544379511800,9.14251171875,-0.006367884576320648,-0.009468336589634418,-0.0005171858938410878
1686445544389528800,9.15252880859375,-0.004027764778584242,-0.012177304364740849,-0.0015193333383649588
1686445544399544800,9.162544921875,-0.006105563137680292,-0.011964251287281513,-0.0018303906545042992
1686445544409561600,9.1725615234375,-0.01116104144603014,-0.009356483817100525,-0.004071706905961037
1686445544419579000,9.182578857421875,-0.005941246170550585,-0.006866428069770336,-0.0032738239970058203
1686445544429595600,9.192595703125,-0.003948935307562351,-0.0028069717809557915,-0.0018884475575760007
1686445544439612700,9.20261279296875,-0.005727394018322229,-0.002186188939958811,0.001100950757972896
1686445544449629000,9.21262890625,-0.002775546396151185,0.0009382316493429244,0.002016811864450574
1686445544459645700,9.222645751953126,-0.006355367600917816,0.005002215504646301,0.006876548286527395
1686445544469662700,9.232662841796875,-0.004732703324407339,0.006483998149633408,0.0016961672808974981
1686445544479679700,9.2426796875,-0.0041302964091300964,0.008787899278104305,0.0013648699969053268
1686445544489696800,9.25269677734375,-0.0046695866622030735,0.011642009019851685,0.0029470541048794985
1686445544499713500,9.262713623046874,-0.005074919667094946,0.008502940647304058,-0.0015787219163030386
1686445544509729500,9.2727294921875,-0.007838482037186623,0.0070829433389008045,-0.0028815402183681726
1686445544519746800,9.282746826171875,-0.008471515029668808,0.0059931776486337185,-0.008711466565728188
1686445544529763600,9.292763671875,-0.007026484236121178,0.0021230720449239016,-0.011088870465755463
1686445544539780600,9.302780517578125,-0.008986837230622768,0.0009978864109143615,-0.006877613253891468
1686445544549798000,9.3127978515625,-0.008895223960280418,0.002275138394907117,-0.00962892547249794
1686445544559813600,9.322813720703126,-0.006896521896123886,0.008588162250816822,-0.00672235107049346
1686445544569830700,9.33283056640625,-0.0020125508308410645,0.016983777284622192,-0.003724164329469204
1686445544579848000,9.342847900390625,-0.000666589243337512,0.022997727617621422,0.0013840447645634413
1686445544589864700,9.35286474609375,-0.0019289276096969843,0.025252358987927437,0.0014090784825384617
1686445544599881700,9.3628818359375,0.0003933488915208727,0.022100508213043213,0.0005275722360238433
1686445544609898800,9.372898681640624,-0.0044394894503057,0.01667059026658535,0.0018093516118824482
1686445544619914800,9.382914794921875,-0.003859186777845025,0.00998925045132637,0.0022272015921771526
1686445544629931800,9.392931884765625,-0.006470682565122843,-0.0010016148444265127,-0.0013129384024068713
1686445544639948500,9.402948486328125,-0.011783156543970108,-0.002305764937773347,-0.004024568945169449
1686445544649965800,9.4129658203125,-0.010086722671985626,-0.004191016778349876,-0.006091448478400707
1686445544659982600,9.422982666015624,-0.015864983201026917,-0.0024293356109410524,-0.003133208956569433
1686445544669998600,9.43299853515625,-0.010843326337635517,0.0031135017052292824,0.003064765827730298
1686445544680016000,9.443015869140625,-0.008704275824129581,0.005409146659076214,0.0012751214671880007
1686445544690032600,9.45303271484375,-0.008609733544290066,0.013480921275913715,0.002811499172821641
1686445544700049700,9.463049560546875,-0.008113586343824863,0.022435534745454788,0.007383081596344709
1686445544710066700,9.473066650390624,0.002037584548816085,0.007160441018640995,0.00657614367082715
1686445544720082700,9.483082763671876,-0.0013145363191142678,-0.0004106594424229115,0.003172091208398342
1686445544730100200,9.493100341796875,-0.005886118393391371,-0.008464058861136436,-0.018334532156586647
1686445544740117000,9.503116943359375,-0.009681123308837414,-0.00839827861636877,-0.02009541355073452
1686445544750134000,9.513134033203125,-0.005598497111350298,-0.009154882282018661,-0.010661166161298752
1686445544760151000,9.523151123046874,-0.0029230855870991945,-0.014185593463480473,0.005028847139328718
1686445544770167000,9.5331669921875,-0.005786782596260309,-0.015961656346917152,0.0078571243211627
1686445544780184000,9.54318408203125,-0.005655222572386265,-0.017244501039385796,0.000313986703986302
1686445544790201000,9.553201171875,-0.004919923841953278,-0.017228521406650543,0.002002430846914649
1686445544800218000,9.563218017578125,-0.0036045885644853115,-0.014328072778880596,0.004837898537516594
1686445544810235100,9.573235107421874,-0.001820536912418902,-0.011628692969679832,0.00555215822532773
1686445544820252200,9.583252197265624,-0.00355851580388844,-0.007084008306264877,0.001901230658404529
1686445544830268200,9.59326806640625,-0.0038061898667365313,-0.014642858877778053,-0.0013944311067461967
1686445544840285200,9.60328515625,-0.005419000051915646,-0.014583736658096313,-0.010866762138903141
1686445544850302000,9.613302001953125,-0.005568936001509428,-0.009552492760121822,-0.007715976797044277
1686445544860319200,9.6233193359375,0.00013369068619795144,-0.001118527608923614,0.0007933556917123497
1686445544870336000,9.6333359375,-0.00392736354842782,0.002290851203724742,0.002606702037155628
1686445544880352000,9.64335205078125,-0.0038189729675650597,0.006853645201772451,0.006720753386616707
1686445544890369300,9.653369384765625,-0.009446765296161175,0.00894076470285654,0.010699516162276268
1686445544900386000,9.663385986328125,-0.005548429675400257,0.00945102609694004,0.012171711772680283
1686445544910403000,9.673403076171875,-0.006851514335721731,0.013089170679450035,0.010207097046077251
1686445544920420000,9.683420166015624,-0.00580755528062582,0.01642557792365551,0.010452641174197197
1686445544930436000,9.69343603515625,-0.0038772961124777794,0.012484099715948105,0.007436877116560936
1686445544940453000,9.703453125,-0.0065074339509010315,0.002930276095867157,0.002020540414378047
1686445544950470100,9.71347021484375,-0.004732437431812286,-0.006161223165690899,-0.004234426189213991
1686445544960487200,9.723487060546875,-0.006126069463789463,-0.013219931162893772,-0.005062669049948454
1686445544970504000,9.73350390625,-0.004429901950061321,-0.008282430469989777,-0.00281948852352798
1686445544980521200,9.743521240234376,-0.0037116475868970156,-0.005391569808125496,-0.0044381581246852875
1686445544990537200,9.753537109375,-0.003858121344819665,0.0029800771735608578,-0.002368349116295576
1686445545000554000,9.763553955078125,-0.0038312235847115517,0.008568720892071724,-0.003968376200646162
1686445545010571000,9.773571044921875,-0.00506852800026536,0.01329769566655159,-0.004073305055499077
1686445545020588000,9.783588134765624,-0.008385495282709599,0.01641705632209778,-0.004032824654132128
1686445545030605000,9.79360498046875,-0.005860019475221634,0.016594689339399338,-0.005529255140572786
1686445545040621000,9.80362109375,-0.005046690348535776,0.013434049673378468,-0.0031531827989965677
1686445545050638000,9.81363818359375,-0.004571582190692425,0.006066148169338703,0.002596848411485553
1686445545060655000,9.823655029296875,-0.0068062408827245235,0.006903179921209812,0.002629871480166912
1686445545070672100,9.833672119140624,-0.0065079666674137115,0.003307912265881896,0.0016791230300441384
1686445545080689200,9.843689208984374,-0.0046759783290326595,0.004985437728464603,-0.0015907060587778687
1686445545090705200,9.853705078125,-0.006804642733186483,0.006070675794035196,0.000025566347176209092
1686445545100722200,9.86372216796875,-0.005520466715097427,0.006174272391945124,-0.0025214808993041515
1686445545110739000,9.873739013671875,-0.00872238539159298,0.010923221707344055,0.004600876942276955
1686445545120756200,9.883756103515625,-0.008302670903503895,0.011745871976017952,0.006334328558295965
1686445545130773000,9.89377294921875,-0.00627094553783536,0.01299329660832882,0.0070826769806444645
1686445545140790000,9.9037900390625,-0.006894125137478113,0.006216084118932486,0.005285309627652168
1686445545150806300,9.91380615234375,-0.004876514431089163,-0.000026365294615970924,0.005498095881193876
1686445545160823000,9.923822998046875,-0.006612629164010286,-0.006184658966958523,0.002812031889334321
1686445545170840000,9.933840087890625,-0.005028314422816038,-0.0076121133752167225,-0.0033425334841012955
1686445545180857000,9.943857177734374,-0.004049336537718773,-0.005726329050958157,-0.0020445086993277073
1686445545190874000,9.9538740234375,-0.007434480357915163,-0.0024594292044639587,-0.004051733296364546
1686445545200890000,9.96389013671875,-0.006103964988142252,0.0016881778137758374,0.002283926820382476
1686445545210907000,9.973906982421875,-0.0009835053933784366,0.00863103847950697,0.006090116687119007
1686445545220924200,9.983924072265625,-0.0028418591246008873,0.008324774913489819,0.007241134997457266
1686445545230941200,9.993941162109374,-0.0008639294537715614,0.011474762111902237,0.014117683283984661
1686445545240958200,10.003958251953126,-0.0019302591681480408,0.008382565341889858,0.01426548883318901
1686445545250975200,10.013975341796876,-0.002299905987456441,0.0060296631418168545,0.015309447422623634
1686445545260991000,10.023990966796875,-0.0019441075855866075,-0.0029555761720985174,0.006991330534219742
1686445545271008000,10.034008056640625,-0.003613909473642707,-0.002287122653797269,0.0010479538468644023
1686445545281025300,10.044025390625,-0.0060086240991950035,-0.006856308318674564,-0.0027832696214318275
1686445545291042000,10.0540419921875,-0.006521548610180616,0.0002846919232979417,-0.0030208237003535032
1686445545301059000,10.06405908203125,-0.005090632475912571,0.008041148073971272,-0.00011185276525793597
1686445545311075300,10.074075439453125,-0.003865312086418271,0.011330152861773968,-0.0016857809387147427
1686445545321092000,10.084092041015625,-0.0027798074297606945,0.014941398985683918,-0.002673813607543707
1686445545331109000,10.094109130859374,-0.0031848743092268705,0.00848349928855896,-0.0010745854815468192
1686445545341126100,10.104126220703124,-0.00564110791310668,0.008905611000955105,0.002019474981352687
1686445545351143200,10.11414306640625,-0.004268248099833727,0.007363640237599611,0.0016215987270697951
1686445545361159200,10.1241591796875,-0.010100571438670158,0.007929296232759953,0.0027885958552360535
1686445545371176000,10.134176025390625,-0.004481301177293062,0.009609484113752842,-0.0010823087068274617
1686445545381193200,10.144193115234375,-0.007010505069047213,0.009862218052148819,0.0009547432418912649
1686445545391210000,10.1542099609375,-0.004233360756188631,0.00814900640398264,-0.0017454357584938407
1686445545401227000,10.16422705078125,-0.0064866612665355206,0.005652559455484152,0.002491120947524905
1686445545411244000,10.174244140625,-0.00631914846599102,0.0014737932942807674,-0.00028762139845639467
1686445545421260000,10.184260009765625,-0.007105313707143068,-0.002367816399782896,-0.002703641075640917
1686445545431277000,10.194277099609375,-0.007656588219106197,-0.0012237224727869034,-0.0049225869588553905
1686445545441294000,10.204294189453124,-0.005103415343910456,0.004637628793716431,-0.007879494689404964
1686445545451311000,10.21431103515625,-0.006479737348854542,0.006455502472817898,-0.0022367890924215317
1686445545461328100,10.224328125,-0.007463775109499693,0.01101323589682579,-0.004327903036028147
1686445545471343900,10.23434375,-0.003323891432955861,0.003826962551102042,-0.0025563682429492474
1686445545481361200,10.244361083984375,-0.004098604898899794,0.0043838294222950935,0.004799016285687685
1686445545491378200,10.254378173828124,-0.0043622576631605625,0.00003781688792514615,0.006076534744352102
1686445545501395000,10.26439501953125,-0.0019174759509041905,-0.004303934518247843,0.0062762717716395855
1686445545511412200,10.274412109375,-0.0020578245166689157,-0.007589210290461779,0.008578574284911156
1686445545521428200,10.28442822265625,-0.0014628743520006537,-0.009520800784230232,0.003979827743023634
1686445545531445000,10.294445068359375,-0.004291417542845011,-0.01119406521320343,0.00563977612182498
1686445545541462300,10.304462158203124,-0.004280498716980219,-0.015353390015661716,0.0010634001810103655
1686445545551479000,10.31447900390625,-0.005062935408204794,-0.009299758821725845,0.0023094932548701763
1686445545561496000,10.32449609375,-0.0062493737787008286,-0.005567871034145355,0.00683074165135622
1686445545571513000,10.33451318359375,-0.006045109126716852,-0.0003712446487043053,0.004304467234760523
1686445545581529000,10.344529052734375,-0.006907707080245018,0.006711698602885008,0.0041132522746920586
1686445545591546000,10.354546142578124,-0.004906075540930033,0.007686415687203407,0.003201652318239212
1686445545601563100,10.364563232421874,-0.004313255660235882,0.0013518205378204584,0.0035859462805092335
1686445545611580200,10.374580078125,-0.005423527676612139,-0.006432865746319294,-0.0018370485631749034
1686445545621597000,10.384596923828125,-0.006788397673517466,-0.003379018744453788,-0.005181978922337294
1686445545631613000,10.394613037109375,-0.00752023421227932,-0.009047024883329868,-0.00974264182150364
1686445545641630200,10.404630126953125,-0.00785339530557394,-0.007982824929058552,-0.007988417521119118
1686445545651647000,10.41464697265625,-0.006994526367634535,-0.006178000941872597,-0.007435013074427843
1686445545661664000,10.4246640625,-0.006347644608467817,-0.007210774812847376,-0.004520449787378311
1686445545671681300,10.434681396484375,-0.007060039788484573,-0.008341020904481411,-0.0018985675415024161
1686445545681698000,10.444697998046875,-0.009123723953962326,-0.009046225808560848,-0.0018216022290289402
1686445545691714000,10.454714111328125,-0.009919475764036179,-0.010686732828617096,-0.001070857048034668
1686445545701731300,10.4647314453125,-0.006719421595335007,-0.010308830067515373,0.0010881676571443677
1686445545711748000,10.474748046875,-0.007259777281433344,-0.004178766161203384,0.004550809506326914
1686445545721765000,10.48476513671875,-0.006936203222721815,-0.002406965009868145,0.005567071959376335
1686445545731782400,10.494782470703125,-0.005887183826416731,-0.0006415555253624916,0.002522812457755208
1686445545741798400,10.50479833984375,-0.007105313707143068,0.0022530341520905495,0.0009123989730142057
1686445545751815700,10.514815673828124,-0.0041457428596913815,0.0010303769959136844,0.0023073628544807434
1686445545761832400,10.52483251953125,-0.005884254351258278,-0.0012929646763950586,-0.002010686555877328
1686445545771849500,10.534849365234376,-0.0018125474452972412,-0.005093828309327364,-0.006595584563910961
1686445545781866500,10.544866455078125,-0.0014820491196587682,-0.012408466078341007,-0.006321545224636793
1686445545791882500,10.554882568359375,-0.001434112200513482,-0.014051636680960655,-0.004987035412341356
1686445545801899500,10.5648994140625,-0.0015672702575102448,-0.015411180444061756,-0.008943427354097366
1686445545811916500,10.57491650390625,-0.0033481260761618614,-0.01432434469461441,-0.006806507240980864
1686445545821933600,10.58493359375,-0.0015166702214628458,-0.016414126381278038,-0.003019758267328143
1686445545831950300,10.594950439453125,-0.007535947021096945,-0.015784556046128273,0.0028748824261128902
1686445545841967600,10.604967529296875,-0.0030298782512545586,-0.022552713751792908,0.008763131685554981
1686445545851983600,10.614983642578125,-0.002028263406828046,-0.021891716867685318,0.011827630922198296
1686445545862000400,10.62500048828125,-0.001136637176387012,-0.022597454488277435,0.011692075990140438
1686445545872017700,10.635017578125,-0.0010479538468644023,-0.019644275307655334,0.009456618689000607
1686445545882034400,10.645034423828125,-0.013105682097375393,-0.005770537536591291,0.0033039175905287266
1686445545892051500,10.655051513671875,-0.00890880636870861,0.011320831254124641,-0.005269863177090883
1686445545902067500,10.6650673828125,-0.007211840245872736,0.03136457875370979,-0.0017483652336522937
1686445545912084500,10.67508447265625,-0.002926813904196024,0.02966921217739582,0.005911685060709715
1686445545922101500,10.6851015625,-0.004375307355076075,0.01489559281617403,0.0076209018006920815
1686445545932118500,10.695118408203125,-0.005667473189532757,0.002590723102912307,0.0002884203568100929
1686445545942135600,10.705135498046875,-0.008236890658736229,-0.003442135639488697,0.003183542750775814
1686445545952152600,10.715152587890625,-0.00501073757186532,0.00013635384675581008,0.0034969968255609274
1686445545962168600,10.72516845703125,-0.007318899035453796,0.004172374494373798,0.005816077347844839
1686445545972185600,10.735185546875,-0.002773415995761752,0.012150405906140804,0.007172691635787487
1686445545982202600,10.74520263671875,-0.0032661007717251778,0.018565163016319275,0.011663580313324928
1686445545992219400,10.755219482421875,-0.0022855247370898724,0.017661817371845245,0.015597068704664707
1686445546002236700,10.765236572265625,-0.004838431254029274,0.011678227223455906,0.013746172189712524
1686445546012252700,10.775252685546874,-0.002784867538139224,0.006168413441628218,0.012313657440245152
1686445546022269400,10.78526953125,-0.006703709252178669,-0.0025952504947781563,0.005541505757719278
1686445546032286500,10.795286376953126,-0.007197991944849491,-0.0041121868416666985,-0.0019984361715614796
1686445546042303500,10.805303466796875,-0.008011587895452976,-0.008301605470478535,-0.010035590268671513
1686445546052320500,10.815320556640625,-0.008584433235228062,-0.005119927227497101,-0.008584965951740742
1686445546062337300,10.825337158203125,-0.0035598473623394966,0.0020058928057551384,-0.0037944719661027193
1686445546072353500,10.835353515625,-0.0035478631034493446,0.013055347837507725,-0.000755805114749819
1686445546082370600,10.84537060546875,-0.001127848750911653,0.015935823321342468,0.0029491845052689314
1686445546092387300,10.85538720703125,-0.00006285060226218775,0.015789614990353584,0.002499110298231244
1686445546102404600,10.865404541015625,-0.002541188383474946,0.012896623462438583,0.003943609073758125
1686445546112421600,10.875421630859375,-0.0014468954177573323,0.009275790303945541,0.0032868734560906887
1686445546122437400,10.885437255859374,-0.0014120079576969147,0.002981142606586218,0.006800381932407618
1686445546132454400,10.895454345703126,-0.001871403306722641,-0.003990747034549713,0.007937551476061344
1686445546142471400,10.905471435546875,-0.0031696942169219255,-0.004573978949338198,0.0046208505518734455
1686445546152488400,10.915488525390625,-0.003346261801198125,-0.003573163179680705,0.0025044367648661137
1686445546162505700,10.925505615234375,-0.006718888878822327,0.002466619713231921,-0.005600627511739731
1686445546172521500,10.935521484375,-0.008761000819504261,0.009549030102789402,-0.006617955397814512
1686445546182538500,10.94553857421875,-0.008404403924942017,0.013652695342898369,-0.0056829191744327545
1686445546192555500,10.955555419921875,-0.009918943047523499,0.01498374342918396,-0.00033955302205868065
1686445546202572500,10.965572509765625,-0.008188420906662941,0.017707623541355133,0.002302569104358554
1686445546212589600,10.975589599609375,-0.006183859892189503,0.017484184354543686,0.005112470127642155
1686445546222606300,10.9856064453125,-0.00515880947932601,0.016883641481399536,0.007467770017683506
1686445546232622600,10.99562255859375,-0.003433347214013338,0.014028733596205711,0.008528507314622402
1686445546242639600,11.0056396484375,-0.000984570593573153,0.00851252768188715,0.01398852001875639
1686445546252656400,11.015656494140625,-0.003412840887904167,0.0038432078436017036,0.014251373708248138
1686445546262673700,11.025673583984375,-0.0025987126864492893,0.003465571440756321,0.006384662352502346
1686445546272690400,11.0356904296875,-0.0031515848822891712,-0.001984587637707591,0.0033396040089428425
1686445546282706400,11.04570654296875,-0.005697034299373627,-0.007446730975061655,0.0015275891637429595
1686445546292723500,11.055723388671876,-0.006590791046619415,-0.009904029779136181,-0.007564442697912455
1686445546302740500,11.065740478515625,-0.008559399284422398,-0.003972903825342655,-0.011027883738279343
1686445546312757500,11.075757568359375,-0.004820055328309536,0.004759334959089756,-0.005937251262366772
1686445546322774500,11.0857744140625,-0.007839281111955643,0.011404188349843025,-0.002698581200093031
1686445546332791600,11.09579150390625,-0.005347361322492361,0.015905197709798813,0.0017222663154825568
1686445546342807600,11.1058076171875,-0.0035001926589757204,0.015591742470860481,0.005661081522703171
1686445546352824600,11.115824462890625,-0.002148105762898922,0.013071061111986637,0.009153550490736961
1686445546362841600,11.125841552734375,-0.0003933488915208727,0.00333267985843122,0.012416988611221313
1686445546372858600,11.135858642578125,0.000027164242055732757,0.0032890038564801216,0.012914733029901981
1686445546382875400,11.14587548828125,-0.0007339671719819307,0.001243696198798716,0.011475561186671257
1686445546392891400,11.155891357421876,0.00019201391842216253,-0.00475320965051651,0.011825500056147575
1686445546402908700,11.16590869140625,0.0012799152173101902,-0.003300189273431897,0.00809041690081358
1686445546412925400,11.175925537109375,-0.004002997186034918,-0.0020098877139389515,0.0029859361238777637
1686445546422942500,11.1859423828125,-0.005291168577969074,-0.00279099284671247,0.0005470133037306368
1686445546432959500,11.19595947265625,-0.004994226153939962,0.003483148291707039,0.0020455741323530674
1686445546442975500,11.2059755859375,-0.007309045642614365,0.004708468914031982,0.001680720946751535
1686445546452992500,11.215992431640625,-0.004545483272522688,0.008100536651909351,0.004524710588157177
1686445546463009500,11.226009521484375,-0.00609304616227746,0.013675864785909653,0.009092298336327076
1686445546473026600,11.236026611328125,-0.004345746245235205,0.016175242140889168,0.008057127706706524
1686445546483043300,11.246043212890624,-0.003919107839465141,0.016874320805072784,0.00890987180173397
1686445546493060600,11.256060546875,-0.006172408349812031,0.011938151903450489,0.008766327053308487
1686445546503076600,11.26607666015625,-0.0032493227627128363,0.002829608740285039,0.004540956113487482
1686445546513093400,11.27609326171875,-0.0041364217177033424,0.0004996090428903699,0.003323092358186841
1686445546523110700,11.286110595703125,-0.0052197957411408424,0.0016104135429486632,0.003940413240343332
1686445546533127400,11.29612744140625,-0.004564924165606499,0.0055122110061347485,0.005567604675889015
1686445546543144400,11.30614453125,-0.005571599118411541,0.00902918167412281,0.006434463430196047
1686445546553161700,11.31616162109375,-0.00398728484287858,0.00669225724413991,0.0029577065724879503
1686445546563177500,11.326177490234375,-0.0038394792936742306,0.007026750594377518,0.002822417998686433
1686445546573194500,11.336194580078125,-0.0021347899455577135,0.005854160524904728,0.009170861914753914
1686445546583211500,11.34621142578125,-0.005179315805435181,0.006475742440670729,0.009238772094249725
1686445546593228500,11.356228515625,-0.0027425233274698257,0.0029356025625020266,0.0070429956540465355
1686445546603245600,11.36624560546875,-0.002965163439512253,0.00743075180798769,-0.0003632551815826446
1686445546613261600,11.376261474609375,-0.005600627511739731,0.0029531794134527445,-0.0013941648649051785
1686445546623278600,11.386278564453125,-0.004879177547991276,0.0057044909335672855,-0.005623797420412302
1686445546633295600,11.396295654296875,-0.007757788058370352,0.002176867797970772,-0.007595335599035025
1686445546643312400,11.4063125,-0.007648598402738571,-0.0017608820926398039,-0.0012229235144332051
1686445546653329700,11.41632958984375,-0.005745503585785627,0.002575543010607362,-0.0013584784464910626
1686445546663345700,11.426345703125,-0.007412642706185579,0.005087969359010458,0.0008274441352114081
1686445546673362400,11.436362548828125,-0.004766792058944702,0.005720203742384911,0.0017057546647265553
1686445546683379500,11.44637939453125,-0.004908205941319466,0.003037601476535201,0.0057737333700060844
1686445546693396500,11.456396484375,-0.002394714392721653,0.006737531162798405,0.01212990004569292
1686445546703413500,11.46641357421875,-0.0030250847339630127,0.00923531036823988,0.009474728256464005
1686445546713430500,11.476430419921876,-0.004131894558668137,0.0049646650440990925,0.008651012554764748
1686445546723446500,11.486446533203125,-0.0021883193403482437,0.0033281524665653706,0.009699499234557152
1686445546733463000,11.496463134765625,-0.003483414649963379,-0.006315952632576227,0.007741542998701334
1686445546743480000,11.50647998046875,-0.005579322576522827,-0.004064250271767378,0.008246478624641895
1686445546753497000,11.5164970703125,-0.006120743229985237,-0.007244330830872059,0.006066947244107723
1686445546763514000,11.52651416015625,-0.005783320404589176,-0.005347893573343754,0.0008620652370154858
1686445546773530000,11.536530029296875,-0.006683468818664551,0.0002564624010119587,-0.0029739518649876118
1686445546783547000,11.546546875,-0.007668306119740009,0.005411543417721987,-0.00629065278917551
1686445546793564200,11.556564208984375,-0.005335909314453602,0.006009955424815416,-0.004457066301256418
1686445546803581000,11.566580810546874,-0.006487193983048201,0.00896979309618473,-0.004780374001711607
1686445546813598000,11.576597900390626,-0.00563977612182498,0.008489358238875866,-0.001344363670796156
1686445546823615000,11.586614990234375,-0.0025249430909752846,0.005672799423336983,-0.0026019082870334387
1686445546833631000,11.596630859375,-0.0036847495939582586,0.006905043963342905,0.0009616674506105483
1686445546843648000,11.60664794921875,-0.003914047963917255,0.003175020683556795,0.0013880395563319325
1686445546853665000,11.6166650390625,-0.0031246868893504143,0.003376089269295335,0.003364637726917863
1686445546863682000,11.62668212890625,-0.004376638680696487,-0.003691940102726221,0.004975850228220224
1686445546873699000,11.636698974609375,-0.0046911584213376045,-0.008225705474615097,0.00407623453065753
1686445546883714800,11.64671484375,-0.0062669506296515465,-0.012194614857435226,0.004483964294195175
1686445546893732000,11.656732177734375,-0.007254716940224171,-0.007420898415148258,-0.004002731293439865
1686445546903748900,11.666748779296874,-0.012107795104384422,-0.005941778887063265,-0.007905061356723309
1686445546913766000,11.676765869140626,-0.014008226804435253,0.004698348697274923,-0.007225422188639641
1686445546923783200,11.686783203125,-0.011004980653524399,0.009208145551383495,-0.006077599711716175
1686445546933800000,11.696800048828125,-0.008777245879173279,0.01176078524440527,-0.0009012137306854129
1686445546943816000,11.70681591796875,-0.007672034204006195,0.01372486725449562,0.007580687757581472
1686445546953833200,11.716833251953124,-0.003410177771002054,0.008874984458088875,0.00959536898881197
1686445546963850000,11.72685009765625,-0.0033862092532217503,0.003388339886441827,0.010311760008335114
1686445546973867000,11.736866943359376,-0.000547279603779316,-0.006049903109669685,0.005959355738013983
1686445546983884000,11.746884033203125,-0.0023726101499050856,-0.0079146483913064,0.0011270497925579548
1686445546993900000,11.756900146484375,-0.004029096569865942,-0.010281399823725224,0.00006418218254111707
1686445547003917000,11.7669169921875,-0.003920705523341894,-0.007650729268789291,-0.00564004248008132
1686445547013933800,11.776933837890626,-0.006415554787963629,-0.006868292577564716,-0.006570817437022924
1686445547023951000,11.786951171875,-0.005456284619867802,-0.006275472696870565,-0.00959670078009367
1686445547033967900,11.7969677734375,-0.00800199992954731,0.0033899378031492233,-0.010338391177356243
1686445547043985200,11.806985107421875,-0.006318083498626947,0.00839428324252367,0.00014141385327093303
1686445547054001200,11.817001220703125,-0.0019020296167582273,0.00860600546002388,0.006101568229496479
1686445547064018000,11.827017822265624,-0.0031337416730821133,0.005842708982527256,0.005919408053159714
1686445547074035000,11.837034912109376,-0.0011595403775572777,0.0006641923682764173,0.010950119234621525
