time,seconds_elapsed,z,y,x
1686343767116000800,0.187000732421875,-0.1968231201171875,-0.9799652099609375,-0.0006561279296875
1686343767126020900,0.197020751953125,-0.1989898681640625,-0.9829864501953125,0.0012054443359375
1686343767136041000,0.207041015625,-0.2056427001953125,-0.9825897216796875,0.0002899169921875
1686343767146061000,0.21706103515625,-0.2147064208984375,-0.982177734375,0.000152587890625
1686343767156081000,0.227080810546875,-0.229766845703125,-0.9831390380859375,0.0012054443359375
1686343767166101000,0.23710107421875,-0.247802734375,-0.9837188720703125,-0.0012969970703125
1686343767176121900,0.247121826171875,-0.254852294921875,-0.9852294921875,-0.0081787109375
1686343767186142000,0.257141845703125,-0.250091552734375,-0.9865875244140625,-0.010528564453125
1686343767196162000,0.267162109375,-0.2447662353515625,-0.9919891357421875,-0.0014801025390625
1686343767206182000,0.277181884765625,-0.252044677734375,-1.0001678466796875,0.0192108154296875
1686343767216201700,0.28720166015625,-0.2534027099609375,-1.0043792724609375,0.01434326171875
1686343767226221800,0.297221923828125,-0.258331298828125,-0.9962005615234375,-0.0027313232421875
1686343767236242000,0.307241943359375,-0.280731201171875,-0.9875640869140625,0.0073394775390625
1686343767246261800,0.31726171875,-0.289886474609375,-0.9850616455078125,0.0006561279296875
1686343767256281900,0.32728173828125,-0.2578125,-0.97894287109375,-0.0269012451171875
1686343767266302000,0.337302001953125,-0.2277679443359375,-0.9770355224609375,-0.0250091552734375
1686343767276321800,0.34732177734375,-0.202728271484375,-0.97735595703125,-0.0039825439453125
1686343767286342000,0.357341796875,-0.1670379638671875,-0.979156494140625,0.0026092529296875
1686343767296362000,0.367362060546875,-0.1278839111328125,-0.9837493896484375,0.0012664794921875
1686343767306381800,0.3773818359375,-0.1012115478515625,-0.9883880615234375,0.00201416015625
1686343767316402000,0.38740185546875,-0.09637451171875,-0.9880828857421875,0.0089111328125
1686343767326423000,0.397423095703125,-0.0990447998046875,-0.9792327880859375,0.0162353515625
1686343767336443000,0.40744287109375,-0.0942230224609375,-0.97271728515625,0.03057861328125
1686343767346463000,0.417462890625,-0.0802764892578125,-0.9828643798828125,0.0396270751953125
1686343767356483000,0.427483154296875,-0.0746002197265625,-0.9757080078125,0.03076171875
1686343767366502700,0.437502685546875,-0.0551300048828125,-0.969390869140625,0.0471954345703125
1686343767376522800,0.447522705078125,-0.0535430908203125,-0.9810333251953125,0.0531768798828125
1686343767386542800,0.45754296875,-0.1056671142578125,-0.9645233154296875,0.052886962890625
1686343767396562700,0.467562744140625,-0.1309967041015625,-0.98724365234375,0.0513153076171875
1686343767406582800,0.477582763671875,-0.16253662109375,-0.983001708984375,-0.003204345703125
1686343767416603000,0.487602783203125,-0.19476318359375,-0.98284912109375,-0.02325439453125
1686343767426623000,0.497623046875,-0.1806640625,-0.98193359375,0.0097503662109375
1686343767436642800,0.507642822265625,-0.1681060791015625,-0.960235595703125,0.0192108154296875
1686343767446664000,0.517663818359375,-0.1672821044921875,-0.9522857666015625,0.0040435791015625
1686343767456683800,0.527683837890625,-0.1507415771484375,-0.99017333984375,0.0066070556640625
1686343767466704000,0.537703857421875,-0.1436767578125,-1.03302001953125,0.0529632568359375
1686343767476724000,0.547723876953125,-0.1395721435546875,-1.0330810546875,0.0549774169921875
1686343767486743800,0.557743896484375,-0.14312744140625,-1.0176544189453125,0.0108489990234375
1686343767496764000,0.567763916015625,-0.17791748046875,-1.0131378173828125,-0.0370635986328125
1686343767506784000,0.577783935546875,-0.225738525390625,-0.9985198974609375,-0.0577392578125
1686343767516804000,0.58780419921875,-0.2399749755859375,-0.99188232421875,-0.056915283203125
1686343767526823700,0.59782373046875,-0.2161102294921875,-1.0025482177734375,-0.04266357421875
1686343767536843800,0.60784375,-0.1963043212890625,-0.9910888671875,-0.0360107421875
1686343767546863900,0.61786376953125,-0.19036865234375,-0.9711151123046875,-0.010528564453125
1686343767556883700,0.6278837890625,-0.184967041015625,-0.958709716796875,0.017181396484375
1686343767566903800,0.63790380859375,-0.1806793212890625,-0.9569244384765625,0.0289306640625
1686343767576925000,0.647925048828125,-0.1915435791015625,-0.95556640625,0.031280517578125
1686343767586944800,0.65794482421875,-0.21063232421875,-0.95654296875,0.0322265625
1686343767596964900,0.66796484375,-0.22357177734375,-0.9632110595703125,0.0254364013671875
1686343767606985000,0.67798486328125,-0.2214508056640625,-0.974334716796875,0.017578125
1686343767617004800,0.6880048828125,-0.2089080810546875,-0.9842529296875,0.01129150390625
1686343767627025000,0.69802490234375,-0.1932220458984375,-0.9901580810546875,0.005828857421875
1686343767637045000,0.708044921875,-0.188201904296875,-0.994873046875,0.00543212890625
1686343767647064800,0.71806494140625,-0.1937408447265625,-0.995147705078125,0.000732421875
1686343767657085000,0.7280849609375,-0.1994171142578125,-0.9875030517578125,-0.00830078125
1686343767667105000,0.73810498046875,-0.20697021484375,-0.9816741943359375,-0.0129852294921875
1686343767677124900,0.748124755859375,-0.21649169921875,-0.9781951904296875,-0.013671875
1686343767687144700,0.758144775390625,-0.2218780517578125,-0.9766998291015625,-0.0156097412109375
1686343767697166000,0.768166015625,-0.2228851318359375,-0.9764556884765625,-0.01434326171875
1686343767707186000,0.77818603515625,-0.2251739501953125,-0.977813720703125,-0.01239013671875
1686343767717205800,0.788205810546875,-0.22491455078125,-0.9805450439453125,-0.012176513671875
1686343767727225900,0.798225830078125,-0.2224884033203125,-0.9778594970703125,-0.00360107421875
1686343767737245700,0.80824560546875,-0.21881103515625,-0.9766387939453125,0.0076751708984375
1686343767747265800,0.818265869140625,-0.22064208984375,-0.982177734375,0.00921630859375
1686343767757285600,0.82828564453125,-0.2236785888671875,-0.9849395751953125,0.0014801025390625
1686343767767305700,0.8383056640625,-0.2229156494140625,-0.9806671142578125,-0.0046234130859375
1686343767777325300,0.8483251953125,-0.2150115966796875,-0.9816741943359375,-0.0027618408203125
1686343767787345400,0.858345458984375,-0.202728271484375,-0.9823150634765625,0.000091552734375
1686343767797365500,0.868365478515625,-0.192901611328125,-0.980987548828125,0.002593994140625
1686343767807385300,0.87838525390625,-0.18634033203125,-0.9793701171875,0.0064544677734375
1686343767817406500,0.888406494140625,-0.1884613037109375,-0.9804534912109375,0.0106353759765625
1686343767827426600,0.898426513671875,-0.191986083984375,-0.9857635498046875,0.007904052734375
1686343767837446400,0.9084462890625,-0.1896514892578125,-0.9855804443359375,0.003936767578125
1686343767847466500,0.918466552734375,-0.1881866455078125,-0.982696533203125,0.0035552978515625
1686343767857486600,0.928486572265625,-0.186737060546875,-0.9813995361328125,0.0066375732421875
1686343767867506400,0.93850634765625,-0.1863861083984375,-0.9799041748046875,0.0121917724609375
1686343767877526500,0.948526611328125,-0.1882171630859375,-0.981353759765625,0.0137939453125
1686343767887546600,0.958546630859375,-0.1854705810546875,-0.984832763671875,0.0107421875
1686343767897566500,0.96856640625,-0.181549072265625,-0.98779296875,0.0073394775390625
1686343767907586600,0.978586669921875,-0.18048095703125,-0.98724365234375,0.0089569091796875
1686343767917607400,0.988607421875,-0.1793975830078125,-0.98553466796875,0.0102996826171875
1686343767927627500,0.99862744140625,-0.177337646484375,-0.986175537109375,0.0067291259765625
1686343767937647600,1.008647705078125,-0.1719207763671875,-0.98583984375,0.002166748046875
1686343767947667700,1.018667724609375,-0.16510009765625,-0.9856109619140625,-0.001617431640625
1686343767957687300,1.028687255859375,-0.15850830078125,-0.98162841796875,-0.00054931640625
1686343767967707400,1.038707275390625,-0.1534271240234375,-0.982452392578125,0.0023040771484375
1686343767977727500,1.0487275390625,-0.1504974365234375,-0.980926513671875,0.0028533935546875
1686343767987747300,1.058747314453125,-0.1477813720703125,-0.9807281494140625,0.0035247802734375
1686343767997767400,1.068767333984375,-0.14434814453125,-0.985565185546875,0.002838134765625
1686343768007787500,1.07878759765625,-0.1461944580078125,-0.98828125,-0.0001068115234375
1686343768017807400,1.088807373046875,-0.153533935546875,-0.988861083984375,-0.00372314453125
1686343768027828500,1.098828369140625,-0.160430908203125,-0.98944091796875,-0.008026123046875
1686343768037848600,1.1088486328125,-0.155517578125,-0.9873046875,-0.0109405517578125
1686343768047868400,1.118868408203125,-0.14593505859375,-0.9838409423828125,-0.009246826171875
1686343768057888500,1.128888427734375,-0.1424560546875,-0.982330322265625,-0.004150390625
1686343768067908600,1.13890869140625,-0.1429901123046875,-0.9806671142578125,-0.0024871826171875
1686343768077928400,1.148928466796875,-0.1449737548828125,-0.9823760986328125,0.000732421875
1686343768087948500,1.158948486328125,-0.1558837890625,-0.985595703125,0.00335693359375
1686343768097968600,1.16896875,-0.1691741943359375,-0.98907470703125,-0.0004119873046875
1686343768107988500,1.178988525390625,-0.1778564453125,-0.9899749755859375,-0.0151824951171875
1686343768118008600,1.189008544921875,-0.1866455078125,-0.9907989501953125,-0.023712158203125
1686343768128029700,1.19902978515625,-0.1896514892578125,-0.995819091796875,-0.0072021484375
1686343768138049500,1.209049560546875,-0.190032958984375,-0.9943695068359375,-0.0066680908203125
1686343768148069400,1.2190693359375,-0.18841552734375,-0.9900970458984375,-0.0066375732421875
1686343768158089500,1.22908935546875,-0.18536376953125,-0.989959716796875,-0.0037994384765625
1686343768168109300,1.239109375,-0.1839599609375,-0.9930877685546875,-0.00152587890625
1686343768178129400,1.24912939453125,-0.1812744140625,-0.992218017578125,-0.0014495849609375
1686343768188149500,1.2591494140625,-0.1820526123046875,-0.994598388671875,-0.0018463134765625
1686343768198169300,1.26916943359375,-0.1828460693359375,-0.9943389892578125,-0.0031890869140625
1686343768208189400,1.279189453125,-0.185272216796875,-0.994171142578125,-0.0070037841796875
1686343768218209500,1.28920947265625,-0.18682861328125,-0.9930267333984375,-0.0094451904296875
1686343768228229600,1.299229736328125,-0.187286376953125,-0.9894866943359375,-0.0052947998046875
1686343768238250500,1.30925048828125,-0.1842041015625,-0.9856414794921875,-0.003692626953125
1686343768248270600,1.3192705078125,-0.183380126953125,-0.98529052734375,-0.0074920654296875
1686343768258290400,1.32929052734375,-0.177093505859375,-0.9861907958984375,-0.0112762451171875
1686343768268310500,1.339310546875,-0.1693878173828125,-0.98663330078125,-0.01300048828125
1686343768278330600,1.34933056640625,-0.16680908203125,-0.9870147705078125,-0.0142364501953125
1686343768288350500,1.3593505859375,-0.1654510498046875,-0.985015869140625,-0.0140838623046875
1686343768298370600,1.36937060546875,-0.16326904296875,-0.984619140625,-0.0065460205078125
1686343768308390400,1.379390380859375,-0.1647796630859375,-0.986724853515625,0.0032196044921875
1686343768318410500,1.389410400390625,-0.1712493896484375,-0.9868011474609375,0.00042724609375
1686343768328430300,1.399430419921875,-0.1748046875,-0.9868011474609375,-0.004486083984375
1686343768338451500,1.409451416015625,-0.1737823486328125,-0.98712158203125,-0.0068511962890625
1686343768348471300,1.41947119140625,-0.1741943359375,-0.98828125,-0.010162353515625
1686343768358491400,1.429491455078125,-0.171173095703125,-0.9857940673828125,-0.0146484375
1686343768368511500,1.439511474609375,-0.1607513427734375,-0.983642578125,-0.0111541748046875
1686343768378531300,1.44953125,-0.16033935546875,-0.98687744140625,0.0085296630859375
1686343768388551400,1.459551513671875,-0.16448974609375,-0.986297607421875,0.00311279296875
1686343768398571500,1.469571533203125,-0.1573638916015625,-0.979339599609375,-0.013641357421875
1686343768408591600,1.479591552734375,-0.151031494140625,-0.9807891845703125,-0.012420654296875
1686343768418611500,1.489611572265625,-0.15313720703125,-0.9850921630859375,-0.0160064697265625
1686343768428632600,1.499632568359375,-0.1645050048828125,-0.9808502197265625,-0.00103759765625
1686343768438652400,1.50965234375,-0.16021728515625,-0.983489990234375,0.005889892578125
1686343768448672500,1.519672607421875,-0.1569976806640625,-0.9918670654296875,-0.008453369140625
1686343768458692600,1.529692626953125,-0.159637451171875,-0.992950439453125,-0.015350341796875
1686343768468712400,1.53971240234375,-0.166961669921875,-0.9860687255859375,-0.020965576171875
1686343768478732500,1.549732666015625,-0.1778106689453125,-0.9786376953125,-0.01702880859375
1686343768488752600,1.559752685546875,-0.18548583984375,-0.9749755859375,-0.00982666015625
1686343768498772500,1.5697724609375,-0.19207763671875,-0.9839019775390625,-0.0184326171875
1686343768508792300,1.579792236328125,-0.20794677734375,-0.98052978515625,-0.0162353515625
1686343768518812400,1.5898125,-0.1990814208984375,-0.9650421142578125,-0.016448974609375
1686343768528833300,1.599833251953125,-0.213714599609375,-0.9825286865234375,-0.002349853515625
1686343768538853400,1.609853271484375,-0.219024658203125,-0.9898681640625,0.0142364501953125
1686343768548873500,1.61987353515625,-0.213836669921875,-0.9823455810546875,-0.0070953369140625
1686343768558893600,1.6298935546875,-0.2062225341796875,-0.989349365234375,-0.0169219970703125
1686343768568913400,1.639913330078125,-0.2037811279296875,-0.99322509765625,-0.0248260498046875
1686343768578933500,1.64993359375,-0.2302398681640625,-1.00555419921875,-0.024993896484375
1686343768588953600,1.65995361328125,-0.2136077880859375,-0.9573211669921875,-0.0353851318359375
1686343768598973400,1.669973388671875,-0.218231201171875,-0.9568023681640625,-0.0272064208984375
1686343768608993500,1.67999365234375,-0.2230224609375,-0.9761962890625,0.0244140625
1686343768619014400,1.690014404296875,-0.2274627685546875,-0.9833526611328125,0.0196990966796875
1686343768629034500,1.700034423828125,-0.2184600830078125,-0.97393798828125,-0.003509521484375
1686343768639054600,1.7100546875,-0.202606201171875,-0.93505859375,-0.0198822021484375
1686343768649074400,1.720074462890625,-0.1952362060546875,-0.97540283203125,0.00201416015625
1686343768659094500,1.730094482421875,-0.20135498046875,-1.0066070556640625,0.009185791015625
1686343768669114600,1.740114501953125,-0.194427490234375,-1.0141448974609375,-0.0039215087890625
1686343768679134700,1.750134765625,-0.1964874267578125,-1.0023193359375,0.0049591064453125
1686343768689154300,1.760154296875,-0.21063232421875,-0.98895263671875,0.0182647705078125
1686343768699174400,1.77017431640625,-0.2112884521484375,-0.9522247314453125,0.02960205078125
1686343768709195500,1.780195556640625,-0.22491455078125,-0.9323577880859375,0.073638916015625
1686343768719215400,1.79021533203125,-0.234100341796875,-0.9492340087890625,0.101776123046875
1686343768729235500,1.8002353515625,-0.225067138671875,-0.957427978515625,0.1019134521484375
1686343768739255600,1.810255615234375,-0.20758056640625,-0.9555206298828125,0.090484619140625
1686343768749275400,1.820275390625,-0.1882781982421875,-0.971771240234375,0.0670166015625
1686343768759296000,1.8302958984375,-0.201904296875,-0.9703369140625,0.015960693359375
1686343768769315800,1.84031591796875,-0.228515625,-0.9344635009765625,0.0232696533203125
1686343768779335700,1.850335693359375,-0.1990203857421875,-0.9539031982421875,0.051849365234375
1686343768789355800,1.860355712890625,-0.14666748046875,-0.9253082275390625,-0.0154266357421875
1686343768799376600,1.870376708984375,-0.0561065673828125,-0.859100341796875,-0.0308685302734375
1686343768809396700,1.880396728515625,-0.1073150634765625,-0.969573974609375,-0.004791259765625
1686343768819416800,1.890416748046875,-0.2703704833984375,-1.040985107421875,-0.061004638671875
1686343768829436700,1.900436767578125,-0.5239715576171875,-1.0976409912109375,-0.05877685546875
1686343768839456800,1.910456787109375,-0.686279296875,-1.08392333984375,-0.055328369140625
1686343768849476900,1.920476806640625,-0.65045166015625,-1.0235595703125,-0.01263427734375
1686343768859496700,1.93049658203125,-0.4693450927734375,-0.97308349609375,0.0697479248046875
1686343768869516800,1.940516845703125,-0.322998046875,-0.9729766845703125,0.1354217529296875
1686343768879537000,1.950536865234375,-0.2568206787109375,-1.0048980712890625,0.1530609130859375
1686343768889557000,1.960556884765625,-0.236328125,-1.0272979736328125,0.1317901611328125
1686343768899577900,1.970577880859375,-0.2100677490234375,-1.01666259765625,0.116180419921875
1686343768909598000,1.980597900390625,-0.1738128662109375,-1.0216827392578125,0.1244964599609375
1686343768919617800,1.99061767578125,-0.1481781005859375,-1.076629638671875,0.1280517578125
1686343768929638000,2.000637939453125,-0.14581298828125,-1.0891876220703125,0.0973663330078125
1686343768939658000,2.010657958984375,-0.1435394287109375,-1.0793914794921875,0.2292633056640625
1686343768949677800,2.020677734375,-0.149993896484375,-0.9469146728515625,0.093658447265625
1686343768959697700,2.03069775390625,-0.2867889404296875,-0.9096221923828125,0.0126190185546875
1686343768969717800,2.0407177734375,-0.4046173095703125,-1.0051422119140625,0.0316925048828125
1686343768979737900,2.05073779296875,-0.3977813720703125,-1.0255126953125,0.06756591796875
1686343768989758700,2.0607587890625,-0.335845947265625,-0.99591064453125,0.143646240234375
1686343768999778800,2.07077880859375,-0.2516937255859375,-1.0229949951171875,0.300048828125
1686343769009798700,2.080798583984375,-0.2450103759765625,-0.9596099853515625,0.201812744140625
1686343769019818800,2.09081884765625,-0.2987823486328125,-0.8989715576171875,0.09906005859375
1686343769029838800,2.1008388671875,-0.3108978271484375,-0.959808349609375,0.113189697265625
1686343769039859000,2.11085888671875,-0.276611328125,-0.99267578125,0.1553802490234375
1686343769049878800,2.120878662109375,-0.21075439453125,-0.9991607666015625,0.204193115234375
1686343769059899000,2.13089892578125,-0.146026611328125,-0.9847259521484375,0.211669921875
1686343769069919000,2.1409189453125,-0.110382080078125,-0.9616546630859375,0.1598663330078125
1686343769079939800,2.15093994140625,-0.0505523681640625,-1.0015411376953125,-0.050750732421875
1686343769089960000,2.1609599609375,-0.0698394775390625,-1.1707000732421875,-0.45758056640625
1686343769099979800,2.170979736328125,-0.2070465087890625,-1.2273406982421875,-0.6305389404296875
1686343769109999900,2.180999755859375,-0.2437286376953125,-1.1598052978515625,-0.41204833984375
1686343769120020000,2.19102001953125,-0.2026214599609375,-1.0065155029296875,-0.0566864013671875
1686343769130039800,2.201039794921875,-0.1629486083984375,-0.9491729736328125,0.0671539306640625
1686343769140059600,2.2110595703125,-0.170135498046875,-0.95318603515625,0.025787353515625
1686343769150079700,2.221079833984375,-0.185150146484375,-0.9554595947265625,-0.102630615234375
1686343769160099800,2.231099853515625,-0.16876220703125,-0.901275634765625,-0.1910552978515625
1686343769170120700,2.24112060546875,-0.1102142333984375,-0.8749542236328125,-0.2796783447265625
1686343769180140800,2.251140869140625,-0.0898284912109375,-0.86865234375,-0.337860107421875
1686343769190160600,2.26116064453125,-0.194976806640625,-0.8542022705078125,-0.3471832275390625
1686343769200180700,2.2711806640625,-0.39605712890625,-0.8289337158203125,-0.312835693359375
1686343769210200800,2.281200927734375,-0.5379638671875,-0.84344482421875,-0.2063751220703125
1686343769220221000,2.291220947265625,-0.5023651123046875,-0.8947601318359375,-0.0818939208984375
1686343769230240800,2.30124072265625,-0.2831268310546875,-0.9572906494140625,0.0202484130859375
1686343769240260900,2.3112607421875,0.078826904296875,-1.0424652099609375,0.0614471435546875
1686343769250281000,2.321281005859375,0.3110504150390625,-1.0682220458984375,-0.029632568359375
1686343769260300800,2.33130078125,0.221405029296875,-0.9494781494140625,-0.178466796875
1686343769270322000,2.341322021484375,0.086700439453125,-0.9160919189453125,-0.3300018310546875
1686343769280341800,2.351341796875,-0.015411376953125,-0.931060791015625,-0.439697265625
1686343769290361900,2.36136181640625,-0.094573974609375,-0.892333984375,-0.474945068359375
1686343769300382000,2.3713818359375,-0.13360595703125,-0.8616485595703125,-0.4213104248046875
1686343769310401800,2.38140185546875,-0.1729583740234375,-0.89569091796875,-0.379547119140625
1686343769320422000,2.391421875,-0.2663726806640625,-0.9376678466796875,-0.3657684326171875
1686343769330441700,2.401441650390625,-0.383941650390625,-0.91046142578125,-0.363922119140625
1686343769340461800,2.4114619140625,-0.423065185546875,-0.8911895751953125,-0.304229736328125
1686343769350481700,2.421481689453125,-0.40277099609375,-0.883697509765625,-0.249114990234375
1686343769360501800,2.431501708984375,-0.4127960205078125,-0.8389434814453125,-0.1497344970703125
1686343769370522600,2.441522705078125,-0.320953369140625,-0.86285400390625,-0.3008270263671875
1686343769380542700,2.451542724609375,-0.2191925048828125,-0.8933868408203125,-0.36181640625
1686343769390562800,2.461562744140625,-0.155364990234375,-0.9362640380859375,-0.3800811767578125
1686343769400583000,2.4715830078125,-0.1963043212890625,-0.9683837890625,-0.3225555419921875
1686343769410602800,2.481602783203125,-0.25531005859375,-0.9842681884765625,-0.2447357177734375
1686343769420622800,2.491622802734375,-0.260162353515625,-0.9822235107421875,-0.1891326904296875
1686343769430643000,2.501642822265625,-0.248931884765625,-0.9795379638671875,-0.11444091796875
1686343769440662800,2.511662841796875,-0.1878509521484375,-0.98638916015625,-0.09600830078125
1686343769450683000,2.521682861328125,-0.094879150390625,-1.0258331298828125,-0.1745452880859375
1686343769460703000,2.531702880859375,-0.064208984375,-1.0419158935546875,-0.2043914794921875
1686343769470722800,2.541722900390625,-0.0653839111328125,-1.0373077392578125,-0.23870849609375
1686343769480744000,2.551743896484375,-0.05853271484375,-1.02227783203125,-0.2456207275390625
1686343769490763800,2.561763671875,-0.0700225830078125,-0.9936370849609375,-0.20947265625
1686343769500783900,2.571783935546875,-0.081390380859375,-0.9616546630859375,-0.227081298828125
1686343769510804000,2.581803955078125,-0.06695556640625,-0.9866790771484375,-0.306060791015625
1686343769520823800,2.59182373046875,-0.0579376220703125,-0.9733428955078125,-0.3196868896484375
1686343769530843600,2.60184375,-0.073028564453125,-0.9593353271484375,-0.2810211181640625
1686343769540863700,2.61186376953125,-0.078399658203125,-0.9479522705078125,-0.2298583984375
1686343769550883800,2.6218837890625,-0.0839691162109375,-0.961273193359375,-0.16436767578125
1686343769560903700,2.631903564453125,-0.114044189453125,-0.96533203125,-0.113006591796875
1686343769570923800,2.641923828125,-0.10272216796875,-0.9452972412109375,-0.070831298828125
1686343769580945000,2.65194482421875,-0.063323974609375,-0.8862152099609375,-0.050750732421875
1686343769590964700,2.66196484375,-0.00335693359375,-0.835113525390625,-0.0470428466796875
1686343769600984800,2.67198486328125,0.0290985107421875,-0.8205413818359375,-0.0898284912109375
1686343769611005000,2.6820048828125,0.009246826171875,-0.8394317626953125,-0.185638427734375
1686343769621024800,2.692024658203125,-0.041473388671875,-0.9007110595703125,-0.3392486572265625
1686343769631044900,2.702044921875,-0.0679931640625,-0.9685821533203125,-0.490631103515625
1686343769641065000,2.71206494140625,-0.0760955810546875,-1.0335845947265625,-0.5321807861328125
1686343769651084800,2.722084716796875,-0.0653533935546875,-1.0738525390625,-0.439849853515625
1686343769661105000,2.73210498046875,-0.0462188720703125,-1.0887908935546875,-0.3137359619140625
1686343769671125000,2.742125,-0.013336181640625,-1.0638885498046875,-0.2321319580078125
1686343769681144800,2.752144775390625,0.03192138671875,-0.964569091796875,-0.2350311279296875
1686343769691166000,2.762166015625,0.050628662109375,-0.902313232421875,-0.3094482421875
1686343769701186000,2.77218603515625,0.0335693359375,-0.897125244140625,-0.3319854736328125
1686343769711205600,2.78220556640625,0.0216827392578125,-0.9055633544921875,-0.3068389892578125
1686343769721225700,2.792225830078125,0.0223846435546875,-0.9241790771484375,-0.3151397705078125
1686343769731245800,2.802245849609375,-0.0117340087890625,-0.93609619140625,-0.3251953125
1686343769741265700,2.812265625,-0.04217529296875,-0.924102783203125,-0.2951507568359375
1686343769751285800,2.82228564453125,-0.0997314453125,-0.9510650634765625,-0.269256591796875
1686343769761305900,2.832305908203125,-0.1212310791015625,-0.9690399169921875,-0.2350311279296875
1686343769771326000,2.842325927734375,-0.1045684814453125,-0.9771270751953125,-0.2253265380859375
1686343769781345800,2.852345703125,-0.0790252685546875,-0.946044921875,-0.238250732421875
1686343769791366000,2.862365966796875,-0.0354766845703125,-0.9272003173828125,-0.235260009765625
1686343769801386000,2.872385986328125,-0.0236968994140625,-0.957733154296875,-0.2208099365234375
1686343769811406800,2.88240673828125,-0.01324462890625,-0.9835968017578125,-0.1822052001953125
1686343769821427000,2.892427001953125,0.020843505859375,-0.9987335205078125,-0.164093017578125
1686343769831446800,2.90244677734375,0.041900634765625,-0.9894256591796875,-0.1654510498046875
1686343769841467000,2.912466796875,0.04925537109375,-0.9882354736328125,-0.2000885009765625
1686343769851487000,2.922487060546875,0.0627288818359375,-0.9694061279296875,-0.2187042236328125
1686343769861506800,2.9325068359375,0.02520751953125,-0.991546630859375,-0.074005126953125
1686343769871526700,2.942526611328125,-0.07122802734375,-1.0389251708984375,-0.0013275146484375
1686343769881546800,2.952546630859375,-0.0755157470703125,-1.046478271484375,0.0099334716796875
1686343769891566800,2.96256689453125,-0.037933349609375,-1.009490966796875,-0.025543212890625
1686343769901586700,2.972586669921875,-0.0406646728515625,-0.9739837646484375,-0.0593719482421875
1686343769911606800,2.982606689453125,-0.0493316650390625,-0.9898834228515625,-0.09210205078125
1686343769921627000,2.992626953125,-0.0316009521484375,-1.0012969970703125,-0.086700439453125
1686343769931647700,3.002647705078125,-0.0573272705078125,-0.98907470703125,-0.02984619140625
1686343769941667800,3.012667724609375,-0.1063385009765625,-0.998443603515625,0.005523681640625
1686343769951688000,3.02268798828125,-0.09539794921875,-0.998504638671875,0.0212554931640625
1686343769961707800,3.032707763671875,-0.0720062255859375,-0.9781494140625,-0.00146484375
1686343769971728000,3.042727783203125,-0.041473388671875,-0.96343994140625,-0.0111236572265625
1686343769981748000,3.052748046875,-0.029571533203125,-0.9764556884765625,0.001617431640625
1686343769991767800,3.062767822265625,-0.047149658203125,-0.992431640625,0.040557861328125
1686343770001788000,3.072787841796875,-0.0973052978515625,-0.9663543701171875,0.0495758056640625
1686343770011808000,3.08280810546875,-0.1069183349609375,-1.017303466796875,0.0722808837890625
1686343770021827800,3.092827880859375,-0.098907470703125,-1.05682373046875,0.129547119140625
1686343770031847700,3.10284765625,-0.054779052734375,-1.0335845947265625,0.123016357421875
1686343770041867800,3.11286767578125,-0.000701904296875,-1.042572021484375,0.1102752685546875
1686343770051887900,3.122887939453125,0.005157470703125,-1.0716094970703125,0.1148834228515625
1686343770061908700,3.13290869140625,-0.0075225830078125,-1.0971221923828125,0.1210784912109375
1686343770071928800,3.1429287109375,-0.0104827880859375,-1.1085052490234375,0.1357574462890625
1686343770081948700,3.15294873046875,-0.036651611328125,-1.1193084716796875,0.131256103515625
1686343770091968800,3.16296875,-0.037628173828125,-1.11480712890625,0.1205902099609375
1686343770101988900,3.17298876953125,-0.059295654296875,-1.110107421875,0.1306304931640625
1686343770112008700,3.1830087890625,-0.039520263671875,-1.1020355224609375,0.1138916015625
1686343770122028800,3.19302880859375,0.027740478515625,-1.084381103515625,0.1031036376953125
1686343770132049000,3.203048828125,0.0666656494140625,-1.075103759765625,0.07672119140625
1686343770142068700,3.21306884765625,0.06353759765625,-1.0499267578125,0.01727294921875
1686343770152088800,3.2230888671875,0.0513916015625,-1.01287841796875,-0.07208251953125
1686343770162109000,3.23310888671875,0.01593017578125,-0.9693145751953125,-0.155487060546875
1686343770172129000,3.24312890625,-0.05108642578125,-0.963958740234375,-0.1845245361328125
1686343770182148900,3.25314892578125,-0.0307769775390625,-0.9961700439453125,-0.1477813720703125
1686343770192168700,3.263168701171875,0.017822265625,-1.037078857421875,-0.0904388427734375
1686343770202188800,3.273188720703125,0.029754638671875,-1.0493621826171875,-0.0449371337890625
1686343770212210000,3.2832099609375,0.0350189208984375,-1.031982421875,-0.0494537353515625
1686343770222229800,3.293229736328125,0.0554046630859375,-1.034332275390625,-0.012542724609375
1686343770232249900,3.303249755859375,0.027008056640625,-1.04144287109375,0.0246429443359375
1686343770242269700,3.313269775390625,-0.0290985107421875,-1.0037689208984375,-0.02899169921875
1686343770252289800,3.323289794921875,-0.076934814453125,-0.9389190673828125,-0.131622314453125
1686343770262310000,3.333309814453125,-0.03350830078125,-0.887725830078125,-0.184661865234375
1686343770272329700,3.343329833984375,-0.0280609130859375,-0.897003173828125,-0.1804962158203125
1686343770282349800,3.353349853515625,-0.0287322998046875,-0.925262451171875,-0.149139404296875
1686343770292370000,3.363369873046875,0.034820556640625,-0.9265289306640625,-0.1125335693359375
1686343770302389800,3.3733896484375,-0.0163726806640625,-0.9380035400390625,-0.129638671875
1686343770312409900,3.383409912109375,-0.0195159912109375,-0.94635009765625,-0.121673583984375
1686343770322430000,3.393429931640625,-0.0098114013671875,-0.9658355712890625,-0.1101226806640625
1686343770332449800,3.40344970703125,-0.0559844970703125,-0.9761962890625,-0.1444854736328125
1686343770342470000,3.413469970703125,-0.0503692626953125,-0.9687042236328125,-0.1770782470703125
1686343770352489700,3.42348974609375,-0.080841064453125,-0.9805450439453125,-0.2042999267578125
1686343770362509800,3.433509765625,-0.104156494140625,-0.9656219482421875,-0.222564697265625
1686343770372531000,3.443531005859375,-0.1192779541015625,-0.97265625,-0.209930419921875
1686343770382550800,3.45355078125,-0.0955810546875,-0.978729248046875,-0.1882476806640625
1686343770392570600,3.463570556640625,-0.0556488037109375,-0.9830780029296875,-0.16851806640625
1686343770402590700,3.4735908203125,-0.0527191162109375,-0.9976806640625,-0.1302032470703125
1686343770412610800,3.48361083984375,-0.076995849609375,-1.014190673828125,-0.1104583740234375
1686343770422631000,3.493630859375,-0.093841552734375,-1.0003814697265625,-0.1031494140625
1686343770432650800,3.503650634765625,-0.0867919921875,-0.97412109375,-0.1382904052734375
1686343770442670800,3.5136708984375,-0.073516845703125,-0.9536590576171875,-0.17132568359375
1686343770452691000,3.52369091796875,-0.0490264892578125,-0.9524383544921875,-0.1652679443359375
1686343770462710800,3.533710693359375,-0.001708984375,-0.95758056640625,-0.19024658203125
1686343770472731000,3.54373095703125,0.0448455810546875,-0.9647369384765625,-0.2159271240234375
1686343770482751000,3.5537509765625,0.122283935546875,-0.9704132080078125,-0.1381683349609375
1686343770492770800,3.563770751953125,0.090118408203125,-0.98321533203125,-0.170257568359375
1686343770502791000,3.573791015625,-0.1142425537109375,-0.960357666015625,-0.2126007080078125
1686343770512811000,3.58381103515625,-0.0435791015625,-0.945404052734375,-0.1146392822265625
1686343770522830800,3.593830810546875,-0.144317626953125,-0.983978271484375,-0.10369873046875
1686343770532850700,3.6038505859375,-0.1672821044921875,-0.9690093994140625,-0.1057586669921875
1686343770542871800,3.613871826171875,-0.1703338623046875,-0.9708099365234375,-0.1273956298828125
1686343770552891600,3.6238916015625,-0.132568359375,-0.9426727294921875,-0.1551666259765625
1686343770562911700,3.633911865234375,-0.09326171875,-0.945037841796875,-0.1683807373046875
1686343770572931800,3.643931884765625,-0.079742431640625,-0.952239990234375,-0.16082763671875
1686343770582951700,3.65395166015625,-0.046630859375,-0.950408935546875,-0.1560821533203125
1686343770592971800,3.6639716796875,-0.030120849609375,-0.9667816162109375,-0.1358184814453125
1686343770602991900,3.673991943359375,-0.054656982421875,-0.9911041259765625,-0.0922088623046875
1686343770613011700,3.68401171875,-0.0881195068359375,-1.01092529296875,-0.0608062744140625
1686343770623031800,3.69403173828125,-0.08502197265625,-1.02294921875,-0.0645751953125
1686343770633052000,3.704052001953125,-0.054718017578125,-1.02728271484375,-0.0849456787109375
1686343770643072000,3.714072021484375,-0.0888671875,-1.0302276611328125,-0.10784912109375
1686343770653091800,3.724091796875,-0.0948028564453125,-1.019989013671875,-0.135528564453125
1686343770663112000,3.73411181640625,-0.053131103515625,-1.0238494873046875,-0.150177001953125
1686343770673132000,3.744132080078125,-0.020904541015625,-1.0326690673828125,-0.145721435546875
1686343770683151600,3.754151611328125,-0.0384979248046875,-1.02960205078125,-0.1214752197265625
1686343770693171700,3.764171630859375,-0.058624267578125,-1.0279388427734375,-0.098541259765625
1686343770703191800,3.77419189453125,-0.0595245361328125,-1.0198822021484375,-0.08685302734375
1686343770713211600,3.784211669921875,-0.0484466552734375,-1.0044097900390625,-0.1003875732421875
1686343770723231700,3.794231689453125,-0.0493316650390625,-0.9868011474609375,-0.1160736083984375
1686343770733251800,3.804251953125,-0.05224609375,-0.9769744873046875,-0.1236114501953125
1686343770743272000,3.81427197265625,-0.0768280029296875,-0.9727630615234375,-0.1252899169921875
1686343770753292800,3.824292724609375,-0.09765625,-0.960968017578125,-0.138336181640625
1686343770763313000,3.83431298828125,-0.1146392822265625,-0.959625244140625,-0.14031982421875
1686343770773332700,3.844332763671875,-0.1157073974609375,-0.96600341796875,-0.1352996826171875
1686343770783352800,3.854352783203125,-0.1142730712890625,-0.970672607421875,-0.1372528076171875
1686343770793373000,3.864373046875,-0.0847930908203125,-0.9798583984375,-0.12469482421875
1686343770803392800,3.874392822265625,-0.053375244140625,-1.00164794921875,-0.0988616943359375
1686343770813412900,3.884412841796875,-0.0482330322265625,-1.0198974609375,-0.077880859375
1686343770823433000,3.894432861328125,-0.033416748046875,-1.031646728515625,-0.0632171630859375
1686343770833453000,3.904453125,-0.024932861328125,-1.040374755859375,-0.0610809326171875
1686343770843472600,3.91447265625,-0.0274200439453125,-1.03790283203125,-0.07275390625
1686343770853492700,3.92449267578125,-0.024322509765625,-1.0366973876953125,-0.080718994140625
1686343770863512800,3.934512939453125,-0.025543212890625,-1.0344085693359375,-0.0815277099609375
1686343770873532700,3.94453271484375,-0.030242919921875,-1.020263671875,-0.08233642578125
1686343770883552800,3.954552734375,-0.0387115478515625,-1.0011138916015625,-0.08575439453125
1686343770893572900,3.96457275390625,-0.042510986328125,-0.991729736328125,-0.081451416015625
1686343770903592700,3.9745927734375,-0.0395050048828125,-0.983551025390625,-0.076263427734375
1686343770913612800,3.98461279296875,-0.0384979248046875,-0.979095458984375,-0.07135009765625
1686343770923633000,3.9946328125,-0.0355987548828125,-0.9838409423828125,-0.0649871826171875
1686343770933653000,4.004653076171875,-0.031158447265625,-0.986785888671875,-0.06207275390625
1686343770943672800,4.0146728515625,-0.0392913818359375,-0.9907379150390625,-0.0532073974609375
1686343770953693000,4.02469287109375,-0.0432891845703125,-1.000823974609375,-0.0525665283203125
1686343770963713000,4.034713134765625,-0.0408935546875,-1.005584716796875,-0.0514373779296875
1686343770973732600,4.044732666015625,-0.03363037109375,-1.0164642333984375,-0.060211181640625
1686343770983752700,4.054752685546875,-0.0255126953125,-1.02203369140625,-0.0577850341796875
1686343770993772800,4.064772705078125,-0.04180908203125,-1.022857666015625,-0.0488739013671875
1686343771003792600,4.074792724609375,-0.042510986328125,-1.0236053466796875,-0.0458984375
1686343771013813800,4.084813720703125,-0.011199951171875,-1.0370635986328125,-0.0388336181640625
1686343771023833900,4.094833740234375,0.02392578125,-1.05755615234375,-0.0339813232421875
1686343771033853700,4.104853759765625,0.0457305908203125,-1.06927490234375,-0.04193115234375
1686343771043873800,4.114873779296875,0.046356201171875,-1.0734100341796875,-0.0494384765625
1686343771053894000,4.124893798828125,0.0280914306640625,-1.065887451171875,-0.0470428466796875
1686343771063913700,4.134913818359375,0.0086517333984375,-1.05096435546875,-0.0561981201171875
1686343771073933800,4.144933837890625,-0.0075531005859375,-1.035125732421875,-0.0708770751953125
1686343771083954000,4.154953857421875,-0.0030670166015625,-1.021820068359375,-0.096466064453125
1686343771093973800,4.164973876953125,-0.0131988525390625,-1.0150909423828125,-0.1129913330078125
1686343771103993900,4.174993896484375,-0.0290069580078125,-1.0155029296875,-0.1226043701171875
1686343771114014000,4.185013916015625,-0.027130126953125,-1.0193328857421875,-0.1157989501953125
1686343771124034000,4.195033935546875,-0.0330352783203125,-1.0214385986328125,-0.0963287353515625
1686343771134054000,4.205053955078125,-0.03973388671875,-1.0077667236328125,-0.0965118408203125
1686343771144073700,4.21507373046875,-0.03839111328125,-0.9874725341796875,-0.0913848876953125
1686343771154093800,4.22509375,-0.032958984375,-0.9780426025390625,-0.0838623046875
1686343771164113700,4.23511376953125,-0.0206451416015625,-0.9718780517578125,-0.0766754150390625
1686343771174133800,4.2451337890625,-0.0188446044921875,-0.9679718017578125,-0.0708465576171875
1686343771184153900,4.25515380859375,-0.021636962890625,-0.9712982177734375,-0.0757904052734375
1686343771194173700,4.265173583984375,-0.020263671875,-0.97454833984375,-0.0733795166015625
1686343771204193800,4.27519384765625,-0.0304412841796875,-0.972686767578125,-0.0667724609375
1686343771214214000,4.2852138671875,-0.0638580322265625,-0.970611572265625,-0.059112548828125
1686343771224234000,4.29523388671875,-0.0750579833984375,-0.968841552734375,-0.0504913330078125
1686343771234253800,4.30525390625,-0.070159912109375,-0.976470947265625,-0.033355712890625
1686343771244274000,4.31527392578125,-0.05328369140625,-0.992645263671875,-0.0224761962890625
1686343771254294000,4.3252939453125,-0.0251007080078125,-1.01611328125,-0.0157470703125
1686343771264313900,4.33531396484375,-0.006805419921875,-1.0438385009765625,-0.00946044921875
1686343771274333700,4.345333740234375,-0.007232666015625,-1.0529327392578125,-0.01727294921875
1686343771284353800,4.355353759765625,-0.0062255859375,-1.05303955078125,-0.043731689453125
1686343771294373600,4.36537353515625,0.007659912109375,-1.051116943359375,-0.073394775390625
1686343771304394800,4.375394775390625,0.0244140625,-1.0446319580078125,-0.081787109375
1686343771314414800,4.385414794921875,0.032958984375,-1.0399627685546875,-0.109649658203125
1686343771324434700,4.3954345703125,-0.0144805908203125,-1.023040771484375,-0.1356048583984375
1686343771334454800,4.405454833984375,-0.0438079833984375,-1.02581787109375,-0.1084136962890625
1686343771344475000,4.415474853515625,-0.090057373046875,-1.055511474609375,-0.062744140625
1686343771354494700,4.42549462890625,-0.0979156494140625,-1.0708160400390625,-0.0225982666015625
1686343771364514800,4.435514892578125,-0.06500244140625,-1.0580902099609375,-0.0136566162109375
1686343771374535000,4.445534912109375,-0.0386505126953125,-1.03839111328125,-0.0350494384765625
1686343771384554800,4.4555546875,-0.010345458984375,-1.0145416259765625,-0.0511474609375
1686343771394574800,4.465574951171875,-0.019134521484375,-0.9938507080078125,-0.0753173828125
1686343771404595000,4.475594970703125,-0.0529327392578125,-0.9763031005859375,-0.0967559814453125
1686343771414615000,4.485614990234375,-0.076446533203125,-0.968231201171875,-0.088958740234375
1686343771424635000,4.495634765625,-0.0982513427734375,-0.955108642578125,-0.0912933349609375
1686343771434654700,4.50565478515625,-0.087066650390625,-0.9384002685546875,-0.0946197509765625
1686343771444674800,4.5156748046875,-0.0475311279296875,-0.9417572021484375,-0.0943450927734375
1686343771454694700,4.525694580078125,-0.0101165771484375,-0.9374847412109375,-0.0748443603515625
1686343771464714800,4.53571484375,0.03375244140625,-0.9392547607421875,-0.06878662109375
1686343771474734800,4.54573486328125,0.1071929931640625,-0.9578399658203125,-0.0454864501953125
1686343771484754700,4.555754638671875,0.1638946533203125,-0.99212646484375,-0.0091705322265625
1686343771494774800,4.56577490234375,0.1696929931640625,-1.00286865234375,0.0168914794921875
1686343771504795000,4.575794921875,0.1306915283203125,-0.9993133544921875,0.0510406494140625
1686343771514815000,4.58581494140625,0.0932769775390625,-0.9842071533203125,0.067779541015625
1686343771524834800,4.595834716796875,0.0782318115234375,-0.9772491455078125,0.0660552978515625
1686343771534855000,4.60585498046875,0.0574951171875,-0.9772186279296875,0.0803375244140625
1686343771544875000,4.615875,0.0489349365234375,-0.9723358154296875,0.082977294921875
1686343771554894800,4.625894775390625,0.0442352294921875,-0.971405029296875,0.08441162109375
1686343771564915000,4.6359150390625,0.0426483154296875,-0.964141845703125,0.0756072998046875
1686343771574934800,4.645934814453125,0.03472900390625,-0.9542236328125,0.056396484375
1686343771584954600,4.65595458984375,0.014495849609375,-0.9375152587890625,0.03802490234375
1686343771594975700,4.665975830078125,0.006591796875,-0.9151153564453125,0.024658203125
1686343771604995800,4.675995849609375,-0.0039215087890625,-0.905364990234375,0.016693115234375
1686343771615015700,4.686015625,-0.0276336669921875,-0.910888671875,0.0072021484375
1686343771625035800,4.696035888671875,-0.034576416015625,-0.9296875,0.0213470458984375
1686343771635055900,4.706055908203125,-0.020751953125,-0.9524383544921875,0.0585174560546875
1686343771645075700,4.71607568359375,-0.001251220703125,-0.9673004150390625,0.0635833740234375
1686343771655095800,4.726095703125,0.026458740234375,-0.9830474853515625,0.049896240234375
1686343771665116000,4.736115966796875,0.0608978271484375,-0.9853515625,0.0205841064453125
1686343771675135700,4.7461357421875,0.07391357421875,-0.9669647216796875,-0.043548583984375
1686343771685155800,4.75615576171875,0.0703277587890625,-0.9539337158203125,-0.0912628173828125
1686343771695176000,4.766176025390625,0.046142578125,-0.9266204833984375,-0.133026123046875
1686343771705195800,4.77619580078125,0.05419921875,-0.9053802490234375,-0.1824493408203125
1686343771715216000,4.7862158203125,0.071990966796875,-0.9136962890625,-0.2075958251953125
1686343771725236000,4.796236083984375,0.0631256103515625,-0.919921875,-0.1880340576171875
1686343771735255800,4.806255859375,0.0696563720703125,-0.9191131591796875,-0.1607513427734375
1686343771745275600,4.816275634765625,0.0633697509765625,-0.925079345703125,-0.1411285400390625
1686343771755295700,4.826295654296875,0.071929931640625,-0.9312591552734375,-0.1236572265625
1686343771765315800,4.83631591796875,0.067626953125,-0.9432525634765625,-0.1286163330078125
1686343771775335700,4.846335693359375,0.0603790283203125,-0.9520721435546875,-0.1269683837890625
1686343771785355800,4.856355712890625,0.067657470703125,-0.95697021484375,-0.122314453125
1686343771795375600,4.866375732421875,0.0883331298828125,-0.959442138671875,-0.1532745361328125
1686343771805395700,4.876395751953125,0.0937042236328125,-0.96270751953125,-0.1651458740234375
1686343771815415600,4.88641552734375,0.087188720703125,-0.964447021484375,-0.181121826171875
1686343771825435600,4.896435546875,0.0857696533203125,-0.954071044921875,-0.204833984375
1686343771835455700,4.906455810546875,0.1052093505859375,-0.9484405517578125,-0.2047271728515625
1686343771845476600,4.9164765625,0.094024658203125,-0.9497222900390625,-0.2203369140625
1686343771855496700,4.92649658203125,0.0765533447265625,-0.94476318359375,-0.2520599365234375
1686343771865516500,4.9365166015625,0.0569000244140625,-0.9561614990234375,-0.2560882568359375
1686343771875536600,4.94653662109375,0.0384063720703125,-0.9911956787109375,-0.234954833984375
1686343771885556700,4.956556640625,0.0524139404296875,-1.0317535400390625,-0.193572998046875
1686343771895576800,4.966576904296875,0.0721435546875,-1.0795135498046875,-0.143341064453125
1686343771905596700,4.9765966796875,0.09222412109375,-1.1079254150390625,-0.1170196533203125
1686343771915616800,4.98661669921875,0.0901947021484375,-1.1222991943359375,-0.10247802734375
1686343771925636900,4.996636962890625,0.0787811279296875,-1.1295013427734375,-0.0779571533203125
1686343771935656700,5.00665673828125,0.064361572265625,-1.1345672607421875,-0.0401458740234375
1686343771945676800,5.0166767578125,0.047088623046875,-1.1359710693359375,-0.0030975341796875
1686343771955697000,5.02669677734375,0.0096435546875,-1.122222900390625,0.005279541015625
1686343771965716500,5.036716552734375,-0.0331268310546875,-1.0827484130859375,0.02117919921875
1686343771975736600,5.046736572265625,-0.07220458984375,-1.056488037109375,0.0482330322265625
1686343771985756700,5.056756591796875,-0.0843658447265625,-1.05303955078125,0.0791473388671875
1686343771995776800,5.06677685546875,-0.0884857177734375,-1.063720703125,0.099395751953125
1686343772005796600,5.076796630859375,-0.08197021484375,-1.074951171875,0.10076904296875
1686343772015816700,5.086816650390625,-0.059906005859375,-1.084014892578125,0.0812835693359375
1686343772025836800,5.0968369140625,-0.0414886474609375,-1.0826568603515625,0.039703369140625
1686343772035856600,5.106856689453125,-0.0272064208984375,-1.0643463134765625,-0.0197296142578125
1686343772045876700,5.116876708984375,-0.02349853515625,-1.0393524169921875,-0.069244384765625
1686343772055897600,5.126897705078125,-0.0304107666015625,-1.0076446533203125,-0.0952301025390625
1686343772065917700,5.136917724609375,-0.0467071533203125,-0.9779052734375,-0.099212646484375
1686343772075937800,5.146937744140625,-0.051361083984375,-0.9564361572265625,-0.10284423828125
1686343772085958000,5.1569580078125,-0.0404205322265625,-0.938812255859375,-0.1124114990234375
1686343772095977700,5.166977783203125,-0.0476226806640625,-0.932281494140625,-0.123870849609375
1686343772105997800,5.176997802734375,-0.0548095703125,-0.9342041015625,-0.1331939697265625
1686343772116018000,5.187017822265625,-0.05047607421875,-0.9374847412109375,-0.141754150390625
1686343772126037500,5.19703759765625,-0.0471343994140625,-0.94879150390625,-0.1549530029296875
1686343772136057600,5.2070576171875,-0.0572662353515625,-0.9595794677734375,-0.164337158203125
1686343772146077700,5.21707763671875,-0.0631561279296875,-0.9666595458984375,-0.1740570068359375
1686343772156097500,5.22709765625,-0.062774658203125,-0.9824371337890625,-0.1768341064453125
1686343772166117600,5.23711767578125,-0.074249267578125,-1.009246826171875,-0.1616668701171875
1686343772176137700,5.2471376953125,-0.06793212890625,-1.025177001953125,-0.139434814453125
1686343772186157800,5.25715771484375,-0.0586700439453125,-1.04180908203125,-0.1175079345703125
1686343772196177700,5.267177734375,-0.054351806640625,-1.0525360107421875,-0.0980987548828125
1686343772206197800,5.27719775390625,-0.0405731201171875,-1.0528106689453125,-0.0823516845703125
1686343772216217900,5.2872177734375,-0.04644775390625,-1.0512542724609375,-0.0691986083984375
1686343772226237700,5.29723779296875,-0.0464630126953125,-1.0376434326171875,-0.063690185546875
1686343772236257800,5.3072578125,-0.0320281982421875,-1.01593017578125,-0.0649261474609375
1686343772246278700,5.317278564453125,-0.022125244140625,-1.0044097900390625,-0.064361572265625
1686343772256298800,5.327298828125,-0.0169830322265625,-0.9943084716796875,-0.06158447265625
1686343772266318800,5.33731884765625,-0.0044708251953125,-0.9820556640625,-0.060760498046875
1686343772276338700,5.347338623046875,0.003875732421875,-0.977813720703125,-0.070556640625
1686343772286358500,5.357358642578125,-0.00030517578125,-0.9701690673828125,-0.0885009765625
1686343772296378600,5.367378662109375,-0.0091400146484375,-0.9625396728515625,-0.112579345703125
1686343772306398700,5.377398681640625,-0.014068603515625,-0.96173095703125,-0.13885498046875
1686343772316418600,5.38741845703125,-0.0063934326171875,-0.967010498046875,-0.15887451171875
1686343772326438700,5.397438720703125,0.000244140625,-0.97882080078125,-0.1672210693359375
1686343772336458800,5.407458740234375,0.003692626953125,-0.9930419921875,-0.1667938232421875
1686343772346478600,5.417478515625,0.0135955810546875,-1.0049896240234375,-0.165557861328125
1686343772356498700,5.427498779296875,0.014678955078125,-1.013092041015625,-0.1636810302734375
1686343772366518800,5.437518798828125,0.0238800048828125,-1.01263427734375,-0.1628265380859375
1686343772376539000,5.447538818359375,0.02545166015625,-1.0124359130859375,-0.1674652099609375
1686343772386558700,5.457558837890625,0.0225067138671875,-1.006744384765625,-0.1690216064453125
1686343772396578800,5.467578857421875,0.010894775390625,-0.9975433349609375,-0.16943359375
1686343772406599000,5.477598876953125,-0.0009002685546875,-0.9864654541015625,-0.1791534423828125
1686343772416618500,5.487618408203125,-0.0135498046875,-0.9786834716796875,-0.1824493408203125
1686343772426640000,5.497639892578125,-0.039031982421875,-0.9768524169921875,-0.1712493896484375
1686343772436659700,5.50765966796875,-0.0428619384765625,-0.975982666015625,-0.159027099609375
1686343772446679600,5.517679443359375,-0.0286102294921875,-0.9799041748046875,-0.1574859619140625
1686343772456699600,5.52769970703125,-0.015350341796875,-0.9857177734375,-0.161834716796875
1686343772466719700,5.5377197265625,-0.0079345703125,-0.9875335693359375,-0.1696624755859375
1686343772476739600,5.547739501953125,-0.011688232421875,-0.9828338623046875,-0.169189453125
1686343772486759700,5.557759765625,-0.0177459716796875,-0.98486328125,-0.1666107177734375
1686343772496779800,5.56777978515625,-0.0183258056640625,-0.982208251953125,-0.1619415283203125
1686343772506799600,5.577799560546875,-0.0173492431640625,-0.9813385009765625,-0.1516876220703125
1686343772516819700,5.58781982421875,-0.0061187744140625,-0.9824676513671875,-0.140655517578125
1686343772526839800,5.59783984375,-0.00201416015625,-0.985870361328125,-0.1287994384765625
1686343772536859600,5.607859619140625,0.002899169921875,-0.982666015625,-0.124176025390625
1686343772546879700,5.617879638671875,0.0142974853515625,-0.9816741943359375,-0.1148681640625
1686343772556899800,5.62789990234375,0.011383056640625,-0.979736328125,-0.121673583984375
1686343772566919700,5.637919677734375,0.0079498291015625,-0.972442626953125,-0.1256103515625
1686343772576940800,5.64794091796875,0.0088653564453125,-0.9698486328125,-0.1273193359375
1686343772586961000,5.6579609375,0.010040283203125,-0.9731903076171875,-0.12481689453125
1686343772596980700,5.667980712890625,0.01751708984375,-0.9770660400390625,-0.1199798583984375
1686343772607000600,5.67800048828125,0.029022216796875,-0.9836883544921875,-0.11700439453125
1686343772617020700,5.688020751953125,0.037750244140625,-0.9893341064453125,-0.1126556396484375
1686343772627040500,5.69804052734375,0.0382843017578125,-0.99163818359375,-0.1163482666015625
1686343772637060600,5.708060546875,0.044281005859375,-0.9919586181640625,-0.110076904296875
1686343772647080700,5.718080810546875,0.0471649169921875,-0.99456787109375,-0.1152801513671875
1686343772657100800,5.728100830078125,0.0506439208984375,-0.990203857421875,-0.1101837158203125
1686343772667120600,5.73812060546875,0.0543975830078125,-0.9913482666015625,-0.1048431396484375
1686343772677140700,5.748140625,0.050994873046875,-0.989227294921875,-0.1029205322265625
1686343772687160800,5.758160888671875,0.048828125,-0.98638916015625,-0.101409912109375
1686343772697180700,5.7681806640625,0.04949951171875,-0.987396240234375,-0.0994110107421875
1686343772707200800,5.77820068359375,0.046600341796875,-0.9862060546875,-0.10150146484375
1686343772717220900,5.788220947265625,0.0394439697265625,-0.985107421875,-0.1055755615234375
1686343772727241700,5.79824169921875,0.03228759765625,-0.9849853515625,-0.1107025146484375
1686343772737261800,5.80826171875,0.02484130859375,-0.9896240234375,-0.117767333984375
1686343772747281700,5.81828173828125,0.018463134765625,-0.993255615234375,-0.127166748046875
1686343772757301500,5.828301513671875,0.015716552734375,-0.9930572509765625,-0.13763427734375
1686343772767321600,5.838321533203125,0.015777587890625,-1.0021514892578125,-0.1334686279296875
1686343772777341700,5.848341796875,0.0152587890625,-1.01287841796875,-0.1299896240234375
1686343772787361300,5.858361328125,0.0093994140625,-1.0193023681640625,-0.1247100830078125
1686343772797381400,5.86838134765625,0.0009765625,-1.0273590087890625,-0.114532470703125
1686343772807401500,5.8784013671875,-0.0055084228515625,-1.0352935791015625,-0.1054840087890625
1686343772817421300,5.88842138671875,-0.0067138671875,-1.03515625,-0.0972747802734375
1686343772827441400,5.89844140625,-0.009185791015625,-1.032257080078125,-0.0846099853515625
1686343772837461500,5.90846142578125,-0.021453857421875,-1.029632568359375,-0.0698699951171875
1686343772847481600,5.918481689453125,-0.0276336669921875,-1.0221099853515625,-0.05938720703125
1686343772857501400,5.92850146484375,-0.0294952392578125,-1.0134735107421875,-0.0526275634765625
1686343772867522600,5.9385224609375,-0.0304107666015625,-1.0057220458984375,-0.0527496337890625
1686343772877542400,5.94854248046875,-0.03265380859375,-0.9952239990234375,-0.0538482666015625
1686343772887562500,5.9585625,-0.0323944091796875,-0.9882659912109375,-0.058441162109375
1686343772897582600,5.96858251953125,-0.0326690673828125,-0.9843902587890625,-0.067138671875
1686343772907602400,5.9786025390625,-0.0274810791015625,-0.9835968017578125,-0.074920654296875
1686343772917622500,5.98862255859375,-0.0118408203125,-0.9864349365234375,-0.0830230712890625
1686343772927642600,5.998642578125,0.0057830810546875,-0.9951324462890625,-0.091217041015625
1686343772937662700,6.008662841796875,0.0178070068359375,-0.996337890625,-0.1030731201171875
1686343772947682300,6.018682373046875,0.0218353271484375,-0.99688720703125,-0.1051788330078125
1686343772957702400,6.028702392578125,0.01910400390625,-0.99505615234375,-0.1027374267578125
1686343772967722500,6.038722412109375,0.0130157470703125,-0.9923858642578125,-0.0942535400390625
1686343772977742300,6.048742431640625,0.013336181640625,-0.990020751953125,-0.0850830078125
1686343772987762400,6.058762451171875,0.0176239013671875,-0.989410400390625,-0.0769195556640625
1686343772997782500,6.068782470703125,0.0234832763671875,-0.9922332763671875,-0.07940673828125
1686343773007802400,6.07880224609375,0.03125,-0.991485595703125,-0.0878448486328125
1686343773017823500,6.088823486328125,0.0318603515625,-0.9914703369140625,-0.0993194580078125
1686343773027843600,6.098843505859375,0.0325164794921875,-0.992401123046875,-0.102783203125
1686343773037863400,6.108863525390625,0.0316314697265625,-0.99932861328125,-0.1114654541015625
1686343773047883500,6.118883544921875,0.028564453125,-1.00555419921875,-0.1136932373046875
1686343773057903600,6.128903564453125,0.026824951171875,-1.0103759765625,-0.1058807373046875
1686343773067923500,6.13892333984375,0.026611328125,-1.0171966552734375,-0.1072998046875
1686343773077943600,6.148943603515625,0.02593994140625,-1.02154541015625,-0.107879638671875
1686343773087963600,6.158963623046875,0.0189056396484375,-1.0230255126953125,-0.1064453125
1686343773097983500,6.1689833984375,0.0120849609375,-1.0214996337890625,-0.1007843017578125
1686343773108003300,6.17900341796875,0.006134033203125,-1.0171661376953125,-0.1034393310546875
1686343773118023400,6.1890234375,0.00177001953125,-1.0137939453125,-0.1006622314453125
1686343773128043500,6.19904345703125,-0.00726318359375,-1.008331298828125,-0.0978851318359375
1686343773138063400,6.2090634765625,-0.01763916015625,-0.9976043701171875,-0.097930908203125
1686343773148083500,6.21908349609375,-0.0264434814453125,-0.989715576171875,-0.102447509765625
1686343773158104300,6.229104248046875,-0.0319976806640625,-0.9852752685546875,-0.1074371337890625
1686343773168124400,6.23912451171875,-0.03228759765625,-0.984100341796875,-0.109039306640625
1686343773178144500,6.24914453125,-0.029815673828125,-0.9843902587890625,-0.1116485595703125
1686343773188164400,6.259164306640625,-0.0314483642578125,-0.9841461181640625,-0.114288330078125
1686343773198184400,6.269184326171875,-0.027099609375,-0.98931884765625,-0.116546630859375
1686343773208204500,6.27920458984375,-0.0178985595703125,-0.992828369140625,-0.115478515625
1686343773218224600,6.289224609375,-0.011474609375,-0.999755859375,-0.116424560546875
1686343773228244500,6.299244384765625,-0.0073089599609375,-1.00091552734375,-0.1173858642578125
1686343773238264600,6.3092646484375,-0.0052642822265625,-0.997802734375,-0.12200927734375
1686343773248284700,6.31928466796875,-0.008697509765625,-0.9930877685546875,-0.1295318603515625
1686343773258304500,6.329304443359375,-0.0187530517578125,-0.987060546875,-0.138153076171875
1686343773268324600,6.33932470703125,-0.02587890625,-0.9855804443359375,-0.1465606689453125
1686343773278344400,6.349344482421875,-0.0254058837890625,-0.984283447265625,-0.1538848876953125
1686343773288364300,6.3593642578125,-0.0223388671875,-0.9869842529296875,-0.157073974609375
1686343773298384400,6.36938427734375,-0.0208282470703125,-0.991058349609375,-0.15753173828125
1686343773308405500,6.379405517578125,-0.0171051025390625,-0.99212646484375,-0.158966064453125
1686343773318425300,6.38942529296875,-0.01153564453125,-0.9927520751953125,-0.1607513427734375
1686343773328445400,6.399445556640625,-0.0090179443359375,-0.9930877685546875,-0.16107177734375
1686343773338465500,6.409465576171875,-0.007049560546875,-0.993072509765625,-0.1527252197265625
1686343773348485400,6.4194853515625,-0.0055389404296875,-0.996307373046875,-0.1383056640625
1686343773358505500,6.42950537109375,-0.0032501220703125,-1.0008087158203125,-0.128448486328125
1686343773368525600,6.439525634765625,0.0016632080078125,-1.0023345947265625,-0.121734619140625
1686343773378545400,6.44954541015625,0.0049285888671875,-1.0042572021484375,-0.118804931640625
1686343773388565500,6.4595654296875,0.006011962890625,-1.0037994384765625,-0.1224212646484375
1686343773398585600,6.469585693359375,0.0073699951171875,-1.001190185546875,-0.1246490478515625
1686343773408605700,6.479605712890625,0.00701904296875,-0.997314453125,-0.126312255859375
1686343773418625500,6.48962548828125,0.006439208984375,-0.991546630859375,-0.12786865234375
1686343773428645600,6.499645751953125,0.008087158203125,-0.985321044921875,-0.1264190673828125
1686343773438665500,6.50966552734375,0.0069427490234375,-0.98419189453125,-0.1185150146484375
1686343773448686600,6.5196865234375,0.0070648193359375,-0.9842071533203125,-0.111358642578125
1686343773458706400,6.52970654296875,0.0126953125,-0.9821319580078125,-0.109893798828125
1686343773468726300,6.539726318359375,0.01788330078125,-0.9804840087890625,-0.1133575439453125
1686343773478746400,6.549746337890625,0.0200958251953125,-0.9792022705078125,-0.1140899658203125
1686343773488766500,6.559766357421875,0.02301025390625,-0.977020263671875,-0.1169281005859375
1686343773498786600,6.56978662109375,0.028900146484375,-0.9770050048828125,-0.1186065673828125
1686343773508806400,6.579806396484375,0.030303955078125,-0.97845458984375,-0.117828369140625
1686343773518826500,6.589826416015625,0.0305023193359375,-0.980499267578125,-0.1102752685546875
1686343773528846600,6.5998466796875,0.030242919921875,-0.9837646484375,-0.099517822265625
1686343773538866400,6.609866455078125,0.0234375,-0.988311767578125,-0.0941925048828125
1686343773548886500,6.619886474609375,0.0199127197265625,-0.98809814453125,-0.0952911376953125
1686343773558906600,6.62990673828125,0.0211944580078125,-0.9884490966796875,-0.103485107421875
1686343773568926500,6.639926513671875,0.0225830078125,-0.9919891357421875,-0.1099700927734375
1686343773578947600,6.649947509765625,0.0245819091796875,-0.9999542236328125,-0.10955810546875
1686343773588967700,6.6599677734375,0.0281219482421875,-1.007537841796875,-0.1078033447265625
1686343773598987500,6.669987548828125,0.0226898193359375,-1.010009765625,-0.112060546875
1686343773609007600,6.680007568359375,0.01513671875,-1.0114288330078125,-0.1164398193359375
1686343773619027500,6.69002734375,0.00787353515625,-1.0096282958984375,-0.1196136474609375
1686343773629047300,6.70004736328125,0.0030364990234375,-1.0078125,-0.120758056640625
1686343773639067400,6.7100673828125,-0.0070037841796875,-1.00634765625,-0.1148223876953125
1686343773649087500,6.72008740234375,-0.0132598876953125,-1.005706787109375,-0.103668212890625
1686343773659107300,6.730107421875,-0.0161590576171875,-1.0053253173828125,-0.095184326171875
1686343773669127400,6.74012744140625,-0.0225067138671875,-1.0044708251953125,-0.08966064453125
1686343773679147500,6.7501474609375,-0.027618408203125,-1.0019073486328125,-0.08453369140625
1686343773689167600,6.760167724609375,-0.0316925048828125,-0.9973602294921875,-0.084320068359375
1686343773699187500,6.7701875,-0.0333709716796875,-0.998931884765625,-0.0790557861328125
1686343773709207600,6.78020751953125,-0.025360107421875,-1.0019378662109375,-0.072967529296875
1686343773719228400,6.790228515625,-0.016815185546875,-1.0035858154296875,-0.0738372802734375
1686343773729248500,6.80024853515625,-0.01373291015625,-1.0023651123046875,-0.0760955810546875
1686343773739268600,6.8102685546875,-0.012481689453125,-0.9988861083984375,-0.078155517578125
1686343773749288400,6.820288330078125,-0.0096435546875,-0.993682861328125,-0.08636474609375
1686343773759308800,6.830308837890625,-0.0053253173828125,-0.99114990234375,-0.0909271240234375
1686343773769328600,6.84032861328125,-0.0070037841796875,-0.988006591796875,-0.0968170166015625
1686343773779348700,6.8503486328125,-0.0105133056640625,-0.9841461181640625,-0.10638427734375
1686343773789368600,6.86036865234375,-0.0038604736328125,-0.979736328125,-0.1141357421875
1686343773799388700,6.870388671875,0.0005645751953125,-0.979736328125,-0.121002197265625
1686343773809408800,6.88040869140625,0.009918212890625,-0.985687255859375,-0.1219482421875
1686343773819428600,6.8904287109375,0.0199432373046875,-0.9939422607421875,-0.1179962158203125
1686343773829448700,6.90044873046875,0.028228759765625,-1.003143310546875,-0.1162261962890625
1686343773839468800,6.91046875,0.037109375,-1.0105133056640625,-0.11724853515625
1686343773849488600,6.920488525390625,0.0428009033203125,-1.0139617919921875,-0.1215972900390625
1686343773859509800,6.930509765625,0.0460662841796875,-1.0158538818359375,-0.124847412109375
1686343773869529600,6.940529541015625,0.0504150390625,-1.0149993896484375,-0.129486083984375
1686343773879549700,6.9505498046875,0.045684814453125,-1.0117950439453125,-0.1309967041015625
1686343773889569800,6.96056982421875,0.0395050048828125,-1.0078277587890625,-0.133697509765625
1686343773899590000,6.97058984375,0.041351318359375,-1.004180908203125,-0.139129638671875
1686343773909609700,6.980609619140625,0.042724609375,-0.99896240234375,-0.143280029296875
1686343773919629800,6.9906298828125,0.036834716796875,-0.991607666015625,-0.145904541015625
1686343773929649700,7.000649658203125,0.0216217041015625,-0.98773193359375,-0.142303466796875
1686343773939669500,7.01066943359375,0.00372314453125,-0.98492431640625,-0.1412353515625
1686343773949689600,7.020689697265625,-0.0095062255859375,-0.9809722900390625,-0.1423492431640625
1686343773959709700,7.030709716796875,-0.0235137939453125,-0.9809722900390625,-0.1418304443359375
1686343773969729500,7.0407294921875,-0.0326690673828125,-0.9847412109375,-0.135833740234375
1686343773979749600,7.05074951171875,-0.0330963134765625,-0.9907989501953125,-0.125396728515625
1686343773989770800,7.060770751953125,-0.0277557373046875,-0.9970550537109375,-0.115631103515625
1686343773999790600,7.07079052734375,-0.0255279541015625,-1.0000762939453125,-0.1087188720703125
1686343774009810700,7.080810791015625,-0.030426025390625,-0.99774169921875,-0.1061248779296875
1686343774019830800,7.090830810546875,-0.0381317138671875,-0.99395751953125,-0.10479736328125
1686343774029850600,7.1008505859375,-0.04278564453125,-0.99273681640625,-0.105987548828125
1686343774039870700,7.11087060546875,-0.0415191650390625,-0.99237060546875,-0.10504150390625
1686343774049890800,7.120890869140625,-0.03778076171875,-0.9902801513671875,-0.104705810546875
1686343774059910700,7.13091064453125,-0.0330963134765625,-0.98236083984375,-0.101806640625
1686343774069930800,7.1409306640625,-0.0380859375,-0.9775543212890625,-0.0987091064453125
1686343774079950800,7.150950927734375,-0.0397491455078125,-0.97149658203125,-0.0941925048828125
1686343774089970700,7.160970703125,-0.0400238037109375,-0.9730224609375,-0.097900390625
1686343774099990500,7.170990478515625,-0.030059814453125,-0.9811859130859375,-0.10296630859375
1686343774110010600,7.1810107421875,-0.0141754150390625,-0.995941162109375,-0.1136627197265625
1686343774120030700,7.19103076171875,0.010833740234375,-1.0111236572265625,-0.12457275390625
1686343774130051600,7.201051513671875,0.0390167236328125,-1.0258941650390625,-0.126220703125
1686343774140071700,7.21107177734375,0.06280517578125,-1.03839111328125,-0.12432861328125
1686343774150091800,7.221091796875,0.077728271484375,-1.040557861328125,-0.11981201171875
1686343774160111600,7.231111572265625,0.087188720703125,-1.0338134765625,-0.11322021484375
1686343774170131700,7.241131591796875,0.0779571533203125,-1.0215301513671875,-0.1063690185546875
1686343774180151800,7.25115185546875,0.0508880615234375,-1.004180908203125,-0.1031494140625
1686343774190171600,7.261171630859375,0.02081298828125,-0.9844970703125,-0.1070556640625
1686343774200191700,7.271191650390625,-0.0050048828125,-0.9690399169921875,-0.1196746826171875
1686343774210211800,7.2812119140625,-0.02142333984375,-0.9558563232421875,-0.13714599609375
1686343774220231700,7.291231689453125,-0.026519775390625,-0.9495391845703125,-0.1517486572265625
1686343774230251800,7.301251708984375,-0.0271148681640625,-0.951995849609375,-0.1614837646484375
1686343774240272000,7.31127197265625,-0.027740478515625,-0.964630126953125,-0.16107177734375
1686343774250292700,7.321292724609375,-0.027801513671875,-0.98004150390625,-0.1490936279296875
1686343774260312800,7.331312744140625,-0.0270843505859375,-1.00299072265625,-0.1369171142578125
1686343774270333000,7.3413330078125,-0.0226287841796875,-1.02447509765625,-0.1334381103515625
1686343774280352500,7.3513525390625,-0.00531005859375,-1.0308685302734375,-0.1312408447265625
1686343774290372600,7.36137255859375,0.0094451904296875,-1.030975341796875,-0.1256561279296875
1686343774300392700,7.371392822265625,0.01141357421875,-1.022796630859375,-0.11328125
1686343774310412500,7.38141259765625,0.003204345703125,-1.013458251953125,-0.10711669921875
1686343774320432600,7.3914326171875,-0.00628662109375,-1.0054779052734375,-0.10504150390625
1686343774330452700,7.40145263671875,-0.01123046875,-0.9937591552734375,-0.107940673828125
1686343774340472600,7.41147265625,-0.012359619140625,-0.9835052490234375,-0.1155242919921875
1686343774350492700,7.42149267578125,-0.013397216796875,-0.9854888916015625,-0.1211395263671875
1686343774360512800,7.4315126953125,-0.017791748046875,-0.99609375,-0.118927001953125
1686343774370533600,7.44153369140625,-0.01873779296875,-1.0003509521484375,-0.105224609375
1686343774380553700,7.4515537109375,-0.0180816650390625,-0.9909210205078125,-0.10650634765625
1686343774390573800,7.46157373046875,-0.02142333984375,-0.9774627685546875,-0.1144561767578125
1686343774400593700,7.47159375,-0.0286865234375,-0.966033935546875,-0.1208648681640625
1686343774410613800,7.48161376953125,-0.02996826171875,-0.9522857666015625,-0.1183624267578125
1686343774420633900,7.4916337890625,-0.019012451171875,-0.95159912109375,-0.1092987060546875
1686343774430653700,7.50165380859375,0.002044677734375,-0.967010498046875,-0.1017303466796875
1686343774440673500,7.511673583984375,0.0189666748046875,-0.9876556396484375,-0.1016082763671875
1686343774450693600,7.521693603515625,0.02752685546875,-1.0078125,-0.1083526611328125
1686343774460713700,7.531713623046875,0.0285491943359375,-1.027496337890625,-0.114898681640625
1686343774470733600,7.541733642578125,0.0179595947265625,-1.04052734375,-0.119110107421875
1686343774480753700,7.551753662109375,0.0061187744140625,-1.0447540283203125,-0.1264190673828125
1686343774490774500,7.5617744140625,0.0004425048828125,-1.0392303466796875,-0.137603759765625
1686343774500794600,7.571794677734375,-0.002960205078125,-1.0220184326171875,-0.1459197998046875
1686343774510814700,7.581814697265625,-0.0064697265625,-1.00262451171875,-0.1464996337890625
1686343774520834600,7.59183447265625,-0.013580322265625,-0.981231689453125,-0.149383544921875
1686343774530854700,7.601854736328125,-0.0257415771484375,-0.9573974609375,-0.156005859375
1686343774540874800,7.611874755859375,-0.035247802734375,-0.9384307861328125,-0.1587371826171875
1686343774550894800,7.621894775390625,-0.03924560546875,-0.92889404296875,-0.1572723388671875
1686343774560914700,7.631914794921875,-0.04180908203125,-0.9332427978515625,-0.1554718017578125
1686343774570934800,7.641934814453125,-0.0416259765625,-0.947021484375,-0.150421142578125
1686343774580955000,7.651954833984375,-0.030517578125,-0.9692840576171875,-0.141815185546875
1686343774590974700,7.661974609375,-0.01397705078125,-0.9914703369140625,-0.1357421875
1686343774600995800,7.671995849609375,-0.001190185546875,-1.0099639892578125,-0.1346282958984375
1686343774611015700,7.682015625,0.0091552734375,-1.024139404296875,-0.1324310302734375
1686343774621035800,7.692035888671875,0.0199737548828125,-1.0254058837890625,-0.1323699951171875
1686343774631055600,7.7020556640625,0.0316314697265625,-1.024932861328125,-0.1355133056640625
1686343774641075700,7.71207568359375,0.0329437255859375,-1.0210723876953125,-0.130035400390625
1686343774651095600,7.722095458984375,0.0274200439453125,-1.014129638671875,-0.11865234375
1686343774661115600,7.73211572265625,0.026458740234375,-1.0050506591796875,-0.10296630859375
1686343774671135700,7.7421357421875,0.0168914794921875,-0.996734619140625,-0.0876922607421875
1686343774681155600,7.752155517578125,0.0073394775390625,-0.9902801513671875,-0.0712738037109375
1686343774691175700,7.76217578125,-0.0094146728515625,-0.98114013671875,-0.0635986328125
1686343774701195800,7.77219580078125,-0.0262603759765625,-0.976287841796875,-0.05572509765625
1686343774711216600,7.782216552734375,-0.0317535400390625,-0.978607177734375,-0.05072021484375
1686343774721236700,7.79223681640625,-0.0333099365234375,-0.98516845703125,-0.0493316650390625
1686343774731256800,7.8022568359375,-0.0330657958984375,-0.9954071044921875,-0.05157470703125
1686343774741276700,7.812276611328125,-0.027618408203125,-1.0084686279296875,-0.056915283203125
1686343774751296800,7.822296875,-0.0183868408203125,-1.0222320556640625,-0.0692138671875
1686343774761316400,7.83231640625,-0.009613037109375,-1.0299072265625,-0.0863189697265625
1686343774771336200,7.842336181640625,0.007568359375,-1.0308380126953125,-0.10406494140625
1686343774781356300,7.852356201171875,0.0272064208984375,-1.0325775146484375,-0.114898681640625
1686343774791376400,7.86237646484375,0.0404815673828125,-1.0323944091796875,-0.120697021484375
1686343774801396500,7.872396484375,0.0445098876953125,-1.0274505615234375,-0.13006591796875
1686343774811416300,7.882416259765625,0.0363922119140625,-1.024566650390625,-0.1427764892578125
1686343774821437400,7.8924375,0.0247344970703125,-1.01690673828125,-0.1575469970703125
1686343774831457300,7.902457275390625,0.0155181884765625,-1.0072479248046875,-0.1687469482421875
1686343774841477400,7.912477294921875,0.013092041015625,-0.9999542236328125,-0.1761932373046875
1686343774851497500,7.92249755859375,0.021514892578125,-0.997039794921875,-0.1775665283203125
1686343774861517300,7.932517333984375,0.0344390869140625,-0.994384765625,-0.1740875244140625
1686343774871537400,7.942537353515625,0.0457611083984375,-0.9899749755859375,-0.1723175048828125
1686343774881557500,7.9525576171875,0.0519561767578125,-0.9839935302734375,-0.1755523681640625
1686343774891577600,7.96257763671875,0.0512542724609375,-0.9728851318359375,-0.1857757568359375
1686343774901597200,7.97259716796875,0.0479888916015625,-0.962615966796875,-0.197784423828125
1686343774911617300,7.9826171875,0.0371246337890625,-0.955902099609375,-0.203582763671875
1686343774921637400,7.992637451171875,0.0275115966796875,-0.95233154296875,-0.2039794921875
1686343774931658200,8.002658203125,0.0203704833984375,-0.9537506103515625,-0.1986846923828125
1686343774941678300,8.01267822265625,0.0116729736328125,-0.9586181640625,-0.1886138916015625
1686343774951698200,8.0226982421875,0.004425048828125,-0.96539306640625,-0.1761322021484375
1686343774961718300,8.03271826171875,0.002166748046875,-0.9688720703125,-0.1679229736328125
1686343774971738400,8.04273828125,-0.0048828125,-0.972625732421875,-0.1581268310546875
1686343774981758500,8.052758544921875,-0.0096893310546875,-0.9702301025390625,-0.150054931640625
1686343774991778300,8.0627783203125,-0.0134429931640625,-0.960174560546875,-0.142181396484375
1686343775001798400,8.07279833984375,-0.0222320556640625,-0.9492950439453125,-0.1457977294921875
1686343775011818500,8.082818603515625,-0.0334014892578125,-0.9444732666015625,-0.159912109375
1686343775021838300,8.09283837890625,-0.0366058349609375,-0.9498748779296875,-0.1785888671875
1686343775031859500,8.102859375,-0.0313720703125,-0.963409423828125,-0.191162109375
1686343775041879300,8.11287939453125,-0.02392578125,-0.98486328125,-0.19281005859375
1686343775051899400,8.1228994140625,-0.0190277099609375,-1.0087890625,-0.1816558837890625
1686343775061919500,8.13291943359375,-0.0126800537109375,-1.0283203125,-0.1701812744140625
1686343775071939600,8.142939697265625,-0.008056640625,-1.042022705078125,-0.157684326171875
1686343775081959400,8.15295947265625,-0.0140838623046875,-1.0442352294921875,-0.1453704833984375
1686343775091979300,8.162979248046875,-0.0224456787109375,-1.0416717529296875,-0.1281585693359375
1686343775101999400,8.172999267578126,-0.0361328125,-1.03857421875,-0.1056671142578125
1686343775112019200,8.183019287109374,-0.0367584228515625,-1.0285186767578125,-0.0918121337890625
1686343775122039300,8.193039306640625,-0.02978515625,-1.021881103515625,-0.094329833984375
1686343775132060400,8.203060302734375,-0.0301513671875,-1.0128021240234375,-0.102874755859375
1686343775142080300,8.213080322265625,-0.03643798828125,-0.9982757568359375,-0.1100616455078125
1686343775152100400,8.223100341796876,-0.0332794189453125,-0.98687744140625,-0.1229095458984375
1686343775162120400,8.233120361328124,-0.0289154052734375,-0.9784088134765625,-0.1366729736328125
1686343775172140300,8.243140380859375,-0.021942138671875,-0.9658355712890625,-0.1535186767578125
1686343775182160400,8.253160400390625,-0.00225830078125,-0.9607086181640625,-0.1670379638671875
1686343775192180500,8.263180419921875,0.015411376953125,-0.9617919921875,-0.1792144775390625
1686343775202200300,8.273200439453126,0.025787353515625,-0.9617767333984375,-0.1904296875
1686343775212220400,8.283220458984376,0.0301055908203125,-0.9650726318359375,-0.19512939453125
1686343775222241300,8.2932412109375,0.0335540771484375,-0.9745635986328125,-0.1916046142578125
1686343775232261400,8.303261474609375,0.043212890625,-0.9866790771484375,-0.1842498779296875
1686343775242281500,8.313281494140625,0.06146240234375,-0.99713134765625,-0.172760009765625
1686343775252301600,8.323301513671876,0.0813751220703125,-1.0030364990234375,-0.16070556640625
1686343775262321400,8.3333212890625,0.0948638916015625,-1.0023651123046875,-0.150238037109375
1686343775272341200,8.34334130859375,0.0893402099609375,-0.997314453125,-0.144989013671875
1686343775282361300,8.353361328125,0.087310791015625,-0.9898223876953125,-0.1457977294921875
1686343775292381200,8.363381103515625,0.058135986328125,-0.968536376953125,-0.13995361328125
1686343775302401300,8.3734013671875,0.034393310546875,-0.9459686279296875,-0.1442108154296875
1686343775312421400,8.38342138671875,0.007965087890625,-0.9430999755859375,-0.1587371826171875
1686343775322442200,8.393442138671874,0.0025787353515625,-0.9358062744140625,-0.177947998046875
1686343775332462300,8.40346240234375,-0.0037841796875,-0.95281982421875,-0.1999664306640625
1686343775342482400,8.413482421875,0.001190185546875,-0.9695281982421875,-0.20574951171875
1686343775352502300,8.423502197265625,0.010223388671875,-0.991058349609375,-0.205810546875
1686343775362522400,8.4335224609375,0.0161895751953125,-1.014007568359375,-0.1895294189453125
1686343775372542500,8.44354248046875,0.025421142578125,-1.0360565185546875,-0.159942626953125
1686343775382562300,8.453562255859374,0.0441131591796875,-1.04779052734375,-0.1250152587890625
1686343775392582400,8.46358251953125,0.039337158203125,-1.044189453125,-0.0861968994140625
1686343775402602500,8.4736025390625,0.03265380859375,-1.038421630859375,-0.0714569091796875
1686343775412623400,8.483623291015626,0.033782958984375,-1.0222320556640625,-0.074066162109375
1686343775422643500,8.4936435546875,0.0240325927734375,-1.003692626953125,-0.0890655517578125
1686343775432663600,8.50366357421875,0.010986328125,-0.989288330078125,-0.1092529296875
1686343775442683400,8.513683349609375,-0.0131683349609375,-0.974945068359375,-0.1154937744140625
1686343775452703500,8.523703369140625,-0.0401611328125,-0.9636688232421875,-0.1279754638671875
1686343775462723300,8.533723388671875,-0.056427001953125,-0.9602508544921875,-0.1321563720703125
1686343775472743200,8.5437431640625,-0.0488739013671875,-0.9668121337890625,-0.1345062255859375
1686343775482763300,8.55376318359375,-0.0262603759765625,-0.9764251708984375,-0.1395111083984375
1686343775492783400,8.563783447265624,-0.0279541015625,-0.9906005859375,-0.1394195556640625
1686343775502804200,8.57380419921875,-0.0206298828125,-1.0039520263671875,-0.1273956298828125
1686343775512824300,8.58382421875,0.0001983642578125,-1.0186614990234375,-0.113616943359375
1686343775522844400,8.593844482421876,0.0111541748046875,-1.02520751953125,-0.10662841796875
1686343775532864300,8.6038642578125,0.023529052734375,-1.01861572265625,-0.11273193359375
1686343775542884400,8.61388427734375,0.0422210693359375,-1.012054443359375,-0.1246490478515625
1686343775552904400,8.623904541015625,0.0342254638671875,-1.00634765625,-0.131103515625
1686343775562924300,8.63392431640625,0.028106689453125,-0.996795654296875,-0.13653564453125
1686343775572944400,8.6439443359375,0.0218658447265625,-0.9906768798828125,-0.14984130859375
1686343775582964500,8.653964599609376,0.0126190185546875,-0.9873504638671875,-0.1658782958984375
1686343775592985300,8.6639853515625,0.0264892578125,-0.989593505859375,-0.1668701171875
1686343775603005400,8.67400537109375,0.04119873046875,-0.9871978759765625,-0.1628265380859375
1686343775613025500,8.684025634765625,0.0467681884765625,-0.98388671875,-0.1725311279296875
1686343775623045400,8.69404541015625,0.058441162109375,-0.9847259521484375,-0.178009033203125
1686343775633065500,8.7040654296875,0.08355712890625,-0.99371337890625,-0.1787872314453125
1686343775643085600,8.71408544921875,0.0486602783203125,-0.98931884765625,-0.15972900390625
1686343775653105200,8.724105224609374,0.050079345703125,-0.9865875244140625,-0.153106689453125
1686343775663125200,8.734125244140625,0.047149658203125,-0.983367919921875,-0.15423583984375
1686343775673146400,8.744146484375,0.0429534912109375,-0.981658935546875,-0.15301513671875
1686343775683166200,8.754166259765626,0.0552825927734375,-0.98297119140625,-0.1501617431640625
1686343775693186300,8.764186279296876,0.0556640625,-0.9832305908203125,-0.14691162109375
1686343775703206400,8.774206298828124,0.0497894287109375,-0.9791107177734375,-0.1416168212890625
1686343775713226200,8.784226318359375,0.0489044189453125,-0.9712371826171875,-0.14263916015625
1686343775723246300,8.794246337890625,0.051605224609375,-0.9649810791015625,-0.1419677734375
1686343775733266400,8.804266357421875,0.03973388671875,-0.960784912109375,-0.1406402587890625
1686343775743286300,8.814286376953126,0.0212860107421875,-0.9553680419921875,-0.14306640625
1686343775753307400,8.824307373046874,0.009033203125,-0.9560394287109375,-0.14691162109375
1686343775763327500,8.834327392578125,0.0191192626953125,-0.9652099609375,-0.1524200439453125
1686343775773347300,8.844347412109375,0.05267333984375,-0.9799957275390625,-0.1580047607421875
1686343775783367400,8.854367431640625,0.0669708251953125,-0.9970703125,-0.16180419921875
1686343775793387500,8.864387451171876,0.045562744140625,-1.0122528076171875,-0.158203125
1686343775803407400,8.874407470703124,0.048187255859375,-1.0179290771484375,-0.140045166015625
1686343775813427500,8.884427490234375,0.033447265625,-1.0258636474609375,-0.12725830078125
1686343775823447600,8.894447509765625,0.009613037109375,-1.0262451171875,-0.1217041015625
1686343775833468400,8.904468505859375,0.021453857421875,-1.01983642578125,-0.118011474609375
1686343775843488500,8.914488525390626,0.0307769775390625,-1.016693115234375,-0.11639404296875
1686343775853508400,8.92450830078125,0.025390625,-1.00738525390625,-0.11541748046875
1686343775863528400,8.934528564453124,0.02410888671875,-0.993743896484375,-0.118896484375
1686343775873548500,8.944548583984375,0.025543212890625,-0.9862518310546875,-0.1260986328125
1686343775883568600,8.954568603515625,0.0231781005859375,-0.98175048828125,-0.129974365234375
1686343775893588500,8.96458837890625,0.022674560546875,-0.9770050048828125,-0.1336669921875
1686343775903608600,8.974608642578126,0.0222320556640625,-0.97442626953125,-0.137359619140625
1686343775913629400,8.98462939453125,0.015777587890625,-0.9747161865234375,-0.1427764892578125
1686343775923649500,8.9946494140625,0.0155792236328125,-0.973175048828125,-0.14923095703125
1686343775933669600,9.004669677734375,0.0246124267578125,-0.9735565185546875,-0.1489105224609375
1686343775943689500,9.014689453125,0.0355682373046875,-0.975677490234375,-0.145416259765625
1686343775953709300,9.024709228515626,0.036895751953125,-0.9734649658203125,-0.14190673828125
1686343775963729400,9.0347294921875,0.0265655517578125,-0.9702606201171875,-0.1394195556640625
1686343775973749500,9.04474951171875,0.0190277099609375,-0.966064453125,-0.1423492431640625
1686343775983769300,9.054769287109375,0.0160064697265625,-0.9636993408203125,-0.147064208984375
1686343775993789400,9.06478955078125,0.016937255859375,-0.966522216796875,-0.153656005859375
1686343776003810300,9.074810302734376,0.023101806640625,-0.9756622314453125,-0.15679931640625
1686343776013830400,9.084830322265624,0.0234527587890625,-0.9857025146484375,-0.158782958984375
1686343776023850500,9.0948505859375,0.0297088623046875,-0.991241455078125,-0.158477783203125
1686343776033870300,9.104870361328125,0.0377044677734375,-0.993194580078125,-0.1556243896484375
1686343776043890400,9.114890380859375,0.0379486083984375,-0.998260498046875,-0.1531829833984375
1686343776053910500,9.12491064453125,0.0400238037109375,-0.99786376953125,-0.151153564453125
1686343776063930600,9.1349306640625,0.04840087890625,-0.9910888671875,-0.150054931640625
1686343776073951500,9.144951416015624,0.0508575439453125,-0.9877777099609375,-0.148681640625
1686343776083971600,9.1549716796875,0.0504302978515625,-0.9851837158203125,-0.1464996337890625
1686343776093991400,9.164991455078125,0.046417236328125,-0.9800262451171875,-0.140411376953125
1686343776104011500,9.175011474609375,0.031768798828125,-0.978363037109375,-0.1399993896484375
1686343776114031600,9.185031494140626,0.017425537109375,-0.97747802734375,-0.1436004638671875
1686343776124051500,9.195051513671874,0.0092315673828125,-0.9775848388671875,-0.1497039794921875
1686343776134071300,9.2050712890625,0.0088043212890625,-0.9826202392578125,-0.1549072265625
1686343776144092700,9.2150927734375,0.0136260986328125,-0.9942779541015625,-0.1542510986328125
1686343776154112300,9.2251123046875,0.0158233642578125,-1.004730224609375,-0.15087890625
1686343776164132400,9.23513232421875,0.018829345703125,-1.01007080078125,-0.14471435546875
1686343776174152400,9.24515234375,0.016448974609375,-1.01470947265625,-0.1394195556640625
1686343776184172300,9.25517236328125,0.012939453125,-1.0155487060546875,-0.136474609375
1686343776194192400,9.2651923828125,0.0087127685546875,-1.010833740234375,-0.133453369140625
1686343776204212500,9.27521240234375,0.00274658203125,-1.0059814453125,-0.134246826171875
1686343776214232300,9.285232421875,-0.003814697265625,-1.00244140625,-0.1351318359375
1686343776224253400,9.29525341796875,-0.00933837890625,-0.99981689453125,-0.1310272216796875
1686343776234273500,9.3052734375,-0.0161895751953125,-0.999847412109375,-0.1253662109375
1686343776244293400,9.31529345703125,-0.028472900390625,-1.000640869140625,-0.1249542236328125
1686343776254313500,9.3253134765625,-0.03863525390625,-1.00335693359375,-0.123626708984375
1686343776264333600,9.33533349609375,-0.043426513671875,-1.010711669921875,-0.12255859375
1686343776274353400,9.345353515625,-0.04925537109375,-1.0216827392578125,-0.121124267578125
1686343776284373500,9.35537353515625,-0.0581817626953125,-1.0328369140625,-0.11962890625
1686343776294393600,9.3653935546875,-0.063446044921875,-1.039825439453125,-0.1224212646484375
1686343776304414500,9.37541455078125,-0.063232421875,-1.0443267822265625,-0.1239166259765625
1686343776314434600,9.3854345703125,-0.0602264404296875,-1.051300048828125,-0.124176025390625
1686343776324454700,9.39545458984375,-0.0509033203125,-1.0478668212890625,-0.12579345703125
1686343776334474500,9.405474609375,-0.0413055419921875,-1.037353515625,-0.1280670166015625
1686343776344494300,9.415494384765625,-0.040618896484375,-1.0261688232421875,-0.1268768310546875
1686343776354514400,9.425514404296875,-0.0399932861328125,-1.0129852294921875,-0.1265106201171875
1686343776364534300,9.4355341796875,-0.041168212890625,-0.992095947265625,-0.1238555908203125
1686343776374555400,9.445555419921876,-0.0482940673828125,-0.9750213623046875,-0.12060546875
1686343776384575500,9.455575439453124,-0.0571746826171875,-0.9598541259765625,-0.1169586181640625
1686343776394595300,9.46559521484375,-0.058837890625,-0.949371337890625,-0.1190643310546875
1686343776404615400,9.475615478515625,-0.06304931640625,-0.9411773681640625,-0.124114990234375
1686343776414635500,9.485635498046875,-0.0610809326171875,-0.93896484375,-0.1317901611328125
1686343776424655400,9.4956552734375,-0.0542755126953125,-0.9430084228515625,-0.142181396484375
1686343776434675500,9.505675537109376,-0.049560546875,-0.952789306640625,-0.154815673828125
1686343776444696300,9.5156962890625,-0.0457611083984375,-0.9655914306640625,-0.1669921875
1686343776454716400,9.52571630859375,-0.0418243408203125,-0.9826812744140625,-0.1768951416015625
1686343776464736500,9.535736572265625,-0.0402069091796875,-1.0014190673828125,-0.1810150146484375
1686343776474756400,9.54575634765625,-0.039093017578125,-1.0183258056640625,-0.1773681640625
1686343776484776400,9.5557763671875,-0.0368804931640625,-1.0313568115234375,-0.1662445068359375
1686343776494796500,9.565796630859374,-0.02960205078125,-1.0413360595703125,-0.154998779296875
1686343776504816600,9.575816650390625,-0.0193328857421875,-1.043243408203125,-0.1466522216796875
1686343776514837500,9.58583740234375,-0.0089111328125,-1.03411865234375,-0.1391448974609375
1686343776524857600,9.595857666015625,-0.00213623046875,-1.0167083740234375,-0.1365966796875
1686343776534877400,9.60587744140625,0.0027618408203125,-0.9951629638671875,-0.1374359130859375
1686343776544897500,9.6158974609375,0.007049560546875,-0.97265625,-0.1417083740234375
1686343776554917400,9.62591748046875,0.008514404296875,-0.953460693359375,-0.14764404296875
1686343776564937500,9.6359375,0.0103912353515625,-0.94195556640625,-0.150970458984375
1686343776574957300,9.645957275390625,0.01458740234375,-0.93975830078125,-0.1471710205078125
1686343776584978400,9.655978515625,0.0238494873046875,-0.9450531005859375,-0.1420745849609375
1686343776594998300,9.665998291015624,0.034271240234375,-0.95556640625,-0.1378326416015625
1686343776605018400,9.676018310546874,0.0381317138671875,-0.969146728515625,-0.1336822509765625
1686343776615038500,9.68603857421875,0.038177490234375,-0.982269287109375,-0.1278228759765625
1686343776625058300,9.696058349609375,0.038604736328125,-0.9946136474609375,-0.1196441650390625
1686343776635078400,9.706078369140625,0.0409088134765625,-1.0023345947265625,-0.1144256591796875
1686343776645098500,9.716098388671876,0.043212890625,-1.006591796875,-0.1102752685546875
1686343776655119400,9.726119384765624,0.043182373046875,-1.0107421875,-0.1060943603515625
1686343776665139500,9.736139404296875,0.0384521484375,-1.010589599609375,-0.1023101806640625
1686343776675159600,9.74615966796875,0.023193359375,-1.00640869140625,-0.101806640625
1686343776685179400,9.756179443359375,0.00811767578125,-1.002197265625,-0.1067047119140625
1686343776695199500,9.766199462890626,-0.001678466796875,-0.9962310791015625,-0.1161956787109375
1686343776705219600,9.776219482421874,-0.006683349609375,-0.9937896728515625,-0.1243743896484375
1686343776715239400,9.786239501953125,-0.0057220458984375,-0.9932861328125,-0.1285552978515625
1686343776725260500,9.796260498046875,-0.000640869140625,-0.9974212646484375,-0.1292572021484375
1686343776735280600,9.80628076171875,0.0029754638671875,-1.0010833740234375,-0.127288818359375
1686343776745300500,9.816300537109376,0.00396728515625,-1.00408935546875,-0.119049072265625
1686343776755320600,9.826320556640624,0.00384521484375,-1.00762939453125,-0.1104278564453125
1686343776765341000,9.8363408203125,-0.00091552734375,-1.008056640625,-0.1043243408203125
1686343776775361000,9.846361083984375,-0.010528564453125,-1.0085906982421875,-0.1026763916015625
1686343776785381000,9.856381103515625,-0.01873779296875,-1.006988525390625,-0.1058349609375
1686343776795402000,9.866402099609376,-0.0254974365234375,-1.005035400390625,-0.112060546875
1686343776805422000,9.876422119140624,-0.0292816162109375,-1.0023040771484375,-0.119384765625
1686343776815442200,9.886442138671875,-0.0285797119140625,-0.9994049072265625,-0.12811279296875
1686343776825462000,9.8964619140625,-0.0302734375,-0.994842529296875,-0.138519287109375
1686343776835482000,9.906482177734375,-0.0312652587890625,-0.9905242919921875,-0.14373779296875
1686343776845502200,9.916502197265626,-0.0351715087890625,-0.9910430908203125,-0.13983154296875
1686343776855522000,9.92652197265625,-0.035369873046875,-0.9917449951171875,-0.1353912353515625
1686343776865543200,9.936543212890625,-0.0321502685546875,-0.996734619140625,-0.1319580078125
1686343776875563300,9.946563232421875,-0.0266571044921875,-0.999786376953125,-0.1302947998046875
1686343776885583000,9.9565830078125,-0.0204315185546875,-0.998565673828125,-0.132354736328125
1686343776895603200,9.966603271484376,-0.0184783935546875,-0.996673583984375,-0.132843017578125
1686343776905623000,9.976623046875,-0.021087646484375,-0.991302490234375,-0.1331634521484375
1686343776915643000,9.986642822265624,-0.02056884765625,-0.986785888671875,-0.136444091796875
1686343776925663000,9.9966630859375,-0.020782470703125,-0.9818572998046875,-0.1384429931640625
1686343776935683800,10.006683837890625,-0.02593994140625,-0.9779510498046875,-0.137969970703125
1686343776945704000,10.016703857421875,-0.0305938720703125,-0.9787750244140625,-0.1379852294921875
1686343776955724000,10.02672412109375,-0.0319366455078125,-0.9841156005859375,-0.1372222900390625
1686343776965744000,10.036744140625,-0.0286407470703125,-0.9914703369140625,-0.135009765625
1686343776975764000,10.046763916015625,-0.0263824462890625,-1.001678466796875,-0.13092041015625
1686343776985784000,10.0567841796875,-0.0252685546875,-1.00830078125,-0.12451171875
1686343776995805000,10.066804931640625,-0.0251312255859375,-1.01446533203125,-0.1169281005859375
1686343777005825000,10.076824951171876,-0.0237579345703125,-1.0145721435546875,-0.1112213134765625
1686343777015845000,10.08684521484375,-0.0190277099609375,-1.009552001953125,-0.1096343994140625
1686343777025865000,10.096864990234375,-0.011138916015625,-1.002655029296875,-0.11407470703125
1686343777035885000,10.106885009765625,-0.002349853515625,-0.9946441650390625,-0.1181793212890625
1686343777045905200,10.1169052734375,0.0027313232421875,-0.98895263671875,-0.1223602294921875
1686343777055925200,10.12692529296875,0.008636474609375,-0.987762451171875,-0.1241607666015625
1686343777065946000,10.136946044921874,0.012939453125,-0.9889984130859375,-0.126708984375
1686343777075966200,10.14696630859375,0.01483154296875,-0.98992919921875,-0.12933349609375
1686343777085986000,10.156986083984375,0.014862060546875,-0.9915771484375,-0.12799072265625
1686343777096006100,10.167006103515625,0.0171051025390625,-0.9909820556640625,-0.1288299560546875
1686343777106026200,10.177026123046875,0.0170440673828125,-0.9892120361328125,-0.13037109375
1686343777116046000,10.187046142578126,0.0167236328125,-0.9874420166015625,-0.134429931640625
1686343777126066000,10.19706591796875,0.01434326171875,-0.98486328125,-0.14117431640625
1686343777136087300,10.20708740234375,0.012664794921875,-0.9852447509765625,-0.142669677734375
1686343777146107100,10.217107177734375,0.0124359130859375,-0.9877166748046875,-0.1425933837890625
1686343777156127000,10.227126953125,0.009796142578125,-0.991241455078125,-0.138580322265625
1686343777166147000,10.23714697265625,0.0015106201171875,-0.99505615234375,-0.1360015869140625
1686343777176167000,10.2471669921875,-0.0088043212890625,-0.99664306640625,-0.1339263916015625
1686343777186187000,10.25718701171875,-0.0155181884765625,-0.997222900390625,-0.1338653564453125
1686343777196208000,10.2672080078125,-0.0225372314453125,-0.9952239990234375,-0.1388092041015625
1686343777206228000,10.27722802734375,-0.031646728515625,-0.9896697998046875,-0.14410400390625
1686343777216248000,10.287248046875,-0.028778076171875,-0.9892730712890625,-0.148834228515625
1686343777226268200,10.29726806640625,-0.020111083984375,-0.985076904296875,-0.156036376953125
1686343777236288000,10.3072880859375,-0.007537841796875,-0.985076904296875,-0.15948486328125
1686343777246308000,10.31730810546875,0.0042572021484375,-0.98663330078125,-0.1552276611328125
1686343777256328200,10.327328125,0.018341064453125,-0.9885711669921875,-0.145538330078125
1686343777266349000,10.33734912109375,0.022064208984375,-0.9851531982421875,-0.136871337890625
1686343777276369200,10.347369140625,0.0207061767578125,-0.9792938232421875,-0.134674072265625
1686343777286389000,10.357388916015625,0.0140533447265625,-0.97467041015625,-0.134490966796875
1686343777296409000,10.3674091796875,0.008453369140625,-0.9715423583984375,-0.1369476318359375
1686343777306429200,10.37742919921875,0.0000457763671875,-0.969970703125,-0.1390228271484375
1686343777316449300,10.38744921875,-0.0096893310546875,-0.9770050048828125,-0.1383514404296875
1686343777326470100,10.39747021484375,-0.019500732421875,-0.9892730712890625,-0.13397216796875
1686343777336490200,10.407490234375,-0.02178955078125,-1.0027618408203125,-0.1286163330078125
1686343777346510000,10.417510009765625,-0.0189208984375,-1.0190887451171875,-0.119537353515625
1686343777356530200,10.4275302734375,-0.014251708984375,-1.0283050537109375,-0.111480712890625
1686343777366550000,10.437550048828125,-0.007720947265625,-1.0298004150390625,-0.1063079833984375
1686343777376570000,10.447570068359376,-0.003021240234375,-1.0271148681640625,-0.1029052734375
1686343777386590000,10.45758984375,-0.003662109375,-1.0159454345703125,-0.1038665771484375
1686343777396611000,10.467611083984375,-0.008819580078125,-1.0035400390625,-0.105499267578125
1686343777406631000,10.477630859375,-0.0167236328125,-0.996917724609375,-0.1096038818359375
1686343777416651000,10.487651123046875,-0.02227783203125,-0.9909515380859375,-0.1177520751953125
1686343777426671000,10.497671142578126,-0.022125244140625,-0.9927520751953125,-0.12744140625
1686343777436691000,10.50769091796875,-0.0210113525390625,-1.0014801025390625,-0.13372802734375
1686343777446711000,10.5177109375,-0.0160675048828125,-1.0050048828125,-0.1294097900390625
1686343777456732200,10.527732177734375,-0.0083770751953125,-1.0073089599609375,-0.122650146484375
1686343777466752000,10.537751953125,-0.0062408447265625,-1.0055389404296875,-0.12530517578125
1686343777476772000,10.547772216796876,-0.00439453125,-0.996673583984375,-0.13055419921875
1686343777486792200,10.557792236328124,-0.005157470703125,-0.9899749755859375,-0.13165283203125
1686343777496812000,10.56781201171875,-0.0120086669921875,-0.986785888671875,-0.1291351318359375
1686343777506832100,10.57783203125,-0.020477294921875,-0.987640380859375,-0.1310882568359375
1686343777516853000,10.58785302734375,-0.0246124267578125,-0.9865570068359375,-0.133453369140625
1686343777526873000,10.597873046875,-0.0218963623046875,-0.987030029296875,-0.1378173828125
1686343777536893200,10.60789306640625,-0.020904541015625,-0.990234375,-0.1385040283203125
1686343777546913000,10.6179130859375,-0.0231170654296875,-0.9962615966796875,-0.1363372802734375
1686343777556933000,10.62793310546875,-0.027374267578125,-0.9990386962890625,-0.1331634521484375
1686343777566953200,10.637953125,-0.032623291015625,-0.9994659423828125,-0.1329193115234375
1686343777576973000,10.64797314453125,-0.0378265380859375,-0.99652099609375,-0.1391754150390625
1686343777586994200,10.657994140625,-0.03631591796875,-0.9924163818359375,-0.148651123046875
1686343777597014300,10.66801416015625,-0.02703857421875,-0.991302490234375,-0.1589813232421875
1686343777607033900,10.678033935546875,-0.0158538818359375,-0.9936676025390625,-0.160400390625
1686343777617054000,10.688053955078125,-0.0060272216796875,-0.99755859375,-0.15570068359375
1686343777627074000,10.698073974609375,0.0026092529296875,-0.998199462890625,-0.1482086181640625
1686343777637094100,10.70809423828125,0.0144805908203125,-0.996429443359375,-0.1427459716796875
1686343777647115000,10.718114990234374,0.02386474609375,-0.992401123046875,-0.141265869140625
1686343777657135000,10.728135009765625,0.0245819091796875,-0.986083984375,-0.143310546875
1686343777667155000,10.738155029296875,0.02178955078125,-0.979644775390625,-0.14691162109375
1686343777677175000,10.748175048828125,0.02056884765625,-0.975433349609375,-0.1492919921875
1686343777687195100,10.758195068359376,0.0175018310546875,-0.9755096435546875,-0.15325927734375
1686343777697215000,10.768215087890624,0.019500732421875,-0.9764404296875,-0.1521453857421875
1686343777707236000,10.778236083984375,0.0216064453125,-0.97857666015625,-0.1457061767578125
1686343777717256200,10.788256103515625,0.019989013671875,-0.9801177978515625,-0.1396942138671875
1686343777727276000,10.798276123046875,0.0136260986328125,-0.98114013671875,-0.1347808837890625
1686343777737296100,10.808296142578126,0.005950927734375,-0.9800262451171875,-0.132354736328125
1686343777747316200,10.818316162109374,-0.0020294189453125,-0.9780731201171875,-0.1341552734375
1686343777757336000,10.828336181640625,-0.00506591796875,-0.977935791015625,-0.136566162109375
1686343777767356700,10.838356689453125,-0.0044708251953125,-0.98046875,-0.1387176513671875
1686343777777376800,10.848376708984375,-0.00311279296875,-0.9842529296875,-0.141815185546875
1686343777787396600,10.858396728515626,-0.0033416748046875,-0.9875335693359375,-0.1436767578125
1686343777797416700,10.868416748046876,-0.004852294921875,-0.991455078125,-0.13934326171875
1686343777807436800,10.878436767578124,-0.0049896240234375,-0.9965362548828125,-0.1301116943359375
1686343777817456600,10.88845654296875,-0.0041961669921875,-1.0009918212890625,-0.1222076416015625
1686343777827477800,10.898477783203125,0.001068115234375,-1.0037384033203125,-0.11749267578125
1686343777837497600,10.90849755859375,0.007965087890625,-1.0038604736328125,-0.116546630859375
1686343777847517700,10.918517578125,0.0117950439453125,-1.0023193359375,-0.1136474609375
1686343777857537800,10.928537841796874,0.015716552734375,-1.00274658203125,-0.107940673828125
1686343777867558000,10.938557861328125,0.019012451171875,-1.0027313232421875,-0.1037750244140625
1686343777877577700,10.94857763671875,0.027740478515625,-1.0046234130859375,-0.1015777587890625
1686343777887598800,10.958598876953126,0.033966064453125,-1.0049285888671875,-0.1011810302734375
1686343777897618700,10.96861865234375,0.0330657958984375,-1.002960205078125,-0.1021728515625
1686343777907638800,10.978638671875,0.030242919921875,-1.00054931640625,-0.10089111328125
1686343777917659000,10.988658935546875,0.0267486572265625,-1.001312255859375,-0.0966949462890625
1686343777927678500,10.998678466796875,0.0216522216796875,-1.0046234130859375,-0.09246826171875
1686343777937698600,11.008698486328125,0.0092315673828125,-1.0050506591796875,-0.0948638916015625
1686343777947718700,11.01871875,-0.005950927734375,-1.0023956298828125,-0.098480224609375
1686343777957739500,11.028739501953124,-0.023345947265625,-0.9996490478515625,-0.095184326171875
1686343777967759600,11.038759521484375,-0.0285491943359375,-1.0000152587890625,-0.096038818359375
1686343777977779700,11.04877978515625,-0.019195556640625,-1.005706787109375,-0.1027984619140625
1686343777987799600,11.058799560546875,-0.019134521484375,-1.0034942626953125,-0.102569580078125
1686343777997819600,11.068819580078125,-0.0188140869140625,-1.0002288818359375,-0.1198883056640625
1686343778007839700,11.07883984375,-0.0033416748046875,-1.0016326904296875,-0.1385040283203125
1686343778017860600,11.088860595703125,0.0059661865234375,-0.9998016357421875,-0.1476898193359375
1686343778027880700,11.098880615234375,-0.0015716552734375,-0.9965362548828125,-0.151458740234375
1686343778037900800,11.10890087890625,-0.0052337646484375,-0.9965972900390625,-0.1553955078125
1686343778047920600,11.118920654296875,-0.004150390625,-0.995025634765625,-0.1552276611328125
1686343778057940700,11.128940673828126,-0.003082275390625,-0.9917449951171875,-0.151031494140625
1686343778067960800,11.1389609375,0.0094757080078125,-0.99298095703125,-0.1613922119140625
1686343778077981700,11.148981689453125,0.0286102294921875,-0.990264892578125,-0.1761016845703125
1686343778088001800,11.159001708984375,0.0384063720703125,-0.9830322265625,-0.1800994873046875
1686343778098021600,11.169021728515625,0.035491943359375,-0.9803314208984375,-0.190887451171875
1686343778108041700,11.179041748046876,0.0252685546875,-0.9726409912109375,-0.194488525390625
1686343778118061800,11.189061767578124,0.0164947509765625,-0.970550537109375,-0.1983795166015625
1686343778128082700,11.199082763671875,0.015380859375,-0.971405029296875,-0.1935272216796875
1686343778138102800,11.209102783203125,0.0210418701171875,-0.9731292724609375,-0.1826171875
1686343778148123000,11.219122802734375,0.0191497802734375,-0.978240966796875,-0.1675872802734375
1686343778158142700,11.229142822265626,0.0122528076171875,-0.982513427734375,-0.1503448486328125
1686343778168162600,11.23916259765625,0.0002593994140625,-0.988494873046875,-0.1362762451171875
1686343778178182700,11.2491826171875,0.0445556640625,-1.0010223388671875,-0.1358642578125
1686343778188203800,11.259203857421875,0.080047607421875,-1.00726318359375,-0.145782470703125
1686343778198223600,11.2692236328125,0.07330322265625,-0.995880126953125,-0.15374755859375
1686343778208243700,11.27924365234375,0.058746337890625,-0.9853057861328125,-0.157562255859375
1686343778218263600,11.289263671875,0.0165863037109375,-0.9731597900390625,-0.1627349853515625
1686343778228283600,11.29928369140625,-0.0305938720703125,-0.9645538330078125,-0.170166015625
1686343778238303700,11.3093037109375,-0.0343170166015625,-0.9601593017578125,-0.1622467041015625
1686343778248324600,11.31932470703125,0.0078887939453125,-0.9626007080078125,-0.1503448486328125
1686343778258344700,11.3293447265625,0.0107574462890625,-0.9731597900390625,-0.142852783203125
1686343778268364500,11.339364501953124,-0.0171661376953125,-0.9894866943359375,-0.128326416015625
1686343778278384600,11.349384521484374,-0.0052337646484375,-0.982666015625,-0.10882568359375
1686343778288404700,11.35940478515625,0.036041259765625,-0.9958038330078125,-0.10516357421875
1686343778298424800,11.3694248046875,0.0553131103515625,-1.015716552734375,-0.1304168701171875
1686343778308445700,11.37944580078125,0.056884765625,-1.0164794921875,-0.1441802978515625
1686343778318465800,11.3894658203125,0.063720703125,-1.0179901123046875,-0.133087158203125
1686343778328485600,11.399485595703124,0.0517730712890625,-1.0213775634765625,-0.1102447509765625
1686343778338505700,11.409505615234375,-0.007537841796875,-1.019134521484375,-0.095428466796875
1686343778348525800,11.41952587890625,-0.0294952392578125,-1.0151519775390625,-0.110198974609375
1686343778358546700,11.429546630859376,-0.007232666015625,-1.00408935546875,-0.1488494873046875
1686343778368566800,11.43956689453125,0.032135009765625,-0.99078369140625,-0.1895751953125
1686343778378587000,11.4495869140625,0.0646209716796875,-0.985565185546875,-0.2001190185546875
1686343778388606700,11.459606689453125,0.130828857421875,-0.9828033447265625,-0.2054443359375
1686343778398626800,11.469626708984375,0.1514739990234375,-0.98638916015625,-0.196502685546875
1686343778408647000,11.47964697265625,0.061187744140625,-0.984161376953125,-0.1557769775390625
1686343778418667800,11.489667724609374,0.0305023193359375,-0.9837646484375,-0.1385955810546875
1686343778428688000,11.49968798828125,0.008941650390625,-0.972869873046875,-0.134185791015625
1686343778438707700,11.509707763671875,-0.024383544921875,-0.9583587646484375,-0.1493377685546875
1686343778448727600,11.5197275390625,-0.032684326171875,-0.9493560791015625,-0.160858154296875
1686343778458747600,11.52974755859375,-0.024200439453125,-0.9487762451171875,-0.1672515869140625
1686343778468767700,11.539767822265626,-0.0193328857421875,-0.9577789306640625,-0.166015625
1686343778478788600,11.54978857421875,-0.0108489990234375,-0.9704742431640625,-0.16357421875
1686343778488808700,11.55980859375,0.00238037109375,-0.9770965576171875,-0.1639251708984375
1686343778498828500,11.56982861328125,0.0261383056640625,-0.9834136962890625,-0.1661529541015625
1686343778508848600,11.5798486328125,0.0460662841796875,-0.99542236328125,-0.1622314453125
1686343778518868700,11.58986865234375,0.0659332275390625,-1.0047760009765625,-0.1547698974609375
1686343778528889600,11.5998896484375,0.067352294921875,-1.0139923095703125,-0.151153564453125
1686343778538909700,11.60990966796875,0.0448760986328125,-1.0186920166015625,-0.145965576171875
1686343778548929800,11.6199296875,0.0428009033203125,-1.016693115234375,-0.1441192626953125
1686343778558949600,11.62994970703125,0.0348358154296875,-1.0142364501953125,-0.1479949951171875
1686343778568969700,11.6399697265625,0.016326904296875,-1.012359619140625,-0.1510467529296875
1686343778578989800,11.64998974609375,0.0023956298828125,-1.009063720703125,-0.146270751953125
1686343778589010700,11.6600107421875,0.0093231201171875,-1.0052337646484375,-0.142791748046875
1686343778599030800,11.67003076171875,0.0266876220703125,-1.0049285888671875,-0.143035888671875
1686343778609050600,11.680050537109375,0.0362548828125,-1.00067138671875,-0.1435089111328125
1686343778619070700,11.69007080078125,0.0345611572265625,-0.9998321533203125,-0.14593505859375
1686343778629090800,11.7000908203125,0.0373687744140625,-0.993011474609375,-0.145538330078125
1686343778639111700,11.710111572265625,0.0348663330078125,-0.9859161376953125,-0.15203857421875
1686343778649131800,11.7201318359375,0.0213775634765625,-0.980743408203125,-0.1655731201171875
1686343778659152000,11.73015185546875,0.0193634033203125,-0.9733123779296875,-0.1746368408203125
1686343778669171700,11.740171630859376,0.022003173828125,-0.9713287353515625,-0.177490234375
1686343778679191600,11.750191650390626,0.0165863037109375,-0.977203369140625,-0.1725921630859375
1686343778689211600,11.760211669921874,0.0107879638671875,-0.9842376708984375,-0.1585540771484375
1686343778699232800,11.770232666015625,0.0085296630859375,-0.9890594482421875,-0.13885498046875
1686343778709252600,11.780252685546875,0.0139312744140625,-0.99285888671875,-0.1234893798828125
1686343778719272700,11.790272705078126,0.0141754150390625,-0.9961090087890625,-0.119720458984375
1686343778729292500,11.80029248046875,0.0118255615234375,-0.9932708740234375,-0.1209869384765625
1686343778739312600,11.810312744140624,0.0102996826171875,-0.991790771484375,-0.12591552734375
1686343778749333500,11.82033349609375,0.01531982421875,-0.985107421875,-0.130828857421875
1686343778759353300,11.830353271484375,0.020751953125,-0.977935791015625,-0.13720703125
1686343778769373400,11.84037353515625,0.0178070068359375,-0.9716644287109375,-0.1414337158203125
1686343778779393500,11.8503935546875,0.0098114013671875,-0.9674530029296875,-0.1496124267578125
1686343778789413400,11.860413330078124,0.00762939453125,-0.96380615234375,-0.1564178466796875
1686343778799433500,11.87043359375,0.0176544189453125,-0.96392822265625,-0.1583251953125
1686343778809454300,11.880454345703125,0.0281982421875,-0.9735565185546875,-0.159210205078125
1686343778819474400,11.890474365234375,0.033843994140625,-0.9881439208984375,-0.1576690673828125
1686343778829494500,11.90049462890625,0.040191650390625,-1.0025177001953125,-0.1508941650390625
1686343778839514400,11.910514404296874,0.0426483154296875,-1.0163726806640625,-0.1401214599609375
1686343778849534500,11.920534423828125,0.0478515625,-1.0264739990234375,-0.1238861083984375
1686343778859555600,11.9305556640625,0.0511932373046875,-1.03155517578125,-0.1137542724609375
1686343778869575400,11.940575439453125,0.043426513671875,-1.031341552734375,-0.1126708984375
1686343778879595500,11.950595458984376,0.026885986328125,-1.02117919921875,-0.116180419921875
1686343778889615600,11.96061572265625,0.0103912353515625,-1.003143310546875,-0.1236572265625
1686343778899635500,11.970635498046875,-0.001190185546875,-0.9862518310546875,-0.1322784423828125
1686343778909656600,11.980656494140625,-0.009368896484375,-0.97540283203125,-0.142669677734375
1686343778919676400,11.990676513671875,-0.015228271484375,-0.968353271484375,-0.1526031494140625
1686343778929696500,12.000696533203126,-0.016265869140625,-0.966339111328125,-0.1573486328125
1686343778939716600,12.010716552734374,-0.01690673828125,-0.97113037109375,-0.1568145751953125
1686343778949736700,12.02073681640625,-0.0165557861328125,-0.981292724609375,-0.156219482421875
1686343778959757600,12.030757568359375,-0.0113677978515625,-0.990936279296875,-0.152740478515625
1686343778969777700,12.040777587890625,-0.0046234130859375,-1.0013580322265625,-0.146881103515625
1686343778979797500,12.050797607421876,-0.006439208984375,-1.009002685546875,-0.1430511474609375
1686343778989817300,12.0608173828125,-0.012359619140625,-1.0121002197265625,-0.1389617919921875
1686343778999837400,12.07083740234375,-0.009552001953125,-1.01385498046875,-0.135467529296875
1686343779009857500,12.080857421875,-0.0049285888671875,-1.0127410888671875,-0.133026123046875
1686343779019878400,12.09087841796875,0.0003662109375,-1.0078582763671875,-0.1332550048828125
1686343779029898500,12.1008984375,0.005157470703125,-1.000579833984375,-0.136138916015625
1686343779039918300,12.11091845703125,0.0083465576171875,-0.9922332763671875,-0.139892578125
1686343779049938400,12.1209384765625,0.010498046875,-0.9840850830078125,-0.1459197998046875
1686343779059958500,12.13095849609375,0.0104827880859375,-0.9792327880859375,-0.14715576171875
1686343779069979400,12.1409794921875,0.0142822265625,-0.9799041748046875,-0.143768310546875
1686343779079999500,12.15099951171875,0.0250244140625,-0.9806671142578125,-0.1407318115234375
1686343779090019600,12.16101953125,0.035247802734375,-0.9839935302734375,-0.1351776123046875
1686343779100039400,12.171039306640624,0.040618896484375,-0.9850006103515625,-0.1299591064453125
1686343779110059500,12.1810595703125,0.0430755615234375,-0.981536865234375,-0.12841796875
1686343779120080400,12.191080322265625,0.0480499267578125,-0.9789886474609375,-0.1302642822265625
1686343779130100500,12.2011005859375,0.051177978515625,-0.9783782958984375,-0.1293487548828125
1686343779140120600,12.21112060546875,0.053924560546875,-0.9804840087890625,-0.125396728515625
1686343779150140400,12.221140380859374,0.0574798583984375,-0.98614501953125,-0.1206207275390625
1686343779160160500,12.231160400390625,0.0637054443359375,-0.9915008544921875,-0.1192474365234375
1686343779170181600,12.241181640625,0.06787109375,-0.9947509765625,-0.1177215576171875
1686343779180201500,12.251201416015626,0.0671844482421875,-0.9991912841796875,-0.1157989501953125
1686343779190221600,12.2612216796875,0.0635833740234375,-0.9996490478515625,-0.1150054931640625
1686343779200241700,12.27124169921875,0.0551605224609375,-0.99737548828125,-0.1170654296875
1686343779210261500,12.281261474609375,0.046234130859375,-0.9996185302734375,-0.11773681640625
1686343779220281600,12.291281494140625,0.042877197265625,-1.000640869140625,-0.117218017578125
1686343779230302500,12.301302490234375,0.0458526611328125,-1.0031280517578125,-0.1162261962890625
1686343779240322600,12.311322509765626,0.048126220703125,-1.0043487548828125,-0.11627197265625
1686343779250342700,12.3213427734375,0.0417938232421875,-1.0020599365234375,-0.11895751953125
1686343779260362500,12.331362548828125,0.04052734375,-0.998016357421875,-0.1242523193359375
1686343779270382300,12.34138232421875,0.037353515625,-0.994720458984375,-0.126312255859375
1686343779280403700,12.35140380859375,0.0295562744140625,-0.990570068359375,-0.1266021728515625
1686343779290423300,12.36142333984375,0.01995849609375,-0.9839935302734375,-0.12310791015625
1686343779300443400,12.371443359375,0.0076904296875,-0.9794464111328125,-0.116119384765625
1686343779310463500,12.38146337890625,-0.0075225830078125,-0.9771270751953125,-0.1080474853515625
1686343779320483300,12.3914833984375,-0.0172576904296875,-0.9783782958984375,-0.1036834716796875
1686343779330504400,12.40150439453125,-0.0221099853515625,-0.9822845458984375,-0.1051483154296875
1686343779340524500,12.411524658203126,-0.0212249755859375,-0.9887847900390625,-0.10943603515625
1686343779350544400,12.42154443359375,-0.0128936767578125,-0.9987945556640625,-0.1120147705078125
1686343779360564500,12.431564453125,-0.0019683837890625,-1.0092010498046875,-0.113983154296875
1686343779370584600,12.44158447265625,0.0085906982421875,-1.01812744140625,-0.11138916015625
1686343779380605400,12.45160546875,0.015533447265625,-1.0236053466796875,-0.1074066162109375
1686343779390625500,12.46162548828125,0.0193634033203125,-1.023773193359375,-0.1042633056640625
1686343779400645400,12.471645263671874,0.01837158203125,-1.0200347900390625,-0.10137939453125
1686343779410665500,12.48166552734375,0.0164794921875,-1.01593017578125,-0.097137451171875
1686343779420685600,12.491685546875,0.01605224609375,-1.009613037109375,-0.0959625244140625
1686343779430706400,12.50170654296875,0.011810302734375,-1.003692626953125,-0.099517822265625
1686343779440726500,12.5117265625,0.0103759765625,-0.998321533203125,-0.1077880859375
1686343779450746600,12.52174658203125,0.009307861328125,-0.99359130859375,-0.117095947265625
1686343779460766500,12.531766357421875,0.0070343017578125,-0.99151611328125,-0.1287384033203125
1686343779470786600,12.54178662109375,0.0080108642578125,-0.988311767578125,-0.139404296875
1686343779480807400,12.551807373046875,0.007354736328125,-0.9860687255859375,-0.1495361328125
1686343779490827500,12.56182763671875,0.0064239501953125,-0.98394775390625,-0.1544952392578125
1686343779500847600,12.57184765625,0.0088958740234375,-0.9817962646484375,-0.155029296875
1686343779510867700,12.58186767578125,0.013336181640625,-0.982696533203125,-0.1521453857421875
1686343779520887600,12.591887451171875,0.01641845703125,-0.9831085205078125,-0.148834228515625
1686343779530907400,12.601907470703125,0.0167388916015625,-0.9860687255859375,-0.14520263671875
1686343779540928500,12.611928466796876,0.0182037353515625,-0.985565185546875,-0.1442413330078125
1686343779550948400,12.6219482421875,0.016204833984375,-0.98321533203125,-0.145416259765625
1686343779560968400,12.631968505859374,0.01116943359375,-0.9840240478515625,-0.1480865478515625
1686343779570988500,12.641988525390625,0.0103759765625,-0.984893798828125,-0.1502838134765625
1686343779581008400,12.65200830078125,0.0114288330078125,-0.9887542724609375,-0.1489715576171875
1686343779591029500,12.662029541015626,0.0136260986328125,-0.993194580078125,-0.145843505859375
1686343779601049300,12.67204931640625,0.0162506103515625,-0.9977569580078125,-0.1431121826171875
1686343779611069400,12.6820693359375,0.017669677734375,-1.000335693359375,-0.137908935546875
1686343779621089500,12.692089599609375,0.017547607421875,-1.00115966796875,-0.1344146728515625
1686343779631109400,12.702109375,0.0134735107421875,-1.0004119873046875,-0.1326904296875
1686343779641130500,12.712130615234376,0.011962890625,-0.9977874755859375,-0.13031005859375
1686343779651150600,12.722150634765624,0.0074462890625,-0.9954681396484375,-0.1295623779296875
1686343779661170400,12.73217041015625,0.004608154296875,-0.995361328125,-0.1278839111328125
1686343779671190500,12.7421904296875,0.004364013671875,-0.9958648681640625,-0.12408447265625
1686343779681210600,12.752210693359375,0.00738525390625,-0.9959716796875,-0.1226654052734375
1686343779691231500,12.7622314453125,0.009979248046875,-0.9954376220703125,-0.1211700439453125
1686343779701251600,12.77225146484375,0.0100860595703125,-0.99468994140625,-0.119903564453125
1686343779711271400,12.782271484375,0.009246826171875,-0.992340087890625,-0.1207275390625
1686343779721291500,12.79229150390625,0.005889892578125,-0.9903564453125,-0.1212310791015625
1686343779731311600,12.8023115234375,0.0035247802734375,-0.9873504638671875,-0.1237640380859375
1686343779741332500,12.81233251953125,0.00579833984375,-0.9860992431640625,-0.1257171630859375
1686343779751352600,12.8223525390625,0.0111846923828125,-0.9875946044921875,-0.12457275390625
1686343779761372700,12.83237255859375,0.01715087890625,-0.99176025390625,-0.1226806640625
1686343779771392500,12.842392578125,0.0206146240234375,-0.9937744140625,-0.121246337890625
1686343779781412600,12.85241259765625,0.0184326171875,-0.9947052001953125,-0.1209564208984375
1686343779791433500,12.86243359375,0.0180816650390625,-0.9936981201171875,-0.1205902099609375
1686343779801453600,12.87245361328125,0.019073486328125,-0.9953460693359375,-0.120697021484375
1686343779811473700,12.8824736328125,0.01971435546875,-0.9917449951171875,-0.1226806640625
1686343779821493500,12.892493408203125,0.0210418701171875,-0.98834228515625,-0.1263580322265625
1686343779831513600,12.902513671875,0.020782470703125,-0.9931182861328125,-0.12554931640625
1686343779841533700,12.91253369140625,0.02264404296875,-0.9968719482421875,-0.119720458984375
1686343779851554600,12.922554443359376,0.036163330078125,-0.996673583984375,-0.1098785400390625
1686343779861574700,12.93257470703125,0.046966552734375,-1.010955810546875,-0.1075439453125
1686343779871594800,12.9425947265625,0.048614501953125,-1.0156097412109375,-0.1102142333984375
1686343779881614600,12.952614501953125,0.043853759765625,-1.010406494140625,-0.117523193359375
1686343779891634400,12.962634521484375,0.041351318359375,-1.0106964111328125,-0.119384765625
1686343779901655600,12.972655517578126,0.03466796875,-1.0078277587890625,-0.1290130615234375
1686343779911675600,12.982675537109374,0.0171051025390625,-0.998291015625,-0.13970947265625
1686343779921695500,12.992695556640625,-0.0070953369140625,-0.987945556640625,-0.149993896484375
1686343779931715600,13.002715576171875,-0.009521484375,-0.9777069091796875,-0.1617584228515625
