time,seconds_elapsed,z,y,x
1686343767127273000,0.19827294921875,0.027566052317619324,-0.03691431089937687,0.03548822361901402
1686343767137292800,0.208292724609375,-0.04161591271907091,-0.030059038177132603,0.02748845932005206
1686343767147313000,0.21831298828125,-0.13362754920125006,-0.03079261314868927,0.029613047975301742
1686343767157333000,0.2283330078125,-0.291319572339952,-0.03804769884347915,0.038962913992255925
1686343767167352800,0.238352783203125,-0.45991702037453647,-0.044593759486079215,0.004901946697384119
1686343767177374000,0.2483740234375,-0.5186145624063909,-0.058248190829157824,-0.06736322517693043
1686343767187393800,0.258393798828125,-0.47148748505041,-0.07072890221774578,-0.0829407335370779
1686343767197414000,0.268413818359375,-0.4427247702941298,-0.12835107010304928,0.02217354790760437
1686343767207434000,0.27843408203125,-0.5296624645128846,-0.2077349879413843,0.20545140704885123
1686343767217454000,0.2884541015625,-0.5482762718290091,-0.2314858658850193,0.11932649051770568
1686343767227474000,0.298473876953125,-0.6301894158840179,-0.1389022747337818,-0.03736220079734921
1686343767237493800,0.30849365234375,-0.8885971909642219,-0.05626432353556156,0.0721514823667705
1686343767247513900,0.318513916015625,-0.9583739070236682,-0.02656885797381401,-0.0541023231960833
1686343767257533700,0.32853369140625,-0.661133420202136,0.04075403519272804,-0.32130612980276346
1686343767267553800,0.3385537109375,-0.42699543237313625,0.06316752705276012,-0.27404461241215466
1686343767277574000,0.348573974609375,-0.21122677557989955,0.06527648203074932,-0.10003610824742354
1686343767287593700,0.35859375,0.1104290444433689,0.04883738840520382,-0.06971022669449448
1686343767297613800,0.36861376953125,0.45724823955669996,0.010682722055912017,-0.10876959593170323
1686343767307634000,0.378634033203125,0.6708119336515664,-0.03311141148507595,-0.11062091375365853
1686343767317654000,0.388654052734375,0.678273793964833,-0.009460486784577369,-0.05729817836163565
1686343767327675000,0.3986748046875,0.6468757622689009,0.07900690121948718,0.002063800662010908
1686343767337695000,0.408695068359375,0.6965548621952533,0.13101064470112322,0.14059241977781056
1686343767347714800,0.41871484375,0.8162725439876317,0.02012859579324722,0.18383184204548597
1686343767357735000,0.42873486328125,0.865924171385169,0.13347849611937998,0.10252543171197176
1686343767367755000,0.438755126953125,1.059812858673185,0.1558516559690237,0.27198492166968063
1686343767377774800,0.44877490234375,1.0210241322040556,0.056935939186811446,0.3041903059594333
1686343767387795000,0.458794921875,0.4957914668321609,0.2182230642080307,0.31459245750829573
1686343767397814800,0.468814697265625,0.3007943799108267,-0.030102292796969413,0.2733013928294182
1686343767407835000,0.4788349609375,-0.03585807984471321,0.04725099599659443,-0.2810192737303674
1686343767417854700,0.488854736328125,-0.2902091268800199,0.021012392890453337,-0.3673353289194405
1686343767427874800,0.498874755859375,-0.11453574910983443,0.06226619429886341,-0.031119525281805543
1686343767437895000,0.50889501953125,-0.013643325427174568,0.27232816388309,0.03854410405829549
1686343767447915800,0.518915771484375,0.0038547757320106027,0.3187526459276676,-0.12068986955909057
1686343767457936000,0.528935791015625,0.18164295369908212,-0.11543138277530669,-0.005550017076265066
1686343767467955700,0.538955810546875,0.2450315761566162,-0.4864981533080339,0.4460967309452593
1686343767477975800,0.548975830078125,0.32484351014867424,-0.4525304172545671,0.41939577102437614
1686343767487996000,0.558995849609375,0.3029116643257439,-0.3157961342096329,-0.02132555505943019
1686343767498016000,0.56901611328125,-0.03587313128337264,-0.2814355994462967,-0.4321533996582031
1686343767508035800,0.579035888671875,-0.4471902252703905,-0.1300719025462866,-0.6009509003095328
1686343767518056000,0.589055908203125,-0.5094716171383857,-0.10386544814407825,-0.5495005529269575
1686343767528076000,0.599075927734375,-0.22935236098766326,-0.20127485201656817,-0.4172638735622167
1686343767538095900,0.609095947265625,-0.035154169359058136,-0.06932137350738048,-0.33790041399002074
1686343767548116000,0.619115966796875,0.0396992654427886,0.11626958716511726,-0.07520312502235174
1686343767558136000,0.629135986328125,0.11856558914780616,0.22175299189984798,0.17979528000578282
1686343767568155600,0.63915576171875,0.16665829666554927,0.22778934945464133,0.2702631941772997
1686343767578177000,0.649177001953125,0.060977908053994175,0.23896014728844164,0.2873996224172413
1686343767588196900,0.65919677734375,-0.11691314576566218,0.22276363024711607,0.28709727846980093
1686343767598216700,0.669216796875,-0.2217950774759054,0.14695114115476607,0.21288477191999552
1686343767608236800,0.67923681640625,-0.18057225572764873,0.03706745563447475,0.13874839934632183
1686343767618257000,0.6892568359375,-0.05224076710790396,-0.05723989056944847,0.07707812511399388
1686343767628276700,0.69927685546875,0.09366700247377156,-0.10962883397638797,0.038390374801307914
1686343767638296800,0.709296875,0.12839286341816186,-0.1554471668213606,0.03643967912495136
1686343767648317000,0.71931689453125,0.07246960840523242,-0.1477472599685192,-0.00841039320975542
1686343767658336800,0.729336669921875,0.020030980637669563,-0.07090835043787956,-0.09457783370837569
1686343767668356900,0.73935693359375,-0.05263312742635608,-0.020889643293619156,-0.1305973877251148
1686343767678377000,0.749376953125,-0.13659224422574043,0.010946341428160667,-0.1358076697193086
1686343767688397000,0.75939697265625,-0.180729345985502,0.025168343526124952,-0.15863865633904933
1686343767698418000,0.76941796875,-0.18772621913552284,0.02603285140097141,-0.14014832927212117
1686343767708438000,0.77943798828125,-0.21612872227728366,0.007493570625782013,-0.1302927056901157
1686343767718457900,0.789457763671875,-0.21404957791566848,-0.013179799568653106,-0.12356295904368161
1686343767728478000,0.79947802734375,-0.19496786082684991,0.01937280898988247,-0.0351275736130774
1686343767738498000,0.809498046875,-0.16627864969819783,0.02091419321298599,0.06471387514534872
1686343767748517600,0.819517578125,-0.1993739868313074,-0.03234802589714527,0.06511135459691286
1686343767758537500,0.829537353515625,-0.2317708203062415,-0.04774316342771053,-0.017509063227905425
1686343767768557600,0.8395576171875,-0.2257322707943618,-0.006151508367061615,-0.06580284399241208
1686343767778577700,0.84957763671875,-0.15065437958687544,-0.018089783442020415,-0.04867269936278462
1686343767788597500,0.859597412109375,-0.04433481628894806,-0.01737549769282341,-0.021762480605393646
1686343767798617600,0.86961767578125,0.03753945706039667,-0.0014005144476890562,0.002822946182952728
1686343767808637400,0.879637451171875,0.08296835219636559,0.01652151121199131,0.04086640952602029
1686343767818658600,0.889658447265625,0.040856472653895616,0.0014776713371276854,0.07554682389348745
1686343767828678700,0.8996787109375,-0.0010449790082871914,-0.045587446698546405,0.0423429118193686
1686343767838698500,0.909698486328125,0.01368161161094904,-0.036322190225124354,0.008787259131553583
1686343767848718300,0.91971826171875,0.015089140321314334,-0.005037994167208671,0.007006951586040667
1686343767858738400,0.929738525390625,0.018382775039225814,0.008165770798921584,0.044569794088602066
1686343767868758500,0.939758544921875,0.006726824036985635,0.023564415460824967,0.0969549381032586
1686343767878778400,0.9497783203125,-0.02134191710576415,0.009305003961920738,0.1068476788252592
1686343767888798500,0.959798583984375,0.00007496493235230446,-0.026603344765305518,0.074091072127223
1686343767898818600,0.969818603515625,0.02092544525936246,-0.04789864625036716,0.047546325681358574
1686343767908838400,0.97983837890625,0.016681816340237854,-0.0361766442745924,0.06651026160940528
1686343767918859500,0.989859619140625,0.018071809393912553,-0.020446575701236723,0.0798643948316574
1686343767928879600,0.999879638671875,0.025537907490879294,-0.023970658174157142,0.041549131093174214
1686343767938899500,1.0098994140625,0.07227686231210828,-0.019921090522408483,-0.0004462847460643388
1686343767948919600,1.01991943359375,0.12769815915226937,-0.011835399222373961,-0.03461012561023235
1686343767958939600,1.029939697265625,0.18050562023222447,0.029755671316385266,-0.014614216285943985
1686343767968959500,1.03995947265625,0.2172159329921007,0.020886136162281035,0.011463204909116028
1686343767978979600,1.0499794921875,0.2337427049010992,0.04018003469705581,0.014960545505583286
1686343767988999700,1.059999755859375,0.2528935417033732,0.036873978888988496,0.03028232553899288
1686343767999019300,1.070019287109375,0.27943653458356854,-0.010679799446463585,0.019714169773459432
1686343768009039400,1.080039306640625,0.245478589271754,-0.032009587723016736,-0.0032576869071068355
1686343768019059500,1.0900595703125,0.1648269895851612,-0.03636310675740242,-0.034213673638552426
1686343768029080300,1.100080322265625,0.10372282480299472,-0.03934650648236274,-0.06997092345729469
1686343768039100400,1.110100341796875,0.16155322861149907,-0.014480945295095443,-0.09312003611549735
1686343768049120500,1.12012060546875,0.25171616848707196,0.017675941944122312,-0.06342208633571862
1686343768059140400,1.130140380859375,0.2803084951125085,0.030502105769515037,-0.012298927364184056
1686343768069160400,1.140160400390625,0.27513620704114433,0.04433423176705837,0.005774199487268925
1686343768079180500,1.1501806640625,0.25019509639963505,0.022149287965893744,0.04409954166177194
1686343768089200400,1.160200439453125,0.13660145044550298,-0.007712181812524795,0.07069601829487364
1686343768099220500,1.170220458984375,0.014656886383891106,-0.04177227232456207,0.023903292026370763
1686343768109240600,1.180240478515625,-0.06718026982545852,-0.04761982930898666,-0.1285720193773508
1686343768119260700,1.1902607421875,-0.15017930942103266,-0.06181026722490787,-0.17493614953681824
1686343768129281500,1.200281494140625,-0.16933058461472392,-0.1123895308613777,-0.0156368327653734
1686343768139301600,1.210301513671875,-0.17640753726363181,-0.08462006492614746,-0.024920652375370264
1686343768149321500,1.220321533203125,-0.15260814400315284,-0.04546060544848442,-0.015517156475037335
1686343768159341600,1.230341552734375,-0.1288373923152685,-0.05315817421376705,0.009379822763800621
1686343768169361700,1.240361572265625,-0.11349486175477504,-0.07898995008468628,0.031097295183688402
1686343768179381500,1.250381591796875,-0.08731646440327168,-0.07162322070896625,0.03261456787884235
1686343768189401300,1.2604013671875,-0.0922211875796318,-0.09695347679853439,0.02807882414534688
1686343768199421400,1.27042138671875,-0.09610650458037853,-0.0907704042494297,0.016530279040336607
1686343768209441500,1.280441650390625,-0.12108268653526902,-0.09224339941143989,-0.02018763707068283
1686343768219461400,1.29046142578125,-0.1281001640819013,-0.07672668132781982,-0.03634395909893792
1686343768229481500,1.3004814453125,-0.12717895758375525,-0.03980769425332546,0.009793814958748407
1686343768239502300,1.31050244140625,-0.09340645184144378,-0.008408347383141517,0.019047234863904302
1686343768249522400,1.3205224609375,-0.08392214578986168,-0.007640870141983031,-0.017205840214341878
1686343768259542500,1.33054248046875,-0.014503157126903534,-0.01598550463914871,-0.050260699206590646
1686343768269562400,1.340562255859375,0.05734115898683667,-0.021902035206556317,-0.06491758102390449
1686343768279582500,1.35058251953125,0.08414207215085626,-0.022866496324539184,-0.07566678787819109
1686343768289602600,1.3606025390625,0.10151932340934872,-0.003418284010887146,-0.07223476760289631
1686343768299622700,1.37062255859375,0.12881532661393283,-0.006343231546878814,0.012409701112145557
1686343768309642500,1.380642578125,0.11052052211910486,-0.025802549776434897,0.09648586841993964
1686343768319662600,1.39066259765625,0.053592620108276603,-0.023951368951797485,0.060459441704419435
1686343768329682700,1.4006826171875,0.030616672059893605,-0.027433950370550155,0.018079992700368166
1686343768339703600,1.41070361328125,0.040867432439327236,-0.031611528316140176,-0.005351297900080681
1686343768349723600,1.4207236328125,0.03717208505272865,-0.041643092986941334,-0.04112959050685167
1686343768359743500,1.430743408203125,0.0737730922192335,-0.013562661406397818,-0.08205459835231303
1686343768369763600,1.440763671875,0.173840901646018,0.004343582162261009,-0.030313597460091112
1686343768379783400,1.450783447265625,0.15979074898362158,-0.03315583514869213,0.15888474005460737
1686343768389803500,1.460803466796875,0.1332565239317715,-0.011661211699247359,0.06197729892146308
1686343768399823400,1.4708232421875,0.21202961639538406,0.04932663322687149,-0.07713321630209684
1686343768409843500,1.480843505859375,0.27493644668534395,0.0223211374014616,-0.06042845291111152
1686343768419863600,1.490863525390625,0.2454514090038836,-0.012100187638401984,-0.09562193593382835
1686343768429884400,1.500884521484375,0.15457622920572756,0.02947626985311508,0.08615341197326778
1686343768439904500,1.510904541015625,0.21359496601596473,-0.011208207234740256,0.11763577008494175
1686343768449924400,1.52092431640625,0.2514743225552141,-0.09236907161772251,-0.008173360450332984
1686343768459944400,1.5309443359375,0.22925167709216474,-0.09440262327194213,-0.06795813146331348
1686343768469964500,1.540964599609375,0.17187398548722266,-0.023788287344574926,-0.11406681642383336
1686343768479984600,1.550984619140625,0.0763572634935379,0.04192132540643215,-0.05991670856326818
1686343768490004500,1.56100439453125,0.03194529031515121,0.06751461634635925,0.007077829431742429
1686343768500024600,1.571024658203125,-0.03918254809230566,-0.03785889827311039,-0.0968409472016152
1686343768510044700,1.581044677734375,-0.14369579262062906,0.03201718650758266,-0.034099536606436595
1686343768520064500,1.591064453125,-0.05529343267679214,0.15180033475160598,-0.07115984098091721
1686343768530085600,1.601085693359375,-0.2013411952510476,-0.04571487247049808,0.13551629469045437
1686343768540105500,1.61110546875,-0.21809534617513418,-0.08015081055760383,0.23457712816493584
1686343768550125600,1.62112548828125,-0.16284662942290304,-0.022080898904800413,0.03916588921844959
1686343768560145400,1.6311455078125,-0.07409019534438849,-0.09792962835431099,-0.046222840258944776
1686343768570165500,1.64116552734375,-0.07145867779701948,-0.1477297243118286,-0.10995264083696529
1686343768580185300,1.651185302734375,-0.32370617668181656,-0.2206757180571556,-0.10429870672849938
1686343768590205400,1.661205322265625,-0.12196458393633365,0.2733580914527178,-0.23887115383073687
1686343768600225500,1.6712255859375,-0.2006277862846851,0.17974632629752157,-0.06062529522404074
1686343768610245400,1.681245361328125,-0.22685645251870154,0.04412263484299182,0.3886391059719026
1686343768620266500,1.6912666015625,-0.29019115283191205,-0.06842120979726314,0.32116452937498685
1686343768630286300,1.701286376953125,-0.14876666614413261,0.13238777827322482,0.063968760433048
1686343768640306400,1.711306396484375,-0.029613340236246583,0.41372576256394383,-0.03337369741676375
1686343768650326500,1.721326416015625,0.04641688326001167,-0.006880407163500786,0.1943371617078781
1686343768660346600,1.7313466796875,-0.014260434412211179,-0.2894680992543697,0.2284020745255053
1686343768670366500,1.741366455078125,0.08231412607133388,-0.3303378697812557,0.10533668974041938
1686343768680386600,1.751386474609375,0.04074000666737556,-0.21361177102029322,0.2316675060622394
1686343768690406700,1.76140673828125,-0.07495090382695198,-0.06547229686379433,0.34663419393524525
1686343768700426500,1.771426513671875,-0.0886655409246683,0.3124795570075512,0.5166295260690152
1686343768710447600,1.781447509765625,-0.22975319687351584,0.44283086101710795,0.9808373755052685
1686343768720467500,1.791467529296875,-0.30532471681684253,0.2716992183297872,1.2648071696043013
1686343768730487600,1.801487548828125,-0.20103636708557604,0.2127764892399311,1.2772896345585585
1686343768740507600,1.811507568359375,-0.009493220010399818,0.20972820758521554,1.233786154527217
1686343768750527700,1.82152783203125,0.18494886337667701,0.043667292290925974,0.990861779782921
1686343768760547800,1.8315478515625,0.017017478035390377,0.09087970984280108,0.583381524012424
1686343768770568000,1.84156787109375,-0.10926862236186861,0.43039691137969494,0.7168453705519438
1686343768780588000,1.851588134765625,0.23303777150213717,0.11969488543868065,1.0394617061704396
1686343768790608000,1.86160791015625,0.999326095137,0.6360404799997806,0.15775909702554344
1686343768800629000,1.87162890625,1.8817440129444003,0.9733920279353856,0.22260387310814111
1686343768810648800,1.88164892578125,1.4275886248365044,-0.18345979386270045,0.24677684892136603
1686343768820669000,1.8916689453125,-0.14785539651811122,-0.8861813619941472,-0.30570874769836665
1686343768830688800,1.901688720703125,-2.495368955257535,-1.4392407764464616,-0.3545425559069961
1686343768840708600,1.91170849609375,-3.8241792259559033,-1.2235387551486492,-0.37222763100564477
1686343768850728700,1.921728759765625,-3.2431212129876017,-0.6086784258216619,0.0632637631020043
1686343768860748800,1.931748779296875,-1.4757614118531346,-0.14258943881392477,0.842138295193389
1686343768870769000,1.941768798828125,-0.20953911475390194,-0.18725392544865607,1.432923263862729
1686343768880788700,1.951788818359375,0.29497283415049314,-0.48692134715616703,1.5520064471438526
1686343768890808800,1.961808837890625,0.41356911069750785,-0.6524906795412302,1.3418119372211397
1686343768900829700,1.97182958984375,0.6299687588706612,-0.5149672919452191,1.248154287097603
1686343768910849800,1.981849853515625,0.9430202705472707,-0.5979688157588243,1.377441030615568
1686343768920870000,1.991869873046875,1.154878768159449,-1.1771025826662778,1.349758950702846
1686343768930889700,2.0018896484375,1.1540671595156191,-1.1751783366054296,1.1788673273164778
1686343768940909800,2.011909912109375,1.2160802558362482,-1.1138199048012494,2.3741069666326045
1686343768950930000,2.021929931640625,1.0805798985004424,0.365865694758296,0.7741489009421318
1686343768960950000,2.031949951171875,-0.3149567607760429,0.38496436298191544,0.21619338501133023
1686343768970969900,2.041969970703125,-1.3505132762014864,-0.49059156010150906,0.4407162800159305
1686343768980990000,2.051989990234375,-1.1643217192873359,-0.6001151801377534,0.8008410930346697
1686343768991010800,2.0620107421875,-0.5589411659672856,-0.2867728688210249,1.721778053524345
1686343769001031000,2.072031005859375,0.2021539729386568,-0.6322159532755613,3.1034207736134527
1686343769011051000,2.082051025390625,0.13439093478918074,0.2258177571207285,1.9292654964454472
1686343769021070600,2.092070556640625,-0.4266021952718496,0.5851151794046163,1.1984048984140157
1686343769031090700,2.102090576171875,-0.5179436774075031,0.006775777745246887,1.468220202693343
1686343769041110800,2.11211083984375,-0.19460779534280298,-0.2756365577787161,2.0235819027386603
1686343769051131000,2.122130859375,0.41090719801187514,-0.2921621606439352,2.5865102386459706
1686343769061150700,2.132150634765625,0.9752353177145123,-0.13219956222474574,2.743123818898201
1686343769071170800,2.1421708984375,1.256013183904439,0.09271978475153446,2.2763142625309527
1686343769081191700,2.152191650390625,1.8641328067995606,-0.5218219801455736,0.005294087820127606
1686343769091211800,2.162211669921875,1.4123314344719051,-2.1363702236592768,-3.830252700650692
1686343769101231900,2.17223193359375,0.08548413440957665,-2.5486142232328652,-5.0396734985977405
1686343769111251700,2.182251708984375,-0.18289967576190827,-1.6906337043285369,-2.4365225062742826
1686343769121271800,2.192271728515625,0.20810981260314582,-0.23380700230896473,0.8693689050115645
1686343769131292000,2.2022919921875,0.4920500883467495,0.21284780091047287,1.8809972862303257
1686343769141312000,2.21231201171875,0.3246009335644543,0.14857435844242572,1.38024892764315
1686343769151331800,2.222331787109375,0.11945523146390914,0.19124620995521543,0.17725845500454304
1686343769161352000,2.23235205078125,0.2723968452051282,0.7561603128522634,-0.5960302489116788
1686343769171372800,2.242372802734375,0.8018934516318142,0.9599638065636158,-1.455338070897013
1686343769181393000,2.252392822265625,0.8508325468458234,1.037978774136305,-1.946535780198127
1686343769191413000,2.2624130859375,-0.402571769734472,1.2070143213272093,-2.0219145540483296
1686343769201432800,2.272432861328125,-2.4883885948508975,1.456634978839755,-1.6128623362533747
1686343769211452700,2.28245263671875,-3.860937177249789,1.2733540486752986,-0.48991234566569325
1686343769221472800,2.29247265625,-3.5029426542580127,0.7868138097912073,0.7208272797949612
1686343769231492900,2.302492919921875,-1.3133382685393094,0.15537000993192196,1.73722506737262
1686343769241512700,2.3125126953125,2.117650325620174,-0.6693792704999446,2.0648281053625044
1686343769251532800,2.32253271484375,3.977061802986264,-0.7465314837634563,1.0811071372449397
1686343769261553000,2.332552978515625,2.823234881967306,0.4586094449073076,-0.313546601717174
1686343769271573800,2.34257373046875,1.6256699415087699,0.6041495502203702,-1.809762480317056
1686343769281593900,2.35259375,0.6698761141061782,0.5233247859239578,-2.748765331916511
1686343769291613700,2.36261376953125,0.006909633257985114,0.9171785578042269,-3.0112784964889285
1686343769301633800,2.3726337890625,-0.2694277662664652,1.1674556333988904,-2.4372464366346596
1686343769311654000,2.38265380859375,-0.6262859787046909,0.7427952198445796,-2.1140338886886836
1686343769321674000,2.392674072265625,-1.5443198381640015,0.4111597114682197,-1.9989333453029392
1686343769331693800,2.40269384765625,-2.6004700826764107,0.7138824290931225,-1.9659788779452443
1686343769341714000,2.4127138671875,-2.8519027580469847,0.8459060502290725,-1.3530803502105175
1686343769351734000,2.422734130859375,-2.628299169844389,0.9940139602035284,-0.7331416947059333
1686343769361753900,2.43275390625,-2.600144503983855,1.3467343421846627,0.05722191652134061
1686343769371775000,2.44277490234375,-1.6962123812437055,1.0990677413493395,-1.5684484633788465
1686343769381794800,2.452794921875,-0.6987767760284245,0.7683025860667229,-1.997357035896927
1686343769391815000,2.46281494140625,-0.24487550881206988,0.3812947345584631,-2.1538947744339705
1686343769401834800,2.472834716796875,-0.7716939820706844,0.06741700119078159,-1.50229052233845
1686343769411854800,2.482854736328125,-1.340813573833555,-0.041026422393321986,-0.778862704656273
1686343769421874700,2.492874755859375,-1.3974462922900914,-0.01737374412715435,-0.23123116047158837
1686343769431894800,2.502894775390625,-1.320060854792595,0.020391046121716497,0.5419833091646432
1686343769441915000,2.512914794921875,-0.6943922773338854,-0.0906704510062933,0.5857604915708303
1686343769451934700,2.522934814453125,0.12525668428428471,-0.4840706339001655,-0.12507409425899385
1686343769461954800,2.532954833984375,0.30388942331671714,-0.6029723231345415,-0.3346279681906104
1686343769471975000,2.542974853515625,0.2569471279431134,-0.5522586194634437,-0.6457039420105517
1686343769481995800,2.552995849609375,0.2990017243403941,-0.3974146792322397,-0.5843764898665249
1686343769492015900,2.563015869140625,0.13429456174261867,-0.09362287107110023,-0.1998033181592822
1686343769502036000,2.573035888671875,0.04984276605546474,0.14661211845874786,-0.4326005589038133
1686343769512055800,2.583055908203125,0.1917022100944072,-0.10547814403772353,-1.1606960761360823
1686343769522076000,2.593075927734375,0.26151692007668315,0.06282675079107285,-1.1533705555535851
1686343769532096000,2.603095947265625,0.09534896421134471,0.1818798311948776,-0.7544257441446185
1686343769542115800,2.61311572265625,0.07534903629906475,0.26944647096693514,-0.21187720231264828
1686343769552136000,2.623135986328125,-0.01874729750268161,0.12270692673623561,0.4292667383059859
1686343769562155800,2.63315576171875,-0.28923414436802264,0.11728840881884098,0.9434712291851639
1686343769572175600,2.643175537109375,-0.1580254928767681,0.34149463908970357,1.3362554721377788
1686343769582196700,2.65319677734375,0.25260230367183684,0.9487310494095087,1.5640674718156455
1686343769592216800,2.663216796875,0.8124521819818764,1.391602242437005,1.6033149018377064
1686343769602236700,2.673236572265625,1.0779226619899271,1.4897913985103368,1.1844582061260938
1686343769612256800,2.6832568359375,0.8176992888551204,1.2321399947553873,0.22979177531823514
1686343769622276900,2.69327685546875,0.325167116079852,0.5937304475367069,-1.2950902257956565
1686343769632296700,2.703296630859375,0.09053367288410663,-0.05953706159591674,-2.6975270198494194
1686343769642316800,2.71331689453125,0.000150295190885663,-0.6830471458464861,-2.956437483754754
1686343769652337000,2.7233369140625,0.07844576020538807,-1.0136533111751078,-2.000972157654166
1686343769662356700,2.733356689453125,0.22545834922380745,-1.135458320635557,-0.8207990815013647
1686343769672376800,2.743376953125,0.515243186277151,-0.7720195607632399,-0.12723551007658243
1686343769682397000,2.75339697265625,0.9073176004599779,0.2166588836312294,-0.28493761621788144
1686343769692417800,2.763417724609375,1.0096469981431961,0.7529448579370975,-1.0291327659882605
1686343769702438000,2.77343798828125,0.796950588402152,0.757362089857459,-1.166966096316278
1686343769712458000,2.7834580078125,0.7206384061593561,0.7009113038390874,-0.9520748068794608
1686343769722477800,2.793477783203125,0.675219813221693,0.47890755204856394,-1.123362955302745
1686343769732498000,2.803497802734375,0.3562281343737617,0.44233810906410215,-1.2069465167880058
1686343769742517800,2.813517822265625,0.03142097418010235,0.5248731844097375,-0.96734587963894
1686343769752537600,2.82353759765625,-0.5212678533941507,0.26675007148981095,-0.7684998622044921
1686343769762557700,2.8335576171875,-0.6825070476204157,0.1088999351799488,-0.5019418061554431
1686343769772577800,2.843577880859375,-0.5188139939686283,0.08586977272629738,-0.5302376340523361
1686343769782598000,2.853597900390625,-0.2810930696189403,0.4251064037561416,-0.7075370055891573
1686343769792617700,2.86361767578125,0.10249299074709414,0.5611725782811642,-0.7492224764131009
1686343769802637800,2.873637939453125,0.1535077597239986,0.26702888843119144,-0.6868466842599212
1686343769812658700,2.88365869140625,0.26180855996701863,0.028074001839756963,-0.3849180396221578
1686343769822678800,2.8936787109375,0.5592185216039419,-0.07648644283115863,-0.3167109109669924
1686343769832699000,2.903698974609375,0.7203765403527767,0.03265080823600292,-0.44544820390865203
1686343769842718700,2.91371875,0.7749976997911929,0.06565466769337654,-0.9513631514787674
1686343769852738800,2.92373876953125,0.8748077350646257,0.24715455965995786,-0.993439229055494
1686343769862759000,2.933759033203125,0.38064120255317535,-0.022680033841729164,0.34244361037760973
1686343769872779000,2.943779052734375,-0.5339478867471218,-0.46402971639037127,0.8817115961689501
1686343769882798800,2.953798828125,-0.4733990177601576,-0.4604138639807701,0.875364784425497
1686343769892819000,2.96381884765625,-0.15043722970485687,-0.06826338888704776,0.4577940368711948
1686343769902839000,2.973839111328125,-0.22373800997091456,0.2357464459389448,0.07864910075776278
1686343769912858600,2.983858642578125,-0.2840805427308194,0.037945992034673685,-0.26790377156957984
1686343769922878700,2.993878662109375,-0.11510580408275127,-0.01119067157804966,-0.18556268442608415
1686343769932899800,3.00389990234375,-0.4590138975223526,0.08405950843393802,0.3199063825400546
1686343769942919700,3.013919677734375,-0.9004524639308452,-0.004254734835028648,0.62362538119331
1686343769952939800,3.023939697265625,-0.7558890946954488,0.006994973453879356,0.6597038257904351
1686343769962960000,3.0339599609375,-0.5297615409731865,0.2429746436268091,0.42573315735235806
1686343769972979700,3.043979736328125,-0.22040568721042944,0.34057460163533687,0.28828718237411227
1686343769982999800,3.053999755859375,-0.12525836478471755,0.20306582708656787,0.43166875794641674
1686343769993020000,3.06402001953125,-0.3016892646576278,0.07071195108294487,0.7658018552921712
1686343770003039700,3.074039794921875,-0.7859370269566774,0.3257768454760313,0.7795256255444138
1686343770013059800,3.084059814453125,-0.7945973032742738,-0.2701151640087366,1.0532261737592519
1686343770023080000,3.094079833984375,-0.7091969016253947,-0.5475690003424882,1.5451910680405794
1686343770033099800,3.104099853515625,-0.22571838839948177,-0.3215373082101345,1.4233625315740703
1686343770043119900,3.114119873046875,0.2854898067405447,-0.4568488649755716,1.3049768290378152
1686343770053140000,3.124139892578125,0.2833867335140705,-0.7451964357674121,1.366601948954165
1686343770063160800,3.134160888671875,0.2115910788476467,-0.9790770878344773,1.428684018857777
1686343770073181000,3.144180908203125,0.14905308187007904,-1.0812351475387811,1.5899261356934904
1686343770083201000,3.154200927734375,-0.08968375979019329,-1.187214226835966,1.5276083573378623
1686343770093220600,3.164220703125,-0.0924497173721902,-1.1185977867275476,1.4932226881332695
1686343770103240700,3.17424072265625,-0.3274853664269671,-1.089873796546459,1.6017168189913034
1686343770113260800,3.1842607421875,-0.02988718874156475,-0.9867910232126712,1.4777236518368124
1686343770123280600,3.19428076171875,0.6193582252681255,-0.8286088784694671,1.4191776471048592
1686343770133300700,3.20430078125,0.9596101708203554,-0.7344950090110302,1.1916691604182124
1686343770143320800,3.21432080078125,0.8957757042914628,-0.47004035498201846,0.6191579534556716
1686343770153341000,3.2243408203125,0.7992530201256275,-0.09507482344508171,-0.2129235695604235
1686343770163360800,3.23436083984375,0.38688974155392497,0.3111199590921402,-0.948090340353176
1686343770173380900,3.244380859375,-0.20934417670369146,0.29667876128554344,-1.110548481915146
1686343770183401000,3.25440087890625,0.10177870499789714,-0.04084697417318821,-0.6842726690534502
1686343770193420800,3.2644208984375,0.5372077287932857,-0.43690322453379626,-0.08846315022036433
1686343770203441000,3.27444091796875,0.6458277145206928,-0.5015133516103029,0.3091858492244035
1686343770213461800,3.284461669921875,0.7311492057144642,-0.3398065398722887,0.2812404422003776
1686343770223481900,3.29448193359375,0.9243646699160337,-0.38953532415926456,0.7511611163254827
1686343770233502000,3.304501953125,0.6163549517989159,-0.4353822985768318,1.0542969447959214
1686343770243522000,3.31452197265625,0.05578388307485729,-0.009317278921604156,0.4827466187547892
1686343770253542000,3.3245419921875,-0.3280523526599631,0.6235001473784446,-0.48289421053193504
1686343770263561700,3.334561767578125,0.19645729566700756,1.0690578030109406,-0.8677727218613028
1686343770273581800,3.344581787109375,0.10624799589905887,0.9049182111680507,-0.7800754414469003
1686343770283601700,3.3546015625,0.2645907380314544,0.6636532940685749,-0.4059109240945428
1686343770293621800,3.364621826171875,0.8058703924387693,0.6533622016787528,-0.0778492556169629
1686343770303641900,3.374641845703125,0.255977954117395,0.521647792622447,-0.2478697952572256
1686343770313661700,3.38466162109375,0.35564068987462666,0.43984746129214763,-0.10282806792035698
1686343770323681800,3.394681884765625,0.3559084374327212,0.24139935713410376,-0.0013757453326135873
1686343770333702000,3.404701904296875,-0.05567629451453685,0.15489654720127582,-0.3621926322687417
1686343770343722000,3.414721923828125,0.035574002206325527,0.2234638874709606,-0.6243958541091531
1686343770353741800,3.424741943359375,-0.3181768918663263,0.10875497375130652,-0.8754978362206369
1686343770363762000,3.434761962890625,-0.49803310827910896,0.26620412804484367,-1.0217358606699853
1686343770373782800,3.44478271484375,-0.646786403485015,0.16565642614662646,-0.8484872988939285
1686343770383803000,3.454802978515625,-0.3485165736157447,0.12640110507905483,-0.659066112408787
1686343770393823000,3.464822998046875,0.011682912074401974,0.067390113183856,-0.4338520933348685
1686343770403842800,3.4748427734375,-0.00711827103998512,-0.08595452840030193,-0.06699563397355378
1686343770413863000,3.48486279296875,-0.24921266123354432,-0.22453940774798392,0.11762319373115897
1686343770423882800,3.4948828125,-0.38901791268903757,-0.0630593905031681,0.15859920111149547
1686343770433902800,3.50490283203125,-0.3144664199758321,0.20226853922903537,-0.21917269308306275
1686343770443922700,3.514922607421875,-0.19288060622401534,0.3744768712371587,-0.4843661097154021
1686343770453942800,3.52494287109375,0.06188391698300838,0.37859833508133883,-0.4268590195771306
1686343770463963000,3.534962890625,0.5277338345378637,0.3207002728641033,-0.7266952950455248
1686343770473982700,3.544982666015625,0.98504038015306,0.25889760442376136,-0.9324779798753559
1686343770484002800,3.5550029296875,1.8566998803198336,0.1902817488372326,-0.0722541390236467
1686343770494023000,3.56502294921875,1.0985738203525544,0.08181435985565184,-0.6864962633870542
1686343770504042800,3.575042724609375,-0.5036351295372471,0.3648497957140207,-0.8404492461279034
1686343770514062800,3.585062744140625,0.14843933388590813,0.40037528260350225,0.04794000117406249
1686343770524083000,3.5950830078125,-0.8887369647610932,0.08064239346683025,0.0794518685080111
1686343770534103000,3.60510302734375,-0.9914595995455979,0.2129378172814846,0.054256710040196776
1686343770544124000,3.6151240234375,-1.0077257477570325,0.23102876976728437,-0.18619594082832336
1686343770554144000,3.62514404296875,-0.592974587668106,0.4984463652551174,-0.47057395040206607
1686343770564163800,3.635163818359375,-0.25392967981807885,0.4449895003557205,-0.572139816366881
1686343770574184000,3.645183837890625,-0.11876257302463054,0.3923620720177889,-0.518546684801951
1686343770584203800,3.655203857421875,0.22850122405104337,0.403548067420721,-0.48922297516204416
1686343770594223600,3.6652236328125,0.328136560344696,0.22111294043064117,-0.2748671808414161
1686343770604243700,3.67524365234375,0.08421499125659465,-0.009952069693803786,0.14212328260689974
1686343770614263800,3.685263916015625,-0.24513320990018544,-0.19827333211302756,0.40287389448620375
1686343770624284000,3.695283935546875,-0.1301010555755347,-0.3003355302274227,0.3276954655136913
1686343770634303700,3.7053037109375,0.10424845611229538,-0.3489250813513994,0.1271495853587985
1686343770644323800,3.71532373046875,-0.254828747549653,-0.35761458376348015,-0.10145195726156234
1686343770654344000,3.725343994140625,-0.24895897873342035,-0.26229192303717136,-0.36185740896500646
1686343770664363800,3.73536376953125,0.19011632914245127,-0.320721315652132,-0.48669002261832356
1686343770674384000,3.7453837890625,0.44258243921399115,-0.3918167130947113,-0.41926966042667624
1686343770684404000,3.755404052734375,0.23977504386790097,-0.3593950374394655,-0.17801438793838023
1686343770694423800,3.765423828125,0.06708104723468422,-0.33945816482603547,0.03535217614918947
1686343770704444000,3.77544384765625,0.07979432527013122,-0.2503857966661453,0.12147161278761923
1686343770714463700,3.785463623046875,0.18308518839664756,-0.09152502200901508,-0.032285628185421224
1686343770724483800,3.79548388671875,0.16794665597565472,0.0766793350547552,-0.17573935567848384
1686343770734503700,3.805503662109375,0.1302402448505163,0.15976093836724758,-0.2459753598127514
1686343770744523800,3.815523681640625,-0.13069792549014092,0.21046762777566907,-0.2707212401431054
1686343770754544600,3.825544677734375,-0.32473698103427884,0.32468378954231736,-0.41771687802672386
1686343770764564700,3.835564697265625,-0.49375616161227226,0.32265549858510495,-0.4330175422068685
1686343770774584800,3.845584716796875,-0.5075624955814332,0.2669125685751438,-0.4112088113069534
1686343770784604700,3.855604736328125,-0.5034428583681583,0.22303952457904813,-0.45783013109788295
1686343770794624800,3.865624755859375,-0.2006803201895207,0.12155483409166336,-0.33509149404913185
1686343770804644900,3.875644775390625,0.04130940405316651,-0.09395487950444222,-0.10748261572793126
1686343770814665000,3.8856650390625,0.06696527536790818,-0.25698329523503777,0.0686477850947529
1686343770824684800,3.895684814453125,0.2023194291660562,-0.3712812900662422,0.1820924510322511
1686343770834705000,3.905704833984375,0.24331428737733513,-0.4422574450433254,0.17176804089471698
1686343770844725000,3.91572509765625,0.2159918710898608,-0.41092005749344823,0.03671973817534745
1686343770854744800,3.925744873046875,0.22952421042323112,-0.4007183969527483,-0.03993548535145819
1686343770864765000,3.935764892578125,0.20570439542923122,-0.36616029379069803,-0.05221468281857669
1686343770874785000,3.945784912109375,0.14312255930993706,-0.21143734959065913,-0.07580364819876849
1686343770884804600,3.9558046875,0.050433169696666294,-0.02968669773340225,-0.11606186269856988
1686343770894824700,3.96582470703125,0.01471416952908039,0.05617664525210857,-0.07831753071583807
1686343770904844800,3.9758447265625,0.03587148731555789,0.1362397775262594,-0.0442730030991137
1686343770914865000,3.985864990234375,0.03390815135333687,0.17186171052753924,-0.005155044675618409
1686343770924884700,3.995884765625,0.05885788369271904,0.1182066927075386,0.040031639202311634
1686343770934904800,4.00590478515625,0.08225392031669616,0.09934767845869064,0.0656523296058178
1686343770944925000,4.015925048828125,-0.0213665766229853,0.04978022221326828,0.13792999563552438
1686343770954944800,4.02594482421875,-0.05899462528228759,-0.04058277027904987,0.13331694888211787
1686343770964964900,4.03596484375,-0.05431790217552334,-0.09436112221777439,0.1285490768931806
1686343770974985000,4.04598486328125,0.02053308494091034,-0.1977665516346693,0.03531125961691141
1686343770985004800,4.0560048828125,0.04654259199891239,-0.24593933865129947,0.07073233628384769
1686343770995025000,4.06602490234375,-0.13619067768752574,-0.245279997959733,0.14302965686209498
1686343771005045000,4.076044921875,-0.12888002588059752,-0.2603191616594791,0.1669150479055941
1686343771015065900,4.08606591796875,0.18795476719439028,-0.4109884465545416,0.2339898115299642
1686343771025086000,4.0960859375,0.5008703775316476,-0.6043541328817605,0.2689602948851883
1686343771035106000,4.10610595703125,0.682407678899169,-0.7105284424901008,0.17323307194598017
1686343771045125600,4.116125732421875,0.6544020661205053,-0.7368360191792249,0.12298340559005737
1686343771055145700,4.126145751953125,0.46537587030231947,-0.6515215422481299,0.14566555832363665
1686343771065165800,4.136165771484375,0.2732563846439123,-0.5042834008455276,0.05931348197311163
1686343771075185700,4.146185546875,0.13186932562338188,-0.3466144663214683,-0.0883333863608539
1686343771085205800,4.156205810546875,0.18298866921961307,-0.2245668802767992,-0.3348555664014071
1686343771095225900,4.166225830078125,0.04613278735531494,-0.1704781472146511,-0.4733387389402836
1686343771105246000,4.176245849609375,-0.08409284444795921,-0.17919395311176775,-0.5607859170511365
1686343771115265800,4.186265869140625,-0.07657645920217036,-0.21839023746848105,-0.465304997023195
1686343771125286000,4.196285888671875,-0.1494470496237278,-0.22669570899903774,-0.293533814323321
1686343771135306000,4.206305908203125,-0.2164875821849331,-0.07075286761522293,-0.31042101704254743
1686343771145325800,4.216325927734375,-0.20306814690781755,0.12076806762814521,-0.2541287095215171
1686343771155346000,4.226345947265625,-0.1565939805026166,0.2016349175006151,-0.19241686116978524
1686343771165366000,4.236365966796875,-0.043707030646270136,0.26306232288777825,-0.1281407152879983
1686343771175385600,4.246385498046875,-0.051697444878285745,0.2921656677752733,-0.09089837801065295
1686343771185405700,4.25640576171875,-0.08355854577501304,0.25736791063845155,-0.1498359393434599
1686343771195425800,4.26642578125,-0.07581540256864391,0.22943945474922656,-0.12557696574721486
1686343771205446000,4.27644580078125,-0.2202899153436534,0.25374329040050503,-0.0688894483635202
1686343771215465700,4.2864658203125,-0.5453484016835689,0.27355098367631436,-0.0022877456109970805
1686343771225485800,4.29648583984375,-0.6430909830331802,0.2867962496966123,0.07963891551271081
1686343771235506000,4.306505859375,-0.5982113923430442,0.1972089177519083,0.2430233050741255
1686343771245525800,4.31652587890625,-0.4360983378916979,0.031495208460092544,0.32589740311577914
1686343771255545900,4.3265458984375,-0.17673662308752536,-0.21004677201509475,0.39539157590679824
1686343771265566000,4.33656591796875,-0.040271804633736606,-0.466632007843256,0.4512982451111078
1686343771275585800,4.346585693359375,-0.06856091052889823,-0.5378752893239259,0.3531111348643899
1686343771285606000,4.35660595703125,-0.04559387643933296,-0.5340531006872654,0.0968900561735034
1686343771295626000,4.3666259765625,0.08322422665357589,-0.5121913974910974,-0.1671796901911497
1686343771305646800,4.376646728515625,0.28686522327959535,-0.44894905163645743,-0.2247531966291368
1686343771315667000,4.3866669921875,0.27718144913315773,-0.39773850435912605,-0.5277827151808887
1686343771325687000,4.39668701171875,-0.1632534566581249,-0.22690964401066302,-0.7133543135657906
1686343771335706600,4.40670654296875,-0.4629834222078323,-0.30126024385690686,-0.3996034579807892
1686343771345726700,4.416726806640625,-0.9178221164047717,-0.6016945582836866,0.04797971212994307
1686343771355746800,4.426746826171875,-0.9292787454426288,-0.7050164010703563,0.4408437057878822
1686343771365766700,4.4367666015625,-0.6217091723084449,-0.5713631329059601,0.4814204116523266
1686343771375786800,4.446786865234375,-0.37229835815429685,-0.3655950611233711,0.2922959430914372
1686343771385806800,4.456806884765625,-0.12214403215646744,-0.1423445241421461,0.1455423703353852
1686343771395827000,4.466826904296875,-0.2710638430356979,0.0670984367609024,-0.08069193169698119
1686343771405846800,4.4768466796875,-0.6028548342347144,0.21619594229459763,-0.252981512247771
1686343771415867000,4.486866943359375,-0.8517734809577464,0.2973965541660786,-0.1475959418643266
1686343771425887000,4.496886962890625,-1.0605939260482788,0.4378957427024841,-0.18377156322561203
1686343771435906800,4.50690673828125,-0.9484732752561569,0.5817576856702565,-0.20981150195449588
1686343771445927000,4.516927001953125,-0.5657014538824557,0.5399556027293205,-0.19251557230390606
1686343771455947000,4.526947021484375,-0.2595475927650928,0.5931400804281234,-0.009359875954315066
1686343771465966800,4.536966796875,0.18353055754397063,0.5566793585151434,0.02322225095964968
1686343771475986700,4.546986572265625,0.8785235407173633,0.34636896712779996,0.2744716056525707
1686343771486006800,4.5570068359375,1.3608698350429533,0.02083060658276081,0.597047536195442
1686343771496027000,4.56702685546875,1.336120009189844,-0.05411328298151493,0.8454922087311744
1686343771506046700,4.577046630859375,0.9125649265289306,-0.008005027279257775,1.1821957410868256
1686343771516066800,4.58706689453125,0.5829717741677537,0.14828969628214836,1.3004808327928186
1686343771526087000,4.5970869140625,0.41737668628692626,0.19303718502521514,1.3013237133577464
1686343771536106800,4.607106689453125,0.22602062274906784,0.20258827270269392,1.4536827049054204
1686343771546126800,4.617126953125,0.14204934058785437,0.24440672225654123,1.4829846411049366
1686343771556147000,4.62714697265625,0.0994364892533049,0.2554752287596464,1.511739172554761
1686343771566166800,4.637166748046875,0.08142623732089996,0.33146015180945393,1.4305012974128126
1686343771576187000,4.647186767578125,-0.012028254913352429,0.4295744890809059,1.2730632490351796
1686343771586207000,4.65720703125,-0.21140286279916762,0.6053443129628896,1.121040942095965
1686343771596227800,4.667227783203125,-0.2681914294045418,0.8165034301340579,1.0281941699638961
1686343771606248000,4.677248046875,-0.39904257269501686,0.8879390193164348,0.9714390672367066
1686343771616268000,4.68726806640625,-0.6275695887744427,0.8149719827830791,0.9015253538593649
1686343771626287900,4.697287841796875,-0.6803554225444793,0.6179466049045323,1.1058078632593153
1686343771636307700,4.7073076171875,-0.5401157982597127,0.39742052445113657,1.4709573725722729
1686343771646327800,4.717327880859375,-0.3557563886761665,0.2574322080463171,1.5057383247047662
1686343771656347600,4.72734765625,-0.0745791479051113,0.10032207644879818,1.3860139209106563
1686343771666367700,4.73736767578125,0.25147651451230046,0.10553308909535407,1.0935069654170424
1686343771676387800,4.747387939453125,0.36243396674394607,0.28713527239263054,0.4917367115486413
1686343771686407700,4.75740771484375,0.31635259904861446,0.4109960453391075,0.09078194855675101
1686343771696427800,4.767427734375,0.09192304488327353,0.6977718367695808,-0.2990165565833449
1686343771706448000,4.77744775390625,0.2440682840824127,0.8609925602018833,-0.752438369719684
1686343771716468000,4.787468017578125,0.3646984045445919,0.7631734064847231,-0.9154891434125602
1686343771726487800,4.79748779296875,0.311780468827486,0.7163204698950052,-0.684116309447959
1686343771736508000,4.8075078125,0.3623041663518175,0.7178145078450441,-0.41234731381759043
1686343771746528000,4.817528076171875,0.3142038965821266,0.6570604716747999,-0.21831826821081338
1686343771756547600,4.827547607421875,0.403491916786693,0.5938450138270854,-0.06739500855468213
1686343771766567700,4.837567626953125,0.34633038868308064,0.470417956122756,-0.13906236066631972
1686343771776587800,4.847587890625,0.29104747740030285,0.3943535380959511,-0.09898045258149504
1686343771786607600,4.857607666015625,0.3880301802933216,0.350477571490407,-0.10315525404810905
1686343771796627700,4.867627685546875,0.587437448339723,0.32642566477358337,-0.42598209061212833
1686343771806647800,4.877647705078125,0.6256044261813163,0.29287235473990436,-0.5226561659473925
1686343771816668000,4.88766796875,0.5543465681860223,0.29110651411116123,-0.7254216218478977
1686343771826687700,4.897687744140625,0.5779226375520229,0.40261107883155345,-0.9486844337888062
1686343771836707600,4.90770751953125,0.7735632830739021,0.4424836550146341,-0.9643051967687905
1686343771846728700,4.917728759765625,0.6381085184454918,0.443028429415822,-1.1697079423703252
1686343771856748800,4.927748779296875,0.4870692311942577,0.48526422759890553,-1.5100313457235692
1686343771866768600,4.9377685546875,0.29685293054236095,0.3483797224283218,-1.5417755605086683
1686343771876788700,4.947788818359375,0.14437455039871855,-0.002189034476876259,-1.3728747456133366
1686343771886808600,4.95780859375,0.32116321420073507,-0.40812545833885666,-0.9871111220125108
1686343771896828700,4.96782861328125,0.5110720380723476,-0.8620937994420528,-0.568669582973048
1686343771906848800,4.977848876953125,0.7100304298400878,-1.110633675980568,-0.387270301836729
1686343771916868600,4.98786865234375,0.6735328830480575,-1.2399112132787704,-0.2867523374896496
1686343771926888700,4.997888671875,0.5817617407908663,-1.3001754201054572,-0.07409487151950597
1686343771936908800,5.00790869140625,0.4648176518976688,-1.3442168064057827,0.2832517820227891
1686343771946928600,5.0179287109375,0.30768764655590053,-1.3486983357340097,0.5872126266079023
1686343771956948700,5.02794873046875,-0.04961303981966339,-1.1759639340251684,0.6400254579827189
1686343771966968800,5.03796875,-0.4399228646159172,-0.7823486470758915,0.809391113910824
1686343771976988700,5.04798876953125,-0.7796317893326282,-0.5568406865566968,1.0840124302323908
1686343771987008800,5.0580087890625,-0.8563514563977718,-0.5470376699447631,1.3881981330819426
1686343771997028600,5.068028564453125,-0.883318958300352,-0.6581511895209551,1.5833017491176724
1686343772007048700,5.078048583984375,-0.7766121492505073,-0.766232209533453,1.6003209807187317
1686343772017068500,5.088068603515625,-0.5453460635960101,-0.854840467312932,1.4184959484510122
1686343772027088600,5.098088623046875,-0.3531523436576128,-0.8188374260395764,1.0230753656454383
1686343772037108700,5.108108642578125,-0.20292729539871215,-0.6327233182758093,0.48725357478521764
1686343772047128600,5.118128662109375,-0.1571586469143629,-0.38205402849316594,0.0675797905370593
1686343772057149700,5.128149658203125,-0.2248182246893644,-0.06924363209605217,-0.10854732234999537
1686343772067169800,5.138169677734375,-0.36563714669942854,0.20433423958718774,-0.0953313554894179
1686343772077189600,5.148189697265625,-0.37224049048721786,0.4063742307573557,-0.0984576708164066
1686343772087209700,5.158209716796875,-0.2584510297000408,0.5690460881352424,-0.16594452237300575
1686343772097229800,5.168229736328125,-0.33682314014732834,0.610862199601531,-0.2450638709910214
1686343772107249700,5.178249755859375,-0.37953181653916834,0.591003652921319,-0.311153496035561
1686343772117269800,5.188269775390625,-0.3183130854666233,0.5487222620308398,-0.37768735771626233
1686343772127289900,5.198289794921875,-0.2880337008033879,0.42922319142520426,-0.49529082383364437
1686343772137309700,5.208309814453125,-0.38902503654956816,0.328498379394412,-0.5693064926370978
1686343772147329800,5.218329833984375,-0.4263543579906225,0.2575222244173288,-0.6655611735165119
1686343772157349600,5.228349609375,-0.4332750971645117,0.08209493036270141,-0.6701403910655528
1686343772167369700,5.23836962890625,-0.5477887805730104,-0.17371639848351478,-0.5114803266122937
1686343772177389600,5.2483896484375,-0.463153481545113,-0.31944822697639463,-0.298074964884296
1686343772187409700,5.25840966796875,-0.40004502773582934,-0.4868775080144405,-0.08953582095317542
1686343772197429800,5.2684296875,-0.3495610411673784,-0.5748387000620365,0.09184227126464248
1686343772207449600,5.27844970703125,-0.23529227243065834,-0.5718699133843184,0.24482202505916356
1686343772217469700,5.2884697265625,-0.3177998752474785,-0.5532277567565441,0.36980807570852336
1686343772227489800,5.29848974609375,-0.30161092045810073,-0.4000280766010284,0.42479587650224565
1686343772237509600,5.308509521484375,-0.16980651329709215,-0.19537702614963054,0.4194639408897608
1686343772247530800,5.31853076171875,-0.08651916741258464,-0.0913631094455719,0.4464287393786013
1686343772257550600,5.328550537109375,-0.046392926995689046,0.008723404681682586,0.48726994139812885
1686343772267570700,5.33857080078125,0.08594459152817725,0.12214695476591586,0.5074374809622765
1686343772277590800,5.3485908203125,0.1426969817084726,0.15571370880305765,0.4199202332898974
1686343772287611000,5.35861083984375,0.09334814578294753,0.2370318095743656,0.25762502720467745
1686343772297630700,5.368630615234375,0.0033650925189256664,0.30059096629321574,0.033849443436041474
1686343772307650800,5.37865087890625,-0.03677168755829334,0.2999842325717211,-0.20092618470937013
1686343772317671000,5.3886708984375,0.044098678578669205,0.23753975909650324,-0.37079204524457454
1686343772327690500,5.3986904296875,0.08916649445043877,0.1141109478265047,-0.4289482469413429
1686343772337710600,5.408710693359375,0.1286076843457762,-0.022655483922362326,-0.4078764520138502
1686343772347730700,5.418730712890625,0.21133739634752272,-0.14420739540457725,-0.3901398659236729
1686343772357750500,5.42875048828125,0.22184943801164625,-0.20789573146104812,-0.36349925788789983
1686343772367770600,5.4387705078125,0.3091846071153879,-0.20294541557729243,-0.3561160157687962
1686343772377790700,5.448790771484375,0.3144166625499725,-0.1985147396534681,-0.3976940806955099
1686343772387810800,5.458810791015625,0.28432547566890715,-0.1352817461490631,-0.40284912537112827
1686343772397830700,5.46883056640625,0.16159049188196659,-0.0442588284432888,-0.41024303501471876
1686343772407850800,5.478850830078125,0.05707505539655685,0.0637742607742548,-0.5102515154697
1686343772417870800,5.488870849609375,-0.08545476218461989,0.13127660216093062,-0.5197273459538817
1686343772427891700,5.4988916015625,-0.3314449542403221,0.14542027832567692,-0.39996348693221806
1686343772437911800,5.508911865234375,-0.3396358594805002,0.15310557213127612,-0.2896794039174914
1686343772447931600,5.518931640625,-0.2106581819117069,0.10662965216040611,-0.28204525577723977
1686343772457951700,5.52895166015625,-0.09175532363355159,0.05360591798126697,-0.3289591287739575
1686343772467971800,5.538971923828125,-0.047201900724438015,0.04382394415736198,-0.4087089573152363
1686343772477992000,5.548991943359375,-0.09836860429346561,0.08789104942083359,-0.3886987272046506
1686343772488011500,5.559011474609375,-0.1593593718290329,0.06790624601244927,-0.3707981827244162
1686343772498031600,5.569031494140625,-0.17284312278032302,0.09498597611784934,-0.3162785108990967
1686343772508051700,5.5790517578125,-0.1560129840105772,0.10179857874214648,-0.2191736429311335
1686343772518071600,5.589071533203125,-0.04997311443686485,0.08777648313045501,-0.11207739617228507
1686343772528091600,5.599091552734375,-0.030017537122964857,0.05942249530553818,-0.00966550783738494
1686343772538111700,5.60911181640625,0.025534251945780122,0.09837971020936966,0.04196925620138645
1686343772548131600,5.619131591796875,0.11650924113988875,0.09668342768549919,0.11438903411552309
1686343772558151700,5.629151611328125,0.07583236740317661,0.12713526457250118,0.04394479405805468
1686343772568171800,5.639171875,0.03893500307202339,0.19910686032772063,0.005717500863969325
1686343772578192600,5.649192626953125,0.04840659577250481,0.216031107121706,-0.009911737683415413
1686343772588212700,5.659212646484375,0.05683188972386997,0.1798585545003414,0.017297171759605406
1686343772598232800,5.66923291015625,0.1290297000169754,0.14041151025295256,0.055783115889877076
1686343772608252700,5.679252685546875,0.23660627763867376,0.07550619962215423,0.07998495247140526
1686343772618272800,5.689272705078125,0.30451719982624054,0.02423603111207485,0.1119202328491956
1686343772628292900,5.69929296875,0.29837621285319327,0.007763035216927528,0.06995989060662687
1686343772638312700,5.709312744140625,0.3575777588844299,-0.00286824891269207,0.1218386194691062
1686343772648332500,5.71933251953125,0.38038112684488296,-0.014009820652008056,0.06298062617853284
1686343772658352600,5.7293525390625,0.4133703732550144,0.022579496076703072,0.11777677685767411
1686343772668372700,5.739372802734375,0.44817280656695363,0.012889292189478874,0.1625209045998752
1686343772678392600,5.749392578125,0.40237668555378914,0.037434535381197925,0.17206022877432406
1686343772688412700,5.75941259765625,0.39332828670144077,0.06251753871142864,0.1865858899939805
1686343772698432800,5.769432861328125,0.3956114292025566,0.05459843614995479,0.1963010821919888
1686343772708452600,5.77945263671875,0.3655190732777118,0.06689969931840896,0.1714656969472766
1686343772718472700,5.78947265625,0.29675940704001114,0.0771107122093439,0.12389306778088212
1686343772728493600,5.79949365234375,0.2314624850094318,0.07379004335403443,0.07210194413661956
1686343772738513700,5.809513671875,0.16142624123096466,0.024736381849646567,-0.0027902883056551216
1686343772748533800,5.81953369140625,0.10723171883993782,-0.0036298809349536894,-0.10460267637744546
1686343772758553600,5.8295537109375,0.08886604106598534,-0.0019464578926563262,-0.19526786668673157
1686343772768573400,5.839573486328125,0.09403320543766021,-0.10672492922842503,-0.16087832502461968
1686343772778593500,5.849593505859375,0.09066285222172736,-0.20009177971184253,-0.13428506326191125
1686343772788613600,5.859613525390625,0.028565580182406118,-0.26354279988110063,-0.09400924004018306
1686343772798633500,5.869633544921875,-0.044401451784372326,-0.34301381148099896,0.0014294482812285422
1686343772808653600,5.879653564453125,-0.10048281996846198,-0.412830275028944,0.07371200968176125
1686343772818673700,5.889673583984375,-0.09830372236371039,-0.4009253177016973,0.1474878783799708
1686343772828693500,5.899693603515625,-0.13040332645773886,-0.37355391117334363,0.2730362390872091
1686343772838713300,5.90971337890625,-0.24620529611110686,-0.34422260274887084,0.4045044182974845
1686343772848733400,5.9197333984375,-0.2918821746587753,-0.2632897019028663,0.5002169551242143
1686343772858753500,5.92975341796875,-0.30612346597909923,-0.1827437545478344,0.5600477389696985
1686343772868774400,5.9397744140625,-0.3135375416278839,-0.10384089822471142,0.5490658147715032
1686343772878794500,5.94979443359375,-0.33292028748989105,0.0005623100578784942,0.5408108313191682
1686343772888814300,5.959814453125,-0.32657822498679157,0.06204582954645157,0.48712782951369876
1686343772898834400,5.96983447265625,-0.3298071239054203,0.09577391162514685,0.4098297049734741
1686343772908854500,5.9798544921875,-0.27245266704559323,0.10224281537830829,0.32839031591005624
1686343772918874600,5.98987451171875,-0.10755436578989028,0.06551613600552082,0.2627897164914757
1686343772928894500,5.99989453125,0.051852936834096905,-0.01765606819987297,0.16673596501164137
1686343772938914600,6.00991455078125,0.1612766036272049,-0.021945874348282813,0.06374854181110859
1686343772948934700,6.0199345703125,0.19025369178652762,-0.02964402763545513,0.04608056397773325
1686343772958954500,6.02995458984375,0.1549625981748104,-0.006268997266888618,0.07510572906248271
1686343772968974600,6.039974609375,0.09980126744508742,0.019325462716817853,0.16149126929119229
1686343772978994700,6.04999462890625,0.10805354748368262,0.04036474361419678,0.2447183454889804
1686343772989014300,6.06001416015625,0.1496820274233818,0.04241933805644512,0.3237470932140946
1686343772999034400,6.070034423828125,0.2091559606552124,0.01637070456445217,0.288633986517787
1686343773009054500,6.080054443359375,0.27830840733647344,0.024714170017838478,0.20854966532513497
1686343773019075300,6.090075439453125,0.2742892348229885,0.025539514926075934,0.10709157058373094
1686343773029095400,6.100095458984375,0.28472879577279087,0.006985621103644371,0.07738850623741746
1686343773039115500,6.110115478515625,0.2723825244188309,-0.06106967799067497,-0.0014912614710628986
1686343773049135400,6.12013525390625,0.24009587332010268,-0.12323241191506384,-0.008415215515345334
1686343773059155500,6.130155517578125,0.22675591475367546,-0.1721153930276632,0.0653932402782142
1686343773069175600,6.140175537109375,0.22843816875219344,-0.23687632675170897,0.04645034713819623
1686343773079195400,6.1501953125,0.21898411170840262,-0.27651334061324595,0.04308561994545161
1686343773089215500,6.160215576171875,0.1477636265814304,-0.284407893255353,0.06660115476325154
1686343773099235600,6.170235595703125,0.08479892862439155,-0.270009950068593,0.11257621253989636
1686343773109255700,6.180255615234375,0.03315641967058182,-0.22398177386522292,0.09398103685900569
1686343773119275500,6.190275634765625,-0.010012861111975507,-0.1953355250954628,0.1277598992768675
1686343773129295600,6.200295654296875,-0.09549684824943543,-0.1343283909469843,0.16217581748925147
1686343773139315700,6.210315673828125,-0.19406828163862228,-0.02902618799805641,0.15791516437008976
1686343773149335300,6.220335205078125,-0.2722059988081455,0.04196224193871021,0.11989727614298462
1686343773159356700,6.230356689453125,-0.3201847245573997,0.08359189092218876,0.07805120792984963
1686343773169376500,6.24037646484375,-0.31232524322867394,0.08853811515271663,0.06972074808850884
1686343773179396400,6.250396240234375,-0.29080899246931075,0.0887181478947401,0.04844729310907423
1686343773189416400,6.26041650390625,-0.30700901664197444,0.08442308104932307,0.028073271187394857
1686343773199436500,6.2704365234375,-0.25508243004977704,0.0287041164368391,0.01336575059480965
1686343773209456400,6.280456298828125,-0.16335633251070975,-0.004587327790260315,0.03229483440518379
1686343773219476500,6.2904765625,-0.10120762711167335,-0.07372282333672046,0.028680881691724062
1686343773229496600,6.30049658203125,-0.05695172127783298,-0.07750000378787517,0.023835341356694698
1686343773239516400,6.310516357421875,-0.03891746741533279,-0.04563187036216259,-0.01828187194801867
1686343773249536500,6.32053662109375,-0.0755032770127058,0.0014975450813770293,-0.08635368378572165
1686343773259556600,6.330556640625,-0.17181845590770242,0.055775663235783576,-0.16126666675508022
1686343773269576400,6.340576416015625,-0.22956220434606073,0.06656243018805981,-0.23857955047301946
1686343773279596500,6.350596435546875,-0.2188853275090456,0.07983692230284213,-0.30316658893488346
1686343773289616600,6.36061669921875,-0.19132453588843346,0.04592296226322651,-0.32556035318113863
1686343773299636500,6.370636474609375,-0.18197101660966872,0.006363105291128158,-0.33014570821002126
1686343773309657600,6.38065771484375,-0.1429886672645807,0.0026157354563474656,-0.3463428097732365
1686343773319677700,6.390677734375,-0.09492401679754256,-0.004701309558749199,-0.3667654931422323
1686343773329697500,6.400697509765625,-0.0775420893639326,-0.006951134312152862,-0.3663969520907849
1686343773339717400,6.41071728515625,-0.06279109495580196,-0.006868132203817367,-0.27669834179133174
1686343773349737500,6.420737548828125,-0.05695347484350204,-0.04674713812768459,-0.13967282071486115
1686343773359757300,6.43075732421875,-0.03361234674453735,-0.08076514306366443,-0.05540602620579302
1686343773369777400,6.44077734375,0.0070049091843597125,-0.09809212543964385,0.008305544595792889
1686343773379797500,6.450797607421875,0.034060090512037275,-0.11669628814458846,0.02387026653960347
1686343773389817600,6.460817626953125,0.04093523697853088,-0.10754910509288311,-0.012294833427667616
1686343773399837400,6.47083740234375,0.04729483513832092,-0.08051146056354046,-0.03684935590438545
1686343773409857500,6.480857421875,0.03728431097225984,-0.03870002527236938,-0.051671808113530275
1686343773419877600,6.490877685546875,0.029252982491254804,0.02085632554590702,-0.06946699252314865
1686343773429897500,6.5008974609375,0.04391162244081497,0.07519991015195845,-0.04800714812614024
1686343773439917600,6.51091748046875,0.02415360895905178,0.0809404996305704,0.031082755201682445
1686343773449938400,6.5209384765625,0.027110125243663786,0.08743629139065742,0.09226853385269641
1686343773459958500,6.53095849609375,0.07911153063774108,0.1066512794703245,0.09624189446307718
1686343773469978600,6.540978515625,0.12391980965733528,0.12133739194869994,0.057433294249698515
1686343773479998500,6.55099853515625,0.13703530268496833,0.13662147032022476,0.04961319508329034
1686343773490018600,6.5610185546875,0.16757424246668814,0.15628420216739178,0.015296864787861703
1686343773500038400,6.571038330078125,0.2194213340818882,0.15624913085401057,0.0001898234836757183
1686343773510058500,6.58105859375,0.22731004150509834,0.14115677566230297,0.007254866499081253
1686343773520078300,6.591078369140625,0.2342868947803974,0.12029694298505782,0.0867010359186679
1686343773530098400,6.601098388671875,0.2227753206849098,0.08218027055859566,0.18216778129078448
1686343773540118500,6.611118408203125,0.15741408298015594,0.04647533544898033,0.22995843712203204
1686343773550138400,6.621138427734375,0.1322796417236328,0.048531098935008045,0.20255480882450938
1686343773560158500,6.631158447265625,0.15121347477436065,0.044480946761369704,0.11686886823251842
1686343773570178600,6.641178466796875,0.16587445281147956,0.004641688326001167,0.05761734557971358
1686343773580199400,6.651199462890625,0.19468319866657255,-0.07556114467978477,0.06876125540658831
1686343773590219500,6.661219482421875,0.2269979068160057,-0.14552490774393081,0.0782819479458034
1686343773600239600,6.671239501953125,0.17165771238803862,-0.1662386099487543,0.0345146293465048
1686343773610259500,6.681259521484375,0.10064414801001548,-0.17832126193046569,-0.011025398013740778
1686343773620279600,6.691279541015625,0.039823476344347,-0.1574801339536905,-0.042343861667439336
1686343773630299600,6.701299560546875,-0.0063256936068995856,-0.13982757288515568,-0.047517026521638035
1686343773640319500,6.711319580078125,-0.09831541280150413,-0.12527590044140816,0.012734101627767086
1686343773650339600,6.721339599609375,-0.15260580591559408,-0.12047814477086066,0.1198599398072809
1686343773660359400,6.731359375,-0.17871990585923195,-0.11542027685940265,0.19301563078053294
1686343773670379500,6.741379638671875,-0.2423252398073673,-0.10593991633057594,0.24683190357685086
1686343773680399400,6.7513994140625,-0.29005495923161506,-0.07518178997337818,0.2870140571657568
1686343773690419500,6.76141943359375,-0.3301367942512035,-0.036892099067568775,0.28899726687222715
1686343773700439600,6.771439453125,-0.33528643209934234,-0.05665595320165157,0.3471455775234848
1686343773710459400,6.78145947265625,-0.2481459087848663,-0.085907766649127,0.4035553008791059
1686343773720480500,6.79148046875,-0.17318915973901747,-0.09879998144805431,0.3888667772479355
1686343773730500400,6.801500244140625,-0.14472878893017768,-0.08501052554845809,0.37595534629188476
1686343773740520400,6.8115205078125,-0.13648703028559683,-0.047478959533572195,0.3507543426051736
1686343773750540500,6.82154052734375,-0.10256956311464309,0.0009685527712106704,0.27457506602704523
1686343773760560600,6.831560546875,-0.06456044271588325,0.025900164932012557,0.2389792903803289
1686343773770580700,6.841580810546875,-0.09231588012576103,0.05481529377102851,0.17571444043293594
1686343773780600800,6.851600830078125,-0.11478139443397521,0.09566051437854767,0.0893392754677683
1686343773790621000,6.861620849609375,-0.051564183020591736,0.1366805070310831,0.01698920178897679
1686343773800640800,6.871640869140625,-0.012058686584234236,0.12488134816586971,-0.044129941366612906
1686343773810660600,6.88166064453125,0.0773462745308876,0.06480360382199286,-0.04486936155706644
1686343773820680700,6.8916806640625,0.16644611521959304,-0.020626023921370504,-0.00321267843618989
1686343773830700500,6.901700439453125,0.24081951141953467,-0.10932488259375095,0.011337021246179938
1686343773840720600,6.911720703125,0.3210229289472103,-0.1771796906799078,-0.0003051934916526079
1686343773850740700,6.92174072265625,0.36858547511100764,-0.20746610787212846,-0.03898673325926065
1686343773860761600,6.93176171875,0.3988882589161396,-0.22383096721768378,-0.06877097308300435
1686343773870781700,6.94178173828125,0.4388964441776275,-0.21332710886001585,-0.10465842515267432
1686343773880801800,6.9518017578125,0.377154566013813,-0.18268939401209353,-0.11272007798999548
1686343773890821600,6.961821533203125,0.33286768051981924,-0.14290858776569365,-0.13587817767225205
1686343773900841700,6.971841796875,0.36035189977288246,-0.10958674840033053,-0.1854807782962918
1686343773910861800,6.98186181640625,0.3722714701473713,-0.05362345363795757,-0.2195847810152918
1686343773920881700,6.991881591796875,0.31011575048565865,0.016110007801651952,-0.23502222331762312
1686343773930901800,7.00190185546875,0.1599871483385563,0.048368601849675175,-0.19683255872018635
1686343773940921900,7.011921875,-0.0017278467059135437,0.08049743203818797,-0.18881401437222955
1686343773950941700,7.021941650390625,-0.12222118904590606,0.1159364096879959,-0.20379012277312575
1686343773960961800,7.0319619140625,-0.2511877606987953,0.11344050121903419,-0.1934008307058364
1686343773970981600,7.041981689453125,-0.32778818529844284,0.06907412074804306,-0.13542561159916222
1686343773981001700,7.052001708984375,-0.3171925570040941,0.01232522856593132,-0.03365757412575185
1686343773991022600,7.062022705078125,-0.2570616211682558,-0.04884907884299755,0.05487213852480054
1686343774001042700,7.072042724609375,-0.24163959563076495,-0.07154080312252044,0.11626052707582711
1686343774011062500,7.0820625,-0.2865571802437305,-0.042589433926343914,0.1349922616831958
1686343774021082600,7.09208251953125,-0.3570429213553667,-0.010922960552573203,0.1469938843179494
1686343774031102700,7.102102783203125,-0.39218028571009633,0.0034118542701005936,0.13248992347344754
1686343774041122600,7.11212255859375,-0.3750315825104713,0.003420622098445892,0.14601824421882628
1686343774051142700,7.122142578125,-0.3324105844020843,0.03332417745292186,0.1496678527675569
1686343774061162800,7.132162841796875,-0.2942594251841307,0.11022153917253016,0.18230543619580566
1686343774071182800,7.142182861328125,-0.3461632154226303,0.1570937649846077,0.21753055189922452
1686343774081202700,7.15220263671875,-0.3618611352920532,0.21339666696488857,0.2542836808875203
1686343774091222800,7.162222900390625,-0.361591086179018,0.185637137901783,0.21461882917098699
1686343774101243000,7.172242919921875,-0.25929741739630696,0.09703238725364208,0.15968158952072262
1686343774111262700,7.1822626953125,-0.10435878461897373,-0.05105097280144691,0.04961202603951096
1686343774121282800,7.19228271484375,0.141246207511425,-0.19899813925623894,-0.05086977101564407
1686343774131303700,7.2023037109375,0.40738136197328567,-0.34278701698780056,-0.06032002866715192
1686343774141323800,7.21232373046875,0.6240554431736469,-0.4562006301999092,-0.03998692327775061
1686343774151343600,7.222343505859375,0.7607330275952816,-0.46445933997929095,0.012172522222250699
1686343774161363700,7.23236376953125,0.8373977496027946,-0.38947745649218557,0.08057261616624892
1686343774171383600,7.242383544921875,0.7260369772672652,-0.26575579975545405,0.15181421714648605
1686343774181403600,7.252403564453125,0.4588976141989231,-0.0894850406140089,0.18228424727730452
1686343774191423700,7.262423828125,0.17594751853644847,0.09945172335505485,0.14766549996919928
1686343774201443600,7.272443603515625,-0.05969838507089298,0.24499767388701438,0.022626769284531473
1686343774211463700,7.282463623046875,-0.1960842976361513,0.3668278177887201,-0.1396300775516778
1686343774221483800,7.29248388671875,-0.23490882607102392,0.42156595467031,-0.2727271000728011
1686343774231503600,7.302503662109375,-0.23468495418727398,0.38344051441550253,-0.36075098209306594
1686343774241523700,7.312523681640625,-0.2410141572088003,0.2517453945815563,-0.34102892127409573
1686343774251544800,7.322544921875,-0.24192250422537326,0.09621814826130866,-0.22112170825898647
1686343774261564700,7.332564697265625,-0.23384967240691185,-0.13785364246368406,-0.11344700402505695
1686343774271584800,7.342584716796875,-0.18298574661016462,-0.33173312353193757,-0.09312339711636304
1686343774281604900,7.35260498046875,-0.007229369014932308,-0.37833296214342116,-0.06818111743107437
1686343774291624700,7.362624755859375,0.12252280234098434,-0.3737280986964702,-0.008197042720019816
1686343774301644800,7.372644775390625,0.1292734456449747,-0.28360066852569576,0.11186587231345474
1686343774311665000,7.382664794921875,0.042890462699532506,-0.1974263598948717,0.16670761569999157
1686343774321684500,7.3926845703125,-0.03970657196640968,-0.11865735908448695,0.18500892300084232
1686343774331704600,7.40270458984375,-0.0796072052001953,0.0009516016364097595,0.14952033405564724
1686343774341724700,7.412724609375,-0.08353811490833758,0.09089783002138137,0.08079210413582623
1686343774351744800,7.422744873046875,-0.09925298591256142,0.054341831040382385,0.028242855600640177
1686343774361764600,7.4327646484375,-0.13701952972710132,-0.05032733470201492,0.07231018005982041
1686343774371785700,7.44278564453125,-0.14092179786264897,-0.07418401110768318,0.20369214229136703
1686343774381805600,7.4528056640625,-0.13581073845922947,0.027942484414577484,0.17505583039373157
1686343774391825700,7.46282568359375,-0.17743454222381114,0.15649053839445112,0.09815569219514728
1686343774401845800,7.472845703125,-0.24679274061024187,0.2740285380601883,0.04418094090148806
1686343774411865600,7.482865478515625,-0.2488572719246149,0.4001303679317236,0.07862213968560099
1686343774421885700,7.4928857421875,-0.13252514091730117,0.3851134160637855,0.17053119257614016
1686343774431905800,7.50290576171875,0.07171089899241924,0.22153204262554643,0.2325688388161361
1686343774441926000,7.51292578125,0.22486966261565683,0.020146715971827506,0.22451193521916865
1686343774451945700,7.52294580078125,0.2974117517352104,-0.17902970246076583,0.15204429957531393
1686343774461965800,7.5329658203125,0.2950356702536344,-0.3668617200583219,0.0958848246537149
1686343774471986000,7.54298583984375,0.1842243484944105,-0.4846621700525284,0.05506868401020765
1686343774482005500,7.553005615234375,0.0798731626600027,-0.5184019425690174,-0.011437485945969819
1686343774492027000,7.56302685546875,0.03011164743049303,-0.45013329298496246,-0.11672434519529341
1686343774502046500,7.57304638671875,0.0025467618733644483,-0.2710071444123983,-0.17791604213044046
1686343774512066600,7.583066650390625,-0.034215566484828014,-0.0850976193100214,-0.17056962489038704
1686343774522086700,7.593086669921875,-0.10614216090440749,0.1314209790676832,-0.1993774939626455
1686343774532106800,7.603106689453125,-0.2269891389876604,0.35921383565366266,-0.2568209442801773
1686343774542126600,7.613126708984375,-0.31216683779656884,0.5376864887535572,-0.2704169234342873
1686343774552146700,7.623146728515625,-0.34839725808501243,0.6145359196782112,-0.2565589323431253
1686343774562166800,7.633166748046875,-0.37627486056983467,0.5580108993798494,-0.2389699380300939
1686343774572186600,7.6431865234375,-0.372048182785511,0.41263036854267116,-0.18746815272122622
1686343774582206700,7.653206787109375,-0.2548515439033508,0.191086635479331,-0.10948080380782485
1686343774592226800,7.663226806640625,-0.10110767386853695,-0.02323825224637985,-0.06310206060111523
1686343774602247700,7.67324755859375,0.013170449501706752,-0.19993103619217872,-0.06050239949673414
1686343774612267800,7.683267822265625,0.10507716202139854,-0.32558979847133157,-0.0411459571197629
1686343774622288000,7.693287841796875,0.21119477300643918,-0.3268547038406133,-0.053497781431674954
1686343774632307700,7.7033076171875,0.3133797207176685,-0.3226122439652681,-0.08344912145063281
1686343774642327800,7.713327880859375,0.3101215957045555,-0.27885259721577166,-0.021791560569405555
1686343774652348000,7.723347900390625,0.26157120754718777,-0.20842881542444228,0.0893149447441101
1686343774662367700,7.73336767578125,0.24705869807004927,-0.11514087539613246,0.2439030105181038
1686343774672387600,7.7433876953125,0.14592705880403517,-0.037109541210532185,0.38838425442799923
1686343774682407700,7.75340771484375,0.05891980648040771,0.024832827961444853,0.5451330053672194
1686343774692427500,7.763427490234375,-0.11951485269665717,0.12313245867192744,0.6139154496923088
1686343774702447600,7.773447509765625,-0.2631260357737541,0.14994623131752013,0.6941798036269843
1686343774712468700,7.78346875,-0.3132639853835106,0.12761691060960292,0.7363119953051209
1686343774722488600,7.793488525390625,-0.3260053935348987,0.05710135888159275,0.7525529360100627
1686343774732508700,7.8035087890625,-0.32345570905208587,-0.049395022287964815,0.729333096203208
1686343774742528800,7.81352880859375,-0.2665022342085838,-0.18094693425893782,0.6814233440369367
1686343774752548600,7.823548583984375,-0.18112930508852004,-0.3124532535225153,0.5611858761541545
1686343774762568400,7.833568359375,-0.09814122527837753,-0.38034722457528114,0.39833383990377186
1686343774772588300,7.84358837890625,0.07685059996843338,-0.38499066646695135,0.2402073708705604
1686343774782608400,7.8536083984375,0.26032851400971413,-0.4076648550897836,0.1576736106991768
1686343774792628200,7.863628173828125,0.3777075237214565,-0.3984463603675365,0.10659209662899374
1686343774802648300,7.8736484375,0.4005459629952907,-0.35323709933161734,0.02536620418578386
1686343774812668400,7.88366845703125,0.31048166118860243,-0.3274345495551824,-0.08960267564430832
1686343774822689300,7.893689208984375,0.19735913987755774,-0.24614509035646914,-0.2170943524390459
1686343774832709400,7.90370947265625,0.10536942296624183,-0.15565233400464057,-0.3040653644055128
1686343774842729200,7.913729248046875,0.09224807558655738,-0.0916021788984537,-0.3558532731793821
1686343774852749300,7.923749267578125,0.17427987758517263,-0.06863514480888844,-0.3467106201723218
1686343774862769400,7.933769287109375,0.2969195843040943,-0.043566170004010196,-0.2949985531136393
1686343774872789500,7.94378955078125,0.39594460667967796,0.002588262927532196,-0.2691885506831109
1686343774882809300,7.953809326171875,0.4472516000688076,0.060547115421295164,-0.2934400716252625
1686343774892829400,7.963829345703125,0.4365747232317924,0.17372516631186008,-0.387126801712811
1686343774902849500,7.973849609375,0.3987538188815117,0.2678840439558029,-0.4900746966205537
1686343774912869400,7.983869384765625,0.29203765748143196,0.32772564145624633,-0.5301872190393507
1686343774922889500,7.993889404296875,0.2053518921971321,0.35597733795046804,-0.5184262002274393
1686343774932910300,8.003910400390625,0.1374035606086254,0.33614334118962286,-0.4583030093066394
1686343774942930400,8.013930419921875,0.05298573568973224,0.28423487477600573,-0.3507503970824182
1686343774952950500,8.023950439453126,-0.01366378825989086,0.2192681893467903,-0.23362711569741368
1686343774962970400,8.033970458984374,-0.03508416829619091,0.1879506755411625,-0.14899170707166193
1686343774972990200,8.043990234375,-0.10507131680250167,0.15310498760938643,-0.05414017098844051
1686343774983010300,8.05401025390625,-0.14603811796307564,0.18651275169253348,0.03508694934174418
1686343774993030400,8.064030517578125,-0.18043255499601363,0.29028116920292374,0.10537716788128018
1686343775003050200,8.07405029296875,-0.2711760712385177,0.3919868089646101,0.061220484638214105
1686343775013070300,8.0840703125,-0.36979309733510013,0.42504444443583483,-0.087191815110296
1686343775023090400,8.09409033203125,-0.3853203368127346,0.36394203321933744,-0.2682971548013389
1686343775033111300,8.104111328125,-0.3258148393988609,0.2214554702579975,-0.3859297008827328
1686343775043131400,8.11413134765625,-0.2528536480844021,0.0034323125362396237,-0.39225656581670043
1686343775053151500,8.1241513671875,-0.20710078169107435,-0.22508301310539244,-0.2879639783017337
1686343775063171300,8.13417138671875,-0.14068272840976714,-0.4085872306317091,-0.1854334320232272
1686343775073191400,8.14419140625,-0.10361001207828521,-0.5319605123221874,-0.07764218873754143
1686343775083211500,8.15421142578125,-0.1715665269732475,-0.5381646276593208,0.04104015865772962
1686343775093231400,8.1642314453125,-0.2549392221868038,-0.5156868383914232,0.21208967601954937
1686343775103251500,8.17425146484375,-0.38962241792082786,-0.4756768995642662,0.4305009562760591
1686343775113271600,8.184271484375,-0.37395372414588923,-0.37476913218200203,0.5472022128567099
1686343775123291100,8.194291015625,-0.3160521547973156,-0.31268940036594867,0.5143399538271128
1686343775133312500,8.2043125,-0.3344377063155174,-0.21844401348233222,0.43515331212654706
1686343775143332600,8.21433251953125,-0.39887773752212524,-0.0745581051170826,0.3670072660088539
1686343775153352200,8.224352294921875,-0.36236382411718365,0.0274842192530632,0.2465511869393289
1686343775163372300,8.234372314453125,-0.33422610939145087,0.11472995650768279,0.11610562877506017
1686343775173392400,8.244392333984376,-0.26248892518030476,0.23359540538489817,-0.04288447135016322
1686343775183412200,8.254412109375,-0.07270751794748939,0.2719616686582565,-0.16631006774976848
1686343775193432300,8.264432373046875,0.07631282156361266,0.2620972772479057,-0.28634207618832586
1686343775203452400,8.274452392578125,0.15805004279613494,0.2601151635199785,-0.3929387028619647
1686343775213472300,8.28447216796875,0.18305240037189796,0.22137480623722075,-0.43046734626740213
1686343775223493400,8.294493408203126,0.20457564712762832,0.12134674429893492,-0.3962795377224684
1686343775233513500,8.304513427734374,0.2981389152322896,0.006557751080393791,-0.3223582692041993
1686343775243533300,8.314533203125,0.47236266044974323,-0.09386544765532016,-0.2156239876255393
1686343775253553400,8.324553466796875,0.654186377543211,-0.1414987209677696,-0.1057135602287948
1686343775263573500,8.334573486328125,0.7627811922967433,-0.13093641042113302,-0.005278086533397436
1686343775273593300,8.34459326171875,0.7011515423357486,-0.07531038478910923,0.03094634240567684
1686343775283613400,8.354613525390626,0.6671440587937831,0.004209142127633094,0.03842953776791692
1686343775293633500,8.364633544921874,0.37038229539990425,0.23310849865078925,0.10081292870566248
1686343775303653400,8.3746533203125,0.14127307725204155,0.4237485594063997,0.05138604997470975
1686343775313673200,8.384673095703125,-0.09570727612972259,0.4564864614039659,-0.08338511630371212
1686343775323694600,8.394694580078125,-0.14024433699250222,0.5029904384255409,-0.28241584265530106
1686343775333714400,8.40471435546875,-0.1963233670890331,0.32512977974414825,-0.4809069091722369
1686343775343734300,8.414734375,-0.13856560839163137,0.1622258671760559,-0.53300943685323
1686343775353754400,8.42475439453125,-0.05784664255725219,-0.05102642288208008,-0.5364098929464817
1686343775363774200,8.434774169921875,-0.007301865712273865,-0.27545710955858227,-0.36987317683398724
1686343775373794300,8.444794189453125,0.08947393469810486,-0.48475218642354007,-0.09361556454747914
1686343775383814400,8.454814453125,0.26032968305349347,-0.574423689520359,0.24694310886636375
1686343775393834200,8.464834228515626,0.17894204244362188,-0.5316308419764042,0.6045337272323668
1686343775403854300,8.474854248046874,0.13769461597707122,-0.4679021739095449,0.7095946687713265
1686343775413875500,8.48487548828125,0.14029809474004432,-0.29641280382573604,0.6810271843262017
1686343775423895300,8.494895263671875,0.038753783019911496,-0.12399988915622234,0.5112605463817715
1686343775433915400,8.504915283203125,-0.08277882097363472,0.02127367417514324,0.3402782490372658
1686343775443935500,8.514935546875,-0.33496260697245595,0.1512327639967203,0.2774408307217061
1686343775453955300,8.524955322265624,-0.5816881275653839,0.2651654326468706,0.16120660713091492
1686343775463975400,8.534975341796875,-0.7292869189739227,0.27831308351159095,0.1218596622571349
1686343775473995500,8.54499560546875,-0.6191548116505146,0.21287059726417062,0.09357888579890132
1686343775484015400,8.555015380859375,-0.42953240350484845,0.1095668746560812,0.03373115081861615
1686343775494035500,8.565035400390625,-0.4680816221296787,-0.024380992540717124,0.045165421894192696
1686343775504056600,8.575056640625,-0.38078678503632546,-0.16175591157674787,0.1617835302360356
1686343775514076400,8.585076416015625,-0.1826946547091007,-0.29763679266273974,0.2887463608510792
1686343775524096500,8.595096435546875,-0.10064175512352957,-0.3466191424965858,0.33835692558586594
1686343775534116400,8.605116455078125,0.03801144022000953,-0.272259190300107,0.26540406370833514
1686343775544136200,8.61513623046875,0.1935796213388443,-0.2136608708590269,0.15150865832865237
1686343775554156300,8.62515625,0.09316928208470344,-0.15210194804668425,0.09607873979061841
1686343775564176400,8.63517626953125,0.038297874212265014,-0.06045125383138656,0.04430938958674669
1686343775574196200,8.6451962890625,-0.03972646397696808,-0.007463760009407997,-0.08604439864084124
1686343775584216300,8.65521630859375,-0.12406827821731567,0.018469722670316695,-0.23219445254579185
1686343775594237400,8.665237548828125,0.022370858294703064,-0.006003624328970909,-0.2070855841219425
1686343775604257300,8.67525732421875,0.15151976424455643,0.024488544568419455,-0.17748598015010356
1686343775614277400,8.68527734375,0.1859586249411106,0.04938625445961952,-0.2736079745605588
1686343775624297500,8.69529736328125,0.34134909313917156,0.028370938959717748,-0.31762919485568997
1686343775634317300,8.7053173828125,0.5190811935374513,-0.04654489355385303,-0.29951486149430273
1686343775644337400,8.71533740234375,0.18025836747288704,0.0013625205248594284,-0.10927315240651368
1686343775654357500,8.725357421875,0.22892215287685394,0.025379940450191495,-0.0642920010380447
1686343775664377300,8.73537744140625,0.17599950445201246,0.05793780970573425,-0.06814560772627591
1686343775674398500,8.7453984375,0.16120527369035406,0.06848316911756992,-0.05490487175062298
1686343775684418600,8.75541845703125,0.284418999171257,0.05559329240620136,-0.026211130577325818
1686343775694438400,8.7654384765625,0.26806995844934134,0.0542582444101572,0.012761428026109934
1686343775704458500,8.77545849609375,0.21143559602499007,0.10139642768204211,0.05799377767667174
1686343775714478300,8.785478271484376,0.20973461905969307,0.18068916010558603,0.04886866032630205
1686343775724498200,8.795498291015624,0.2293032976815477,0.23748013786375521,0.05925897530689835
1686343775734518300,8.805518310546875,0.0959200420975685,0.2791758378207683,0.06837459417656064
1686343775744538400,8.815538330078125,-0.08276714880215004,0.33097675220668316,0.04123889610022306
1686343775754559200,8.825559326171875,-0.1907119569480419,0.31109657821655273,0.0007074176169931889
1686343775764579600,8.83557958984375,-0.057906263790000224,0.21582535541653633,-0.0579421936199069
1686343775774599700,8.845599609375,0.2721581045458093,0.06538695666790008,-0.1193152384713292
1686343775784619500,8.85561962890625,0.36073772075269367,-0.1014145478606224,-0.15984671695455907
1686343775794639400,8.865639404296875,0.1558510349145159,-0.23706103566884992,-0.11421207011342048
1686343775804659500,8.875659423828125,0.2086439012135379,-0.28755729719698425,0.06158128077462315
1686343775814679300,8.88567919921875,0.023556195621751246,-0.36564123835265633,0.1672423801638186
1686343775824699400,8.895699462890626,-0.16658526796195655,-0.35538755536377425,0.21434388468712567
1686343775834720300,8.90572021484375,-0.01993922896729782,-0.2935281883001327,0.2429416181400418
1686343775844740400,8.915740234375,0.05124269598126411,-0.26010171951651573,0.2582785957425833
1686343775854760400,8.925760498046875,-0.0006757073044776916,-0.15957798301577567,0.26342209611088035
1686343775864780500,8.935780517578126,-0.0038332580199465153,-0.029953239715099333,0.2270195341259241
1686343775874800400,8.94580029296875,0.013738639027811587,0.036868133670091625,0.15800503461062906
1686343775884820500,8.955820556640624,-0.007620996397733688,0.0799561647683382,0.12823811124786733
1686343775894840600,8.965840576171875,-0.004054243826866149,0.12737608759105204,0.0923157339952886
1686343775904860400,8.9758603515625,-0.00666238049864769,0.14953940408229827,0.05668649447038769
1686343775914881500,8.985881591796876,-0.06655600044727325,0.14508885441422462,-0.0002620119370520115
1686343775924901400,8.9959013671875,-0.05068621287597343,0.16042670879960058,-0.05482026220709085
1686343775934921500,9.00592138671875,0.046294133663177486,0.14979308658242224,-0.0493240028783679
1686343775944941600,9.015941650390625,0.15602056452883406,0.1375555362999439,-0.01236073827072978
1686343775954961700,9.025961669921875,0.15553192249536513,0.15912965472638607,0.01934270611256361
1686343775964981500,9.0359814453125,0.05751229603635147,0.1948252374857664,0.042745355140417815
1686343775975001300,9.04600146484375,-0.0032569559693336487,0.2315191836327314,0.007912088298797608
1686343775985021400,9.056021484375,-0.023701193583011627,0.25198797116577626,-0.04047141885906458
1686343775995041300,9.066041259765624,-0.00009935045493766664,0.21643910340070724,-0.10632233977690339
1686343776005062400,9.0760625,0.0641968701004982,0.1257972939670086,-0.13138269288390875
1686343776015082200,9.086082275390625,0.0653530361319892,0.026637831556797026,-0.15073285165056585
1686343776025102300,9.096102294921875,0.1455038649559021,-0.01952010850608349,-0.146222973010689
1686343776035122400,9.106122314453126,0.21546877879751844,-0.03875263224244117,-0.12108882401511073
1686343776045142500,9.116142578125,0.21998130605220792,-0.09064064038991927,-0.1021389166124165
1686343776055162400,9.126162353515625,0.25349428407549857,-0.07031973689496517,-0.08403934242874384
1686343776065182500,9.136182373046875,0.3394996293475851,-0.006401099213957786,-0.07416033797115087
1686343776075203300,9.146203369140625,0.36257775912880896,0.02091302416920662,-0.06564604599550367
1686343776085223400,9.156223388671876,0.36886487657427786,0.05001169288158416,-0.034932927823811764
1686343776095243500,9.166243408203124,0.32593525090813635,0.10060323147773742,0.017407792527228592
1686343776105263400,9.176263427734375,0.19027941074967383,0.1125555350780487,0.016820055767148734
1686343776115283500,9.186283447265625,0.0644598866845481,0.1224281097948551,-0.022633564351499078
1686343776125303600,9.196303466796875,0.004468076191609725,0.11887012505233287,-0.08374751987531781
1686343776135323600,9.20632373046875,0.016375960694882088,0.059276949355006214,-0.13448723477050661
1686343776145344500,9.216344482421874,0.06948093885011039,-0.05537585026323795,-0.128094172732532
1686343776155364600,9.226364501953125,0.09791091452068648,-0.15303133785128592,-0.09723390117511152
1686343776165384400,9.236384521484375,0.13035305757522583,-0.20033786342740056,-0.04192600158154964
1686343776175404500,9.246404541015625,0.11107084947824478,-0.2430406946003437,0.0032655776672065257
1686343776185424600,9.256424560546876,0.08615852653980255,-0.2439285833507776,0.02702697700485587
1686343776195444200,9.2664443359375,0.05486205552220344,-0.191017661896348,0.047504093974828715
1686343776205464300,9.27646435546875,0.008377367722988128,-0.14968670359849928,0.030582185268402097
1686343776215484400,9.286484375,-0.04522270503938198,-0.11304770250916481,0.025439853943884372
1686343776225505300,9.29650537109375,-0.08303601060509681,-0.08987900836765765,0.06717910078167914
1686343776235525400,9.306525390625,-0.14607961901724337,-0.09248305338621139,0.11083835589662194
1686343776245545500,9.31654541015625,-0.2575923670440912,-0.09969137732982634,0.110764560008049
1686343776255565300,9.3265654296875,-0.3415402317970991,-0.1297574297696352,0.11993263971731066
1686343776265585400,9.33658544921875,-0.37389001125991345,-0.20728490608632563,0.12384396794214844
1686343776275605500,9.34660546875,-0.4288987817764282,-0.31621757449209686,0.13795564153343437
1686343776285625300,9.356625244140625,-0.507434558352828,-0.42131519477963447,0.1452028361827135
1686343776295645400,9.3666455078125,-0.5505792880743742,-0.4860071549206972,0.11513108465448021
1686343776305666600,9.37666650390625,-0.5367413168579339,-0.5335965890914202,0.10374006819874047
1686343776315686400,9.386686279296875,-0.5026432324230671,-0.5951549273818731,0.1019889867477119
1686343776325706500,9.39670654296875,-0.39964404571950435,-0.5488187081426382,0.0827469645306468
1686343776335726600,9.4067265625,-0.31366262931227684,-0.4418173000603914,0.06980798798054456
1686343776345746400,9.416746337890626,-0.3116945441097021,-0.3361071008324623,0.08403203590512275
1686343776355766500,9.4267666015625,-0.3024094138920307,-0.19297288761734963,0.09560907645225525
1686343776365786600,9.43678662109375,-0.3139583973884582,0.008314823880791664,0.12950915409699082
1686343776375807500,9.446807373046875,-0.3884977978050709,0.16985270879268646,0.1650727810397744
1686343776385827600,9.45682763671875,-0.4625228189587593,0.31729134120345115,0.20367782150506972
1686343776395847700,9.46684765625,-0.4731155246436596,0.41231764933168885,0.18537044978961348
1686343776405867300,9.4768671875,-0.5103764570236206,0.48925943471491334,0.1359824417643249
1686343776415887400,9.486887451171874,-0.4805290157705545,0.49972354558408255,0.06494228164032101
1686343776425907500,9.496907470703125,-0.410747039014101,0.4522925168454647,-0.037772242902964354
1686343776435927300,9.50692724609375,-0.36849078256487844,0.35134500197470186,-0.1598246512532234
1686343776445948400,9.516948486328126,-0.3326034766256809,0.220980838483572,-0.2747485228978097
1686343776455968300,9.52696826171875,-0.2993348287522793,0.050370589321851726,-0.3709174251899123
1686343776465988400,9.53698828125,-0.28625147529542444,-0.13295827163755894,-0.4068598223172128
1686343776476008400,9.547008544921875,-0.28293606713712216,-0.2934714896768331,-0.36630642426311966
1686343776486028500,9.557028564453125,-0.26428105102777477,-0.41740591238141056,-0.25688436490520833
1686343776496048400,9.56704833984375,-0.19455635741651056,-0.5062438872635364,-0.1583373353049159
1686343776506068500,9.577068359375,-0.10241875646710395,-0.5140741424977779,-0.07619535093009472
1686343776516089300,9.58708935546875,-0.009437685864302329,-0.40905893979668617,-0.009920943903177977
1686343776526109400,9.597109375,0.04443710761964321,-0.2333499061912298,0.007685732197016477
1686343776536129500,9.607129638671875,0.08671616042256355,-0.016910218268632888,-0.0002209492743015289
1686343776546149400,9.6171494140625,0.11589373959004878,0.19952654704451558,-0.04870148706585169
1686343776556169500,9.62716943359375,0.12270984934568405,0.3816419405609369,-0.10541896119639277
1686343776566189600,9.637189453125,0.13719196368455885,0.48567982266247267,-0.13583411933481693
1686343776576209700,9.647209716796874,0.17227847463488577,0.4951549224942922,-0.09669628716707229
1686343776586230500,9.65723046875,0.2631903331816196,0.43572073675096035,-0.054768824280798434
1686343776596250600,9.667250732421875,0.3480108891159296,0.3301157514631748,-0.02365545474514365
1686343776606270500,9.6772705078125,0.37509587991833687,0.19944471397995947,0.009365940368920564
1686343776616290600,9.68729052734375,0.370932915019989,0.07024959426820278,0.061142158704996105
1686343776626310400,9.697310302734374,0.3769663499653339,-0.04725041147470474,0.13160130407065151
1686343776636330200,9.707330322265625,0.39361820955872534,-0.11304244181215763,0.17115765391141174
1686343776646350300,9.717350341796875,0.41693712582588194,-0.1557382587224245,0.2068681419789791
1686343776656371500,9.727371337890625,0.4117489095330238,-0.1939104607284069,0.2459314476057887
1686343776666391300,9.737391357421876,0.361591086179018,-0.18096446991562842,0.2777494582794606
1686343776676411400,9.747411376953124,0.20651275267004965,-0.14532324769198893,0.27739143862202764
1686343776686431500,9.757431396484375,0.0694429540604353,-0.09694529349207878,0.22326485776752233
1686343776696451300,9.767451416015625,-0.015909516793489457,-0.041997313252091405,0.13032573117688298
1686343776706471400,9.777471435546875,-0.05910685348510742,-0.021498130580782888,0.049371349151432514
1686343776716491500,9.787491455078126,-0.03971241718530655,-0.020991934624314305,0.017407500266283748
1686343776726512400,9.797512451171874,0.013534019833803175,-0.06547697303891181,0.008315116141736507
1686343776736532500,9.807532470703125,0.04482698372006416,-0.09530921672284602,0.031683716769516465
1686343776746552600,9.817552490234375,0.05550736768841743,-0.12964637061059475,0.11141776321977376
1686343776756572400,9.827572509765625,0.053583121627569195,-0.1578729326635599,0.1908016810581088
1686343776766593000,9.837593017578126,0.0037339258313179016,-0.16270751321315766,0.24649302701130507
1686343776776613000,9.847613037109374,-0.084469842800498,-0.1650011771082878,0.25568214950859547
1686343776786633000,9.857633056640625,-0.15703472827374934,-0.14972002134621143,0.22367197726368904
1686343776796654000,9.867654052734375,-0.21605098086595534,-0.12938041315078735,0.16277181062102317
1686343776806674000,9.877673828125,-0.24324761534929273,-0.10309504829347133,0.09723156308755278
1686343776816694000,9.887694091796876,-0.2329372337371111,-0.07451485049724578,0.01231105391010642
1686343776826714000,9.897714111328124,-0.24638766694068906,-0.026883915272355077,-0.08695581439733505
1686343776836734000,9.90773388671875,-0.25585282990038394,0.008489595925807952,-0.12285831790566444
1686343776846754000,9.917754150390625,-0.291267257630825,0.004427753314375877,-0.08226867949441075
1686343776856774100,9.927774169921875,-0.28913141464591025,-0.0062742579638957975,-0.039984950516372915
1686343776866795000,9.937794921875,-0.2530214058667421,-0.05940612869262695,-0.010835428399592638
1686343776876815000,9.947815185546874,-0.19653437949120997,-0.08164484850764274,0.0008377659983932972
1686343776886835200,9.957835205078124,-0.1378477972447872,-0.06959668331742286,-0.018849808029085396
1686343776896855000,9.96785498046875,-0.12541501665115357,-0.046163200759887696,-0.01956321699544787
1686343776906875100,9.977875244140625,-0.14873334839642047,0.008276829957962036,-0.025990619694441556
1686343776916895200,9.987895263671875,-0.13924831169247626,0.05001110835969448,-0.05467910017073154
1686343776926915000,9.9979150390625,-0.1417185103314463,0.09814707049727439,-0.06872311535328626
1686343776936936200,10.007936279296874,-0.19674831450283525,0.13406009539961813,-0.06298559461459517
1686343776946956000,10.0179560546875,-0.23644611864089965,0.11660276464223861,-0.06811682002320885
1686343776956976000,10.02797607421875,-0.24455811342597006,0.06491057132780552,-0.05659165579378605
1686343776966996200,10.037996337890625,-0.21311726550161839,-0.01333820500075817,-0.04068769195824861
1686343776977016000,10.04801611328125,-0.19438158537149428,-0.1109784950196743,0.0014057751446962356
1686343776987036000,10.058035888671874,-0.19030396066904068,-0.17144436189830303,0.06151084588691592
1686343776997057000,10.06805712890625,-0.18945581940710543,-0.22945056066513062,0.13553235990926624
1686343777007076900,10.078076904296875,-0.1784510257899761,-0.22230536508560178,0.18655016109347342
1686343777017097000,10.088096923828125,-0.12919862684309483,-0.16852993575632572,0.19813217007666825
1686343777027117000,10.098116943359376,-0.05448679246902465,-0.09961246687471866,0.15227555104792118
1686343777037137200,10.10813720703125,0.024331897268560713,-0.022525720062851903,0.11852511100694536
1686343777047157000,10.118156982421874,0.0704290379217593,0.028414778101444244,0.07982070182040334
1686343777057177000,10.128177001953125,0.12304068873524665,0.03390753029882908,0.06860767228007317
1686343777067198000,10.138197998046875,0.15985621543526649,0.021235680252313614,0.03916486630514264
1686343777077218000,10.148218017578126,0.1722825662881136,0.011916647765040396,0.02240706211924553
1686343777087238100,10.158238037109374,0.17171499553322792,-0.004116203147172927,0.038097529334574935
1686343777097258000,10.168258056640624,0.193072840860486,0.006101239484548568,0.02719049700349569
1686343777107278000,10.178278076171875,0.18910919792652128,0.020848142239451407,0.017085574835538863
1686343777117298200,10.188298095703125,0.18340777141451833,0.039625323423743246,-0.02693009250164032
1686343777127318000,10.198318115234375,0.1601864703029394,0.06172492702901363,-0.08628975170403719
1686343777137339100,10.208339111328126,0.14296937804222107,0.053583121627569195,-0.09669833299368619
1686343777147359200,10.218359130859374,0.14441197806596756,0.030404490613937376,-0.09077668785974383
1686343777157379000,10.228379150390625,0.11356383533775806,-0.005433715486526489,-0.047009442325681446
1686343777167399200,10.238399169921875,0.030188222081330603,-0.04366086255013942,-0.026040450185537335
1686343777177419300,10.248419189453125,-0.06903086612820625,-0.055500353425741195,-0.005990034195035696
1686343777187438800,10.25843896484375,-0.11962941898703575,-0.06247603765726089,-0.004555179086327552
1686343777197460200,10.268460205078124,-0.20255846208631992,-0.0316495222389698,-0.05849734328463673
1686343777207480300,10.278480224609375,-0.27656653210520743,0.012762450939416884,-0.10363806912899017
1686343777217500000,10.2885,-0.244839852976799,0.02224631859958172,-0.15356617538034914
1686343777227520000,10.29852001953125,-0.15514672257006168,0.05826631100773811,-0.22334756761491298
1686343777237540000,10.3085400390625,-0.0360936421662569,0.05680208367407322,-0.2485394381470978
1686343777247560000,10.318559814453126,0.08166063059866428,0.039757425370812415,-0.19947510911822317
1686343777257580000,10.328580078125,0.20727438469231127,0.026162615260481834,-0.10292992085963487
1686343777267601000,10.338600830078125,0.2373404371321201,0.06308043329119682,-0.029881489653140306
1686343777277621000,10.34862109375,0.21968436893224716,0.12309504927098751,-0.012409984239935874
1686343777287641000,10.35864111328125,0.15762217277288437,0.1652110204666853,-0.01704275860711932
1686343777297661200,10.3686611328125,0.10850304481685161,0.1951122377336025,-0.041416736885160205
1686343777307681000,10.378680908203124,0.02570084296762943,0.20130641619861125,-0.06299465470388531
1686343777317701000,10.388701171875,-0.06801438712861854,0.12582125936448574,-0.0511285680823028
1686343777327722000,10.398721923828125,-0.1577992829054594,0.0029342998862266537,-0.01184489770308137
1686343777337742000,10.4087421875,-0.17008885563611983,-0.13237374974787233,0.038787411294877526
1686343777347762200,10.41876220703125,-0.1431201846897602,-0.28911329446733,0.12425868622288107
1686343777357782000,10.428781982421874,-0.09541150805354118,-0.3684007661938667,0.19680033695101737
1686343777367802000,10.438802001953125,-0.03347440414514858,-0.3733025667607784,0.24348639254122972
1686343777377822200,10.448822265625,0.005616086316108704,-0.34423020153343675,0.27276480173468587
1686343777387842300,10.45884228515625,-0.007421087628172244,-0.2235124027878046,0.26291137010976673
1686343777397863200,10.46886328125,-0.0627343917659251,-0.10831132163703441,0.25115707329958675
1686343777407883300,10.47888330078125,-0.13783143063187597,-0.04849895023107528,0.20978154520764947
1686343777417903000,10.488903076171875,-0.18565584260225296,0.006959902140498161,0.12743278621435164
1686343777427923000,10.4989228515625,-0.18200901053249835,-0.024002806878089904,0.03420388289690018
1686343777437943000,10.508943115234375,-0.17153963896632193,-0.10809095688462257,-0.017573066091537474
1686343777447963000,10.518962890625,-0.11509060651361942,-0.13740531417429447,0.037765374770760536
1686343777457984000,10.52898388671875,-0.049746319943666455,-0.15846037716269493,0.09608969957605004
1686343777468004000,10.539004150390625,-0.03504267180860042,-0.1325637193620205,0.06163987909406423
1686343777478024000,10.54902392578125,-0.016004209339618682,-0.043138884502649306,0.015252660319954156
1686343777488044000,10.5590439453125,-0.03043138090415159,0.018313070803880692,0.014245090712606906
1686343777498064100,10.569064208984376,-0.10216332040131092,0.043052959784865376,0.03828121533840895
1686343777508084000,10.579083984375,-0.18195698808431623,0.03408171782195568,0.022538725674897432
1686343777518105000,10.58910498046875,-0.21066227356493472,0.04503331994712353,-0.003378098130971193
1686343777528125000,10.599125,-0.18159516903460024,0.03596563187241554,-0.04065642003715038
1686343777538145000,10.60914501953125,-0.18078911334872244,0.0014466916769742964,-0.04139262535721063
1686343777548165000,10.6191650390625,-0.20213059206306933,-0.05977788461446762,-0.017518121033906934
1686343777558185200,10.629185302734374,-0.2515945879340172,-0.0793985308855772,0.01729658723771572
1686343777568205000,10.639205078125,-0.3010539076298475,-0.08268003677427768,0.012622896338254213
1686343777578225200,10.64922509765625,-0.351182504889369,-0.04766016131937503,-0.04975844877287745
1686343777588246000,10.65924609375,-0.3303863850980997,-0.012401216411590575,-0.1443549871817231
1686343777598266000,10.66926611328125,-0.23768822765648365,-0.004806523498892784,-0.23526143890097737
1686343777608286200,10.6792861328125,-0.13372165722548962,-0.033301381099224085,-0.23998116089925167
1686343777618306000,10.68930615234375,-0.04885141693055629,-0.07051321364045143,-0.1876335724160075
1686343777628326100,10.699326171875,0.029832828205823895,-0.07089198382496834,-0.11514277509227394
1686343777638346200,10.70934619140625,0.14219780914783478,-0.050987259915471074,-0.06792831171378493
1686343777648367000,10.7193671875,0.22308628633022307,-0.008403671208024025,-0.05764291841238737
1686343777658387200,10.72938720703125,0.21483400629162788,0.05641805279254913,-0.07939093210101127
1686343777668407000,10.739406982421874,0.18871990634799002,0.11623451585173607,-0.11112594066634773
1686343777678427000,10.749427001953125,0.17259411645531653,0.15216682997643946,-0.137755881177634
1686343777688447000,10.759447021484375,0.1443535258769989,0.14933072976768016,-0.17377894232571123
1686343777698467000,10.769467041015625,0.1624082380056381,0.13852876524627208,-0.1546850964076817
1686343777708488000,10.779488037109376,0.17718261328935622,0.11554828715324401,-0.08911825312823057
1686343777718508000,10.789508056640624,0.15482114387750626,0.1043815809726715,-0.03470277232974767
1686343777728528100,10.799528076171875,0.08776011651754378,0.092412910759449,0.012186550747603178
1686343777738548000,10.8095478515625,0.011280103427171706,0.10595569842159748,0.028074440231174228
1686343777748568000,10.819568115234375,-0.06297054317593574,0.12729367000460623,0.007648468926548958
1686343777758587600,10.829587646484375,-0.09083703974485396,0.1253174014955759,-0.019299159231781958
1686343777768608800,10.83960888671875,-0.08135258756279945,0.0961643722474575,-0.03874561797976494
1686343777778628600,10.849628662109374,-0.07350363219466526,0.05982698445320129,-0.07336085815653204
1686343777788648700,10.859648681640625,-0.07918167326450347,0.03086567838490009,-0.09087225718870759
1686343777798668500,10.86966845703125,-0.09778700501322746,-0.013383213186264037,-0.04635273198261857
1686343777808688600,10.879688720703125,-0.10096329696178435,-0.059248892304301255,0.04295212975889444
1686343777818708700,10.889708740234376,-0.09306173005700111,-0.09967734880447388,0.11288754351139067
1686343777828729600,10.8997294921875,-0.04264436985081993,-0.12555004120767116,0.14767930929884313
1686343777838749700,10.909749755859375,0.02075169612765312,-0.12161094819307326,0.15414587496444582
1686343777848769800,10.919769775390625,0.051448447686433786,-0.10756021100878715,0.18470263353064656
1686343777858789600,10.92978955078125,0.08112930020093917,-0.11248831506073474,0.24069968443214892
1686343777868809700,10.939809814453126,0.11816461626463569,-0.1140939966917038,0.2794894338145852
1686343777878829800,10.949829833984374,0.20111060136556624,-0.1332820967644453,0.29780367366224525
1686343777888850700,10.9598505859375,0.2524526660680771,-0.1327069272249937,0.2966825606778264
1686343777898870800,10.969870849609375,0.2374281154155731,-0.11085866803228854,0.2890320459246635
1686343777908890600,10.979890625,0.20899697070121764,-0.09005904110968112,0.30643326258063314
1686343777918910700,10.98991064453125,0.17574819657206533,-0.1016886886268854,0.3523889580696821
1686343777928930800,10.999930908203124,0.12198036602735518,-0.1335001234292984,0.38963805388137696
1686343777938950700,11.00995068359375,-0.0029553518074098973,-0.13505904330909252,0.36047026545554395
1686343777948970800,11.019970703125,-0.15357961938381195,-0.10797346798479557,0.3350175520300865
1686343777958992000,11.029991943359375,-0.3230558960795402,-0.08041033827662468,0.3763203071467578
1686343777969011700,11.04001171875,-0.3483750462532043,-0.09428104271888732,0.35698680725395676
1686343777979031800,11.05003173828125,-0.2651566648185253,-0.14934709638059138,0.31091318447366356
1686343777989052000,11.060052001953125,-0.2751099035561085,-0.11845862164199351,0.3082207305192947
1686343777999071500,11.070071533203125,-0.2654360662817955,-0.09447919563949107,0.13064166525825857
1686343778009091600,11.080091552734375,-0.1098421935992781,-0.11038754338920116,-0.03221972334235906
1686343778019112700,11.09011279296875,-0.04905544246952049,-0.09064239395558833,-0.10061097639277577
1686343778029132500,11.100132568359374,-0.1307727534251753,-0.05857961474061012,-0.12374416082948446
1686343778039152600,11.110152587890624,-0.16086276212930678,-0.06751052469313144,-0.15836787657365203
1686343778049172700,11.1201728515625,-0.15654665249586106,-0.04381225371956825,-0.1335467390500009
1686343778059192600,11.130192626953125,-0.1483832197844982,-0.020240823996067046,-0.09211699655279516
1686343778069212700,11.140212646484375,-0.013460379208857193,-0.03187982386350632,-0.20329656710252164
1686343778079233500,11.150233642578126,0.1578886964882724,0.0008165770798921585,-0.3219039495654404
1686343778089253600,11.160253662109374,0.23718495430946349,0.06583528495728969,-0.35649639338850975
1686343778099273700,11.170273681640625,0.19065467380285261,0.09475450544953345,-0.4513439839489758
1686343778109293800,11.1802939453125,0.08455459847450256,0.16737375145852565,-0.4796411270201206
1686343778119313700,11.190313720703125,-0.0012918116425164044,0.18083236796855925,-0.5061509482830763
1686343778129334800,11.200334716796876,-0.004416647398471832,0.17424539079368112,-0.4468802825383842
1686343778139354600,11.210354736328124,0.04067569099320099,0.15049509737193584,-0.33636253689825535
1686343778149374700,11.220374755859375,0.012866495835781097,0.10484218422174453,-0.18731866124793886
1686343778159394800,11.230394775390625,-0.07826751756165176,0.05253565840125084,-0.01595525563135743
1686343778169414700,11.24041455078125,-0.1848960006782785,-0.001222235271334648,0.110309509716928
1686343778179434800,11.250434814453126,0.31920269125010814,-0.13698738102316857,0.10075725299566983
1686343778189456000,11.260455810546874,0.562948355782032,-0.1750350798666477,0.006329495282471179
1686343778199475700,11.270475830078125,0.5068038592338562,-0.05322480970919132,-0.059004123762995
1686343778209495800,11.280495849609375,0.3341968832969665,0.04524842400252819,-0.09069894644841552
1686343778219516000,11.290515869140625,-0.09363805037392303,0.16400924346148968,-0.1443833364933729
1686343778229535700,11.30053564453125,-0.5402092852294444,0.2444786184489727,-0.20928864712417125
1686343778239555600,11.3105556640625,-0.5001075764656067,0.28074411005079747,-0.12147329328805208
1686343778249576700,11.32057666015625,-0.10219782545911148,0.2493880178004503,-0.020087240869551895
1686343778259596500,11.330596435546875,-0.14971476064920425,0.13160042728781698,0.0521688709154725
1686343778269616600,11.34061669921875,-0.425756355564855,-0.006959902140498161,0.19807021075636147
1686343778279636700,11.35063671875,-0.25658523582816123,0.06484218226671218,0.3815270820096135
1686343778289656600,11.360656494140626,0.12815054256226865,-0.09764321262836456,0.37663185731396076
1686343778299676700,11.3706767578125,0.28070962325930593,-0.27278350643515586,0.1153287991836667
1686343778309697500,11.380697509765625,0.29344171559307725,-0.26603169408738614,0.022660306227952242
1686343778319717600,11.390717529296875,0.37279870889186856,-0.2895955250263214,0.148812551112473
1686343778329737700,11.40073779296875,0.19773906083954498,-0.31833179016709323,0.3872532045714557
1686343778339757600,11.410757568359376,-0.3912859672188759,-0.29479075558185575,0.5084679930537939
1686343778349777700,11.420777587890624,-0.52751697691679,-0.2521136433720588,0.34902123520225287
1686343778359798800,11.430798828125,-0.3066086191475391,-0.1371726744621992,-0.0437457643546164
1686343778369818600,11.440818603515625,0.087914412030112,-0.013333528825640678,-0.3948775619700551
1686343778379838700,11.450838623046875,0.3739022862195968,0.02428571547269821,-0.46185134943798184
1686343778389858800,11.46085888671875,1.0948469087839126,0.04506956030428409,-0.519957209187001
1686343778399878700,11.470878662109374,1.0982289524376392,0.011612111860513686,-0.3650044017538428
1686343778409898800,11.480898681640625,0.26980712097287174,0.03729483464956283,0.015799480547755956
1686343778419919600,11.490919677734375,0.032547347861528395,0.03896715177595615,0.16793693829923867
1686343778429939700,11.500939697265625,-0.17725043609486893,0.1684083552032709,0.19345789465531707
1686343778439959800,11.510959716796876,-0.48899347725510595,0.29745383731126784,0.0356460445292294
1686343778449980000,11.52097998046875,-0.524973137652874,0.38258945054411886,-0.06768617352098226
1686343778459999700,11.530999755859375,-0.4478992503225803,0.37665187718868254,-0.11972644962072372
1686343778470019800,11.541019775390625,-0.40345688200592994,0.2768459335684776,-0.11355039133429527
1686343778480040700,11.551040771484375,-0.3286637990891933,0.16042670879960058,-0.09134002083092928
1686343778490060800,11.561060791015626,-0.1890168434679508,0.09962766444385052,-0.11295315609350799
1686343778500080600,11.57108056640625,0.034553390454314645,0.03288403246998787,-0.13716171467676758
1686343778510100500,11.5811005859375,0.21710427104486152,-0.08634089736938476,-0.10194821634590626
1686343778520120600,11.59112060546875,0.40780335024502123,-0.16844868721365927,-0.04161415915340185
1686343778530141700,11.6011416015625,0.37828269326090813,-0.2615478266716003,-0.017865911558270452
1686343778540161500,11.61116162109375,0.1738415227005258,-0.2948842790842056,0.029886750350147484
1686343778550181600,11.621181640625,0.16972645206451414,-0.2733388022303581,0.028627982460707423
1686343778560201700,11.63120166015625,0.07524314650548622,-0.2454939329713583,-0.015650427465885876
1686343778570221600,11.6412216796875,-0.10346972682476042,-0.22719430617094039,-0.041705344568192956
1686343778580241700,11.65124169921875,-0.22318565505146978,-0.19222119246721267,0.0088578447163105
1686343778590262500,11.661262451171876,-0.13314002141263334,-0.1608832203954458,0.0338901407726109
1686343778600282600,11.67128271484375,0.03040681043518707,-0.15104980864524842,0.031980946150422095
1686343778610302700,11.681302734375,0.10844868428111076,-0.11386837124228477,0.02272942594140768
1686343778620322800,11.69132275390625,0.09089903559777886,-0.10260989512503146,0.002589870362728834
1686343778630342700,11.7013427734375,0.12821253841519356,-0.027599954587221143,0.0038593057766556737
1686343778640363800,11.71136376953125,0.08782558296918869,0.03629237960875034,-0.0701309363245964
1686343778650383600,11.721383544921874,-0.031401648425124586,0.0878466257572174,-0.20617402223497627
1686343778660403700,11.73140380859375,-0.02948328411579132,0.16029694494009017,-0.2843172923624515
1686343778670423800,11.741423828125,-0.007747271392215043,0.16852116792798041,-0.3154059658482671
1686343778680443600,11.751443603515625,-0.060554147950280454,0.10932605163753031,-0.25979002321884037
1686343778690463700,11.761463623046875,-0.11689623116347939,0.04253390434682369,-0.11865151386559009
1686343778700484900,11.77148486328125,-0.12459785504937171,0.0015407997012138366,0.06757759857997298
1686343778710504700,11.781504638671874,-0.07042438457952811,-0.03872632875740528,0.1991065680667758
1686343778720524800,11.79152490234375,-0.07254618077278137,-0.06260112534165382,0.2225564172372222
1686343778730545000,11.801544921875,-0.09435587978707626,-0.03370236311554908,0.2074796980060637
1686343778740564500,11.811564453125,-0.10276362438201904,-0.016948212191462517,0.15985606930479407
1686343778750585900,11.8215859375,-0.04083584999097511,0.05325345128178596,0.1103993799574673
1686343778760605700,11.831605712890624,-0.00005141965998336672,0.11980536007583141,0.05354191283434629
1686343778770625500,11.84162548828125,-0.03141803330434486,0.1811526859641075,0.01476400002017617
1686343778780645600,11.851645751953125,-0.11215106419669464,0.21773440390825272,-0.07397782101109623
1686343778790665500,11.86166552734375,-0.11642972789658233,0.2540788059651852,-0.13472937296330928
1686343778800685300,11.871685302734376,-0.011222820281982421,0.2447439913868904,-0.1567914210371673
1686343778810706400,11.88170654296875,0.08183189551234245,0.1393511875450611,-0.1738692509576678
1686343778820726300,11.891726318359375,0.13661096719251944,-0.0020756372302770613,-0.15949834190830586
1686343778830746400,11.901746337890625,0.19486670200731604,-0.1403530580639839,-0.09771686238646507
1686343778840766500,11.911766357421875,0.21358077309383078,-0.2735948228180408,0.0053689796872437
1686343778850786600,11.92178662109375,0.2683820566058159,-0.36502807489037514,0.15860592311322688
1686343778860807400,11.931807373046874,0.29358081353651355,-0.40984687530398367,0.23854762096479534
1686343778870827500,11.94182763671875,0.21128011320233345,-0.3970090210407972,0.24468685437217352
1686343778880847400,11.951847412109375,0.04938859254717826,-0.28442893604338165,0.20636808350235222
1686343778890867500,11.961867431640625,-0.10140402646660804,-0.10605682070851326,0.13510171340703964
1686343778900887600,11.971887451171876,-0.20146012718928977,0.05424129327535629,0.052571168106049296
1686343778910908400,11.981908447265624,-0.2802373478387482,0.15574235037565232,-0.05026318342462182
1686343778920928500,11.991928466796875,-0.3255845377743244,0.21907763521075246,-0.14217895831689237
1686343778930948600,12.001948486328125,-0.3332780148863792,0.23042846578657625,-0.18248948752582073
1686343778940968400,12.011968505859375,-0.3420972811579704,0.17466566203236578,-0.18015870649069546
1686343778950988500,12.021988525390626,-0.33331542428731914,0.07550912223160267,-0.17895751400738955
1686343778961009400,12.032009521484374,-0.27909051589118317,-0.016811434069275856,-0.1468332138635218
1686343778971029500,12.042029541015625,-0.22020574419153852,-0.11737199544906615,-0.0967240519568324
1686343778981049600,12.052049560546875,-0.2511749012172222,-0.18707798435986042,-0.06788374191969633
1686343778991069400,12.0620693359375,-0.300571658804547,-0.21337036347985266,-0.028750439796596763
1686343779001089500,12.072089599609376,-0.27024434334635733,-0.22595278167724608,-0.0010291969172656536
1686343779011109600,12.082109619140626,-0.2258744557440281,-0.21212240924537182,0.01858648091778159
1686343779021130500,12.092130615234375,-0.17615736189484596,-0.15930559581518172,0.01131225213110447
1686343779031150600,12.102150634765625,-0.1317067920054309,-0.0863391438037157,-0.016879676999896762
1686343779041170700,12.112170654296875,-0.10737080765021964,-0.004075286614894867,-0.06195040634796023
1686343779051190300,12.122190185546875,-0.0898071121752262,0.07487842311263083,-0.12211246797442435
1686343779061210400,12.13221044921875,-0.09644843161953613,0.11417232262492179,-0.12635054393559694
1686343779071231500,12.1422314453125,-0.05495676633464172,0.10692132858335972,-0.09798048175871371
1686343779081251300,12.152251220703125,0.04759524285700172,0.10034136567115783,-0.07328472418040037
1686343779091271400,12.162271484375,0.1383341011906974,0.06445289068818091,-0.019446897139400243
1686343779101291500,12.17229150390625,0.17605448604226112,0.0621533815741539,0.019868045160919428
1686343779111311400,12.182311279296876,0.19686697244644163,0.09855272868871688,0.025595629027485845
1686343779121332500,12.19233251953125,0.23997195467948912,0.1223550445586443,0.0038581367328763007
1686343779131352300,12.202352294921875,0.2638005740344524,0.12358254052698611,0.012541355534642935
1686343779141372400,12.212372314453125,0.28590834267986937,0.1015408045887947,0.04904971598163247
1686343779151392500,12.222392578125,0.3205132258594036,0.04389642487168312,0.08784677188768983
1686343779161412400,12.232412353515626,0.38210426084306087,-0.004020341557264328,0.09492635488510132
1686343779171433500,12.24243359375,0.4123544742107391,-0.038945524466037745,0.10525646411105989
1686343779181453600,12.25245361328125,0.40183074210882186,-0.08024199597239494,0.12251198868602514
1686343779191473400,12.262473388671875,0.3645405836343765,-0.07761749268770217,0.12204495569616555
1686343779201493500,12.272493408203125,0.2773521660575643,-0.060547115421295164,0.09961085943952203
1686343779211513600,12.282513671875,0.19367312657488508,-0.07997077781558036,0.09328165641799568
1686343779221533400,12.292533447265624,0.17516955643389373,-0.09280921660065651,0.09594882980063557
1686343779231554600,12.302554443359375,0.20972064533326773,-0.11555413237214088,0.10375175863653421
1686343779241574400,12.312574462890625,0.2272469496736303,-0.12445581623017787,0.10130904165953397
1686343779251594500,12.322594482421875,0.16593995579574256,-0.09870295081436634,0.06830182120129466
1686343779261614600,12.332614501953126,0.16577508409023284,-0.05634440303444862,0.017813012327253817
1686343779271634700,12.342634765625,0.13213117316365242,-0.025779168900847433,0.00032850130200386043
1686343779281655600,12.352655517578125,0.06059738430380821,0.018757891961932182,0.0002688800692558288
1686343779291675600,12.362675537109375,-0.028314258602727203,0.08626432500183581,0.03764642456620931
1686343779301695500,12.372695556640625,-0.14583589165555313,0.12300620194375514,0.10927242175415158
1686343779311715600,12.382715576171876,-0.2858674444139004,0.144963182207942,0.1839009617589414
1686343779321735400,12.3927353515625,-0.36656887459158893,0.1279752225279808,0.21711232648715376
1686343779331756500,12.402756591796875,-0.4030009549319744,0.08847674035429955,0.194598442992568
1686343779341776600,12.412776611328125,-0.3832581435859203,0.017679449075460433,0.15306202525049448
1686343779351796500,12.42279638671875,-0.29318096403134986,-0.0792675979822874,0.12534049011021853
1686343779361816300,12.43281640625,-0.18725860162377356,-0.18294249199032783,0.10856734222471713
1686343779371836400,12.44283642578125,-0.08552254845751449,-0.26376784080862997,0.13540084248408674
1686343779381857300,12.452857177734375,-0.01989359972728416,-0.31369302445054054,0.1741783899720758
1686343779391877400,12.46287744140625,0.013489596170186996,-0.30775135944187637,0.19987791776545344
