"Time (s)","Acceleration x (m/s^2)","Acceleration y (m/s^2)","Acceleration z (m/s^2)"
3.246787400E-2,-1.278664589E0,-8.592027664E0,6.415755749E-1
3.499053000E-2,-1.343270779E0,-8.623134613E0,5.195416212E-1
3.751584300E-2,-1.400698543E0,-8.555836678E0,2.009970993E-1
4.004110300E-2,-1.463211060E0,-8.493622780E0,-6.011966988E-2
4.256917600E-2,-1.494317770E0,-8.373981476E0,-3.116651475E-1
4.509167600E-2,-1.539781332E0,-8.285148621E0,-6.158527136E-1
4.761698800E-2,-1.563709617E0,-8.148757935E0,-9.538389444E-1
5.014224900E-2,-1.582852125E0,-8.019246101E0,-1.365703583E0
5.266756100E-2,-1.630708575E0,-7.873283863E0,-1.730010748E0
5.519282200E-2,-1.649851203E0,-7.787142277E0,-2.034198284E0
5.778000900E-2,-1.623530149E0,-7.676773071E0,-2.271386862E0
6.031573800E-2,-1.590030670E0,-7.552346706E0,-2.513062000E0
6.281735300E-2,-1.582852125E0,-7.470691204E0,-2.771785975E0
6.535787400E-2,-1.537388563E0,-7.370193005E0,-3.020938635E0
6.788329000E-2,-1.520638824E0,-7.233801842E0,-3.265305519E0
7.039792600E-2,-1.515853167E0,-7.123433113E0,-3.497708559E0
7.292334300E-2,-1.472782373E0,-7.030112743E0,-3.825824261E0
7.544875900E-2,-1.477568030E0,-6.926922321E0,-4.108476639E0
7.797417600E-2,-1.489532113E0,-6.867101669E0,-4.432105541E0
7.899287400E-2,-1.451246977E0,-6.821638107E0,-4.698008060E0
8.294006100E-2,-1.441675663E0,-6.783353329E0,-4.961517811E0
8.544730100E-2,-1.415354609E0,-6.802495480E0,-5.229813099E0
8.800073800E-2,-1.441675663E0,-6.797709942E0,-5.464309692E0
9.055417600E-2,-1.415354609E0,-6.838387966E0,-5.603392601E0
9.310761300E-2,-1.321735382E0,-6.907779694E0,-5.646463394E0
9.566105100E-2,-1.281057477E0,-7.032505512E0,-5.658427238E0
9.820318600E-2,-1.257129192E0,-7.229016304E0,-5.682355404E0
1.006144880E-1,-1.221236825E0,-7.408477783E0,-5.670391560E0
1.031397490E-1,-1.173380375E0,-7.626523972E0,-5.684748173E0
1.056650610E-1,-1.137488008E0,-7.892426491E0,-5.679962635E0
1.081723010E-1,-1.077368379E0,-8.189435959E0,-5.620141983E0
1.107506860E-1,-1.012762189E0,-8.548658371E0,-5.557928562E0
1.133290720E-1,-8.497511148E-1,-8.901000977E0,-5.452345371E0
1.157662070E-1,-7.085745931E-1,-9.205188751E0,-5.275276661E0
1.182914680E-1,-6.104688644E-1,-9.475876808E0,-5.090730190E0
1.208167800E-1,-5.096712112E-1,-9.729815483E0,-4.930111885E0
1.233028740E-1,-4.187439680E-1,-9.947860718E0,-4.721936226E0
1.258673530E-1,-3.708875179E-1,-1.016082191E1,-4.539782524E0
1.283926650E-1,-2.820539773E-1,-1.032383347E1,-4.343272209E0
1.309571450E-1,-2.174477577E-1,-1.043629551E1,-4.159024715E0
1.334824050E-1,-1.552343667E-1,-1.051555824E1,-4.060619831E0
1.359896450E-1,-1.313061416E-1,-1.055384350E1,-3.864109516E0
1.385577180E-1,-1.097707376E-1,-1.056102180E1,-3.708575964E0
1.411257380E-1,-6.909275055E-2,-1.056341457E1,-3.552743435E0
1.435836030E-1,-8.584251255E-2,-1.044616604E1,-3.380460262E0
1.460908430E-1,-1.097707376E-1,-1.037886810E1,-3.215056419E0
1.487028740E-1,-1.624128371E-1,-1.030947590E1,-3.044866800E0
1.511594360E-1,-2.006980032E-1,-1.019462109E1,-2.846262455E0
1.536847490E-1,-2.246262282E-1,-1.002921677E1,-2.685644388E0
1.562100610E-1,-3.323032558E-1,-9.894919395E0,-2.438884497E0
1.587353220E-1,-4.737788737E-1,-9.799206734E0,-2.242373943E0
1.612606340E-1,-6.439684033E-1,-9.713065147E0,-2.082054853E0
1.637075090E-1,-8.042874932E-1,-9.557232857E0,-1.878365755E0
1.663112070E-1,-9.577272534E-1,-9.480662346E0,-1.710569143E0
1.688364680E-1,-1.127617717E0,-9.365508080E0,-1.588535190E0
1.713617800E-1,-1.261914849E0,-9.343972206E0,-1.377667665E0
1.738870400E-1,-1.343270779E0,-9.303294182E0,-1.219741344E0
1.764123530E-1,-1.381555915E0,-9.303294182E0,-1.075872898E0
1.789376130E-1,-1.340878010E0,-9.293723106E0,-9.394819736E-1
1.815804260E-1,-1.295414329E0,-9.363115311E0,-7.381857634E-1
1.841057380E-1,-1.168594718E0,-9.416056633E0,-6.349952817E-1
1.866309990E-1,-1.048654556E0,-9.490233421E0,-6.086742878E-1
1.891563110E-1,-9.074779749E-1,-9.605089188E0,-5.703890920E-1
1.916815720E-1,-7.205387354E-1,-9.705886841E0,-6.230311990E-1
1.942068320E-1,-5.407779217E-1,-9.859027863E0,-7.286145091E-1
1.967321450E-1,-3.828516304E-1,-1.001725292E1,-8.745766878E-1
1.992574570E-1,-1.743769497E-1,-1.019940662E1,-1.121336460E0
2.017827180E-1,4.127619043E-2,-1.036690426E1,-1.346560955E0
2.043080300E-1,2.808575630E-1,-1.059930706E1,-1.610070586E0
2.068333430E-1,5.036891699E-1,-1.087478065E1,-1.868794441E0
2.093586030E-1,6.735795736E-1,-1.114546871E1,-2.172981977E0
2.118838630E-1,8.461619020E-1,-1.140658569E1,-2.407777786E0
2.144091760E-1,9.777671695E-1,-1.166530991E1,-2.637787819E0
2.169344880E-1,1.159920812E0,-1.195514011E1,-2.851048231E0
2.194597490E-1,1.212562919E0,-1.227847004E1,-2.994617462E0
2.219850090E-1,1.253240824E0,-1.261884975E1,-3.152842999E0
2.245103220E-1,1.373181105E0,-1.291825104E1,-3.303590775E0
2.270356340E-1,1.411466241E0,-1.328225899E1,-3.428316593E0
2.295608950E-1,1.418644667E0,-1.366810226E1,-3.497708559E0
2.320862070E-1,1.397109270E0,-1.398186111E1,-3.454637766E0
2.346114680E-1,1.330110312E0,-1.428126240E1,-3.459423304E0
2.371367800E-1,1.176670551E0,-1.461655712E1,-3.478565931E0
2.396620930E-1,1.052243710E0,-1.486092377E1,-3.476173162E0
2.421873530E-1,7.695915699E-1,-1.515075493E1,-3.423531055E0
2.447126650E-1,4.363910258E-1,-1.543579960E1,-3.409173965E0
2.472379260E-1,-8.973085321E-3,-1.557727528E1,-3.334996462E0
2.497632380E-1,-4.905286431E-1,-1.569452381E1,-3.289233923E0
2.522884990E-1,-1.039083242E0,-1.577587986E1,-3.248555899E0
2.548138110E-1,-1.652244091E0,-1.580728531E1,-3.183949709E0
2.573390720E-1,-2.236989975E0,-1.588146305E1,-3.023331404E0
2.598643840E-1,-2.785544634E0,-1.598196125E1,-2.817548752E0
2.623896450E-1,-3.355634689E0,-1.604417419E1,-2.587538481E0
2.649149570E-1,-3.837190151E0,-1.612104416E1,-2.300100803E0
2.674402700E-1,-4.320839405E0,-1.617129326E1,-1.976471543E0
2.699655300E-1,-4.852644444E0,-1.624547195E1,-1.720140338E0
2.724908430E-1,-5.341378212E0,-1.620957947E1,-1.552642822E0
2.750161030E-1,-5.751149178E0,-1.621197128E1,-1.351346612E0
2.775414150E-1,-6.110371590E0,-1.620479393E1,-1.224527001E0
2.800666760E-1,-6.464808464E0,-1.610668755E1,-1.154836059E0
2.825919880E-1,-6.706782818E0,-1.588385582E1,-1.157228827E0
2.851172490E-1,-6.786045074E0,-1.575195122E1,-1.128515005E0
2.876425610E-1,-6.778866768E0,-1.547887039E1,-1.171585798E0
2.901678220E-1,-6.632605076E0,-1.513639832E1,-1.231705427E0
2.926931340E-1,-6.364310265E0,-1.469312763E1,-1.284347534E0
2.952184470E-1,-5.964409351E0,-1.427886963E1,-1.413560033E0
2.977437070E-1,-5.355735302E0,-1.393400478E1,-1.473679662E0
3.002690200E-1,-4.658825874E0,-1.372074413E1,-1.543071508E0
3.027942800E-1,-4.081557274E0,-1.350509071E1,-1.626820326E0
3.053195400E-1,-3.667000771E0,-1.325354576E1,-1.832902193E0
3.078448530E-1,-3.427419424E0,-1.309531975E1,-1.928615093E0
3.103701130E-1,-3.300599813E0,-1.295175076E1,-2.070090771E0
3.128954260E-1,-3.250051260E0,-1.289432335E1,-2.082054853E0
3.154599050E-1,-3.302992582E0,-1.294935799E1,-2.117947102E0
3.179459990E-1,-3.374777317E0,-1.309531975E1,-2.161017895E0
3.204713110E-1,-3.578466177E0,-1.327986622E1,-2.266601324E0
3.229965720E-1,-3.812962770E0,-1.343330669E1,-2.347957134E0
3.255218840E-1,-4.170091629E0,-1.356012630E1,-2.558824778E0
3.280471450E-1,-4.569992065E0,-1.367049503E1,-2.762214661E0
3.305724570E-1,-4.900799751E0,-1.369202995E1,-3.042474031E0
3.330977180E-1,-5.123332500E0,-1.372313690E1,-3.298804998E0
3.356230300E-1,-5.446961880E0,-1.371595860E1,-3.653541088E0
3.381482900E-1,-5.645565987E0,-1.362951756E1,-4.003192425E0
3.406736030E-1,-5.787041664E0,-1.353859043E1,-4.293023109E0
3.431988630E-1,-5.964409351E0,-1.342134190E1,-4.573282242E0
3.457241760E-1,-6.043372631E0,-1.330618763E1,-4.829613209E0
3.482494360E-1,-6.110371590E0,-1.313151169E1,-5.081159115E0
3.507747490E-1,-6.151049614E0,-1.287996578E1,-5.366203785E0
3.533000610E-1,-6.177370548E0,-1.261406326E1,-5.562714577E0
3.558253220E-1,-6.203691959E0,-1.235773277E1,-5.749653816E0
3.583506340E-1,-6.129514217E0,-1.214207935E1,-5.890830040E0
3.608758950E-1,-6.043372631E0,-1.190249825E1,-6.061019897E0
3.634012070E-1,-5.940182209E0,-1.171555901E1,-6.195017815E0
3.659264680E-1,-5.849255085E0,-1.152413273E1,-6.271588326E0
3.684517800E-1,-5.691328526E0,-1.136112213E1,-6.324529171E0
3.709770400E-1,-5.662315845E0,-1.115743256E1,-6.276373863E0
3.735023530E-1,-5.633601665E0,-1.090349483E1,-6.281458378E0
3.760276650E-1,-5.604887962E0,-1.065194893E1,-6.233303070E0
3.785529260E-1,-5.506782055E0,-1.035015392E1,-6.161518097E0
3.810781860E-1,-5.442175865E0,-1.003639507E1,-6.025127411E0
3.836034990E-1,-5.331807137E0,-9.636494637E0,-5.888437271E0
3.861287590E-1,-5.157131195E0,-9.322437286E0,-5.720640659E0
3.886540720E-1,-4.912764072E0,-9.039784431E0,-5.584249973E0
3.911793840E-1,-4.555634975E0,-8.814560890E0,-5.430809975E0
3.937438110E-1,-4.083950043E0,-8.728418350E0,-5.277669430E0
3.962299570E-1,-3.468097210E0,-8.666205406E0,-5.100301266E0
3.987552180E-1,-2.742174864E0,-8.735597610E0,-4.812863827E0
4.012805300E-1,-1.913360834E0,-8.958429337E0,-4.360022068E0
4.038058430E-1,-9.816554785E-1,-9.274580956E0,-3.758825302E0
4.063311030E-1,-1.854437590E-2,-9.732208252E0,-3.114557743E0
4.088564150E-1,9.275178909E-1,-1.035733318E1,-2.367099762E0
4.113816760E-1,1.873879194E0,-1.106411266E1,-1.643570065E0
4.139069880E-1,2.805584431E0,-1.181396389E1,-9.080761671E-1
4.164322490E-1,3.711267948E0,-1.262602806E1,-2.135594189E-1
4.189575610E-1,4.640580177E0,-1.352184105E1,4.262215197E-1
4.214828220E-1,5.558228016E0,-1.439611816E1,8.668000102E-1
4.240081340E-1,6.314958096E0,-1.521775341E1,1.245464206E0
4.265333950E-1,6.940382004E0,-1.596281910E1,1.453639746E0
4.290587070E-1,7.587042332E0,-1.646590996E1,1.329213023E0
4.315839680E-1,8.137989998E0,-1.700250053E1,8.979067206E-1
4.341092800E-1,8.562117577E0,-1.760848236E1,2.153540403E-1
4.366345400E-1,8.818449020E0,-1.808046722E1,-6.302096844E-1
4.391598530E-1,8.734400749E0,-1.833919144E1,-1.365703583E0
4.416851650E-1,8.451748848E0,-1.850220108E1,-2.192124605E0
4.442104260E-1,8.090133667E0,-1.855245209E1,-2.829512835E0
4.467357380E-1,7.618149281E0,-1.842533302E1,-3.346960783E0
4.492609990E-1,6.916453838E0,-1.808764458E1,-3.672683716E0
4.517863110E-1,6.147460461E0,-1.764676857E1,-3.744468451E0
4.543115720E-1,5.318646431E0,-1.708624840E1,-3.754039526E0
4.568368840E-1,4.369892120E0,-1.638933945E1,-3.600898981E0
4.593621450E-1,3.370888948E0,-1.562752438E1,-3.329911709E0
4.618874570E-1,2.494218588E0,-1.487528133E1,-3.088236809E0
4.644127180E-1,1.603191137E0,-1.413021564E1,-2.932404041E0
4.669380300E-1,7.384848595E-1,-1.338544941E1,-2.714358091E0
4.694632900E-1,-1.719841212E-1,-1.276481152E1,-2.606681108E0
4.719886030E-1,-1.003190875E0,-1.224257755E1,-2.604288340E0
4.745138630E-1,-1.800898194E0,-1.169641590E1,-2.661715984E0
4.770391760E-1,-2.565105915E0,-1.125344467E1,-2.585145712E0
4.795644880E-1,-3.202194929E0,-1.091067314E1,-2.558824778E0
4.820897490E-1,-3.693321705E0,-1.060887814E1,-2.505883455E0
4.846150610E-1,-4.256233215E0,-1.029751205E1,-2.395813704E0
4.871403220E-1,-4.929513931E0,-9.923933029E0,-2.103590250E0
4.896656340E-1,-5.600102425E0,-9.499805450E0,-1.722533226E0
4.921908950E-1,-6.292525291E0,-9.154939651E0,-1.246062398E0
4.947162070E-1,-6.860222340E0,-8.927322388E0,-7.310073376E-1
4.972414680E-1,-7.243373394E0,-8.783453941E0,-2.159522474E-1
4.997667800E-1,-7.542775154E0,-8.568099976E0,3.756731451E-1
5.022920400E-1,-7.787142277E0,-8.342875481E0,9.457631707E-1
5.048173530E-1,-7.998009682E0,-7.978568077E0,1.412961721E0
5.073426130E-1,-8.153841972E0,-7.650452137E0,1.774876237E0
5.098679260E-1,-8.208877563E0,-7.264908791E0,2.031207323E0
5.123932380E-1,-8.175377846E0,-6.814459801E0,2.105384827E0
5.149184990E-1,-8.093722343E0,-6.450451851E0,2.174776793E0
5.174829780E-1,-7.815855980E0,-6.117250919E0,2.169991016E0
5.199690720E-1,-7.437490940E0,-5.872884274E0,2.050349951E0
5.224943840E-1,-7.022934437E0,-5.729314804E0,1.825125456E0
5.250196450E-1,-6.704390049E0,-5.621637821E0,1.568794370E0
5.275449570E-1,-6.491428852E0,-5.449055195E0,1.245464206E0
5.300702180E-1,-6.309275150E0,-5.300401211E0,8.691928387E-1
5.325955300E-1,-6.064908028E0,-5.250152111E0,4.067798555E-1
5.351208430E-1,-5.832505226E0,-5.240580559E0,-1.151545867E-1
5.376461030E-1,-5.583352566E0,-5.276473045E0,-6.903293133E-1
5.401713630E-1,-5.331807137E0,-5.254937649E0,-1.234098315E0
5.426966760E-1,-5.144867897E0,-5.283651352E0,-1.739582062E0
5.452219360E-1,-4.927121162E0,-5.341079235E0,-2.199303150E0
5.477472490E-1,-4.728217602E0,-5.384449005E0,-2.664108992E0
5.502725610E-1,-4.512564182E0,-5.365306377E0,-3.126521826E0
5.527978220E-1,-4.239483356E0,-5.417948723E0,-3.540779352E0
5.553231340E-1,-3.992723703E0,-5.480162144E0,-3.840181351E0
5.578483950E-1,-3.791427374E0,-5.458626747E0,-4.149453640E0
5.603737070E-1,-3.487239838E0,-5.535196781E0,-4.475176334E0
5.628989680E-1,-3.266801119E0,-5.523232937E0,-4.870291233E0
5.654634470E-1,-3.061018467E0,-5.470590591E0,-5.215456009E0
5.679495400E-1,-2.734996319E0,-5.547161102E0,-5.629713535E0
5.704748530E-1,-2.404487610E0,-5.599802971E0,-6.003293037E0
5.730001130E-1,-2.069193363E0,-5.618945599E0,-6.266802311E0
5.755254260E-1,-1.726720691E0,-5.633601665E0,-6.554539204E0
5.780898530E-1,-1.475175142E0,-5.626423359E0,-6.616752625E0
5.805759990E-1,-1.252343535E0,-5.640780449E0,-6.561717987E0
5.831012590E-1,-1.034297585E0,-5.686244011E0,-6.300601006E0
5.856265720E-1,-8.521439433E-1,-5.755635738E0,-5.790331841E0
5.881518320E-1,-6.439684033E-1,-5.722136021E0,-5.260919571E0
5.906771450E-1,-5.359922647E-1,-5.638387680E0,-4.712365150E0
5.932024570E-1,-4.378865361E-1,-5.597410202E0,-4.166203499E0
5.957277180E-1,-3.637090325E-1,-5.559125423E0,-3.629612923E0
5.982530300E-1,-3.852444589E-1,-5.384449005E0,-3.093022346E0
6.007782900E-1,-3.661018610E-1,-5.300401211E0,-2.589931488E0
6.033036030E-1,-3.517449200E-1,-5.190331459E0,-2.132304192E0
6.058288630E-1,-4.043870270E-1,-5.084748268E0,-1.744367719E0
6.083541760E-1,-4.211367965E-1,-5.017749310E0,-1.464108348E0
6.108794360E-1,-5.000999570E-1,-4.900500774E0,-1.188335538E0
6.134047490E-1,-6.248258352E-1,-4.790132046E0,-8.003991842E-1
6.159300090E-1,-8.090731502E-1,-4.625027180E0,-5.057829022E-1
6.184553220E-1,-1.005583763E0,-4.473979950E0,-3.595215976E-1
6.209805820E-1,-1.170987606E0,-4.308875561E0,-2.159522474E-1
6.235058950E-1,-1.400698543E0,-4.186542511E0,-1.872383654E-1
6.260311550E-1,-1.628315806E0,-4.023830414E0,-1.968096644E-1
6.285564680E-1,-1.805683732E0,-3.882354736E0,-2.590230405E-1
6.310817280E-1,-1.973480463E0,-3.728914976E0,-3.188436031E-1
6.336070400E-1,-2.117049932E0,-3.570988655E0,-4.435695112E-1
6.361323010E-1,-2.306381941E0,-3.393620729E0,-4.579264224E-1
6.386576130E-1,-2.414058924E0,-3.273979664E0,-6.014958024E-1
6.411812590E-1,-2.469093800E0,-3.211467028E0,-7.357929349E-1
6.437031340E-1,-2.481357098E0,-3.099004507E0,-8.913264275E-1
6.462250090E-1,-2.505285263E0,-3.060719252E0,-1.068694472E0
6.487468840E-1,-2.473879576E0,-3.027219772E0,-1.250848055E0
6.512687590E-1,-2.440380096E0,-3.043969393E0,-1.451845169E0
6.537906340E-1,-2.356631279E0,-3.082254648E0,-1.576570988E0
6.563125610E-1,-2.248954296E0,-3.130111217E0,-1.700997829E0
6.588344360E-1,-2.265703917E0,-3.146860838E0,-1.866401672E0
6.613563110E-1,-2.246561289E0,-3.170789003E0,-1.993221283E0
6.638781860E-1,-2.213061810E0,-3.206681490E0,-2.113161564E0
6.664000610E-1,-2.217847586E0,-3.262015581E0,-2.204088688E0
6.689219360E-1,-2.213061810E0,-3.393620729E0,-2.225624084E0
6.715241760E-1,-2.315953255E0,-3.436691523E0,-2.300100803E0
6.740460510E-1,-2.311167479E0,-3.597309828E0,-2.393420935E0
6.765679260E-1,-2.373380899E0,-3.695415497E0,-2.448455811E0
6.790898010E-1,-2.368595362E0,-3.858426571E0,-2.369492531E0
6.816116760E-1,-2.423630238E0,-3.963710785E0,-2.391027927E0
6.841335510E-1,-2.531606436E0,-3.999603033E0,-2.431705952E0
6.866554260E-1,-2.600998163E0,-4.138685703E0,-2.395813704E0
6.891773010E-1,-2.679961443E0,-4.313661098E0,-2.402992249E0
6.916991760E-1,-2.764009237E0,-4.375874519E0,-2.359921217E0
6.942210510E-1,-2.941078186E0,-4.440480709E0,-2.376671076E0
6.967429260E-1,-3.116053343E0,-4.459623337E0,-2.407777786E0
6.992648530E-1,-3.257229805E0,-4.524229527E0,-2.484348059E0
7.017881860E-1,-3.405884027E0,-4.625027180E0,-2.513062000E0
7.043100610E-1,-3.547359467E0,-4.701597214E0,-2.517847538E0
7.068319360E-1,-3.765106440E0,-4.711168766E0,-2.580360174E0
7.093538110E-1,-3.923331738E0,-4.754239559E0,-2.659323215E0
7.118756860E-1,-4.062115669E0,-4.735096931E0,-2.661715984E0
7.143975610E-1,-4.237090588E0,-4.744668007E0,-2.714358091E0
7.169194880E-1,-4.368995190E0,-4.778167725E0,-2.836691141E0
7.194413630E-1,-4.505385876E0,-4.723132610E0,-2.989831924E0
7.219632380E-1,-4.608277321E0,-4.701597214E0,-3.107379198E0
7.244851130E-1,-4.685146809E0,-4.663312435E0,-3.301198006E0
7.270069880E-1,-4.788038254E0,-4.589134693E0,-3.485744476E0
7.295288630E-1,-4.840680122E0,-4.490729809E0,-3.675076485E0
7.320916240E-1,-4.857429981E0,-4.435695171E0,-3.813860178E0
7.346134990E-1,-4.912764072E0,-4.330410957E0,-3.979264021E0
7.371353740E-1,-4.948656559E0,-4.253541470E0,-4.142275333E0
7.396572490E-1,-4.984548569E0,-4.133900166E0,-4.386343002E0
7.421791240E-1,-5.015655518E0,-4.026223183E0,-4.558925152E0
7.447009990E-1,-5.034798145E0,-3.927818298E0,-4.753043175E0
7.472229260E-1,-5.018048286E0,-3.844069481E0,-4.875077248E0
7.497448010E-1,-4.991727352E0,-3.748356581E0,-5.006981373E0
7.522666760E-1,-4.931906700E0,-3.716950893E0,-5.148158073E0
7.547885510E-1,-4.855037212E0,-3.719343662E0,-5.225027561E0
7.573104260E-1,-4.826323509E0,-3.673880100E0,-5.315954685E0
7.598323010E-1,-4.807180882E0,-3.693022728E0,-5.402096272E0
7.623950610E-1,-4.797609329E0,-3.630809307E0,-5.428417206E0
7.649169360E-1,-4.831109047E0,-3.637987614E0,-5.498108387E0
7.674388110E-1,-4.802394867E0,-3.666701555E0,-5.522036552E0
7.699606860E-1,-4.816751957E0,-3.647558928E0,-5.579464436E0
7.724825610E-1,-4.840680122E0,-3.642773390E0,-5.663212776E0
7.750044360E-1,-4.898406982E0,-3.582952738E0,-5.737390518E0
7.775263630E-1,-4.934299469E0,-3.568595886E0,-5.821438313E0
7.800482380E-1,-4.917549610E0,-3.570988655E0,-5.874080658E0
7.825701130E-1,-4.924727917E0,-3.614059448E0,-5.957829475E0
7.850919880E-1,-4.972584724E0,-3.568595886E0,-6.082555294E0
7.876138630E-1,-4.989334106E0,-3.544667721E0,-6.120840549E0
7.901357380E-1,-4.939085007E0,-3.590131283E0,-6.185446739E0
7.926984990E-1,-4.910371304E0,-3.535096407E0,-6.216553211E0
7.952203740E-1,-4.795216560E0,-3.578167200E0,-6.279065609E0
7.977422490E-1,-4.677968502E0,-3.645166159E0,-6.305386543E0
8.002641240E-1,-4.634897232E0,-3.688236952E0,-6.319743633E0
8.027859990E-1,-4.486243248E0,-3.738486290E0,-6.358028889E0
8.053078740E-1,-4.335196495E0,-3.834498405E0,-6.367599964E0
8.078298010E-1,-4.220340729E0,-3.822534084E0,-6.463313103E0
8.103516760E-1,-4.050151348E0,-3.918246984E0,-6.482455730E0
8.128735510E-1,-3.980759621E0,-4.016652107E0,-6.559325218E0
8.153954260E-1,-3.870689631E0,-4.064508438E0,-6.655037880E0
8.179173010E-1,-3.784249067E0,-4.121936321E0,-6.745965004E0
8.204391760E-1,-3.733999729E0,-4.217648983E0,-6.882655144E0
8.230019360E-1,-3.676572084E0,-4.344767570E0,-7.100701332E0
8.255238110E-1,-3.657429457E0,-4.383052826E0,-7.227520943E0
8.280456860E-1,-3.712464333E0,-4.469194412E0,-7.361817837E0
8.305675610E-1,-3.698107481E0,-4.603491783E0,-7.577171803E0
8.330894360E-1,-3.690928936E0,-4.770989418E0,-7.778468132E0
8.356113110E-1,-3.688536167E0,-4.924428940E0,-7.963014603E0
8.381332380E-1,-3.717249870E0,-5.058426857E0,-8.137690544E0
8.406551130E-1,-3.800998688E0,-5.178367138E0,-8.257631302E0
8.431769880E-1,-3.800998688E0,-5.338686466E0,-8.200202942E0
8.456988630E-1,-4.040580273E0,-5.365306377E0,-8.423034668E0
8.482207380E-1,-4.194019794E0,-5.439484119E0,-8.885149002E0
8.507426130E-1,-4.282554150E0,-5.611767292E0,-9.369096756E0
8.533054260E-1,-4.397708893E0,-5.741278648E0,-9.637392044E0
8.558273010E-1,-4.605884552E0,-5.836991787E0,-9.826724052E0
8.583491760E-1,-4.878965378E0,-5.877669811E0,-1.001097202E1
8.608710510E-1,-5.336592674E0,-5.889933109E0,-1.015962601E1
8.633929260E-1,-5.925825119E0,-5.856134415E0,-1.034417248E1
8.659148010E-1,-6.627819538E0,-5.911468506E0,-1.070578766E1
8.684367280E-1,-7.327421188E0,-6.105287075E0,-1.116102219E1
8.709586030E-1,-8.019545555E0,-6.378367901E0,-1.164018440E1
8.734804780E-1,-8.649754524E0,-6.747460842E0,-1.194197941E1
8.760023530E-1,-9.174381256E0,-7.355835915E0,-1.181725407E1
8.785242280E-1,-9.502496719E0,-8.242077827E0,-1.122323513E1
8.810461030E-1,-9.576674461E0,-9.231510162E0,-1.020508957E1
8.836088110E-1,-9.571888924E0,-1.035494041E1,-9.040981293E0
8.861306860E-1,-9.583852768E0,-1.142572784E1,-7.955836296E0
8.886525610E-1,-9.480961800E0,-1.251565838E1,-6.990332127E0
8.911744360E-1,-9.361021042E0,-1.352184105E1,-6.276373863E0
8.936963110E-1,-9.200701714E0,-1.443679619E1,-6.065805435E0
8.962181860E-1,-9.032905579E0,-1.535205078E1,-6.346064568E0
8.987401130E-1,-8.690432549E0,-1.622632790E1,-7.052545547E0
9.012619880E-1,-8.043473244E0,-1.700489235E1,-8.020442009E0
9.037838630E-1,-7.135696411E0,-1.769492340E1,-8.954839706E0
9.063057380E-1,-6.203691959E0,-1.812593079E1,-9.637392044E0
9.088276130E-1,-5.415555954E0,-1.831047630E1,-9.860223770E0
9.113494880E-1,-4.811966419E0,-1.813550186E1,-9.565608025E0
9.139123010E-1,-4.414458752E0,-1.764198303E1,-9.160622597E0
9.164341760E-1,-4.035794258E0,-1.678684807E1,-8.700901031E0
9.189560510E-1,-3.741178274E0,-1.560838223E1,-8.255238533E0
9.214779260E-1,-3.444169044E0,-1.413739395E1,-7.795217991E0
9.239998010E-1,-3.183052301E0,-1.263320637E1,-7.232306480E0
9.265216760E-1,-2.969791889E0,-1.103539848E1,-6.626324177E0
9.290436030E-1,-2.869293451E0,-9.487840652E0,-5.967400551E0
9.315654780E-1,-2.771187782E0,-8.103293419E0,-5.186442852E0
9.340873530E-1,-2.711068153E0,-6.879065990E0,-4.209274292E0
9.366092280E-1,-2.725425005E0,-5.753242970E0,-3.217449188E0
9.391311030E-1,-2.871686220E0,-4.613062859E0,-2.251945257E0
9.416529780E-1,-3.037090063E0,-3.709772348E0,-1.576570988E0
9.442157380E-1,-3.293421268E0,-2.957827806E0,-1.315454245E0
9.467376130E-1,-3.655036688E0,-2.368296146E0,-1.303490162E0
9.492594880E-1,-4.035794258E0,-1.973181367E0,-1.322632670E0
9.517813630E-1,-4.347160339E0,-1.645065546E0,-1.322632670E0
9.543032380E-1,-4.642076015E0,-1.486840129E0,-1.339382529E0
9.568251130E-1,-4.826323509E0,-1.434198022E0,-1.480858088E0
9.593470400E-1,-4.929513931E0,-1.529910922E0,-1.732403636E0
9.618689150E-1,-4.927121162E0,-1.606780410E0,-2.204088688E0
9.643907900E-1,-4.773681164E0,-1.779063582E0,-2.836691141E0
9.669126650E-1,-4.512564182E0,-1.997109652E0,-3.497708559E0
9.694345400E-1,-4.112663746E0,-2.251047850E0,-4.149453640E0
9.719564150E-1,-3.585644722E0,-2.605484724E0,-4.695615292E0
9.745191760E-1,-3.046661377E0,-3.000898600E0,-5.083551884E0
9.770410510E-1,-2.533999205E0,-3.431905985E0,-5.335097313E0
9.795629260E-1,-2.073979139E0,-4.004388809E0,-5.363811016E0
9.820848010E-1,-1.647458434E0,-4.663312435E0,-5.196014404E0
9.846066760E-1,-1.400698543E0,-5.309972763E0,-4.963910580E0
9.871285510E-1,-1.221236825E0,-5.913861275E0,-4.652245522E0
9.896504780E-1,-1.103689432E0,-6.579664230E0,-4.451248169E0
9.921723530E-1,-1.070189953E0,-7.307979584E0,-4.226023674E0
9.946942280E-1,-1.017547846E0,-7.980960846E0,-3.974478483E0
9.972161030E-1,-1.022333503E0,-8.706883430E0,-3.773182154E0
9.997687070E-1,-9.457631707E-1,-9.430413246E0,-3.559921980E0
1.002290582E0,-1.046261668E0,-1.013210869E1,-3.428316593E0
1.004812405E0,-1.218844056E0,-1.077906799E1,-3.349353552E0
1.007401103E0,-1.427318692E0,-1.131805134E1,-3.356531858E0
1.009922978E0,-1.729113460E0,-1.182832050E1,-3.401995659E0
1.012444905E0,-2.236989975E0,-1.219472122E1,-3.545564890E0
1.014966780E0,-2.912364244E0,-1.245583820E1,-3.797110319E0
1.017488655E0,-3.535096407E0,-1.266670609E1,-4.053441525E0
1.020010530E0,-4.110270977E0,-1.277438259E1,-4.194917202E0
1.022532405E0,-4.553242207E0,-1.273131180E1,-4.314558506E0
1.025054280E0,-4.919942379E0,-1.265474129E1,-4.472783566E0
1.027576155E0,-5.173880577E0,-1.250369453E1,-4.551746845E0
1.030098030E0,-5.367699623E0,-1.224257755E1,-4.686044216E0
1.032619905E0,-5.444568634E0,-1.192403316E1,-4.760221481E0
1.035126103E0,-5.509174824E0,-1.156481075E1,-4.784149647E0
1.037647978E0,-5.518746376E0,-1.118853951E1,-4.829613209E0
1.040169853E0,-5.492425442E0,-1.075992489E1,-4.800899506E0
1.042691728E0,-5.358128071E0,-1.025204849E1,-4.690829754E0
1.045213603E0,-5.181059361E0,-9.813564301E0,-4.613960266E0
1.047735478E0,-5.068297386E0,-9.312865257E0,-4.551746845E0
1.050257405E0,-4.847858906E0,-8.790632248E0,-4.542175770E0
1.052779280E0,-4.637290478E0,-8.373981476E0,-4.549354076E0
1.055301155E0,-4.426422596E0,-7.995317936E0,-4.508676052E0
1.057823030E0,-4.189234257E0,-7.597810268E0,-4.441677094E0
1.060344905E0,-3.892225027E0,-7.274479866E0,-4.355236530E0
1.062866780E0,-3.580859184E0,-6.991827965E0,-4.271487713E0
1.065468968E0,-3.291028500E0,-6.742675304E0,-4.209274292E0
1.067990843E0,-2.996113062E0,-6.586842537E0,-4.106083870E0
1.070512718E0,-2.706282377E0,-6.505486488E0,-3.962514400E0
1.073034593E0,-2.435594320E0,-6.414260387E0,-3.799503326E0
1.075556468E0,-2.181656122E0,-6.433701992E0,-3.687040567E0
1.078078343E0,-1.968694806E0,-6.517450809E0,-3.603291750E0
1.080600218E0,-1.808076620E0,-6.649055958E0,-3.507279873E0
1.083122093E0,-1.674078584E0,-6.833602428E0,-3.418745279E0
1.085643968E0,-1.532602906E0,-7.020541668E0,-3.301198006E0
1.088165843E0,-1.345663667E0,-7.236194611E0,-3.126521826E0
1.090687718E0,-1.204487085E0,-7.566703320E0,-3.061616659E0
1.093209645E0,-1.048654556E0,-7.834998608E0,-2.937189817E0
1.095733030E0,-9.314061999E-1,-8.160721779E0,-2.851048231E0
1.098254905E0,-8.210372925E-1,-8.472087860E0,-2.783750057E0
1.100776780E0,-7.372884750E-1,-8.723632812E0,-2.711965322E0
1.103298655E0,-5.814558864E-1,-8.982357025E0,-2.611466885E0
1.105820530E0,-4.666004181E-1,-9.198010445E0,-2.491526604E0
1.108342405E0,-4.043870270E-1,-9.389735222E0,-2.395813704E0
1.110864332E0,-2.916252613E-1,-9.617053032E0,-2.295315027E0
1.113386207E0,-1.767697781E-1,-9.849455833E0,-2.177767754E0
1.115908082E0,-1.576271951E-1,-1.006271648E1,-2.094018936E0
1.118429957E0,-8.584251255E-2,-1.021137047E1,-2.012662888E0
1.120951832E0,-1.097707376E-1,-1.031904793E1,-2.024626970E0
1.123473707E0,-1.480558962E-1,-1.035494041E1,-2.098804474E0
1.126036468E0,-1.695913076E-1,-1.034776115E1,-2.225624084E0
1.128558343E0,-1.743769497E-1,-1.036451149E1,-2.304886341E0
1.131080218E0,-1.384846121E-1,-1.040997505E1,-2.383849621E0
1.133602093E0,-1.001994461E-1,-1.033101177E1,-2.379063845E0
1.136123968E0,-1.145563871E-1,-1.027836990E1,-2.391027927E0
1.138645843E0,-1.408774406E-1,-1.026161957E1,-2.340778828E0
1.141167770E0,-1.408774406E-1,-1.024726295E1,-2.271386862E0
1.143689645E0,-1.145563871E-1,-1.023769188E1,-2.180160522E0
1.146211520E0,-1.313061416E-1,-1.025444126E1,-2.050948143E0
1.148733395E0,-2.509472668E-1,-1.024247742E1,-1.971685886E0
1.151255270E0,-3.972085714E-1,-1.018026352E1,-2.031805515E0
1.153777145E0,-5.359922647E-1,-1.011296558E1,-2.139482498E0
1.156339957E0,-6.774678826E-1,-1.004118156E1,-2.194517374E0
1.158861832E0,-8.306085467E-1,-9.899705887E0,-2.300100803E0
1.161383707E0,-9.696913958E-1,-9.806385040E0,-2.381456852E0
1.163905582E0,-1.156630635E0,-9.717850685E0,-2.515454769E0
1.166427457E0,-1.278664589E0,-9.669994354E0,-2.640180588E0
1.168949332E0,-1.446461320E0,-9.552447319E0,-2.740679264E0
1.171471259E0,-1.570888042E0,-9.449555397E0,-2.860619545E0
1.173993134E0,-1.649851203E0,-9.332008362E0,-3.006581545E0
1.176515009E0,-1.772184253E0,-9.269794464E0,-3.061616659E0
1.179036884E0,-1.796112537E0,-9.236295700E0,-3.069094181E0
1.181558759E0,-1.798505306E0,-9.152546883E0,-3.097808123E0
1.184080634E0,-1.858325839E0,-9.075676918E0,-3.052045345E0
1.186643395E0,-2.028515339E0,-8.922536850E0,-3.054438114E0
1.189165270E0,-2.136192322E0,-8.843573570E0,-3.020938635E0
1.191687145E0,-2.169692039E0,-8.804988861E0,-2.951546669E0
1.194209020E0,-2.131406784E0,-8.757132530E0,-2.815155745E0
1.196730895E0,-2.006979942E0,-8.745168686E0,-2.671287298E0
1.199252770E0,-1.944766641E0,-8.737990379E0,-2.491526604E0
1.201774697E0,-1.870290041E0,-8.730812073E0,-2.343171597E0
1.204296572E0,-1.729113460E0,-8.757132530E0,-2.244766712E0
1.206818447E0,-1.604387641E0,-8.735597610E0,-2.161017895E0
1.209340322E0,-1.484746456E0,-8.680562019E0,-2.077269077E0
1.211862197E0,-1.321735382E0,-8.666205406E0,-2.022234201E0
1.214384072E0,-1.142273664E0,-8.699705124E0,-1.981257200E0
1.216946832E0,-9.457631707E-1,-8.706883430E0,-1.926222205E0
1.219468707E0,-8.162516356E-1,-8.647063255E0,-1.811366796E0
1.221990582E0,-7.420741320E-1,-8.627920151E0,-1.660319805E0
1.224512457E0,-6.200401783E-1,-8.685347557E0,-1.502393484E0
1.227034332E0,-5.264210105E-1,-8.692526817E0,-1.339382529E0
1.229556207E0,-4.881358147E-1,-8.716454506E0,-1.210170031E0
1.232078134E0,-4.043870270E-1,-8.800203323E0,-1.028016448E0
1.234600009E0,-2.748754919E-1,-8.857930183E0,-8.721838593E-1
1.237121884E0,-1.935195327E-1,-8.893822670E0,-7.884350419E-1
1.239643759E0,-1.241276711E-1,-8.936893463E0,-6.903293133E-1
1.242165634E0,-7.387840003E-2,-8.996713638E0,-5.632106066E-1
1.244687509E0,5.084748194E-2,-9.078069687E0,-5.488536954E-1
1.247250322E0,8.195417374E-2,-9.128618240E0,-4.866403043E-1
1.249772197E0,7.477571070E-2,-9.114261627E0,-4.292125702E-1
1.252294072E0,7.477571070E-2,-9.131011009E0,-3.933202326E-1
1.254815947E0,9.870393574E-2,-9.219545364E0,-3.882354796E-1
1.257337822E0,7.238288224E-2,-9.245866776E0,-3.834498227E-1
1.259859697E0,-3.768695518E-2,-9.205188751E0,-4.220340848E-1
1.262381624E0,-1.136590727E-2,-9.183652878E0,-4.555336237E-1
1.264903499E0,-5.682953820E-2,-9.183652878E0,-5.608177781E-1
1.267425374E0,-1.121635586E-1,-9.121439934E0,-6.687939167E-1
1.269947249E0,-1.648056656E-1,-9.027820587E0,-7.214360237E-1
1.272469124E0,-2.030908167E-1,-8.960822105E0,-8.362914920E-1
1.274990999E0,-2.054836452E-1,-8.927322388E0,-9.681958556E-1
1.277553759E0,-1.959123611E-1,-8.853144646E0,-1.169192910E0
1.280075634E0,-2.030908167E-1,-8.821739197E0,-1.341775298E0
1.282597509E0,-1.408774406E-1,-8.843573570E0,-1.533500195E0
1.285119384E0,-2.078764737E-1,-8.850751877E0,-1.693819284E0
1.287641259E0,-2.629113793E-1,-8.838788033E0,-1.835294962E0
1.290163134E0,-3.011965454E-1,-8.872286797E0,-1.947757602E0
1.292685061E0,-3.517449200E-1,-8.862715721E0,-2.079662085E0
1.295206936E0,-4.570291340E-1,-8.831310272E0,-2.170589209E0
1.297728811E0,-5.455635786E-1,-8.788239479E0,-2.321636200E0
1.300250686E0,-6.005984545E-1,-8.790632248E0,-2.469991207E0
1.302772561E0,-6.726822853E-1,-8.752346992E0,-2.666501760E0
1.305294436E0,-7.301099896E-1,-8.702097893E0,-2.803191662E0
1.307857249E0,-7.851449251E-1,-8.654241562E0,-2.860619545E0
1.310379124E0,-7.731808424E-1,-8.659027100E0,-2.927618504E0
1.312900999E0,-7.707880139E-1,-8.647063255E0,-2.963510752E0
1.315422874E0,-7.683951855E-1,-8.670990944E0,-3.006581545E0
1.317944749E0,-7.564310431E-1,-8.690134048E0,-3.054438114E0
1.320466624E0,-7.372884750E-1,-8.682954788E0,-3.073879719E0
1.322988551E0,-6.894320250E-1,-8.694919586E0,-3.040081263E0
1.325510426E0,-6.415755749E-1,-8.606385231E0,-2.989831924E0
1.328032301E0,-6.296114326E-1,-8.635098457E0,-2.958725214E0
1.330554176E0,-6.056832075E-1,-8.594420433E0,-2.915654421E0
1.333076051E0,-6.296114326E-1,-8.582456589E0,-2.901297569E0
1.335597926E0,-6.535396576E-1,-8.572885513E0,-2.872583628E0
1.338160686E0,-7.301099896E-1,-8.536693573E0,-2.865405083E0
1.340682561E0,-8.739784956E-1,-8.484051704E0,-2.795714140E0
1.343204436E0,-9.361918569E-1,-8.484051704E0,-2.790928602E0
1.345726311E0,-1.036690354E0,-8.452944756E0,-2.846262455E0
1.348248186E0,-1.147059321E0,-8.402695656E0,-2.925225735E0
1.350770061E0,-1.209272742E0,-8.412266731E0,-2.903690338E0
1.353291988E0,-1.276271820E0,-8.440980911E0,-2.963510752E0
1.355813863E0,-1.360020518E0,-8.474480629E0,-3.023331404E0
1.358335738E0,-1.410568953E0,-8.488837242E0,-3.112164974E0
1.360857613E0,-1.448854089E0,-8.522336960E0,-3.191128016E0
1.363379488E0,-1.470389485E0,-8.611170769E0,-3.291626692E0
1.365901363E0,-1.479960799E0,-8.670990944E0,-3.368496180E0
1.368464176E0,-1.513460279E0,-8.749954224E0,-3.468994617E0
1.370986051E0,-1.453639746E0,-8.850751877E0,-3.547957659E0
1.373507926E0,-1.376770377E0,-8.932107925E0,-3.595814228E0
1.376029801E0,-1.331306696E0,-9.001500130E0,-3.754039526E0
1.378551676E0,-1.304985642E0,-9.044570923E0,-3.876372576E0
1.381073551E0,-1.185344458E0,-9.140582085E0,-3.986442566E0
1.383595478E0,-1.051047325E0,-9.245866776E0,-4.053441525E0
1.386117353E0,-9.792626500E-1,-9.382556915E0,-4.127619267E0
1.388639228E0,-9.242277741E-1,-9.451948166E0,-4.197309971E0
1.391161103E0,-7.779664397E-1,-9.585947037E0,-4.252345085E0
1.393682978E0,-7.085745931E-1,-9.727422714E0,-4.269094467E0
1.396204853E0,-6.535396576E-1,-9.861420631E0,-4.328915119E0
1.398767613E0,-5.551348329E-1,-1.001246738E1,-4.295415878E0
1.401289488E0,-4.881358147E-1,-1.015603638E1,-4.285844326E0
1.403811363E0,-4.474578202E-1,-1.025922680E1,-4.273880482E0
1.406333238E0,-3.445664644E-1,-1.036929703E1,-4.185346127E0
1.408855113E0,-2.557329237E-1,-1.045334530E1,-4.118047714E0
1.411376988E0,-2.700898647E-1,-1.055623627E1,-3.981656790E0
1.413898915E0,-2.437688112E-1,-1.062084198E1,-3.818645954E0
1.416420790E0,-2.030908167E-1,-1.065434170E1,-3.703790426E0
1.418942665E0,-1.719841212E-1,-1.068305588E1,-3.564707518E0
1.421464540E0,-1.049850956E-1,-1.062562847E1,-3.358924866E0
1.423986415E0,3.649054468E-2,-1.063041401E1,-3.171985626E0
1.426508290E0,1.393819153E-1,-1.057537842E1,-2.997010469E0
1.429071103E0,2.736790776E-1,-1.044377327E1,-2.771785975E0
1.431592978E0,3.813561201E-1,-1.028554821E1,-2.472383976E0
1.434114853E0,4.244269133E-1,-1.005075264E1,-2.321636200E0
1.436636728E0,4.941178858E-1,-9.823135376E0,-2.113161564E0
1.439158603E0,5.204389095E-1,-9.597910881E0,-1.931007862E0
1.441680478E0,4.989035130E-1,-9.343972206E0,-1.746760488E0
1.444202405E0,4.917250574E-1,-9.054141998E0,-1.722533226E0
1.446724280E0,4.411766827E-1,-8.853144646E0,-1.636391640E0
1.449246155E0,3.837489188E-1,-8.690134048E0,-1.636391640E0
1.451768030E0,3.526422381E-1,-8.503194809E0,-1.569392562E0
1.454289905E0,3.047857881E-1,-8.318946838E0,-1.523928881E0
1.456811780E0,2.258226424E-1,-8.246863365E0,-1.531107426E0
1.459374540E0,1.465603858E-1,-8.215756416E0,-1.531107426E0
1.461896415E0,6.999006122E-2,-8.194221497E0,-1.533500195E0
1.464418290E0,-7.148557901E-2,-8.196614265E0,-1.461715579E0
1.466940165E0,-1.480558962E-1,-8.287541389E0,-1.401595831E0
1.469462040E0,-3.131606579E-1,-8.357232094E0,-1.451845169E0
1.471983915E0,-5.096712112E-1,-8.469695091E0,-1.495215058E0
1.474505843E0,-6.678966284E-1,-8.642276764E0,-1.473679662E0
1.477027718E0,-8.763712645E-1,-8.855537415E0,-1.511964798E0
1.479549593E0,-1.051047325E0,-9.202795982E0,-1.576570988E0
1.482071468E0,-1.283450246E0,-9.569196701E0,-1.689033628E0
1.484593343E0,-1.475175142E0,-1.000289631E1,-1.811366796E0
1.487115218E0,-1.676471353E0,-1.044377327E1,-1.966900229E0
1.489677978E0,-1.810469389E0,-1.093699455E1,-2.110768557E0
1.492199853E0,-1.884646893E0,-1.153370380E1,-2.276172638E0
1.494721728E0,-1.949552298E0,-1.210140133E1,-2.419741869E0
1.497243603E0,-1.930110574E0,-1.262124252E1,-2.587538481E0
1.499765478E0,-1.877468467E0,-1.308096313E1,-2.723929405E0
1.502287353E0,-1.846361756E0,-1.355055428E1,-2.841476917E0
1.504809280E0,-1.757827282E0,-1.394118309E1,-2.922832966E0
1.507331155E0,-1.601994753E0,-1.425733471E1,-2.956332445E0
1.509853030E0,-1.439282775E0,-1.445115280E1,-3.001796007E0
1.512374905E0,-1.259521961E0,-1.458066463E1,-2.951546669E0
1.514896780E0,-1.058225870E0,-1.465962791E1,-2.884547710E0
1.517418655E0,-7.707880139E-1,-1.466441345E1,-2.745464802E0
1.519981207E0,-5.072783828E-1,-1.467159176E1,-2.527418852E0
1.522505582E0,-3.011965454E-1,-1.468116379E1,-2.288136721E0
1.525029957E0,-5.922235921E-2,-1.467159176E1,-1.974078655E0
1.527554384E0,2.234298140E-1,-1.474128342E1,-1.679462433E0
1.530078759E0,4.603192508E-1,-1.480828190E1,-1.387238979E0
1.532603134E0,6.281159520E-1,-1.487049580E1,-1.035194874E0
1.535127509E0,6.999006271E-1,-1.499522114E1,-7.046862841E-1
1.537651884E0,7.719843984E-1,-1.504068470E1,-4.818546474E-1
1.540176311E0,9.275178909E-1,-1.505743504E1,-2.159522474E-1
1.542700686E0,1.033101201E0,-1.508136272E1,9.780662507E-2
1.545225061E0,1.066600680E0,-1.507179165E1,4.286143482E-1
1.547749436E0,1.162313581E0,-1.500479221E1,6.702894568E-1
1.550284697E0,1.200598717E0,-1.500718498E1,9.194421172E-1
1.552809072E0,1.167099237E0,-1.502154255E1,1.070489049E0
1.555333447E0,9.969097376E-1,-1.506700611E1,1.118345499E0
1.557857874E0,6.281159520E-1,-1.519143295E1,1.070489049E0
1.560382249E0,1.226321608E-1,-1.540947914E1,9.963115454E-1
1.562906624E0,-4.043870270E-1,-1.561556053E1,9.218349457E-1
1.565430999E0,-1.017547846E0,-1.585274887E1,7.208378315E-1
1.567955374E0,-1.693221092E0,-1.613779449E1,5.243272781E-1
1.570479801E0,-2.301596165E0,-1.660977745E1,2.943171859E-1
1.573004176E0,-2.821436882E0,-1.708385658E1,1.531406492E-1
1.575528551E0,-3.254837036E0,-1.767817307E1,3.613162339E-1
1.578052926E0,-3.614358664E0,-1.832962036E1,1.674975902E-1
1.580588134E0,-3.952045679E0,-1.875853348E1,1.241276711E-1
1.583112509E0,-4.344767570E0,-1.903639984E1,1.025922745E-1
1.585636884E0,-4.668396950E0,-1.911297035E1,1.884347759E-2
1.588161311E0,-4.963013172E0,-1.897388649E1,-1.274178028E-1
1.590685686E0,-5.269593716E0,-1.864577103E1,-3.981058598E-1
1.593210061E0,-5.458925724E0,-1.813071632E1,-7.525427341E-1
1.595734436E0,-5.590530872E0,-1.748405647E1,-1.274776220E0
1.598258811E0,-5.604887962E0,-1.681077576E1,-1.782652855E0
1.600783238E0,-5.576174259E0,-1.602503204E1,-2.261516571E0
1.603307613E0,-5.573781013E0,-1.529701614E1,-2.778964281E0
1.605831988E0,-5.616852283E0,-1.457348633E1,-3.238984585E0
1.608356363E0,-5.525924683E0,-1.395553970E1,-3.595814228E0
1.610891572E0,-5.291129112E0,-1.347398472E1,-3.852145433E0
1.613415947E0,-5.255236626E0,-1.299960709E1,-4.214059830E0
1.615940322E0,-5.310271740E0,-1.253958702E1,-4.515854359E0
1.618464749E0,-5.236093998E0,-1.223061371E1,-4.767399788E0
1.620989124E0,-5.142475128E0,-1.194556904E1,-4.990231514E0
1.623513499E0,-5.025226593E0,-1.175145149E1,-5.162514687E0
1.626037874E0,-4.958227634E0,-1.161745262E1,-5.356632710E0
1.628562249E0,-4.871787071E0,-1.144965649E1,-5.543571949E0
1.631086676E0,-4.785645485E0,-1.139222908E1,-5.593821049E0
1.633611051E0,-4.826323509E0,-1.132044411E1,-5.639284611E0
1.636135426E0,-4.811966419E0,-1.120050335E1,-5.612963676E0
1.638659801E0,-4.776073933E0,-1.117896843E1,-5.574678421E0
1.641195061E0,-4.847858906E0,-1.113829041E1,-5.600999832E0
1.643719436E0,-4.845465660E0,-1.112871933E1,-5.457130909E0
1.646243811E0,-4.747360229E0,-1.115503979E1,-5.356632710E0
1.648768238E0,-4.694717884E0,-1.111196899E1,-5.208277702E0
1.651292613E0,-4.677968502E0,-1.108086300E1,-5.076373100E0
1.653816988E0,-4.733003139E0,-1.100668526E1,-4.985445976E0
1.656341363E0,-4.878965378E0,-1.081017494E1,-4.906183720E0
1.658865738E0,-4.984548569E0,-1.056102180E1,-4.750650406E0
1.661390165E0,-5.073082924E0,-1.032861900E1,-4.546961308E0
1.663914540E0,-5.161916733E0,-1.002203846E1,-4.355236530E0
1.666438915E0,-5.157131195E0,-9.689137459E0,-4.192524433E0
1.668963290E0,-5.101797104E0,-9.355937004E0,-4.003192425E0
1.671498499E0,-4.996512890E0,-9.008678436E0,-3.821038723E0
1.674022874E0,-4.711467743E0,-8.656634331E0,-3.679862022E0
1.676547249E0,-4.500600338E0,-8.369195938E0,-3.595814228E0
1.679071676E0,-4.234697819E0,-8.170292854E0,-3.593421459E0
1.681596051E0,-3.908974886E0,-8.072187424E0,-3.643969774E0
1.684120426E0,-3.561716557E0,-8.060222626E0,-3.921836376E0
1.686644801E0,-3.149552822E0,-8.136793137E0,-4.300201416E0
1.689169176E0,-2.739781857E0,-8.359624863E0,-4.750650406E0
1.691693603E0,-2.325524569E0,-8.666205406E0,-5.227420330E0
1.694217978E0,-1.887039781E0,-9.063713074E0,-5.639284611E0
1.696742353E0,-1.549352646E0,-9.609874725E0,-6.039484501E0
1.699266728E0,-1.192523003E0,-1.030229759E1,-6.322136402E0
1.701801936E0,-8.617152572E-1,-1.098275661E1,-6.487241268E0
1.704326311E0,-4.713860750E-1,-1.174187946E1,-6.542276382E0
1.706850686E0,-2.572284266E-2,-1.253958702E1,-6.446563244E0
1.709375113E0,5.850451589E-1,-1.333490181E1,-6.108876228E0
1.711899488E0,1.332503080E0,-1.419990730E1,-5.622535229E0
1.714423863E0,2.161317110E0,-1.485613823E1,-5.002195835E0
1.716948238E0,2.968595505E0,-1.524168205E1,-4.511068821E0
1.719472613E0,3.624827147E0,-1.548365593E1,-4.108476639E0
1.721997040E0,4.013062477E0,-1.555813313E1,-3.620041609E0
1.724521415E0,4.331607342E0,-1.551476288E1,-3.001796007E0
1.727045790E0,4.642973423E0,-1.543340683E1,-2.426920414E0
1.729570165E0,4.817948341E0,-1.524886036E1,-1.840080619E0
1.732105426E0,5.033601761E0,-1.512204075E1,-1.253240824E0
1.734629801E0,5.165206909E0,-1.507179165E1,-7.525427341E-1
1.737154176E0,5.201098919E0,-1.504307747E1,-3.667000830E-1
1.739678603E0,5.026422977E0,-1.494706535E1,-7.686942816E-2
1.742202978E0,4.861019135E0,-1.478674698E1,1.025922745E-1
1.744727353E0,4.599902630E0,-1.454237938E1,3.565305769E-1
1.747251728E0,4.412963390E0,-1.422144222E1,4.525425732E-1
1.749776103E0,4.075275898E0,-1.382124233E1,3.804588020E-1
1.752300530E0,3.826123476E0,-1.346201992E1,1.531406492E-1
1.754824905E0,3.495614767E0,-1.303549957E1,-1.489532143E-1
1.757349280E0,3.208176851E0,-1.265713406E1,-3.933202326E-1
1.759873655E0,3.095415115E0,-1.232662582E1,-6.014958024E-1
1.762408863E0,2.884846687E0,-1.200060368E1,-7.142575383E-1
1.764933238E0,2.597109795E0,-1.168205929E1,-7.692924738E-1
1.767457613E0,2.283350945E0,-1.132283688E1,-9.251250625E-1
1.769982040E0,1.878664851E0,-1.096092224E1,-1.078265667E0
1.772506415E0,1.327717423E0,-1.050120163E1,-1.296311617E0
1.775030790E0,7.695915699E-1,-1.008664513E1,-1.456630826E0
1.777555165E0,2.665006220E-1,-9.756135941E0,-1.418345571E0
1.780079540E0,-2.916252613E-1,-9.530911446E0,-1.308275819E0
1.782603968E0,-9.218349457E-1,-9.351150513E0,-1.226919770E0
1.785128343E0,-1.618744493E0,-9.090034485E0,-1.068694472E0
1.787652718E0,-2.263311148E0,-8.912964821E0,-9.152546525E-1
1.790177093E0,-2.933899641E0,-8.759525299E0,-7.022934556E-1
1.792712301E0,-3.515953779E0,-8.632705688E0,-4.746761918E-1
1.795236676E0,-4.066901207E0,-8.522336960E0,-2.231307179E-1
1.797761051E0,-4.555634975E0,-8.395517349E0,9.780662507E-2
1.800285478E0,-4.929513931E0,-8.354839325E0,4.357928336E-1
1.802809853E0,-5.248058319E0,-8.304590225E0,7.471588850E-1
1.805334228E0,-5.485246658E0,-8.191828728E0,1.087238789E0
1.807858603E0,-5.585745335E0,-8.172685623E0,1.537687659E0
1.810382978E0,-5.588138103E0,-8.139185905E0,1.872981906E0
1.812907405E0,-5.516353607E0,-8.120043755E0,2.213061810E0
1.815431780E0,-5.478068352E0,-8.065009117E0,2.397608280E0
1.817956155E0,-5.468497276E0,-7.995317936E0,2.397608280E0
1.820480530E0,-5.444568634E0,-7.968996525E0,2.438286304E0
1.823015738E0,-5.427819252E0,-7.789535046E0,2.440679073E0
1.825540113E0,-5.439783096E0,-7.571488857E0,2.325823545E0
1.828064488E0,-5.413163185E0,-7.389335632E0,1.959123492E0
1.830588915E0,-5.384449005E0,-7.164111137E0,1.485045552E0
1.833113290E0,-5.367699623E0,-6.907779694E0,8.739784956E-1
1.835637665E0,-5.324628353E0,-6.641877651E0,2.057827413E-1
1.838162040E0,-5.221737385E0,-6.500700951E0,-4.292125702E-1
1.840686415E0,-5.128118038E0,-6.337689877E0,-1.004088163E0
1.843210843E0,-5.027619362E0,-6.182156563E0,-1.569392562E0
1.845735218E0,-4.819144726E0,-6.141179085E0,-2.089233160E0
1.848259593E0,-4.598706245E0,-6.153143406E0,-2.520240545E0
1.850783968E0,-4.416851521E0,-6.150750637E0,-3.016152859E0
1.853319228E0,-4.277768612E0,-6.160621166E0,-3.763610840E0
1.855843603E0,-4.146163464E0,-6.131608009E0,-4.364807606E0
1.858367978E0,-4.057330132E0,-6.114858150E0,-4.781756878E0
1.860892405E0,-3.964009762E0,-6.014359951E0,-5.196014404E0
1.863416780E0,-3.777070522E0,-5.956932068E0,-5.600999832E0
1.865941155E0,-3.597608805E0,-5.918646812E0,-5.936294079E0
1.868465530E0,-3.427419424E0,-5.777171135E0,-6.163911343E0
1.870989905E0,-3.123231649E0,-5.774778366E0,-6.513562202E0
1.873514332E0,-2.737389088E0,-5.801099300E0,-6.784250259E0
1.876038707E0,-2.411666155E0,-5.791528225E0,-7.016653538E0
1.878563082E0,-2.145763636E0,-5.827420235E0,-7.069295406E0
1.881087457E0,-1.846361756E0,-5.880062580E0,-6.992724895E0
1.883622665E0,-1.635494232E0,-5.918646812E0,-6.827620506E0
1.886147040E0,-1.432104349E0,-6.004788399E0,-6.403492451E0
1.888671415E0,-1.187737346E0,-6.124429703E0,-5.854938030E0
1.891195843E0,-1.007976532E0,-6.172585011E0,-5.303990364E0
1.893720218E0,-8.859425783E-1,-6.285048008E0,-4.750650406E0
1.896244593E0,-8.234301209E-1,-6.387938976E0,-4.180560112E0
1.898768968E0,-7.516453862E-1,-6.313761711E0,-3.672683716E0
1.901293343E0,-7.588238716E-1,-6.186942101E0,-3.140878916E0
1.903817770E0,-7.755736113E-1,-6.119643688E0,-2.747857809E0
1.906342145E0,-8.715856671E-1,-6.004788399E0,-2.424527645E0
1.908866520E0,-9.577272534E-1,-5.901896954E0,-2.117947102E0
1.911390895E0,-1.082154036E0,-5.808278084E0,-1.842473388E0
1.913926103E0,-1.182951689E0,-5.726922035E0,-1.686640859E0
1.916450478E0,-1.309771299E0,-5.659923077E0,-1.526321769E0
1.918974853E0,-1.527817249E0,-5.551946640E0,-1.358525038E0
1.921499280E0,-1.738684773E0,-5.441876888E0,-1.207777262E0
1.924023655E0,-1.899003863E0,-5.290830135E0,-1.085444212E0
1.926548030E0,-2.117049932E0,-5.147260666E0,-1.095015407E0
1.929072405E0,-2.301596165E0,-5.097011566E0,-1.154836059E0
1.931596780E0,-2.423630238E0,-4.955535889E0,-1.193420291E0
1.934121207E0,-2.572284460E0,-4.785346031E0,-1.315454245E0
1.936645582E0,-2.682354212E0,-4.689633369E0,-1.435095429E0
1.939169957E0,-2.749652386E0,-4.579563618E0,-1.485643744E0
1.941694332E0,-2.783151865E0,-4.406980991E0,-1.526321769E0
1.944229540E0,-2.773580551E0,-4.292125702E0,-1.550249934E0
1.946753915E0,-2.799901485E0,-4.217648983E0,-1.653141379E0
1.949278290E0,-2.747259617E0,-4.181756496E0,-1.813759565E0
1.951802718E0,-2.744866610E0,-4.155435562E0,-1.990828395E0
1.954327093E0,-2.598605394E0,-4.215256214E0,-2.122732878E0
1.956851468E0,-2.445165634E0,-4.224827290E0,-2.276172638E0
1.959375843E0,-2.454736948E0,-4.157828331E0,-2.398206472E0
1.961900218E0,-2.349452734E0,-4.210470676E0,-2.477169752E0
1.964424645E0,-2.313560486E0,-4.174578190E0,-2.505883455E0
1.966949020E0,-2.294417858E0,-4.210470676E0,-2.633002281E0
1.969473395E0,-2.260918379E0,-4.304089546E0,-2.834298372E0
1.971997770E0,-2.184048891E0,-4.323232174E0,-2.863012314E0
1.974533030E0,-2.272882462E0,-4.287340164E0,-2.903690338E0
1.977057405E0,-2.387737989E0,-4.292125702E0,-2.930011272E0
1.979581780E0,-2.493321180E0,-4.296911240E0,-2.968296528E0
1.982106207E0,-2.533999205E0,-4.263112545E0,-2.937189817E0
1.984630582E0,-2.617748022E0,-4.212863445E0,-2.956332445E0
1.987154957E0,-2.627319336E0,-4.232006073E0,-2.963510752E0
1.989679332E0,-2.577069998E0,-4.282554150E0,-2.920439959E0
1.992203707E0,-2.591426849E0,-4.306482315E0,-2.930011272E0
1.994728134E0,-2.653640270E0,-4.265505314E0,-2.908475876E0
1.997252509E0,-2.790330410E0,-4.198506355E0,-2.906083107E0
1.999776884E0,-2.898007393E0,-4.205684662E0,-2.939582586E0
2.002301259E0,-2.996113062E0,-4.083651066E0,-3.044866800E0
2.004836468E0,-3.096910715E0,-4.011567116E0,-3.114557743E0
2.007360843E0,-3.104089260E0,-4.035794258E0,-3.191128016E0
2.009885218E0,-3.130410194E0,-4.011567116E0,-3.215056419E0
2.012409645E0,-3.142374277E0,-4.062115669E0,-3.227020502E0
2.014934020E0,-3.250051260E0,-3.999603033E0,-3.274876833E0
2.017458395E0,-3.496811152E0,-3.944568157E0,-3.354139090E0
2.019982770E0,-3.678964853E0,-3.844069481E0,-3.378067255E0
2.022507145E0,-3.853940010E0,-3.688236952E0,-3.382853031E0
2.025031572E0,-4.081557274E0,-3.542274714E0,-3.394817114E0
2.027555947E0,-4.205984116E0,-3.446262836E0,-3.366103172E0
2.030080322E0,-4.282554150E0,-3.388834953E0,-3.325126171E0
2.032604697E0,-4.325624943E0,-3.228515863E0,-3.277269602E0
2.035139801E0,-4.344767570E0,-3.118146896E0,-3.289233923E0
2.037664905E0,-4.371387959E0,-2.962613583E0,-3.325126171E0
2.040190009E0,-4.318446636E0,-2.801995277E0,-3.301198006E0
2.042715113E0,-4.241876125E0,-2.701496840E0,-3.387638569E0
2.045240218E0,-4.261018753E0,-2.555235386E0,-3.437887907E0
2.047765322E0,-4.220340729E0,-2.365903378E0,-3.516851187E0
2.050290426E0,-4.210769653E0,-2.231905222E0,-3.672683716E0
2.052815530E0,-4.225126743E0,-2.071287155E0,-3.833002806E0
2.055340686E0,-4.189234257E0,-1.987538338E0,-4.043870449E0
2.057865790E0,-4.148556232E0,-1.896611094E0,-4.264308929E0
2.060390895E0,-4.129413605E0,-1.841277003E0,-4.501497746E0
2.062915999E0,-4.182055950E0,-1.733600020E0,-4.743471622E0
2.065482718E0,-4.201198578E0,-1.716850281E0,-4.925326347E0
2.068007822E0,-4.201198578E0,-1.759921074E0,-5.193621635E0
2.070532926E0,-4.198805332E0,-1.779063582E0,-5.421238899E0
2.073058030E0,-4.184448719E0,-1.848455548E0,-5.627320766E0
2.075583134E0,-4.172484398E0,-1.973181367E0,-5.881258965E0
2.078108238E0,-4.205984116E0,-2.078465462E0,-6.130411625E0
2.080633343E0,-4.186841488E0,-2.203191519E0,-6.286244392E0
2.083158447E0,-4.174877167E0,-2.358724833E0,-6.515954971E0
2.085683551E0,-4.182055950E0,-2.560021162E0,-6.738786697E0
2.088208655E0,-4.196412563E0,-2.648555517E0,-6.853941441E0
2.090733759E0,-4.265804768E0,-2.737389088E0,-6.959225655E0
2.093258863E0,-4.234697819E0,-2.935993433E0,-7.076473713E0
2.095746676E0,-4.165306091E0,-3.101397276E0,-7.174878597E0
2.098271780E0,-4.215555191E0,-3.247658491E0,-7.342376232E0
2.100796884E0,-4.237090588E0,-3.319443226E0,-7.514958382E0
2.103321988E0,-4.222733974E0,-3.431905985E0,-7.682755470E0
2.105847093E0,-4.251447678E0,-3.523132324E0,-7.855038643E0
2.108372197E0,-4.261018753E0,-3.590131283E0,-8.097012520E0
2.110897301E0,-4.261018753E0,-3.714558125E0,-8.300702095E0
2.113422405E0,-4.249054909E0,-3.800998688E0,-8.691329956E0
2.115947561E0,-4.294518471E0,-3.963710785E0,-8.942576408E0
2.118472665E0,-4.447957993E0,-4.064508438E0,-9.237491608E0
2.120997770E0,-4.476672173E0,-4.234398842E0,-1.009501934E1
2.123522874E0,-4.630111694E0,-4.418945312E0,-1.082542896E1
2.126050113E0,-4.840680122E0,-4.589134693E0,-1.138863945E1
2.128575218E0,-5.044369221E0,-4.703989983E0,-1.237777233E1
2.131100322E0,-5.231308460E0,-4.991427898E0,-1.447867107E1
2.133625426E0,-5.353342533E0,-5.288437366E0,-1.597597980E1
2.136150530E0,-5.535496235E0,-5.516054630E0,-1.651496315E1
2.138675634E0,-6.091228962E0,-5.688636780E0,-1.754746628E1
2.141200738E0,-7.066304207E0,-5.952146530E0,-1.896311951E1
2.143725843E0,-8.242376328E0,-6.414260387E0,-2.012004852E1
2.146250999E0,-9.327521324E0,-7.133004189E0,-2.046282196E1
2.148776103E0,-1.035045338E1,-7.775177956E0,-1.880250168E1
2.151301207E0,-1.143799114E1,-8.203792572E0,-1.483550072E1
2.153826311E0,-1.256620693E1,-8.342875481E0,-9.900901794E0
2.156353551E0,-1.310997581E1,-8.484051704E0,-5.210670471E0
2.158878655E0,-1.280578899E1,-8.759525299E0,-1.241276741E0
2.161403759E0,-1.190518951E1,-9.147761345E0,1.709970832E0
2.163928863E0,-1.111466122E1,-9.542876244E0,3.576073408E0
2.166453968E0,-1.043420219E1,-1.001964569E1,4.263710976E0
2.168979072E0,-9.933504105E0,-1.056341457E1,3.662514210E0
2.171504176E0,-9.406484604E0,-1.121964645E1,2.102992058E0
2.174029280E0,-8.690432549E0,-1.183071327E1,2.105683982E-1
2.176554436E0,-7.825427532E0,-1.247019482E1,-1.389631748E0
2.179079540E0,-7.003791809E0,-1.290389442E1,-2.623430967E0
2.181604645E0,-6.189334869E0,-1.321765327E1,-3.734897137E0
2.184129749E0,-5.691328526E0,-1.334686565E1,-5.234598637E0
2.186657040E0,-5.796612740E0,-1.334686565E1,-7.174878597E0
2.189182145E0,-6.488736629E0,-1.324636745E1,-9.471988678E0
2.191707249E0,-7.588537693E0,-1.311207008E1,-1.180528927E1
2.194232353E0,-8.707182884E0,-1.284138203E1,-1.359960747E1
2.196757457E0,-9.490532875E0,-1.246301651E1,-1.397318649E1
2.199282561E0,-9.813862801E0,-1.201735306E1,-1.227488136E1
2.201807665E0,-9.617352486E0,-1.127976608E1,-9.261420250E0
2.204332770E0,-9.052047729E0,-1.021854877E1,-6.707680225E0
2.206857926E0,-8.268697739E0,-8.982357025E0,-5.792724609E0
2.209383030E0,-7.506882668E0,-7.772785187E0,-6.147161484E0
2.211908134E0,-6.711568356E0,-6.824030876E0,-6.432206154E0
2.214433238E0,-5.889933109E0,-6.021538258E0,-5.933900833E0
2.216960478E0,-4.982155800E0,-5.422734261E0,-4.920540810E0
2.219485582E0,-4.059722900E0,-4.905286312E0,-4.190131664E0
2.222010686E0,-3.317349434E0,-4.399802685E0,-3.979264021E0
2.224535790E0,-2.667997360E0,-4.062115669E0,-4.101297855E0
2.227060895E0,-2.042872429E0,-3.846462488E0,-4.199702740E0
2.229585999E0,-1.520638824E0,-3.736093521E0,-4.269094467E0
2.232111103E0,-9.840483069E-1,-3.681058645E0,-4.424927235E0
2.234636207E0,-4.761717021E-1,-3.841676712E0,-4.628317356E0
2.237161363E0,5.383851007E-3,-4.119543076E0,-4.441677094E0
2.239686468E0,4.507479668E-1,-4.558028221E0,-3.732504129E0
2.242211572E0,6.999006271E-1,-5.116153717E0,-2.750250578E0
2.244736676E0,7.166503668E-1,-5.618945599E0,-2.201695919E0
2.247263915E0,5.300102234E-1,-6.114858150E0,-2.113161564E0
2.249789020E0,2.832503915E-1,-6.603592396E0,-2.285743713E0
2.252314124E0,-1.615155302E-2,-7.116254330E0,-2.649751902E0
2.254839228E0,-3.397808075E-1,-7.482655525E0,-2.958725214E0
2.257364332E0,-6.056832075E-1,-7.856534004E0,-3.205485106E0
2.259889436E0,-9.026923180E-1,-8.141578674E0,-3.152842999E0
2.262414540E0,-1.312164068E0,-8.390731812E0,-2.999403238E0
2.264939645E0,-1.738684773E0,-8.632705688E0,-2.872583628E0
2.267464801E0,-2.246561289E0,-8.790632248E0,-2.908475876E0
2.269989905E0,-2.790330410E0,-9.011071205E0,-3.167199850E0
2.272515009E0,-3.334099293E0,-9.162117958E0,-3.452244759E0
2.275040113E0,-3.769891977E0,-9.255437851E0,-3.677469254E0
2.277567353E0,-4.189234257E0,-9.377771378E0,-3.811467409E0
2.280092457E0,-4.558028221E0,-9.468698502E0,-3.912265062E0
2.282617561E0,-4.766502857E0,-9.562018394E0,-4.027120590E0
2.285142665E0,-4.960620403E0,-9.662816048E0,-4.197309971E0
2.287667770E0,-5.101797104E0,-9.734601021E0,-4.314558506E0
2.290192874E0,-5.197809219E0,-9.748957634E0,-4.422534466E0
2.292717978E0,-5.269593716E0,-9.693922997E0,-4.527818680E0
2.295243082E0,-5.327021599E0,-9.605089188E0,-4.575675011E0
2.297768238E0,-5.389235020E0,-9.478269577E0,-4.709972382E0
2.300293343E0,-5.423033237E0,-9.353543282E0,-4.829613209E0
2.302818447E0,-5.456532955E0,-9.169296265E0,-4.860720158E0
2.305343551E0,-5.420640469E0,-9.044570923E0,-4.913362026E0
2.307870843E0,-5.362913609E0,-8.869894028E0,-4.939982414E0
2.310395947E0,-5.305486202E0,-8.735597610E0,-4.875077248E0
2.312921051E0,-5.128118038E0,-8.584849358E0,-4.772185802E0
2.315446155E0,-4.965405941E0,-8.462516785E0,-4.681258202E0
2.317971259E0,-4.773681164E0,-8.364410400E0,-4.621138573E0
2.320496363E0,-4.541278362E0,-8.294719696E0,-4.470390797E0
2.323021468E0,-4.294518471E0,-8.314161301E0,-4.312165737E0
2.325546572E0,-4.057330132E0,-8.323732376E0,-4.209274292E0
2.328071728E0,-3.724428415E0,-8.433802605E0,-4.067798615E0
2.330596832E0,-3.429812193E0,-8.503194809E0,-3.895515203E0
2.333121936E0,-3.202194929E0,-8.702097893E0,-3.782753468E0
2.335647040E0,-2.914757013E0,-8.869894028E0,-3.639184237E0
2.338174280E0,-2.660818815E0,-9.034998894E0,-3.502494097E0
2.340699384E0,-2.399702072E0,-9.195617676E0,-3.368496180E0
2.343224488E0,-2.196012974E0,-9.370592117E0,-3.236591816E0
2.345749593E0,-1.978266120E0,-9.629017830E0,-3.167199850E0
2.348274697E0,-1.712363720E0,-9.875777245E0,-3.076272726E0
2.350799801E0,-1.472782373E0,-1.011057281E1,-2.891726255E0
2.353324905E0,-1.261914849E0,-1.035494041E1,-2.793321371E0
2.355850009E0,-1.003190875E0,-1.052512932E1,-2.716751099E0
2.358375165E0,-6.990033388E-1,-1.068544865E1,-2.625823736E0
2.360900270E0,-4.953143001E-1,-1.085324574E1,-2.580360174E0
2.363425374E0,-3.732803464E-1,-1.094895840E1,-2.505883455E0
2.365950478E0,-2.485544533E-1,-1.097797108E1,-2.393420935E0
2.368477770E0,-1.193420291E-1,-1.098993492E1,-2.321636200E0
2.371002874E0,2.452643216E-2,-1.098514938E1,-2.251945257E0
2.373527978E0,1.824527234E-1,-1.095613670E1,-2.180160522E0
2.376053082E0,3.430709541E-1,-1.084845924E1,-2.172981977E0
2.378578186E0,4.627120793E-1,-1.077188969E1,-2.180160522E0
2.381103290E0,6.424728632E-1,-1.069262695E1,-2.168196440E0
2.383628395E0,8.174480200E-1,-1.057059288E1,-2.125125647E0
2.386153499E0,9.275178909E-1,-1.047248745E1,-2.189731836E0
2.388678655E0,9.753743410E-1,-1.032383347E1,-2.249552488E0
2.391203759E0,1.009172916E0,-1.022333431E1,-2.374278307E0
2.393728863E0,1.045065284E0,-1.005314541E1,-2.414956331E0
2.396253968E0,1.016351461E0,-9.978967667E0,-2.477169752E0
2.398781207E0,9.801599979E-1,-9.933504105E0,-2.422134638E0
2.401306311E0,9.035896659E-1,-9.842277527E0,-2.417349100E0
2.403831415E0,8.126623631E-1,-9.744172096E0,-2.436491728E0
2.406356520E0,7.310073376E-1,-9.705886841E0,-2.395813704E0
2.408881624E0,6.329016089E-1,-9.662816048E0,-2.333600283E0
2.411406728E0,5.108676553E-1,-9.643673897E0,-2.251945257E0
2.413931832E0,3.622135222E-1,-9.593125343E0,-2.144268274E0
2.416456936E0,1.417747438E-1,-9.578767776E0,-2.151446581E0
2.418982093E0,-8.823533356E-2,-9.557232857E0,-2.297708035E0
2.421507197E0,-3.035893738E-1,-9.413662910E0,-2.537289381E0
2.424032301E0,-4.785645306E-1,-9.329615593E0,-2.829512835E0
2.426557405E0,-5.814558864E-1,-9.248259544E0,-2.896511793E0
2.429084697E0,-7.444669604E-1,-9.075676918E0,-2.941975355E0
2.431609801E0,-8.883354068E-1,-8.977571487E0,-2.982653379E0
2.434134905E0,-9.553344250E-1,-8.960822105E0,-3.040081263E0
2.436660009E0,-1.125224829E0,-8.773882866E0,-3.085843801E0
2.439185113E0,-1.328913927E0,-8.675776482E0,-3.049652576E0
2.441710218E0,-1.470389485E0,-8.529515266E0,-2.886940479E0
2.444235322E0,-1.678864241E0,-8.237292290E0,-2.587538481E0
2.446760426E0,-1.779362798E0,-8.120043755E0,-2.446063042E0
2.449285582E0,-1.832004786E0,-7.959425449E0,-2.376671076E0
2.451810686E0,-2.009372711E0,-7.681559086E0,-2.189731836E0
2.454335790E0,-2.152942181E0,-7.480262756E0,-2.139482498E0
2.456860895E0,-2.232204437E0,-7.279265404E0,-2.105983019E0
2.459388134E0,-2.315953255E0,-7.094718933E0,-2.031805515E0
2.461913238E0,-2.416451693E0,-6.922136784E0,-1.808973908E0
2.464438343E0,-2.449951172E0,-6.737889290E0,-1.519143224E0
2.466963447E0,-2.471486807E0,-6.632306099E0,-1.222134113E0
2.469488551E0,-2.406880379E0,-6.483951092E0,-9.008977413E-1
2.472013655E0,-2.359024048E0,-6.452844620E0,-7.477570772E-1
2.474538759E0,-2.275275230E0,-6.467201233E0,-7.645068169E-1
2.477063863E0,-2.232204437E0,-6.462415695E0,-8.458628058E-1
2.479589020E0,-2.234597206E0,-6.457630157E0,-8.673982024E-1
2.482114124E0,-2.196012974E0,-6.469594002E0,-7.668996453E-1
2.484639228E0,-2.095514536E0,-6.560521603E0,-7.692924738E-1
2.487164332E0,-1.949552298E0,-6.687341213E0,-7.764709592E-1
2.489691624E0,-1.733899117E0,-6.874280453E0,-7.214360237E-1
2.492216728E0,-1.460818172E0,-7.101897717E0,-7.334001660E-1
2.494741832E0,-1.309771299E0,-7.204789162E0,-6.759724021E-1
2.497266936E0,-1.300199986E0,-7.248158932E0,-5.584250093E-1
2.499792040E0,-1.216451168E0,-7.248158932E0,-4.866403043E-1
2.502317145E0,-1.043868899E0,-7.343871593E0,-4.387838542E-1
2.504842249E0,-8.787640929E-1,-7.353443146E0,-4.292125702E-1
2.507367353E0,-7.875377536E-1,-7.370193005E0,-3.909274042E-1
2.509892509E0,-6.678966284E-1,-7.403692245E0,-4.555336237E-1
2.512417613E0,-5.862415433E-1,-7.485048294E0,-5.297111273E-1
2.514942718E0,-5.216353536E-1,-7.526025295E0,-6.230311990E-1
2.517467822E0,-4.259224236E-1,-7.578667641E0,-7.142575383E-1
2.519995061E0,-3.131606579E-1,-7.703094482E0,-8.195417523E-1
2.522520165E0,-2.318046987E-1,-7.823034763E0,-9.681958556E-1
2.525045270E0,-1.384846121E-1,-7.930711746E0,-1.145264745E0
2.527570374E0,-7.148557901E-2,-8.026424408E0,-1.289133191E0
2.530095478E0,5.383851007E-3,-8.170292854E0,-1.396810174E0
2.532620582E0,6.041877344E-2,-8.362017632E0,-1.511964798E0
2.535145686E0,1.034895778E-1,-8.486444473E0,-1.624427438E0
2.537670790E0,1.680957973E-1,-8.613563538E0,-1.693819284E0
2.540195947E0,1.680957973E-1,-8.704490662E0,-1.794616938E0
2.542721051E0,1.561316848E-1,-8.795417786E0,-1.885544300E0
2.545246155E0,1.465603858E-1,-8.886644363E0,-1.954936147E0
2.547771259E0,1.178465188E-1,-8.912964821E0,-1.998306036E0
2.550298551E0,1.417747438E-1,-8.862715721E0,-1.983649969E0
2.552823811E0,1.441675574E-1,-8.831310272E0,-1.990828395E0
2.555349072E0,2.210369855E-1,-8.771489143E0,-2.031805515E0
2.557874332E0,2.569293380E-1,-8.694919586E0,-2.086840391E0
2.560399540E0,2.760719061E-1,-8.534300804E0,-2.089233160E0
2.562924801E0,2.736790776E-1,-8.397910118E0,-2.029412746E0
2.565450061E0,3.311068416E-1,-8.289934158E0,-2.012662888E0
2.567975322E0,4.052843451E-1,-8.208578110E0,-1.969292998E0
2.570500582E0,4.387838542E-1,-8.117650986E0,-1.947757602E0
2.573025843E0,4.268197417E-1,-8.065009117E0,-1.892722726E0
2.575551051E0,4.172484577E-1,-8.021638870E0,-1.864008784E0
2.578076311E0,4.196412563E-1,-8.031509399E0,-1.804188251E0
2.580601988E0,3.741776347E-1,-8.021638870E0,-1.770688772E0
2.583127249E0,3.263211846E-1,-8.069794655E0,-1.737189293E0
2.585652509E0,2.856431901E-1,-8.084151268E0,-1.785045743E0
2.588177770E0,2.449652255E-1,-8.146365166E0,-1.828116536E0
2.590702978E0,2.712862790E-1,-8.287541389E0,-1.852044702E0
2.593228238E0,2.952145040E-1,-8.373981476E0,-2.010270119E0
2.595753499E0,3.693920076E-1,-8.500801086E0,-2.153839588E0
2.598278759E0,4.316053987E-1,-8.644669533E0,-2.276172638E0
2.600804020E0,4.917250574E-1,-8.785846710E0,-2.455634356E0
2.603329280E0,5.802595019E-1,-8.953642845E0,-2.568396091E0
2.605854488E0,6.592226624E-1,-9.111868858E0,-2.692822695E0
2.608379749E0,7.310073376E-1,-9.324830055E0,-2.790928602E0
2.610905478E0,8.030911088E-1,-9.492626190E0,-2.891726255E0
2.613430738E0,8.844470978E-1,-9.617053032E0,-3.001796007E0
2.615955999E0,9.299107194E-1,-9.768099785E0,-3.138485909E0
2.618481259E0,9.658030272E-1,-9.907182693E0,-3.227020502E0
2.621006468E0,1.016351461E0,-1.008425236E1,-3.373281717E0
2.623531728E0,1.066600680E0,-1.020658493E1,-3.528815269E0
2.626056988E0,1.085743308E0,-1.042193890E1,-3.632005692E0
2.628582249E0,1.107278705E0,-1.058016396E1,-3.754039526E0
2.631107509E0,1.107278705E0,-1.070967579E1,-3.801896095E0
2.633632770E0,1.114457130E0,-1.078146076E1,-3.801896095E0
2.636157978E0,1.080957651E0,-1.083888817E1,-3.792324781E0
2.638683238E0,1.059422255E0,-1.091067314E1,-3.710968733E0
2.641208968E0,1.073779106E0,-1.089631653E1,-3.648755312E0
2.643734228E0,1.059422255E0,-1.093220806E1,-3.557528973E0
2.646259488E0,1.061815023E0,-1.088913727E1,-3.452244759E0
2.648784749E0,1.004387259E0,-1.086520958E1,-3.305983543E0
2.651309957E0,9.921240807E-1,-1.075513935E1,-3.131307602E0
2.653835218E0,9.705886841E-1,-1.068066311E1,-2.927618504E0
2.656360478E0,8.892326951E-1,-1.062084198E1,-2.654537678E0
2.658885738E0,8.318049908E-1,-1.046052361E1,-2.304886341E0
2.661410999E0,7.408776879E-1,-1.030229759E1,-2.003091574E0
2.663936259E0,6.999006271E-1,-1.016800117E1,-1.722533226E0
2.666461468E0,6.520441771E-1,-9.952646255E0,-1.389631748E0
2.668986728E0,5.395814776E-1,-9.720243454E0,-9.825528264E-1
2.671512405E0,4.172484577E-1,-9.526125908E0,-6.206383705E-1
2.674037665E0,3.239283562E-1,-9.370592117E0,-3.714857101E-1
2.676562926E0,1.393819153E-1,-9.109476089E0,-1.728814393E-1
2.679088186E0,-6.400800496E-2,-8.841180801E0,1.217348501E-1
2.681613395E0,-2.246262282E-1,-8.615956306E0,4.597210586E-1
2.684138655E0,-4.378865361E-1,-8.347661018E0,7.088736892E-1
2.686663915E0,-6.607181430E-1,-8.139185905E0,9.074779749E-1
2.689189176E0,-9.792626500E-1,-7.911569118E0,1.013061285E0
2.691714436E0,-1.259521961E0,-7.703094482E0,1.130309582E0
2.694239697E0,-1.479960799E0,-7.537989616E0,1.142273664E0
2.696764905E0,-1.678864241E0,-7.418049335E0,1.029811025E0
2.699290165E0,-1.865504384E0,-7.374978542E0,9.314061999E-1
2.701815895E0,-2.016551256E0,-7.324729443E0,8.859425783E-1
2.704341155E0,-2.095514536E0,-7.360621452E0,7.974081635E-1
2.706866415E0,-2.004587173E0,-7.545167923E0,5.386841893E-1
2.709391676E0,-1.973480463E0,-7.667201996E0,2.560320199E-1
2.711916884E0,-1.846361756E0,-7.842176914E0,1.645065658E-2
2.714442145E0,-1.659422517E0,-8.031509399E0,-2.111666054E-1
2.716967405E0,-1.465603828E0,-8.124829292E0,-4.172484577E-1
2.719492665E0,-1.168594718E0,-8.306982994E0,-6.565307379E-1
2.722017926E0,-8.377870321E-1,-8.529515266E0,-8.961120844E-1
2.724543186E0,-5.096712112E-1,-8.675776482E0,-1.135693431E0
2.727068395E0,-2.294118702E-1,-8.788239479E0,-1.415952802E0
2.729593655E0,-5.682953820E-2,-8.905786514E0,-1.708176255E0
2.732119384E0,1.345962733E-1,-9.013463974E0,-1.916650891E0
2.734644645E0,2.808575630E-1,-9.075676918E0,-2.094018936E0
2.737169905E0,3.502494097E-1,-9.159725189E0,-2.184946060E0
2.739695165E0,3.167499006E-1,-9.269794464E0,-2.189731836E0
2.742220374E0,3.095714152E-1,-9.404091835E0,-2.182553291E0
2.744745634E0,2.760719061E-1,-9.509376526E0,-2.041376829E0
2.747270895E0,8.434699476E-2,-9.605089188E0,-1.856830359E0
2.749796155E0,-5.922235921E-2,-9.753743172E0,-1.686640859E0
2.752321415E0,-2.126621157E-1,-9.902397156E0,-1.384846091E0
2.754846676E0,-3.804588020E-1,-1.004596710E1,-1.083051324E0
2.757371884E0,-6.176473498E-1,-1.022812080E1,-8.721838593E-1
2.759897145E0,-9.290133715E-1,-1.037647533E1,-8.530412912E-1
2.762422822E0,-1.209272742E0,-1.053470039E1,-7.573283911E-1
2.764948082E0,-1.451246977E0,-1.071206856E1,-5.368895531E-1
2.767473343E0,-1.738684773E0,-1.093460083E1,-3.933202326E-1
2.769998603E0,-1.915753603E0,-1.119571781E1,-2.590230405E-1
2.772523811E0,-2.088335991E0,-1.141137123E1,-6.251249462E-2
2.775049072E0,-2.289632082E0,-1.171316624E1,7.627122104E-2
2.777574332E0,-2.414058924E0,-1.201735306E1,1.531406492E-1
2.780099593E0,-2.500499725E0,-1.222822094E1,2.201396823E-1
2.782624853E0,-2.572284460E0,-1.250369453E1,1.555334777E-1
2.785150113E0,-2.541177750E0,-1.268584824E1,1.645065658E-2
2.787675322E0,-2.608176708E0,-1.282941818E1,-1.633101404E-1
2.790200582E0,-2.600998163E0,-1.295892906E1,-3.834498227E-1
2.792726311E0,-2.584248543E0,-1.301157093E1,-6.517450809E-1
2.795251572E0,-2.581855536E0,-1.301157093E1,-1.011266708E0
2.797776832E0,-2.569891453E0,-1.296610737E1,-1.545464277E0
2.800302093E0,-2.548356056E0,-1.280309677E1,-2.213660002E0
2.802827301E0,-2.565105915E0,-1.254676533E1,-2.783750057E0
2.805352561E0,-2.440380096E0,-1.227368450E1,-3.246163130E0
2.807877822E0,-2.268096685E0,-1.200299644E1,-3.651148319E0
2.810403082E0,-2.021337032E0,-1.170120144E1,-3.945764542E0
2.812928343E0,-1.726720691E0,-1.146879864E1,-4.137489319E0
2.815453603E0,-1.367199063E0,-1.132283688E1,-4.106083870E0
2.817978811E0,-8.665009141E-1,-1.125583744E1,-3.952943087E0
2.820504072E0,-4.067798555E-1,-1.127498055E1,-3.763610840E0
2.823029749E0,3.888336942E-2,-1.132283688E1,-3.428316593E0
2.825555009E0,4.917250574E-1,-1.147837067E1,-3.016152859E0
2.828080270E0,9.203394055E-1,-1.165095234E1,-2.745464802E0
2.830605530E0,1.430608869E0,-1.186660576E1,-2.424527645E0
2.833130738E0,1.835594058E0,-1.216600800E1,-2.065304995E0
2.835655999E0,2.225923300E0,-1.253719425E1,-1.756331801E0
2.838181259E0,2.630908489E0,-1.293500137E1,-1.435095429E0
2.840706520E0,3.009273529E0,-1.341655636E1,-1.126122117E0
2.843231780E0,3.291925669E0,-1.389542007E1,-8.051848412E-1
2.845757040E0,3.591327667E0,-1.436261845E1,-5.679962635E-1
2.848282249E0,3.945764542E0,-1.485613823E1,-3.020938635E-1
2.850807509E0,4.240679741E0,-1.532573032E1,-2.183450572E-2
2.853333238E0,4.604688168E0,-1.569213104E1,3.326023519E-1
2.855858499E0,4.997410297E0,-1.596521187E1,6.415755749E-1
2.858383759E0,5.388038158E0,-1.616411591E1,8.500502706E-1
2.860909020E0,5.737689495E0,-1.622393608E1,1.039382339E0
2.863434228E0,6.087340832E0,-1.617368698E1,1.223928809E0
2.865959488E0,6.353243351E0,-1.605135345E1,1.389033556E0
2.868484749E0,6.480361938E0,-1.589103413E1,1.463211060E0
2.871010009E0,6.566503525E0,-1.569213104E1,1.460818172E0
2.873535270E0,6.504290104E0,-1.547887039E1,1.336391449E0
2.876060530E0,6.298208237E0,-1.520818233E1,1.123131156E0
2.878585738E0,6.017949104E0,-1.490160179E1,8.763712645E-1
2.881110999E0,5.618048668E0,-1.454477215E1,6.367899179E-1
2.883636676E0,5.153242588E0,-1.416371536E1,3.708875179E-1
2.886161936E0,4.597509384E0,-1.373031521E1,7.387840003E-2
2.888687197E0,4.039383888E0,-1.333490181E1,-2.087737769E-1
2.891212457E0,3.392424345E0,-1.292303658E1,-4.579264224E-1
2.893737665E0,2.740978241E0,-1.255872917E1,-7.262216806E-1
2.896262926E0,2.123031855E0,-1.218754292E1,-1.018445134E0
2.898788186E0,1.562513232E0,-1.184506989E1,-1.274776220E0
2.901313447E0,9.729815125E-1,-1.156002522E1,-1.569392562E0
2.903838707E0,3.574278951E-1,-1.127019501E1,-1.813759565E0
2.906363968E0,-2.126621157E-1,-1.106171989E1,-2.067697763E0
2.908889176E0,-7.061817646E-1,-1.091067314E1,-2.271386862E0
2.911414436E0,-1.271486163E0,-1.076949692E1,-2.448455811E0
2.913979645E0,-1.855933070E0,-1.067109203E1,-2.647359133E0
2.916504853E0,-2.469093800E0,-1.059930706E1,-2.824727058E0
2.919030113E0,-3.061018467E0,-1.048445129E1,-2.939582586E0
2.921555374E0,-3.444169044E0,-1.035733318E1,-3.035295486E0
2.924080634E0,-3.657429457E0,-1.036929703E1,-3.107379198E0
2.926605895E0,-3.810570002E0,-1.030229759E1,-3.124129057E0
2.929131155E0,-3.839582920E0,-1.021615601E1,-3.078665495E0
2.931656415E0,-3.762713671E0,-1.011535835E1,-3.061616659E0
2.934181624E0,-3.523132324E0,-1.003878784E1,-2.987439156E0
2.936706884E0,-3.216551781E0,-1.005075264E1,-2.846262455E0
2.939232145E0,-2.764009237E0,-1.008185863E1,-2.707179785E0
2.941757405E0,-2.076371908E0,-1.024726295E1,-2.453241348E0
2.944243655E0,-1.386341572E0,-1.047248745E1,-2.038984060E0
2.946768915E0,-6.631109715E-1,-1.074796104E1,-1.669891119E0
2.949294176E0,-1.719841212E-1,-1.104736328E1,-1.356132269E0
2.951819436E0,2.736790776E-1,-1.137547874E1,-1.011266708E0
2.954344645E0,7.887341380E-1,-1.170359421E1,-6.903293133E-1
2.956869905E0,1.135992527E0,-1.203171062E1,-4.746761918E-1
2.959395165E0,1.500000715E0,-1.233380413E1,-2.207378894E-1
2.961920426E0,1.816451430E0,-1.258056450E1,1.166501082E-2
2.964445686E0,2.199602127E0,-1.283420372E1,2.368894368E-1
2.966970947E0,2.573181629E0,-1.302114296E1,4.836492836E-1
2.969496155E0,2.793620348E0,-1.313629723E1,6.511468887E-1
2.972021415E0,2.973381281E0,-1.326550961E1,8.213363886E-1
2.974586572E0,3.121736288E0,-1.335404396E1,1.003489971E0
2.977111780E0,3.325425386E0,-1.349551964E1,1.123131156E0
2.979637040E0,3.517150164E0,-1.358405399E1,1.259821177E0
2.982162301E0,3.682554007E0,-1.365374470E1,1.329213023E0
2.984687561E0,3.744767427E0,-1.374228001E1,1.436890006E0
2.987212822E0,3.840480328E0,-1.379252911E1,1.564008713E0
2.989738082E0,3.912265062E0,-1.382602787E1,1.872981906E0
2.992263343E0,4.068097591E0,-1.389302731E1,2.208276272E0
2.994788551E0,4.221537113E0,-1.397946835E1,2.354537487E0
2.997313811E0,4.300500393E0,-1.402732468E1,2.594118834E0
2.999839072E0,4.310071945E0,-1.400100327E1,2.991626501E0
3.002364332E0,4.101597309E0,-1.384277821E1,3.314956665E0
3.004850582E0,3.701696634E0,-1.364387512E1,3.652942896E0
3.007375843E0,3.387638569E0,-1.353380489E1,3.849154234E0
3.009901103E0,3.215355396E0,-1.340459251E1,3.873082638E0
3.012426363E0,3.205784082E0,-1.339980698E1,3.834797382E0
3.014951572E0,3.191427231E0,-1.326550961E1,3.638586044E0
3.017476832E0,3.215355396E0,-1.300439262E1,2.984447956E0
3.020002093E0,3.126521826E0,-1.289671612E1,2.912663460E0
3.022527353E0,2.843869686E0,-1.283181095E1,3.216850996E0
3.025052613E0,2.597109795E0,-1.275524044E1,3.343670607E0
3.027577874E0,2.405683994E0,-1.272174072E1,3.418147087E0
3.030103082E0,2.278565407E0,-1.252283764E1,3.367897987E0
3.032628343E0,2.312064886E0,-1.241994572E1,3.305385351E0
3.035154072E0,2.257030010E0,-1.233141136E1,3.475574970E0
3.037679332E0,2.158924341E0,-1.217557907E1,3.540181160E0
3.040204593E0,1.995913148E0,-1.196710396E1,3.573680639E0
3.042729853E0,1.765903115E0,-1.168684483E1,3.511467218E0
3.045255061E0,1.535893083E0,-1.136590767E1,3.399004459E0
3.047780322E0,1.476072431E0,-1.110718346E1,3.269493103E0
3.050305582E0,1.368395448E0,-1.080538845E1,3.090031385E0
3.052830843E0,1.260419369E0,-1.063519955E1,2.962912560E0
3.055356103E0,1.183848977E0,-1.041954613E1,2.747259617E0
3.057881363E0,1.068993568E0,-1.010100174E1,2.450250387E0
3.060406572E0,8.796614408E-1,-9.875777245E0,2.093420744E0
3.062931832E0,7.480561733E-1,-9.636494637E0,1.729113460E0
3.065496936E0,5.802595019E-1,-9.363115311E0,1.362712502E0
3.068022353E0,5.300102234E-1,-9.171689034E0,9.939187169E-1
3.070547822E0,4.483551383E-1,-8.956035614E0,6.798607111E-1
3.073073238E0,3.861417472E-1,-8.814560890E0,4.142574072E-1
3.075598655E0,2.688934505E-1,-8.740383148E0,2.129612118E-1
3.078124124E0,1.752742529E-1,-8.625527382E0,5.952146277E-2
3.080649540E0,1.298106313E-1,-8.632705688E0,7.148557901E-2
3.083174957E0,1.154536903E-1,-8.611170769E0,4.995017126E-2
3.085700426E0,9.631111473E-2,-8.577671051E0,7.387840003E-2
3.088225843E0,2.042872310E-1,-8.527122498E0,3.559323773E-2
3.090751311E0,2.330010980E-1,-8.469695091E0,-6.490531564E-2
3.093276728E0,1.202393398E-1,-8.400302887E0,-2.446661144E-1
3.095760947E0,8.434699476E-2,-8.405088425E0,-4.722833633E-1
3.098286415E0,8.195417374E-2,-8.383553505E0,-6.735795736E-1
3.100811832E0,-1.375873014E-2,-8.405088425E0,-9.128618240E-1
3.103337249E0,-8.823533356E-2,-8.412266731E0,-1.150050402E0
3.105862718E0,-1.791625917E-1,-8.400302887E0,-1.360917926E0
3.108388134E0,-2.820539773E-1,-8.330910683E0,-1.500000715E0
3.110913551E0,-3.493520916E-1,-8.347661018E0,-1.500000715E0
3.113439020E0,-4.139583111E-1,-8.347661018E0,-1.289133191E0
3.115964436E0,-5.048855543E-1,-8.326125145E0,-1.181157112E0
3.118489905E0,-5.407779217E-1,-8.285148621E0,-9.251250625E-1
3.121015322E0,-5.168496966E-1,-8.266005516E0,-7.477570772E-1
3.123540738E0,-5.718846321E-1,-8.237292290E0,-7.549355626E-1
3.126064436E0,-6.296114326E-1,-8.246863365E0,-6.855437160E-1
3.128589905E0,-6.559324861E-1,-8.222934723E0,-7.310073376E-1
3.131115322E0,-6.990033388E-1,-8.208578110E0,-7.836494446E-1
3.133640738E0,-7.325028181E-1,-8.153543472E0,-8.027920127E-1
3.136166207E0,-7.420741320E-1,-8.151150703E0,-9.586246014E-1
3.138691624E0,-7.516453862E-1,-8.184649467E0,-9.634101987E-1
3.141217040E0,-7.636095285E-1,-8.210970879E0,-1.133300662E0
3.143742509E0,-7.612167001E-1,-8.227720261E0,-1.193420291E0
3.146267926E0,-7.492526174E-1,-8.323732376E0,-1.224527001E0
3.148793395E0,-8.018946648E-1,-8.357232094E0,-1.269990563E0
3.151318811E0,-8.282157183E-1,-8.354839325E0,-1.281954765E0
3.153844228E0,-8.114659786E-1,-8.400302887E0,-1.190728426E0
3.156367874E0,-7.420741320E-1,-8.469695091E0,-1.154836059E0
3.158893343E0,-7.253243923E-1,-8.565707207E0,-1.056730270E0
3.161418759E0,-6.726822853E-1,-8.601598740E0,-8.769695163E-1
3.163944176E0,-5.934200287E-1,-8.654241562E0,-7.764709592E-1
3.166469645E0,-5.910272002E-1,-8.706883430E0,-6.565307379E-1
3.168995061E0,-5.910272002E-1,-8.702097893E0,-5.703890920E-1
3.171520478E0,-6.032904387E-1,-8.682954788E0,-4.651049078E-1
3.174045947E0,-5.335994363E-1,-8.730812073E0,-3.475574851E-1
3.176571363E0,-5.240281820E-1,-8.781061172E0,-2.063809484E-1
3.179096832E0,-5.359922647E-1,-8.745168686E0,-1.274178028E-1
3.181622249E0,-5.407779217E-1,-8.680562019E0,-1.031904742E-1
3.184147665E0,-5.718846321E-1,-8.716454506E0,-7.686942816E-2
3.186671363E0,-6.846463680E-1,-8.649456024E0,-1.175474152E-1
3.189196832E0,-8.377870321E-1,-8.592027664E0,-1.920240223E-1
3.191722249E0,-9.864411354E-1,-8.541479111E0,-2.398804724E-1
3.194247665E0,-1.194915771E0,-8.417053223E0,-2.757728100E-1
3.196773134E0,-1.422533035E0,-8.338089943E0,-3.547359705E-1
3.199298551E0,-1.599601984E0,-8.268398285E0,-4.507479668E-1
3.201823968E0,-1.765005827E0,-8.172685623E0,-5.105685592E-1
3.204349436E0,-1.951945066E0,-8.086544037E0,-6.373881102E-1
3.206874853E0,-2.126621008E0,-7.980960846E0,-7.477570772E-1
3.209400322E0,-2.248954296E0,-7.878069401E0,-8.027920127E-1
3.211925738E0,-2.342274189E0,-7.854141235E0,-8.003991842E-1
3.214451155E0,-2.421237469E0,-7.775177956E0,-7.908278704E-1
3.217014332E0,-2.418844700E0,-7.698308468E0,-8.745766878E-1
3.219539749E0,-2.507678032E0,-7.569096088E0,-1.025623560E0
3.222065218E0,-2.562713146E0,-7.437191963E0,-1.078265667E0
3.224590634E0,-2.560320139E0,-7.370193005E0,-1.145264745E0
3.227116051E0,-2.581855536E0,-7.315157890E0,-1.181157112E0
3.229641520E0,-2.629712105E0,-7.236194611E0,-1.313061476E0
3.232166936E0,-2.665604353E0,-7.161718369E0,-1.389631748E0
3.234692353E0,-2.732603550E0,-7.118647575E0,-1.420738459E0
3.237217822E0,-2.814258575E0,-7.013363361E0,-1.483250976E0
3.239743238E0,-2.909971476E0,-6.941279411E0,-1.526321769E0
3.242268707E0,-3.044268608E0,-6.828816891E0,-1.581356645E0
3.244794124E0,-3.171088219E0,-6.733103752E0,-1.686640859E0
3.247278290E0,-3.240479946E0,-6.672984123E0,-1.732403636E0
3.249803759E0,-3.381955624E0,-6.567699909E0,-1.780260086E0
3.252329176E0,-3.492025614E0,-6.479165554E0,-1.840080619E0
3.254854593E0,-3.616751432E0,-6.366403580E0,-1.847259045E0
3.257380061E0,-3.638286829E0,-6.340082645E0,-1.816152334E0
3.259905478E0,-3.652643681E0,-6.361618042E0,-1.730010748E0
3.262430895E0,-3.729214191E0,-6.407081604E0,-1.667498231E0
3.264956363E0,-3.753142357E0,-6.354439735E0,-1.607677698E0
3.267481780E0,-3.786641836E0,-6.364010811E0,-1.593320727E0
3.270007249E0,-3.925724745E0,-6.424130440E0,-1.622034669E0
3.272532665E0,-3.947260141E0,-6.460022926E0,-1.617249012E0
3.275058082E0,-3.925724745E0,-6.493522644E0,-1.547857165E0
3.277581728E0,-3.834797382E0,-6.601199627E0,-1.459023595E0
3.280107197E0,-3.781856298E0,-6.733103752E0,-1.344168067E0
3.282632613E0,-3.736392498E0,-6.812067032E0,-1.332203984E0
3.285158030E0,-3.652643681E0,-6.948457718E0,-1.274776220E0
3.287683499E0,-3.626322746E0,-7.058826923E0,-1.301097274E0
3.290208915E0,-3.650250912E0,-7.099504948E0,-1.363310695E0
3.292734332E0,-3.657429457E0,-7.123433113E0,-1.461715579E0
3.295259801E0,-3.671786308E0,-7.202396393E0,-1.476072431E0
3.297785218E0,-3.702893019E0,-7.257730007E0,-1.545464277E0
3.300310686E0,-3.733999729E0,-7.262516022E0,-1.612463355E0
3.302836103E0,-3.808177233E0,-7.288836956E0,-1.648355722E0
3.305361520E0,-3.885046721E0,-7.264908791E0,-1.633998752E0
3.307885218E0,-3.966402531E0,-7.260122776E0,-1.732403636E0
3.310410686E0,-4.047758579E0,-7.296015263E0,-1.957328916E0
3.312936103E0,-4.150949001E0,-7.296015263E0,-2.089233160E0
3.315461520E0,-4.182055950E0,-7.291229725E0,-2.268994093E0
3.317986988E0,-4.229912281E0,-7.319943428E0,-2.441277266E0
3.320512405E0,-4.361816406E0,-7.370193005E0,-2.566003084E0
3.323037822E0,-4.526921272E0,-7.420442104E0,-2.759821892E0
3.325563290E0,-4.682754040E0,-7.559525013E0,-2.896511793E0
3.328088707E0,-4.828716278E0,-7.746165276E0,-2.977867842E0
3.330614176E0,-4.963013172E0,-7.878069401E0,-3.076272726E0
3.333139593E0,-5.051547527E0,-8.026424408E0,-3.188735247E0
3.335665009E0,-5.106582642E0,-8.117650986E0,-3.291626692E0
3.338188707E0,-5.161916733E0,-8.110472679E0,-3.442673683E0
3.340714176E0,-5.037190914E0,-8.074580193E0,-3.660719633E0
3.343239593E0,-4.838287354E0,-8.038687706E0,-3.811467409E0
3.345765009E0,-4.630111694E0,-7.928318501E0,-3.979264021E0
3.348290478E0,-4.445565224E0,-7.858926773E0,-4.127619267E0
3.350815895E0,-4.246662140E0,-7.844570160E0,-4.273880482E0
3.353341311E0,-4.103092670E0,-7.866105556E0,-4.470390797E0
3.355866780E0,-3.997509241E0,-7.901997566E0,-4.712365150E0
3.358392197E0,-3.913760424E0,-7.957032681E0,-4.992624283E0
3.360917665E0,-3.858725548E0,-8.055437088E0,-5.268098354E0
3.363443082E0,-3.837190151E0,-8.110472679E0,-5.474180222E0
3.365968499E0,-3.805784464E0,-8.172685623E0,-5.665606022E0
3.368492197E0,-3.815654755E0,-8.230113029E0,-5.862116337E0
3.371017665E0,-3.858725548E0,-8.251648903E0,-5.976971626E0
3.373543082E0,-3.798605919E0,-8.251648903E0,-6.068198204E0
3.376068499E0,-3.757927895E0,-8.297411919E0,-6.161518097E0
3.378593968E0,-3.750749588E0,-8.321339607E0,-6.266802311E0
3.381119384E0,-3.753142357E0,-8.333304405E0,-6.396314144E0
3.383644801E0,-3.717249870E0,-8.340482712E0,-6.544968128E0
3.386170270E0,-3.671786308E0,-8.385946274E0,-6.736393929E0
3.388695686E0,-3.600001574E0,-8.414659500E0,-6.964011192E0
3.391221155E0,-3.527917862E0,-8.433802605E0,-7.179664135E0
3.393746572E0,-3.403491020E0,-8.534300804E0,-7.416852951E0
3.396271988E0,-3.233301640E0,-8.536693573E0,-7.733004570E0
3.398795634E0,-3.065804005E0,-8.608778000E0,-7.891230106E0
3.401321103E0,-2.931506872E0,-8.723632812E0,-8.010870934E0
3.403846520E0,-2.756830692E0,-8.824131966E0,-8.219346046E0
3.406371936E0,-2.476571321E0,-9.013463974E0,-8.370093346E0
3.408897405E0,-2.320738792E0,-9.226723671E0,-8.530712128E0
3.411422822E0,-2.138585329E0,-9.430413246E0,-8.664710045E0
3.413948238E0,-2.009372711E0,-9.660423279E0,-8.806185722E0
3.416473707E0,-1.939681888E0,-9.938289642E0,-9.017052650E0
3.418999124E0,-1.860718727E0,-1.034058285E1,-9.148657799E0
3.421524593E0,-1.772184253E0,-1.079581738E1,-9.364311218E0
3.424050009E0,-1.721935034E0,-1.127737331E1,-9.527322769E0
3.426575426E0,-1.702792406E0,-1.184028435E1,-9.613464355E0
3.429099124E0,-1.717149377E0,-1.236251831E1,-9.601499557E0
3.431624593E0,-1.686042666E0,-1.292303658E1,-9.294919968E0
3.434150009E0,-1.661815286E0,-1.344766331E1,-8.944969177E0
3.436675426E0,-1.556531072E0,-1.391964722E1,-8.430212975E0
3.439200895E0,-1.448854089E0,-1.433151245E1,-7.704290867E0
3.441726311E0,-1.352842093E0,-1.470987701E1,-6.724429607E0
3.444251728E0,-1.086939692E0,-1.511007690E1,-5.675177097E0
3.446777197E0,-8.425726891E-1,-1.544058514E1,-4.630710125E0
3.449302613E0,-6.128616929E-1,-1.581924915E1,-3.844966888E0
3.451828082E0,-2.892324328E-1,-1.629093552E1,-3.193521023E0
3.454353499E0,-1.456630826E-1,-1.665524292E1,-2.525026083E0
3.456878915E0,-8.973085321E-3,-1.694028664E1,-1.983649969E0
3.459402613E0,-4.007977992E-2,-1.710299873E1,-1.617249012E0
3.461928082E0,-8.823533356E-2,-1.718465424E1,-1.557428479E0
3.464453499E0,-2.772683203E-1,-1.728993797E1,-1.552642822E0
3.466978915E0,-5.096712112E-1,-1.734018707E1,-1.938186288E0
3.469504384E0,-7.755736113E-1,-1.735454369E1,-2.723929405E0
3.472029801E0,-1.106082320E0,-1.732822418E1,-3.825824261E0
3.474555218E0,-1.348056436E0,-1.737847328E1,-4.980660439E0
3.477080686E0,-1.420140266E0,-1.742902184E1,-6.056233883E0
3.479606103E0,-1.350449324E0,-1.748405647E1,-6.645466805E0
3.482131572E0,-1.178166032E0,-1.760130501E1,-6.436992168E0
3.484656988E0,-9.481559992E-1,-1.772124481E1,-5.157729149E0
3.487182405E0,-8.090731502E-1,-1.777627945E1,-2.769393206E0
3.489706103E0,-7.731808424E-1,-1.775713730E1,6.702894568E-1
3.492231572E0,-9.098708034E-1,-1.764198303E1,4.522434711E0
3.494756988E0,-1.202094316E0,-1.749123383E1,8.019844055E0
3.497282405E0,-1.618744493E0,-1.716551208E1,1.066451168E1
3.499807874E0,-2.217847586E0,-1.654248047E1,1.219053364E1
3.502333290E0,-2.826222658E0,-1.557488251E1,1.281087303E1
3.504858707E0,-3.273979664E0,-1.424537086E1,1.261914825E1
3.507384176E0,-3.683750391E0,-1.261406326E1,1.190040398E1
3.509909593E0,-3.990330935E0,-1.095852947E1,1.083440208E1
3.512435061E0,-4.299304008E0,-9.288937569E0,9.064311028E0
3.514960478E0,-4.716253281E0,-7.770392418E0,7.006484032E0
3.517485895E0,-5.181059361E0,-6.399903297E0,4.972883701E0
3.520009593E0,-5.755934715E0,-5.161617756E0,3.015554667E0
3.522535061E0,-6.409773827E0,-4.117150307E0,1.197308660E0
3.525060478E0,-6.920042992E0,-3.252444267E0,-2.398804724E-1
3.527585895E0,-6.972685337E0,-2.591127872E0,-1.073480010E0
3.530111363E0,-6.843472958E0,-2.109572172E0,-1.528714538E0
3.532636780E0,-6.553642273E0,-1.800599098E0,-1.650748491E0
3.535162197E0,-6.285346985E0,-1.606780410E0,-1.569392562E0
3.537687665E0,-6.033801556E0,-1.613958836E0,-1.341775298E0
3.540213082E0,-5.758327484E0,-1.659422517E0,-1.030409217E0
3.542738551E0,-5.365306377E0,-1.836491346E0,-7.956135273E-1
3.545263968E0,-4.924727917E0,-2.083251238E0,-5.129613280E-1
3.547789384E0,-4.431208611E0,-2.341975212E0,-1.872383654E-1
3.550313030E0,-3.973581076E0,-2.583949327E0,1.645065658E-2
3.552838499E0,-3.619144201E0,-2.861815929E0,6.909275055E-2
3.555363915E0,-3.348456144E0,-3.091825962E0,1.193420291E-1
3.557889332E0,-2.988934517E0,-3.398406267E0,-7.477570791E-3
3.560414801E0,-2.615355253E0,-3.779463291E0,-1.031904742E-1
3.562940218E0,-2.270489693E0,-4.243969917E0,-1.920240223E-1
3.565465634E0,-1.939681888E0,-4.636991024E0,-2.159522474E-1
3.567991103E0,-1.738684773E0,-5.097011566E0,-1.776670814E-1
3.570516520E0,-1.458425403E0,-5.573482037E0,-6.011966988E-2
3.573041988E0,-1.065404296E0,-6.095715523E0,1.289133132E-1
3.575567405E0,-5.312066078E-1,-6.754639149E0,3.230310678E-1
3.578092822E0,7.776673418E-3,-7.408477783E0,5.602195859E-1
3.580616572E0,6.592226624E-1,-8.091329575E0,8.045865893E-1
3.583141728E0,1.308574915E0,-8.865108490E0,1.075274706E0
3.585666884E0,1.916949987E0,-9.722636223E0,1.353141189E0
3.588192093E0,2.568396091E0,-1.065434170E1,1.573580027E0
3.590717249E0,3.234498024E0,-1.166291714E1,1.872981906E0
3.593242405E0,3.854837179E0,-1.254915810E1,2.071885347E0
3.595767561E0,4.432105541E0,-1.335165119E1,2.210669041E0
3.598292718E0,5.011766911E0,-1.403928852E1,2.270489693E0
3.600817874E0,5.529214859E0,-1.461416435E1,2.275275230E0
3.603343030E0,6.087340832E0,-1.504307747E1,2.294716835E0
3.605868238E0,6.489933014E0,-1.533051586E1,2.284846544E0
3.608393395E0,6.782156467E0,-1.546690655E1,2.318645239E0
3.610920061E0,6.957131863E0,-1.540708637E1,2.251347065E0
3.613445218E0,7.028916359E0,-1.519143295E1,2.210669041E0
3.615970374E0,6.863512516E0,-1.487049580E1,1.975873351E0
3.618495582E0,6.516254425E0,-1.431236935E1,1.712363720E0
3.621020738E0,6.041877270E0,-1.368006611E1,1.429711580E0
3.623545895E0,5.474180222E0,-1.305464172E1,1.190130115E0
3.626071051E0,4.832305431E0,-1.236251831E1,9.337990284E-1
3.628596207E0,4.106382847E0,-1.172513008E1,7.543373108E-1
3.631121363E0,3.342175007E0,-1.114307594E1,5.530411601E-1
3.633646520E0,2.467897415E0,-1.067827034E1,4.549354017E-1
3.636171728E0,1.725225091E0,-1.041236782E1,3.373879790E-1
3.638696884E0,9.825528264E-1,-1.024487019E1,2.368894368E-1
3.641223551E0,2.330010980E-1,-1.008185863E1,8.823533356E-2
3.643748707E0,-4.713860750E-1,-1.000289631E1,4.516452923E-2
3.646273863E0,-1.031904817E0,-1.000050354E1,4.995017126E-2
3.648799072E0,-1.501496196E0,-1.007707310E1,1.405783277E-2
3.651324228E0,-1.908575177E0,-1.008185863E1,-6.230311990E-1
3.653849384E0,-2.382952213E0,-9.964611053E0,-1.528714538E0
3.656374540E0,-2.787937403E0,-9.815957069E0,-2.192124605E0
3.658899697E0,-3.137588739E0,-9.705886841E0,-2.728715181E0
3.661424853E0,-3.489632607E0,-9.547661781E0,-3.119343519E0
3.663950009E0,-3.738785267E0,-9.444769859E0,-3.397209883E0
3.666475218E0,-3.932903051E0,-9.363115311E0,-3.823431492E0
3.669000374E0,-4.042973042E0,-9.286544800E0,-4.316951275E0
3.671527040E0,-4.146163464E0,-9.250652313E0,-4.767399788E0
3.674052197E0,-4.282554150E0,-9.183652878E0,-5.184050083E0
3.676577353E0,-4.380959034E0,-9.111868858E0,-5.486144066E0
3.679102561E0,-4.428815842E0,-9.107083321E0,-5.591428280E0
3.681627718E0,-4.543671131E0,-9.039784431E0,-5.500501156E0
3.684152874E0,-4.491028786E0,-8.994320869E0,-5.289633751E0
3.686678030E0,-4.424029827E0,-9.034998894E0,-5.011766911E0
3.689203186E0,-4.284946918E0,-9.085248947E0,-4.788935184E0
3.691728343E0,-4.222733974E0,-9.056534767E0,-4.520640373E0
3.694253499E0,-4.124628067E0,-9.128618240E0,-4.261916161E0
3.696778707E0,-4.038187504E0,-9.107083321E0,-3.993621111E0
3.699303863E0,-3.980759621E0,-9.107083321E0,-3.691826344E0
3.701830530E0,-3.805784464E0,-9.075676918E0,-3.425923824E0
3.704355686E0,-3.647858143E0,-9.025427818E0,-3.191128016E0
3.706880843E0,-3.415455103E0,-9.032606125E0,-3.059223652E0
3.709406051E0,-3.137588739E0,-8.977571487E0,-2.884547710E0
3.711931207E0,-2.909971476E0,-8.920144081E0,-2.685644388E0
3.714456363E0,-2.610569477E0,-8.915358543E0,-2.441277266E0
3.716981520E0,-2.284846544E0,-8.929715157E0,-2.228017092E0
3.719506676E0,-1.971087694E0,-8.922536850E0,-2.007877350E0
3.722031832E0,-1.592423439E0,-8.946464539E0,-1.799402595E0
3.724556988E0,-1.269093275E0,-8.934500694E0,-1.600499272E0
3.727082197E0,-9.792626500E-1,-8.905786514E0,-1.289133191E0
3.729607353E0,-6.726822853E-1,-8.936893463E0,-1.068694472E0
3.732133968E0,-3.972085714E-1,-8.941679001E0,-8.530412912E-1
3.734659124E0,-1.624128371E-1,-8.970393181E0,-6.855437160E-1
3.737184280E0,6.999006122E-2,-8.996713638E0,-5.608177781E-1
3.739709488E0,3.358924687E-1,-9.054141998E0,-4.746761918E-1
3.742234645E0,5.132604837E-1,-9.107083321E0,-4.100699723E-1
3.744759801E0,6.592226624E-1,-9.226723671E0,-3.332005441E-1
3.747284957E0,7.863413692E-1,-9.253045082E0,-3.188436031E-1
3.749810113E0,8.341978192E-1,-9.298508644E0,-2.494517565E-1
3.752335270E0,8.676972985E-1,-9.377771378E0,-1.585244983E-1
3.754860426E0,8.964111805E-1,-9.411270142E0,-1.274178028E-1
3.757385634E0,9.035896659E-1,-9.439984322E0,-5.772684515E-2
3.759910790E0,8.413762450E-1,-9.413662910E0,3.080759197E-2
3.762437457E0,8.030911088E-1,-9.487840652E0,1.313061416E-1
3.764962613E0,8.030911088E-1,-9.492626190E0,1.627119333E-1
3.767487770E0,7.648059130E-1,-9.483055115E0,2.416750938E-1
3.770012978E0,7.238288522E-1,-9.518947601E0,3.756731451E-1
3.772538134E0,6.759724021E-1,-9.502198219E0,4.716851711E-1
3.775063290E0,6.544370055E-1,-9.509376526E0,5.338985324E-1
3.777588447E0,6.185446382E-1,-9.490233421E0,5.961119533E-1
3.780113603E0,5.778666735E-1,-9.495018959E0,6.583253145E-1
3.782638759E0,4.965106845E-1,-9.435198784E0,7.710871100E-1
3.785163915E0,3.669991791E-1,-9.341579437E0,8.668000102E-1
3.787689124E0,2.688934505E-1,-9.315258980E0,9.409775138E-1
3.790214280E0,2.090728730E-1,-9.279366493E0,9.508479238E-1
3.792740947E0,1.226321608E-1,-9.217152596E0,9.747761488E-1
3.795266103E0,-4.187439568E-3,-9.164510727E0,1.015454054E0
3.797791259E0,-1.360917836E-1,-9.080462456E0,1.048953652E0
3.800316468E0,-1.983051747E-1,-9.078069687E0,1.017846942E0
3.802841624E0,-3.203391433E-1,-9.013463974E0,9.146564603E-1
3.805366780E0,-4.618147612E-1,-8.927322388E0,9.290133715E-1
3.807891936E0,-5.766702294E-1,-8.865108490E0,9.361918569E-1
3.810417093E0,-7.013961077E-1,-8.788239479E0,8.835497499E-1
3.812942249E0,-8.545367718E-1,-8.733204842E0,7.782655358E-1
3.815467405E0,-9.098708034E-1,-8.718847275E0,6.607181430E-1
3.817992613E0,-1.024726272E0,-8.702097893E0,5.554339290E-1
3.820517770E0,-1.074975610E0,-8.697312355E0,4.067798555E-1
3.823044436E0,-1.101296663E0,-8.714061737E0,2.201396823E-1
3.825569593E0,-1.161416292E0,-8.766703606E0,9.541380405E-2
3.828094749E0,-1.142273664E0,-8.848359108E0,-1.103689447E-1
3.830619957E0,-1.125224829E0,-8.912964821E0,-2.542374134E-1
3.833145113E0,-1.180558920E0,-8.929715157E0,-3.858426511E-1
3.835670270E0,-1.202094316E0,-9.020642281E0,-5.057829022E-1
3.838195426E0,-1.182951689E0,-9.075676918E0,-6.110670567E-1
3.840720582E0,-1.118046403E0,-9.111868858E0,-7.573283911E-1
3.843245738E0,-1.101296663E0,-9.226723671E0,-8.338986635E-1
3.845770895E0,-1.034297585E0,-9.284152031E0,-9.562317729E-1
3.848296103E0,-9.625129104E-1,-9.320044518E0,-1.037587762E0
3.850821259E0,-9.002995491E-1,-9.430413246E0,-1.095015407E0
3.853347926E0,-8.258228898E-1,-9.454340935E0,-1.164407372E0
3.855873082E0,-7.803592682E-1,-9.456734657E0,-1.178764224E0
3.858398238E0,-7.181459069E-1,-9.504590988E0,-1.152443171E0
3.860923447E0,-6.750751138E-1,-9.530911446E0,-1.135693431E0
3.863448603E0,-6.439684033E-1,-9.552447319E0,-1.169192910E0
3.865973759E0,-6.005984545E-1,-9.526125908E0,-1.135693431E0
3.868498915E0,-5.766702294E-1,-9.499805450E0,-1.111765265E0
3.871024072E0,-5.407779217E-1,-9.432806015E0,-1.075872898E0
3.873549228E0,-5.072783828E-1,-9.351150513E0,-1.016052365E0
3.876074384E0,-4.091726840E-1,-9.365508080E0,-9.801599979E-1
3.878599593E0,-3.613162339E-1,-9.308079720E0,-8.602197170E-1
3.881124749E0,-3.517449200E-1,-9.276973724E0,-7.812566161E-1
3.883651415E0,-3.011965454E-1,-9.329615593E0,-6.493522525E-1
3.886176572E0,-2.964109182E-1,-9.368199348E0,-4.794618487E-1
3.888701728E0,-2.676970363E-1,-9.401699066E0,-3.236292601E-1
3.891226936E0,-2.724826932E-1,-9.514162064E0,-2.207378894E-1
3.893752093E0,-2.892324328E-1,-9.485447884E0,6.879365072E-3
3.896277249E0,-3.059822023E-1,-9.585947037E0,2.033899277E-1
3.898802405E0,-2.940180898E-1,-9.686744690E0,3.732803464E-1
3.901327561E0,-3.756731451E-1,-9.768099785E0,4.645066857E-1
3.903852718E0,-4.474578202E-1,-9.806385040E0,6.080760360E-1
3.906377874E0,-4.929214716E-1,-9.885348320E0,6.993024349E-1
3.908903082E0,-6.535396576E-1,-9.847063065E0,7.495517135E-1
3.911428238E0,-7.995018363E-1,-9.875777245E0,7.615157962E-1
3.913954905E0,-9.864411354E-1,-9.832706451E0,6.487540603E-1
3.916480061E0,-1.187737346E0,-9.768099785E0,5.650052428E-1
3.919005218E0,-1.374377489E0,-9.753743172E0,4.453641176E-1
3.921530426E0,-1.561316729E0,-9.681958199E0,3.014956415E-1
3.924055582E0,-1.774577141E0,-9.569196701E0,1.651047617E-1
3.926580738E0,-1.959123492E0,-9.495018959E0,-2.901297435E-2
3.929105895E0,-2.136192322E0,-9.406484604E0,-2.518445849E-1
3.931631051E0,-2.325524569E0,-9.300901413E0,-3.933202326E-1
3.934156207E0,-2.435594320E0,-9.238688469E0,-5.703890920E-1
3.936681363E0,-2.565105915E0,-9.147761345E0,-7.716853023E-1
3.939206572E0,-2.629712105E0,-9.104690552E0,-9.128618240E-1
3.941731728E0,-2.622533560E0,-9.049356461E0,-1.056730270E0
3.944258395E0,-2.634497643E0,-9.061320305E0,-1.123729348E0
3.946783551E0,-2.586641312E0,-9.107083321E0,-1.262812138E0
3.949308707E0,-2.524427891E0,-9.085248947E0,-1.325025558E0
3.951833915E0,-2.366202593E0,-9.094820023E0,-1.392024517E0
3.954359072E0,-2.172084808E0,-9.119047165E0,-1.413560033E0
3.956884228E0,-1.980658889E0,-9.109476089E0,-1.490429401E0
3.959409384E0,-1.736291885E0,-9.087641716E0,-1.535893083E0
3.961934540E0,-1.558923960E0,-9.023035049E0,-1.555035591E0
3.964459697E0,-1.383948803E0,-9.082855225E0,-1.602892041E0
3.966984853E0,-1.156630635E0,-9.111868858E0,-1.545464277E0
3.969510061E0,-9.577272534E-1,-9.150154114E0,-1.444666624E0
3.972035218E0,-7.444669604E-1,-9.162117958E0,-1.430309772E0
3.974561884E0,-6.152545214E-1,-9.217152596E0,-1.394417405E0
3.977087040E0,-5.144568682E-1,-9.324830055E0,-1.341775298E0
3.979612197E0,-4.115654826E-1,-9.384949684E0,-1.246062398E0
3.982137405E0,-2.820539773E-1,-9.506983757E0,-1.135693431E0
3.984662561E0,-1.528415531E-1,-9.566803932E0,-1.049551845E0
3.987187718E0,-6.161518395E-2,-9.667601585E0,-9.442676306E-1
3.989712874E0,6.999006122E-2,-9.794421196E0,-8.338986635E-1
3.992238030E0,2.258226424E-1,-9.839884758E0,-6.999006271E-1
3.994763186E0,3.287140131E-1,-9.909575462E0,-6.302096844E-1
3.997288343E0,4.555336237E-1,-1.002921677E1,-5.321039557E-1
3.999813551E0,5.922235847E-1,-1.009382343E1,-4.435695112E-1
4.002338707E0,6.783652306E-1,-1.016321468E1,-3.786641955E-1
4.004865374E0,7.528418303E-1,-1.024247742E1,-2.997010350E-1
4.007390530E0,8.030911088E-1,-1.032861900E1,-2.398804724E-1
4.009915686E0,8.437690735E-1,-1.040997505E1,-1.824527234E-1
4.012440895E0,9.035896659E-1,-1.056102180E1,-9.361918271E-2
4.014966051E0,8.892326951E-1,-1.065912724E1,-1.393819153E-1
4.017491207E0,8.102695942E-1,-1.083649540E1,-1.585244983E-1
4.020016363E0,7.118647099E-1,-1.101147079E1,-1.848455518E-1
4.022541520E0,6.544370055E-1,-1.124148083E1,-2.494517565E-1
4.025066676E0,5.300102234E-1,-1.150469112E1,-3.499503136E-1
4.027591832E0,4.363910258E-1,-1.174427223E1,-5.009972453E-1
4.030117040E0,2.976073027E-1,-1.195274734E1,-6.592226624E-1
4.032642197E0,2.353939265E-1,-1.221386433E1,-8.410771489E-1
4.035208343E0,1.274178028E-1,-1.239841080E1,-1.013659477E0
4.037733499E0,1.082752272E-1,-1.267149162E1,-1.284347534E0
4.040258655E0,1.274178028E-1,-1.282463169E1,-1.521536112E0
4.042783811E0,2.162513435E-1,-1.299960709E1,-1.741974831E0
4.045308968E0,3.765704632E-1,-1.316261864E1,-1.993221283E0
4.047834124E0,5.850451589E-1,-1.328943825E1,-2.168196440E0
4.050359332E0,8.054839373E-1,-1.349791241E1,-2.352742910E0
4.052884488E0,1.078564763E0,-1.371356583E1,-2.527418852E0
4.055409645E0,1.404287815E0,-1.397229004E1,-2.666501760E0
4.057934801E0,1.701296926E0,-1.422622776E1,-2.774178743E0
4.060459957E0,2.029412746E0,-1.450409412E1,-2.836691141E0
4.062985113E0,2.376970291E0,-1.482742500E1,-2.922832966E0
4.065511832E0,2.654836655E0,-1.512682629E1,-2.925225735E0
4.068036988E0,2.932703257E0,-1.543340683E1,-2.953939438E0
4.070562145E0,3.272783279E0,-1.568734550E1,-2.930011272E0
4.073087301E0,3.555435419E0,-1.591974831E1,-2.906083107E0
4.075612457E0,3.783052683E0,-1.609711647E1,-2.848655462E0
4.078137613E0,4.044169426E0,-1.624307823E1,-2.702394009E0
4.080662822E0,4.267001152E0,-1.633669662E1,-2.525026083E0
4.083187978E0,4.458426952E0,-1.632204056E1,-2.347957134E0
4.085713134E0,4.616652012E0,-1.619522095E1,-2.086840391E0
4.088238290E0,4.789234638E0,-1.605374527E1,-1.854437590E0
4.090763447E0,4.868197441E0,-1.580967808E1,-1.631605983E0
4.093288603E0,4.901697159E0,-1.548604870E1,-1.394417405E0
4.095775843E0,4.904089928E0,-1.509811306E1,-1.185942769E0
4.098301103E0,4.784449100E0,-1.473649693E1,-1.018445134E0
4.100826363E0,4.561617374E0,-1.441526127E1,-9.418748021E-1
4.103351624E0,4.264608383E0,-1.414696598E1,-9.418748021E-1
4.105876884E0,3.936193228E0,-1.384277821E1,-9.945169091E-1
4.108402197E0,3.519542933E0,-1.357687569E1,-1.087836981E0
4.110927457E0,3.153141975E0,-1.328465176E1,-1.248455167E0
4.113452718E0,2.673979282E0,-1.299482155E1,-1.435095429E0
4.115977978E0,2.139781713E0,-1.282223892E1,-1.689033628E0
4.118503238E0,1.584048629E0,-1.268584824E1,-1.986042738E0
4.121028499E0,1.042672515E0,-1.255155087E1,-2.304886341E0
4.123553759E0,4.845465720E-1,-1.248455238E1,-2.630609512E0
4.126079332E0,-5.204389244E-2,-1.239841080E1,-2.922832966E0
4.128604593E0,-5.264210105E-1,-1.232901859E1,-3.238984585E0
4.131129853E0,-9.888339639E-1,-1.222822094E1,-3.457030535E0
4.133655113E0,-1.436890006E0,-1.212772274E1,-3.586242914E0
4.136180374E0,-1.820040703E0,-1.202213955E1,-3.710968733E0
4.138705686E0,-2.160120726E0,-1.189531994E1,-3.761218071E0
4.141230947E0,-2.473879576E0,-1.170598793E1,-3.751646757E0
4.143756207E0,-2.761616468E0,-1.160548878E1,-3.720540047E0
4.146281468E0,-3.039483070E0,-1.143290615E1,-3.651148319E0
4.148806728E0,-3.197409153E0,-1.129172993E1,-3.502494097E0
4.151331988E0,-3.293421268E0,-1.114068317E1,-3.303590775E0
4.153857249E0,-3.322135210E0,-1.106411266E1,-3.011367321E0
4.156382822E0,-3.358027458E0,-1.101386356E1,-2.731107950E0
4.158908082E0,-3.446561813E0,-1.090588760E1,-2.474776745E0
4.161433343E0,-3.427419424E0,-1.082931709E1,-2.175374985E0
4.163958603E0,-3.417848110E0,-1.076471043E1,-1.892722726E0
4.166483863E0,-3.389134169E0,-1.074796104E1,-1.600499272E0
4.169009176E0,-3.358027458E0,-1.080538845E1,-1.336989641E0
4.171534436E0,-3.269193888E0,-1.093938732E1,-1.078265667E0
4.174059697E0,-3.185445070E0,-1.110000515E1,-9.777671695E-1
4.176584957E0,-3.084946632E0,-1.130130100E1,-8.434699774E-1
4.179110218E0,-3.005684376E0,-1.157438183E1,-7.070791125E-1
4.181635478E0,-2.953042269E0,-1.183789158E1,-6.349952817E-1
4.184160738E0,-2.859722137E0,-1.214686489E1,-5.488536954E-1
4.186686311E0,-2.807080030E0,-1.249173069E1,-4.435695112E-1
4.189211572E0,-2.816651344E0,-1.286321640E1,-3.475574851E-1
4.191736832E0,-2.752045155E0,-1.331575871E1,-2.829512656E-1
4.194262093E0,-2.658426046E0,-1.369920921E1,-2.015953064E-1
4.196787353E0,-2.464308262E0,-1.412543011E1,-1.393819153E-1
4.199312665E0,-2.356631279E0,-1.446102333E1,-8.644071966E-2
4.201837926E0,-2.191227436E0,-1.478674698E1,-9.122636169E-2
4.204363186E0,-1.939681888E0,-1.523928928E1,-1.657029688E-1
4.206888447E0,-1.616351724E0,-1.559641838E1,-1.992024779E-1
4.209413707E0,-1.283450246E0,-1.590778446E1,-3.068794906E-1
4.211938968E0,-9.050851464E-1,-1.617368698E1,-3.355933726E-1
4.214464228E0,-5.096712112E-1,-1.643480301E1,-1.250249892E-1
4.216989801E0,-2.246262282E-1,-1.664566994E1,2.727817893E-1
4.219515061E0,-4.187439568E-3,-1.686132431E1,9.194421172E-1
4.222040322E0,1.274178028E-1,-1.702642822E1,1.494616866E0
4.224565582E0,3.888336942E-2,-1.710539246E1,1.975873351E0
4.227090843E0,7.477571070E-2,-1.712453461E1,2.402393818E0
4.229616155E0,3.909274042E-1,-1.737847328E1,2.876770973E0
4.232141415E0,6.879364848E-1,-1.761087608E1,2.994019270E0
4.234666676E0,1.052243710E0,-1.774517250E1,2.747259617E0
4.237191936E0,1.315753341E0,-1.781217194E1,2.706581593E0
4.239717197E0,1.296610713E0,-1.768056679E1,2.502892494E0
4.242242457E0,1.315753341E0,-1.745534134E1,2.186740875E0
4.244767718E0,1.387538075E0,-1.727797318E1,2.024028778E0
4.247293290E0,1.624726534E0,-1.703839302E1,1.810768485E0
4.249818551E0,1.888236165E0,-1.671506310E1,1.247856975E0
4.252343811E0,2.254637241E0,-1.644676781E1,9.385846853E-1
4.254869072E0,2.657229662E0,-1.624786377E1,8.093722463E-1
4.257394332E0,2.880061150E0,-1.602264023E1,5.793621540E-1
4.259919645E0,2.978166819E0,-1.574238014E1,2.392822653E-1
4.262444905E0,3.088236809E0,-1.551715565E1,-1.944168359E-1
4.264970165E0,3.323032379E0,-1.532333755E1,-4.459623098E-1
4.267495426E0,3.332603693E0,-1.507418442E1,-5.823532343E-1
4.270020686E0,3.332603693E0,-1.480588913E1,-7.908278704E-1
4.272545947E0,3.325425386E0,-1.451366615E1,-1.164407372E0
4.275071207E0,3.241676569E0,-1.419512081E1,-1.667498231E0
4.277596780E0,3.210569859E0,-1.387867069E1,-1.909472466E0
4.280122040E0,2.970988512E0,-1.354098320E1,-2.038984060E0
4.282647301E0,2.580360174E0,-1.313151169E1,-2.146661043E0
4.285172561E0,2.166102648E0,-1.269781208E1,-2.213660002E0
4.287697822E0,1.758724689E0,-1.221864986E1,-2.302493572E0
4.290223134E0,1.358824134E0,-1.171077347E1,-2.359921217E0
4.292748395E0,9.418748021E-1,-1.130848026E1,-2.505883455E0
4.295273655E0,5.587241054E-1,-1.096570778E1,-2.683251381E0
4.297798915E0,2.186441720E-1,-1.066391277E1,-2.839084148E0
4.300324176E0,-7.866404206E-2,-1.046052361E1,-3.131307602E0
4.302849436E0,-3.637090325E-1,-1.030708313E1,-3.296412230E0
4.305374697E0,-6.272186637E-1,-1.010818005E1,-3.409173965E0
4.307900270E0,-1.022333503E0,-9.892526627E0,-3.512065411E0
4.310425530E0,-1.563709617E0,-9.693922997E0,-3.581457376E0
4.312950790E0,-1.927717686E0,-9.621838570E0,-3.567100286E0
4.315476051E0,-2.239382982E0,-9.499805450E0,-3.452244759E0
4.318001311E0,-2.711068153E0,-9.406484604E0,-3.179163933E0
4.320526624E0,-3.266801119E0,-9.293723106E0,-2.910868645E0
4.323051884E0,-3.815654755E0,-9.051749229E0,-3.169592619E0
4.325577145E0,-4.357030869E0,-8.735597610E0,-3.238984585E0
4.328102405E0,-4.752145767E0,-8.421838760E0,-3.071486950E0
4.330627665E0,-5.056333542E0,-8.210970879E0,-2.918047190E0
4.333152926E0,-5.224130154E0,-7.978568077E0,-2.606681108E0
4.335678186E0,-5.372485161E0,-7.750950813E0,-2.220838547E0
4.338203759E0,-5.528317451E0,-7.604988575E0,-1.799402595E0
4.340729020E0,-5.600102425E0,-7.607381344E0,-1.377667665E0
4.343254280E0,-5.554638863E0,-7.645666599E0,-9.008977413E-1
4.345779540E0,-5.490032673E0,-7.662416458E0,-4.914259613E-1
4.348304801E0,-5.377270699E0,-7.738986492E0,-2.231307179E-1
4.350830113E0,-5.221737385E0,-7.782356739E0,-1.465603895E-2
4.353355374E0,-5.178666592E0,-7.818248749E0,3.080759197E-2
4.355880634E0,-5.106582642E0,-7.794320583E0,-7.926224917E-2
4.358405895E0,-5.013262749E0,-7.712665558E0,-3.092723191E-1
4.360931155E0,-4.977370262E0,-7.628916740E0,-5.871388316E-1
4.363456415E0,-4.859822750E0,-7.581060410E0,-8.075776696E-1
4.365981676E0,-4.658825874E0,-7.607381344E0,-1.090229869E0
4.368507249E0,-4.553242207E0,-7.590631485E0,-1.430309772E0
4.371032509E0,-4.455136776E0,-7.566703320E0,-1.844866276E0
4.373557770E0,-4.337589264E0,-7.446763039E0,-2.256730795E0
4.376083030E0,-4.213162422E0,-7.401299477E0,-2.671287298E0
4.378608290E0,-4.127020836E0,-7.317550659E0,-3.001796007E0
4.381133603E0,-3.954438448E0,-7.279265404E0,-3.344567776E0
4.383658863E0,-3.805784464E0,-7.267301559E0,-3.725325823E0
4.386184124E0,-3.717249870E0,-7.211967468E0,-4.000799656E0
4.388709384E0,-3.702893019E0,-7.109076023E0,-4.084548473E0
4.391234645E0,-3.573680639E0,-7.058826923E0,-4.223630905E0
4.393759905E0,-3.480061531E0,-7.106683254E0,-4.345664978E0
4.396285165E0,-3.369991541E0,-7.066005230E0,-4.374378681E0
4.398810686E0,-3.346063375E0,-6.943672180E0,-4.369593143E0
4.401335947E0,-3.465704441E0,-6.800102711E0,-4.383950233E0
4.403861207E0,-3.405884027E0,-6.701997280E0,-4.168596268E0
4.406386468E0,-3.276372433E0,-6.598806858E0,-3.914657831E0
4.408911728E0,-3.257229805E0,-6.467201233E0,-3.696611881E0
4.411437040E0,-3.195016384E0,-6.289833546E0,-3.488137245E0
4.413962301E0,-3.092125177E0,-6.124429703E0,-3.342175007E0
4.416487561E0,-2.845365286E0,-6.045466423E0,-3.250948668E0
4.419012822E0,-2.679961443E0,-5.952146530E0,-3.274876833E0
4.421538082E0,-2.550748825E0,-5.772385597E0,-3.112164974E0
4.424063343E0,-2.454736948E0,-5.655137062E0,-2.896511793E0
4.426588603E0,-2.363809586E0,-5.520840168E0,-2.644966364E0
4.429114176E0,-2.256132603E0,-5.415555954E0,-2.549253464E0
4.431639436E0,-2.138585329E0,-5.348257542E0,-2.453241348E0
4.434164697E0,-2.117049932E0,-5.257330418E0,-2.367099762E0
4.436689957E0,-2.222633123E0,-5.039284706E0,-2.283350945E0
4.439215218E0,-2.270489693E0,-4.905286312E0,-2.220838547E0
4.441740530E0,-2.308774710E0,-4.814060211E0,-2.048555374E0
4.444265790E0,-2.332702875E0,-4.727918625E0,-1.962114573E0
4.446791051E0,-2.368595362E0,-4.648955345E0,-1.897508383E0
4.449316311E0,-2.385344982E0,-4.550849438E0,-1.818545222E0
4.451841572E0,-2.356631279E0,-4.399802685E0,-1.820937991E0
4.454366832E0,-2.440380096E0,-4.210470676E0,-1.856830359E0
4.456892093E0,-2.507678032E0,-4.040580273E0,-2.012662888E0
4.459417665E0,-2.557927370E0,-3.834498405E0,-2.132304192E0
4.461942926E0,-2.648854733E0,-3.573381424E0,-2.280958176E0
4.464468186E0,-2.600998163E0,-3.470191002E0,-2.316850424E0
4.466993447E0,-2.591426849E0,-3.297907829E0,-2.343171597E0
4.469518707E0,-2.766402006E0,-3.166003466E0,-2.544467688E0
4.472044020E0,-2.732603550E0,-3.087040424E0,-2.757428885E0
4.474569280E0,-2.718246460E0,-2.996113062E0,-2.800798893E0
4.477094540E0,-2.703889608E0,-2.895315409E0,-2.843869686E0
4.479619801E0,-2.764009237E0,-2.732603550E0,-2.970689297E0
4.482145061E0,-2.816651344E0,-2.619841576E0,-3.044866800E0
4.484670322E0,-2.895614386E0,-2.548057079E0,-3.179163933E0
4.487195582E0,-2.998505831E0,-2.488236427E0,-3.418745279E0
4.489721103E0,-3.015554667E0,-2.426023006E0,-3.442673683E0
4.492246363E0,-3.125624657E0,-2.481057882E0,-3.490530014E0
4.494771624E0,-3.273979664E0,-2.423630238E0,-3.569493294E0
4.497296884E0,-3.475275755E0,-2.296511650E0,-3.682255030E0
4.499822145E0,-3.578466177E0,-2.325225353E0,-3.837788343E0
4.502347457E0,-3.611965895E0,-2.298904419E0,-3.871587038E0
4.504872718E0,-3.712464333E0,-2.236690998E0,-3.952943087E0
4.507397978E0,-3.812962770E0,-2.241476536E0,-4.072584152E0
4.509923238E0,-3.959224224E0,-2.198405743E0,-4.242773533E0
4.512448499E0,-4.042973042E0,-2.150549412E0,-4.379164696E0
4.514973759E0,-4.174877167E0,-2.123929262E0,-4.558925152E0
4.517499020E0,-4.270590305E0,-2.181656122E0,-4.695615292E0
4.520024593E0,-4.316053867E0,-2.140678883E0,-4.815256596E0
4.522549853E0,-4.380959034E0,-2.135893345E0,-4.975874901E0
4.525075113E0,-4.486243248E0,-2.092822552E0,-5.124229908E0
4.527600374E0,-4.558028221E0,-2.059323072E0,-5.251348495E0
4.530125634E0,-4.637290478E0,-2.090429783E0,-5.284847736E0
4.532650947E0,-4.716253281E0,-2.073679924E0,-5.370989323E0
4.535176207E0,-4.838287354E0,-1.942074656E0,-5.409274578E0
4.537701468E0,-4.878965378E0,-1.858026743E0,-5.457130909E0
4.540226728E0,-4.867001057E0,-1.850848317E0,-5.481358528E0
4.542751988E0,-4.896014214E0,-1.841277003E0,-5.481358528E0
4.545277249E0,-4.857429981E0,-1.810170293E0,-5.476572990E0
4.547802509E0,-4.761716843E0,-1.762313843E0,-5.461916924E0
4.550328082E0,-4.615455627E0,-1.798206210E0,-5.514857769E0
4.552853343E0,-4.512564182E0,-1.831705689E0,-5.555535793E0
4.555378603E0,-4.344767570E0,-1.896611094E0,-5.600999832E0
4.557903863E0,-4.155734539E0,-1.970788598E0,-5.663212776E0
4.560429124E0,-4.057330132E0,-1.970788598E0,-5.811867237E0
4.562954436E0,-3.947260141E0,-2.061715841E0,-5.909972668E0
4.565479697E0,-3.774677753E0,-2.174477577E0,-6.053841114E0
4.568004957E0,-3.537489176E0,-2.325225353E0,-6.163911343E0
4.570530218E0,-3.341277838E0,-2.533699989E0,-6.264409542E0
4.573055478E0,-3.211766243E0,-2.641377211E0,-6.391528606E0
4.575580738E0,-3.247658491E0,-2.780459881E0,-6.539883614E0
4.578105999E0,-3.281457186E0,-2.823530674E0,-6.602396011E0
4.580631572E0,-3.307778120E0,-2.742174864E0,-6.750751019E0
4.583156832E0,-3.223730326E0,-2.883351326E0,-6.793821812E0
4.585682093E0,-3.247658491E0,-2.948256493E0,-6.736393929E0
4.588207353E0,-3.326920748E0,-2.912065268E0,-6.765107632E0
4.590732613E0,-3.417848110E0,-2.965006351E0,-6.796214581E0
4.593257926E0,-3.506382465E0,-2.974577665E0,-6.717251301E0
4.595783186E0,-3.600001574E0,-2.988934517E0,-6.688537598E0
4.598308447E0,-3.729214191E0,-2.953042269E0,-6.724429607E0
4.600833707E0,-3.743571043E0,-2.967399120E0,-6.774679184E0
4.603358968E0,-3.767499208E0,-2.974577665E0,-6.805785656E0
4.605884228E0,-3.844368696E0,-2.965006351E0,-6.885047913E0
4.608409488E0,-3.853940010E0,-2.984148979E0,-6.983153820E0
4.610935009E0,-3.791427374E0,-3.024827003E0,-7.189235687E0
4.613460322E0,-3.789034605E0,-3.077469110E0,-7.342376232E0
4.615985582E0,-3.753142357E0,-3.134896755E0,-7.553243637E0
4.618510895E0,-3.659822226E0,-3.204288721E0,-7.730611801E0
4.621036155E0,-3.607180119E0,-3.312264681E0,-7.867002487E0
4.623561415E0,-3.564109325E0,-3.410370588E0,-8.013263702E0
4.626086728E0,-3.494418383E0,-3.520739317E0,-8.144868851E0
4.628611988E0,-3.396312714E0,-3.652344704E0,-8.360522270E0
4.631137301E0,-3.312563896E0,-3.798605919E0,-8.573782921E0
4.633662561E0,-3.307778120E0,-3.920639992E0,-8.732007980E0
4.636187874E0,-3.262015581E0,-4.062115669E0,-8.846863747E0
4.638713134E0,-3.242872953E0,-4.243969917E0,-8.818149567E0
4.641238499E0,-3.209373474E0,-4.416552544E0,-8.885149002E0
4.643763811E0,-3.206980467E0,-4.610670090E0,-8.889934540E0
4.646289072E0,-3.293421268E0,-4.835894585E0,-8.990732193E0
4.648814384E0,-3.463311672E0,-5.144867897E0,-9.129515648E0
4.651339645E0,-3.705285788E0,-5.410770416E0,-9.067302704E0
4.653864905E0,-4.038187504E0,-5.679065228E0,-9.052945137E0
4.656390218E0,-4.543671131E0,-6.002395630E0,-9.019445419E0
4.658915478E0,-5.221737385E0,-6.239583969E0,-9.072088242E0
4.661440790E0,-5.983551979E0,-6.527021885E0,-9.349954605E0
4.663966051E0,-6.845865726E0,-6.764210701E0,-9.496215820E0
4.666491363E0,-7.751249790E0,-6.996613503E0,-9.932008743E0
4.669016624E0,-8.601598740E0,-7.209574699E0,-1.085204887E1
4.671541936E0,-9.428020477E0,-7.456334591E0,-1.210469151E1
4.674067249E0,-1.014437199E1,-7.863712311E0,-1.362114334E1
4.676592509E0,-1.083200932E1,-8.304590225E0,-1.504876041E1
4.679117822E0,-1.143320560E1,-8.939286232E0,-1.554228020E1
4.681643082E0,-1.196022511E1,-9.662816048E0,-1.439013672E1
4.684168343E0,-1.249920845E1,-1.042433167E1,-1.145803165E1
4.686693655E0,-1.290628719E1,-1.110239792E1,-7.198806763E0
4.689218915E0,-1.292094326E1,-1.172273731E1,-2.764607430E0
4.691744228E0,-1.244178009E1,-1.228564835E1,7.088736892E-1
4.694269488E0,-1.149063301E1,-1.268345547E1,2.550748825E0
4.696794801E0,-1.059242725E1,-1.302114296E1,2.641975403E0
4.699320061E0,-1.026431179E1,-1.322961712E1,1.269392371E0
4.701845426E0,-1.040788078E1,-1.337318707E1,-1.109372377E0
4.704370738E0,-1.065224838E1,-1.354337597E1,-3.710968733E0
4.706895999E0,-1.086311531E1,-1.366570950E1,-5.835795403E0
4.709421311E0,-1.081765175E1,-1.375902939E1,-7.112665176E0
4.711946572E0,-1.051825047E1,-1.361755371E1,-7.349853992E0
4.714471832E0,-9.878469467E0,-1.320568943E1,-7.071688175E0
4.716997145E0,-8.965906143E0,-1.259731388E1,-6.254838467E0
4.719522405E0,-7.866404533E0,-1.170838070E1,-5.155336380E0
4.722047718E0,-6.953542709E0,-1.050120163E1,-4.269094467E0
4.724572978E0,-6.508178711E0,-9.190832138E0,-4.022335052E0
4.727098290E0,-6.884150982E0,-7.815855980E0,-4.625924587E0
4.729623551E0,-7.990831375E0,-6.586842537E0,-5.639284611E0
4.732148915E0,-9.471389771E0,-5.618945599E0,-6.813263416E0
4.734674228E0,-1.109551907E1,-4.969892502E0,-7.649255753E0
4.737199488E0,-1.241785240E1,-4.533800602E0,-7.694719315E0
4.739724801E0,-1.326102352E1,-4.287340164E0,-7.052545547E0
4.742250061E0,-1.349821186E1,-4.138685703E0,-6.144768715E0
4.744775322E0,-1.311715508E1,-4.054936886E0,-5.819045544E0
4.747300634E0,-1.243460178E1,-4.098007679E0,-6.623931408E0
4.749825895E0,-1.154088306E1,-4.294518471E0,-8.128119469E0
4.752351207E0,-1.034806061E1,-4.735096931E0,-9.186943054E0
4.754876468E0,-8.790931702E0,-5.242973328E0,-9.218050003E0
4.757401780E0,-7.037590504E0,-5.841777325E0,-8.446963310E0
4.759927040E0,-5.236093998E0,-6.409474373E0,-7.491030216E0
4.762452405E0,-3.590430260E0,-6.802495480E0,-6.722036839E0
4.764977718E0,-2.335095882E0,-7.013363361E0,-6.084948063E0
4.767502978E0,-1.444068432E0,-7.092326164E0,-5.507679462E0
4.770028290E0,-7.995018363E-1,-7.161718369E0,-4.853541851E0
4.772553551E0,-4.259224236E-1,-7.185646534E0,-4.295415878E0
4.775078811E0,-1.791625917E-1,-7.147361279E0,-3.909872293E0
4.777604124E0,-9.780662507E-2,-7.118647575E0,-3.622434378E0
4.780129384E0,-7.387840003E-2,-7.061219692E0,-3.207877874E0
4.782654697E0,-1.313061416E-1,-7.025327206E0,-2.647359133E0
4.785179957E0,-3.299104273E-1,-7.068397999E0,-2.007877350E0
4.787705270E0,-6.607181430E-1,-7.135396957E0,-1.545464277E0
4.790230530E0,-1.185344458E0,-7.202396393E0,-1.439880967E0
4.792755843E0,-1.767398596E0,-7.358228683E0,-1.777867198E0
4.795281155E0,-2.368595362E0,-7.662416458E0,-2.355135679E0
4.797806415E0,-3.017947674E0,-7.985746384E0,-2.939582586E0
4.800331728E0,-3.489632607E0,-8.491230011E0,-3.399602890E0
4.802856988E0,-3.798605919E0,-9.037391663E0,-3.775574923E0
4.805382249E0,-3.935296059E0,-9.667601585E0,-4.000799656E0
4.807907561E0,-3.923331738E0,-1.025444126E1,-4.084548473E0
4.810432822E0,-3.789034605E0,-1.094656563E1,-4.132404804E0
4.812958134E0,-3.360420227E0,-1.167727375E1,-4.053441525E0
4.815483395E0,-2.921935558E0,-1.234337521E1,-3.905086517E0
4.818008707E0,-2.437987089E0,-1.294457245E1,-3.624827147E0
4.820533968E0,-1.980658889E0,-1.339262867E1,-3.267698526E0
4.823059332E0,-1.599601984E0,-1.370160198E1,-2.870190859E0
4.825584645E0,-1.319342613E0,-1.393400478E1,-2.618645191E0
4.828109905E0,-1.278664589E0,-1.398186111E1,-2.479562521E0
4.830635218E0,-1.288235903E0,-1.385952759E1,-2.527418852E0
4.833160478E0,-1.420140266E0,-1.353619766E1,-2.668894529E0
4.835685738E0,-1.664208174E0,-1.320329666E1,-2.790928602E0
4.838211051E0,-1.992623091E0,-1.274566936E1,-2.932404041E0
4.840736311E0,-2.260918379E0,-1.229282761E1,-2.982653379E0
4.843261624E0,-2.555534601E0,-1.183549881E1,-3.044866800E0
4.845786884E0,-2.888436079E0,-1.141854954E1,-3.219841957E0
4.848312197E0,-3.125624657E0,-1.097797108E1,-3.416352510E0
4.850837457E0,-3.310171127E0,-1.057059288E1,-3.617648840E0
4.853362822E0,-3.460918903E0,-1.026161957E1,-3.893122435E0
4.855888134E0,-3.619144201E0,-9.933504105E0,-4.187738895E0
4.858413395E0,-3.729214191E0,-9.631410599E0,-4.477569580E0
4.860938707E0,-3.748356581E0,-9.404091835E0,-4.628317356E0
4.863463968E0,-3.745963812E0,-9.138189316E0,-4.760221481E0
4.865989228E0,-3.678964853E0,-8.920144081E0,-4.812863827E0
4.868514540E0,-3.547359467E0,-8.730812073E0,-4.760221481E0
4.871039801E0,-3.396312714E0,-8.481658936E0,-4.606781960E0
4.873565113E0,-3.233301640E0,-8.266005516E0,-4.448855400E0
4.876090374E0,-3.120838881E0,-8.146365166E0,-4.206881523E0
4.878615686E0,-2.991327524E0,-8.036294937E0,-3.909872293E0
4.881140947E0,-2.852543592E0,-7.930711746E0,-3.658326626E0
4.883666311E0,-2.734996319E0,-7.794320583E0,-3.354139090E0
4.886191624E0,-2.658426046E0,-7.667201996E0,-3.121736288E0
4.888716884E0,-2.598605394E0,-7.633702278E0,-2.982653379E0
4.891242197E0,-2.550748825E0,-7.612166882E0,-2.872583628E0
4.893767457E0,-2.493321180E0,-7.554739475E0,-2.803191662E0
4.896292718E0,-2.488535643E0,-7.569096088E0,-2.678465843E0
4.898818030E0,-2.543570518E0,-7.489833832E0,-2.647359133E0
4.901343290E0,-2.591426849E0,-7.482655525E0,-2.704786777E0
4.903868603E0,-2.620140791E0,-7.489833832E0,-2.762214661E0
4.906393863E0,-2.634497643E0,-7.492226601E0,-2.863012314E0
4.908919176E0,-2.734996319E0,-7.502097130E0,-2.965903759E0
4.911444436E0,-2.744866610E0,-7.494918823E0,-3.085843801E0
4.913969801E0,-2.783151865E0,-7.597810268E0,-3.227020502E0
4.916495113E0,-2.821436882E0,-7.645666599E0,-3.390031576E0
4.919020374E0,-2.895614386E0,-7.683951855E0,-3.464209080E0
4.921545686E0,-2.888436079E0,-7.791927814E0,-3.540779352E0
4.924070947E0,-2.780759096E0,-7.863712311E0,-3.502494097E0
4.926596207E0,-2.687139750E0,-8.041080475E0,-3.524029493E0
4.929121520E0,-2.589034081E0,-8.232506752E0,-3.452244759E0
4.931646780E0,-2.490928411E0,-8.412266731E0,-3.219841957E0
4.934172093E0,-2.253739834E0,-8.613563538E0,-2.908475876E0
4.936697353E0,-1.987837434E0,-8.831310272E0,-2.566003084E0
4.939222665E0,-1.788933992E0,-9.061320305E0,-2.256730795E0
4.941747926E0,-1.539781332E0,-9.267401695E0,-1.957328916E0
4.944273343E0,-1.371984720E0,-9.404091835E0,-1.689033628E0
4.946798655E0,-1.278664589E0,-9.497411728E0,-1.552642822E0
4.949323915E0,-1.151844978E0,-9.631410599E0,-1.550249934E0
4.951849228E0,-1.012762189E0,-9.725028992E0,-1.523928881E0
4.954374488E0,-7.683951855E-1,-9.813564301E0,-1.423131227E0
4.956899749E0,-6.631109715E-1,-9.914361954E0,-1.394417405E0
4.959425061E0,-6.822535396E-1,-9.902397156E0,-1.341775298E0
4.961950322E0,-6.583253145E-1,-9.914361954E0,-1.329811215E0
4.964475634E0,-4.857429862E-1,-9.955039978E0,-1.310668588E0
4.967000895E0,-3.493520916E-1,-1.001725292E1,-1.265205026E0
4.969526207E0,-1.983051747E-1,-1.005075264E1,-1.308275819E0
4.972051468E0,-1.863410622E-1,-9.978967667E0,-1.351346612E0
4.974576780E0,-1.935195327E-1,-9.931111336E0,-1.437488198E0
4.977102093E0,-2.126621157E-1,-9.856635094E0,-1.519143224E0
4.979627353E0,-3.227319419E-1,-9.681958199E0,-1.509572029E0
4.982152665E0,-3.924229145E-1,-9.506983757E0,-1.483250976E0
4.984677926E0,-4.354937077E-1,-9.404091835E0,-1.490429401E0
4.987203186E0,-4.953143001E-1,-9.217152596E0,-1.437488198E0
4.989728499E0,-5.359922647E-1,-9.063713074E0,-1.389631748E0
4.992253759E0,-5.742774606E-1,-8.953642845E0,-1.344168067E0
4.994779072E0,-6.080760360E-1,-8.812167168E0,-1.392024517E0
4.997304332E0,-7.181459069E-1,-8.627920151E0,-1.408774376E0
4.999829645E0,-8.306085467E-1,-8.479266167E0,-1.401595831E0
5.002354905E0,-9.074779749E-1,-8.390731812E0,-1.449452281E0
5.004880322E0,-1.089332461E0,-8.215756416E0,-1.514357686E0
5.007405634E0,-1.235593796E0,-8.141578674E0,-1.629213095E0
5.009930895E0,-1.383948803E0,-8.004889488E0,-1.732403636E0
5.012456207E0,-1.606780410E0,-7.928318501E0,-1.782652855E0
5.014981468E0,-1.736291885E0,-7.875676632E0,-1.859223247E0
5.017506728E0,-1.891825438E0,-7.806284904E0,-1.945364833E0
5.020032040E0,-2.014158487E0,-7.760521889E0,-1.919043779E0
5.022557301E0,-2.236989975E0,-7.621738434E0,-1.909472466E0
5.025082613E0,-2.397309303E0,-7.614559650E0,-1.844866276E0
5.027607874E0,-2.481357098E0,-7.614559650E0,-1.681855202E0
5.030133186E0,-2.589034081E0,-7.619345665E0,-1.492822170E0
5.032658447E0,-2.672782898E0,-7.669594765E0,-1.210170031E0
5.035183811E0,-2.742174864E0,-7.715058327E0,-9.586246014E-1
5.037709124E0,-2.723032236E0,-7.811070442E0,-7.716853023E-1
5.040234384E0,-2.648854733E0,-7.933104515E0,-6.735795736E-1
5.042759697E0,-2.591426849E0,-8.055437088E0,-6.565307379E-1
5.045284957E0,-2.512463808E0,-8.115258217E0,-6.493522525E-1
5.047810218E0,-2.387737989E0,-8.163114548E0,-6.903293133E-1
5.050335530E0,-2.268096685E0,-8.232506752E0,-7.716853023E-1
5.052860790E0,-2.188834429E0,-8.294719696E0,-8.315058947E-1
5.055386103E0,-2.083550215E0,-8.364410400E0,-9.634101987E-1
5.057911363E0,-1.954337835E0,-8.419445992E0,-1.090229869E0
5.060436676E0,-1.750648856E0,-8.390731812E0,-1.207777262E0
5.062961936E0,-1.731506228E0,-8.364410400E0,-1.332203984E0
5.065526780E0,-1.618744493E0,-8.383553505E0,-1.504786372E0
5.068052040E0,-1.523031592E0,-8.388339043E0,-1.655534148E0
5.070577353E0,-1.393520117E0,-8.397910118E0,-1.801795483E0
5.073102613E0,-1.328913927E0,-8.395517349E0,-1.938186288E0
5.075627926E0,-1.276271820E0,-8.366803169E0,-2.161017895E0
5.078153186E0,-1.192523003E0,-8.373981476E0,-2.352742910E0
5.080678499E0,-1.103689432E0,-8.385946274E0,-2.549253464E0
5.083203759E0,-1.091725349E0,-8.342875481E0,-2.745464802E0
5.085729020E0,-9.984052777E-1,-8.359624863E0,-2.927618504E0
5.088254332E0,-9.888339639E-1,-8.350053787E0,-3.148057222E0
5.090779593E0,-9.672985673E-1,-8.314161301E0,-3.418745279E0
5.093304905E0,-9.960124493E-1,-8.292326927E0,-3.658326626E0
5.095790790E0,-1.003190875E0,-8.297411919E0,-3.789932013E0
5.098316103E0,-1.015154958E0,-8.323732376E0,-3.967299938E0
5.100841363E0,-9.888339639E-1,-8.326125145E0,-4.122833252E0
5.103366676E0,-9.984052777E-1,-8.263612747E0,-4.316951275E0
5.105891936E0,-9.984052777E-1,-8.251648903E0,-4.412963390E0
5.108417197E0,-9.314061999E-1,-8.261219978E0,-4.427320004E0
5.110942509E0,-8.473583460E-1,-8.206185341E0,-4.472783566E0
5.113467770E0,-7.707880139E-1,-8.184649467E0,-4.448855400E0
5.115993082E0,-6.463612318E-1,-8.172685623E0,-4.383950233E0
5.118518343E0,-6.176473498E-1,-8.182256699E0,-4.333701134E0
5.121043655E0,-5.527420044E-1,-8.191828728E0,-4.223630905E0
5.123568915E0,-5.024927258E-1,-8.220541954E0,-4.074976921E0
5.126094332E0,-4.283152521E-1,-8.256434441E0,-3.907479286E0
5.128619645E0,-4.163511395E-1,-8.227720261E0,-3.756432533E0
5.131144905E0,-3.661018610E-1,-8.189435959E0,-3.612863064E0
5.133670218E0,-3.131606579E-1,-8.206185341E0,-3.502494097E0
