"Time (s)","Gyroscope x (rad/s)","Gyroscope y (rad/s)","Gyroscope z (rad/s)"
8.408230100E-2,8.668333888E-1,-3.260944486E-1,-8.801487833E-2
8.658948800E-2,8.721595407E-1,-9.081111848E-2,-7.203638554E-2
8.909667600E-2,8.785509467E-1,-2.263620123E-2,-6.031882018E-2
9.160386300E-2,8.828118443E-1,7.749570161E-2,-5.179695413E-2
9.411105100E-2,8.870728016E-1,1.786928326E-1,-3.475322574E-2
9.665318600E-2,8.913337588E-1,2.734985650E-1,-1.770949923E-2
9.906448800E-2,9.030513167E-1,3.683043122E-1,-6.657706108E-4
1.015897490E-1,9.147688746E-1,4.629769027E-1,1.850842312E-2
1.041150610E-1,9.211602807E-1,5.492607951E-1,3.661738336E-2
1.066223010E-1,9.286168814E-1,6.280879974E-1,4.833494872E-2
1.092006860E-1,9.350082874E-1,7.090457082E-1,6.644391268E-2
1.117790720E-1,9.392692447E-1,7.836120725E-1,8.135717362E-2
1.142162070E-1,9.413996935E-1,8.507217169E-1,9.627043456E-2
1.167414680E-1,9.403344393E-1,9.071790576E-1,1.015966013E-1
1.192667800E-1,9.403344393E-1,9.540493488E-1,1.047922969E-1
1.217528740E-1,9.350082874E-1,9.934629202E-1,1.090532318E-1
1.243173530E-1,9.328778386E-1,1.027417302E0,1.133141592E-1
1.268426650E-1,9.296821356E-1,1.051917553E0,1.122489274E-1
1.294071450E-1,9.222254753E-1,1.068961382E0,1.133141592E-1
1.319324050E-1,9.115731716E-1,1.084939837E0,1.143793985E-1
1.344396450E-1,8.987903595E-1,1.093461752E0,1.122489274E-1
1.370077180E-1,8.860075474E-1,1.094526887E0,1.101184636E-1
1.395757380E-1,8.668333888E-1,1.091331244E0,1.122489274E-1
1.420336030E-1,8.444634676E-1,1.083874583E0,1.133141592E-1
1.445408430E-1,8.210283518E-1,1.074287534E0,1.143793985E-1
1.471528740E-1,7.965279818E-1,1.059374213E0,1.143793985E-1
1.496094360E-1,7.741581202E-1,1.043395758E0,1.165098622E-1
1.521347490E-1,7.475273013E-1,1.027417302E0,1.165098622E-1
1.546600610E-1,7.283530831E-1,1.006112576E0,1.207707971E-1
1.571853220E-1,7.155702710E-1,9.828106165E-1,1.207707971E-1
1.597106340E-1,7.017222643E-1,9.572450519E-1,1.197055578E-1
1.621575090E-1,6.953308582E-1,9.295489788E-1,1.165098622E-1
1.647612070E-1,6.921351552E-1,9.050486088E-1,1.154446304E-1
1.672864680E-1,6.910699010E-1,8.730916381E-1,1.175750941E-1
1.698117800E-1,6.942656040E-1,8.368737102E-1,1.175750941E-1
1.723370400E-1,7.027874589E-1,7.953296304E-1,1.154446304E-1
1.748623530E-1,7.208964229E-1,7.441984415E-1,1.143793985E-1
1.773876130E-1,7.411358953E-1,6.845453978E-1,1.101184636E-1
1.800304260E-1,7.656362653E-1,6.121095419E-1,1.058575287E-1
1.825557380E-1,7.986584306E-1,5.354127288E-1,9.413997084E-2
1.850809990E-1,8.359416127E-1,4.448679388E-1,8.242240548E-2
1.876063110E-1,8.753552437E-1,3.480648994E-1,7.070484012E-2
1.901315720E-1,9.158340693E-1,2.489982247E-1,5.366111174E-2
1.926568320E-1,9.627043605E-1,1.499315500E-1,3.661738336E-2
1.951821450E-1,1.007444143E0,5.619104207E-2,2.063889056E-2
1.977074570E-1,1.047922969E0,-3.541899845E-2,1.464695437E-3
2.002327180E-1,1.088401794E0,-1.206376404E-1,-2.303566411E-2
2.027580300E-1,1.122489333E0,-1.994648874E-1,-4.753602296E-2
2.052833430E-1,1.151250601E0,-2.675066292E-1,-6.990591437E-2
2.078086030E-1,1.175750971E0,-3.271597028E-1,-9.866721183E-2
2.103338630E-1,1.190664172E0,-3.750951886E-1,-1.274285018E-1
2.128591760E-1,1.200251341E0,-4.123783410E-1,-1.561897993E-1
2.153844880E-1,1.204512239E0,-4.368786812E-1,-1.806901544E-1
2.179097490E-1,1.201316595E0,-4.443353117E-1,-2.062557489E-1
2.204350090E-1,1.195990324E0,-4.368786812E-1,-2.348838747E-1
2.229603220E-1,1.187468529E0,-4.145087898E-1,-2.529928386E-1
2.254856340E-1,1.171490073E0,-3.772256374E-1,-2.742975056E-1
2.280108950E-1,1.153381109E0,-3.250292242E-1,-2.934716940E-1
2.305362070E-1,1.131011128E0,-2.557890713E-1,-3.126458824E-1
2.330614680E-1,1.107576013E0,-1.728340536E-1,-3.296896219E-1
2.355867800E-1,1.082010388E0,-6.950645149E-2,-3.435376585E-1
2.381120930E-1,1.050053477E0,4.127778113E-2,-3.552552164E-1
2.406373530E-1,1.014900804E0,1.680405140E-1,-3.701684773E-1
2.431626650E-1,9.776176214E-1,3.161078990E-1,-3.786903322E-1
2.456879260E-1,9.350082874E-1,4.800206423E-1,-3.872122169E-1
2.482132380E-1,8.881380558E-1,6.611102223E-1,-3.925383687E-1
2.507384990E-1,8.380720615E-1,8.581783772E-1,-3.893426657E-1
2.532638110E-1,7.816147208E-1,1.068961382E0,-3.808208108E-1
2.557890720E-1,7.283530831E-1,1.289464593E0,-3.722989559E-1
2.583143840E-1,6.709636450E-1,1.500380754E0,-3.595161438E-1
2.608396450E-1,6.038539410E-1,1.695185184E0,-3.456681073E-1
2.633649570E-1,5.335485935E-1,1.867752910E0,-3.371462524E-1
2.658902700E-1,4.632432163E-1,2.005167961E0,-3.296896219E-1
2.684155300E-1,3.865464330E-1,2.102104187E0,-3.201025128E-1
2.709408430E-1,3.087844253E-1,2.153235435E0,-3.051892519E-1
2.734661030E-1,2.278267145E-1,2.159626722E0,-2.828193605E-1
2.759914150E-1,1.404775977E-1,2.121278524E0,-2.497971505E-1
2.785166760E-1,4.793548584E-2,2.039255381E0,-2.126471400E-1
2.810419880E-1,-5.006595328E-2,1.926340818E0,-1.583202630E-1
2.835672490E-1,-1.565892547E-1,1.776142955E0,-9.440627694E-2
2.860925610E-1,-2.652430236E-1,1.606904030E0,-1.451379992E-2
2.886178220E-1,-3.781577349E-1,1.422618747E0,7.390054315E-2
2.911431340E-1,-4.974638224E-1,1.229811549E0,1.740324497E-1
2.936684470E-1,-6.208977103E-1,1.031678200E0,2.805557549E-1
2.961937070E-1,-7.497909069E-1,8.336780071E-1,3.945356905E-1
2.987190200E-1,-8.765535951E-1,6.440665126E-1,5.019910336E-1
3.012442800E-1,-1.005446792E0,4.629769027E-1,5.936011076E-1
3.037695400E-1,-1.133274794E0,2.969337106E-1,6.734935641E-1
3.062948530E-1,-1.255643368E0,1.499315500E-1,7.427337170E-1
3.088201130E-1,-1.380275726E0,1.890788600E-2,7.938649058E-1
3.113454260E-1,-1.496386051E0,-9.294158220E-2,8.449960947E-1
3.139099050E-1,-1.605039835E0,-2.047910541E-1,8.886706233E-1
3.163959990E-1,-1.709432721E0,-3.101159632E-1,9.153015018E-1
3.189213110E-1,-1.800909638E0,-4.166392684E-1,9.355409145E-1
3.214465720E-1,-1.882932544E0,-5.338149071E-1,9.461932182E-1
3.239718840E-1,-1.961759806E0,-6.552514434E-1,9.493889213E-1
3.264971450E-1,-2.030999899E0,-7.681661844E-1,9.547150731E-1
3.290224570E-1,-2.095979214E0,-8.809477091E-1,9.600412846E-1
3.315477180E-1,-2.153501749E0,-9.906666875E-1,9.621717334E-1
3.340730300E-1,-2.206763268E0,-1.095059514E0,9.600412846E-1
3.365982900E-1,-2.252568483E0,-1.182408690E0,9.557803273E-1
3.391236030E-1,-2.300503969E0,-1.254844546E0,9.515193701E-1
3.416488630E-1,-2.343113184E0,-1.317693233E0,9.461932182E-1
3.441741760E-1,-2.377067566E0,-1.360302567E0,9.408670664E-1
3.466994360E-1,-2.413285494E0,-1.393324852E0,9.419323206E-1
3.492247490E-1,-2.448438168E0,-1.411433816E0,9.483237267E-1
3.517500610E-1,-2.481460333E0,-1.422086120E0,9.579107761E-1
3.542753220E-1,-2.511286736E0,-1.423151374E0,9.760197401E-1
3.568006340E-1,-2.553896189E0,-1.418890357E0,1.001585364E0
3.593258950E-1,-2.600766420E0,-1.408238053E0,1.034474373E0
3.618512070E-1,-2.647636652E0,-1.390129089E0,1.068561912E0
3.643764680E-1,-2.701963663E0,-1.372020125E0,1.099453688E0
3.669017800E-1,-2.760551453E0,-1.349650264E0,1.130345345E0
3.694270400E-1,-2.820204496E0,-1.325149894E0,1.153780460E0
3.719523530E-1,-2.880922794E0,-1.301714778E0,1.177215695E0
3.744776650E-1,-2.944836617E0,-1.283605814E0,1.205976963E0
3.770029260E-1,-3.010747910E0,-1.251648784E0,1.242194891E0
3.795281860E-1,-3.072531462E0,-1.215430856E0,1.285869360E0
3.820534990E-1,-3.136445522E0,-1.181343436E0,1.331674457E0
3.845787590E-1,-3.196098566E0,-1.139799356E0,1.394523144E0
3.871040720E-1,-3.257882118E0,-1.093994260E0,1.468024254E0
3.896293840E-1,-3.312208891E0,-1.051385045E0,1.551112413E0
3.921938110E-1,-3.366535902E0,-1.002384305E0,1.636197925E0
3.946799570E-1,-3.419797421E0,-9.512531161E-1,1.727807999E0
3.972052180E-1,-3.469863415E0,-9.011871219E-1,1.815157056E0
3.997305300E-1,-3.511407614E0,-8.660344481E-1,1.896114826E0
4.022558430E-1,-3.546560287E0,-8.489907384E-1,1.963224411E0
4.047811030E-1,-3.561473370E0,-8.532516360E-1,2.019681931E0
4.073064150E-1,-3.558277845E0,-8.788172603E-1,2.056964874E0
4.098316760E-1,-3.538038254E0,-9.299484491E-1,2.071878195E0
4.123569880E-1,-3.486907244E0,-9.938623905E-1,2.075073957E0
4.148822490E-1,-3.416601658E0,-1.064167738E0,2.053769350E0
4.174075610E-1,-3.324991703E0,-1.133407950E0,2.011159897E0
4.199328220E-1,-3.218468428E0,-1.191995740E0,1.938724160E0
4.224581340E-1,-3.087444782E0,-1.239931226E0,1.838592172E0
4.249833950E-1,-2.941641092E0,-1.269757748E0,1.712894678E0
4.275087070E-1,-2.798899889E0,-1.282540560E0,1.568156123E0
4.300339680E-1,-2.655093193E0,-1.270823002E0,1.406240702E0
4.325592800E-1,-2.515547752E0,-1.225018024E0,1.233672976E0
4.350845400E-1,-2.390915632E0,-1.133407950E0,1.048322439E0
4.376098530E-1,-2.284525394E0,-9.959928989E-1,8.567136526E-1
4.401351650E-1,-2.193980455E0,-8.287512660E-1,6.745588183E-1
4.426604260E-1,-2.118349075E0,-6.232944727E-1,5.041215420E-1
4.451857380E-1,-2.061891556E0,-3.889431953E-1,3.476654291E-1
4.477109990E-1,-2.015021324E0,-1.302247345E-1,2.091851383E-1
4.502363110E-1,-1.977738261E0,1.424749196E-1,8.348763734E-2
4.527615720E-1,-1.950042248E0,4.086500108E-1,-2.516612969E-2
4.552868840E-1,-1.920215726E0,6.515231729E-1,-1.157109365E-1
4.578121450E-1,-1.893584847E0,8.549826741E-1,-1.902772486E-1
4.603374570E-1,-1.870149732E0,1.016764879E0,-2.497971505E-1
4.628627180E-1,-1.847779870E0,1.142462373E0,-2.998631001E-1
4.653880300E-1,-1.833931804E0,1.230876803E0,-3.477985859E-1
4.679132900E-1,-1.831801295E0,1.275616527E0,-3.872122169E-1
4.704386030E-1,-1.830736160E0,1.288399339E0,-4.202344418E-1
4.729638630E-1,-1.850975513E0,1.269225121E0,-4.511261880E-1
4.754891760E-1,-1.880802035E0,1.224485397E0,-4.745613039E-1
4.780144880E-1,-1.919150472E0,1.148853779E0,-4.905398190E-1
4.805397490E-1,-1.971346855E0,1.049787164E0,-4.979964495E-1
4.830650610E-1,-2.038456440E0,9.327446818E-1,-5.075835586E-1
4.855903220E-1,-2.114088058E0,7.910686731E-1,-5.097140074E-1
4.881156340E-1,-2.188654423E0,6.291532516E-1,-5.011921525E-1
4.906408950E-1,-2.258959770E0,4.448679388E-1,-4.809527099E-1
4.931662070E-1,-2.315417051E0,2.500634491E-1,-4.447347820E-1
4.956914680E-1,-2.356961250E0,4.021254554E-2,-3.967992961E-1
4.982167800E-1,-2.388785124E0,-1.877473146E-1,-3.467333615E-1
5.007420400E-1,-2.409024477E0,-4.347482324E-1,-2.892107666E-1
5.032673530E-1,-2.411154985E0,-6.946650743E-1,-2.189053893E-1
5.057926130E-1,-2.400502682E0,-9.619054198E-1,-1.487331539E-1
5.083179260E-1,-2.384524107E0,-1.220757008E0,-7.097115368E-2
5.108432380E-1,-2.351634979E0,-1.473084092E0,1.105179265E-2
5.133684990E-1,-2.321808577E0,-1.721283436E0,9.307473898E-2
5.159329780E-1,-2.287721157E0,-1.960960865E0,1.708367467E-1
5.184190720E-1,-2.254698753E0,-2.195178986E0,2.422073632E-1
5.209443840E-1,-2.223807096E0,-2.419943094E0,3.050560951E-1
5.234696450E-1,-2.195045710E0,-2.629794121E0,3.604482114E-1
5.259949570E-1,-2.168415070E0,-2.824598551E0,4.093157947E-1
5.285202180E-1,-2.156697512E0,-3.004622936E0,4.593817294E-1
5.310455300E-1,-2.152436495E0,-3.167603493E0,5.051867366E-1
5.335708430E-1,-2.155632257E0,-3.305950642E0,5.520570278E-1
5.360961030E-1,-2.168415070E0,-3.410343409E0,5.978620052E-1
5.386213630E-1,-2.190784931E0,-3.488105536E0,6.436670423E-1
5.411466760E-1,-2.221676588E0,-3.546693325E0,6.916025281E-1
5.436719360E-1,-2.252568483E0,-3.572258949E0,7.384728193E-1
5.461972490E-1,-2.290916681E0,-3.572258949E0,7.885387540E-1
5.487225610E-1,-2.323939085E0,-3.542432308E0,8.386046886E-1
5.512478220E-1,-2.358958483E0,-3.492366552E0,8.854749799E-1
5.537731340E-1,-2.391980648E0,-3.412473917E0,9.291495085E-1
5.562983950E-1,-2.419676781E0,-3.307015896E0,9.696283340E-1
5.588237070E-1,-2.437785864E0,-3.181451559E0,1.009974003E0
5.613489680E-1,-2.445242405E0,-3.032319069E0,1.046191931E0
5.639134470E-1,-2.449503422E0,-2.860816479E0,1.076018453E0
5.663995400E-1,-2.448438168E0,-2.668009281E0,1.100518823E0
5.689248530E-1,-2.435655355E0,-2.443378210E0,1.118627787E0
5.714501130E-1,-2.411154985E0,-2.198374748E0,1.134606361E0
5.739754260E-1,-2.379198074E0,-1.929003835E0,1.140997767E0
5.765398530E-1,-2.339917421E0,-1.647782326E0,1.142062902E0
5.790259990E-1,-2.295177698E0,-1.356041670E0,1.134606361E0
5.815512590E-1,-2.237655163E0,-1.068428755E0,1.127149701E0
5.840765720E-1,-2.176936865E0,-7.958621979E-1,1.114366889E0
5.866018320E-1,-2.114088058E0,-5.444672108E-1,1.100518823E0
5.891271450E-1,-2.045913219E0,-3.271597028E-1,1.081344724E0
5.916524570E-1,-1.974542618E0,-1.483336985E-1,1.062170506E0
5.941777180E-1,-1.904237151E0,-7.722939365E-3,1.039800644E0
5.967030300E-1,-1.838192701E0,9.134373069E-2,1.016365409E0
5.992282900E-1,-1.777474403E0,1.616491079E-1,9.919982553E-1
6.017536030E-1,-1.730737329E0,1.968017966E-1,9.706935883E-1
6.042788630E-1,-1.684932351E0,2.021279633E-1,9.493889213E-1
6.068041760E-1,-1.645518661E0,1.840189993E-1,9.344756603E-1
6.093294360E-1,-1.612496495E0,1.478010863E-1,9.174319506E-1
6.118547490E-1,-1.587996125E0,8.921326697E-2,8.993229866E-1
6.143800090E-1,-1.569887161E0,1.251648832E-2,8.865401745E-1
6.169053220E-1,-1.561365247E0,-8.441971987E-2,8.769530654E-1
6.194305820E-1,-1.557104349E0,-1.930734813E-1,8.684312105E-1
6.219558950E-1,-1.553908706E0,-3.143768907E-1,8.684312105E-1
6.244811550E-1,-1.557104349E0,-4.368786812E-1,8.705616593E-1
6.270064680E-1,-1.569887161E0,-5.604457259E-1,8.737573624E-1
6.295317280E-1,-1.581604719E0,-6.829475164E-1,8.769530654E-1
6.320570400E-1,-1.601844192E0,-7.937317491E-1,8.854749799E-1
6.345823010E-1,-1.626344562E0,-9.043828249E-1,8.961272836E-1
6.371076130E-1,-1.646583915E0,-1.008775711E0,9.110405445E-1
6.396312590E-1,-1.663627625E0,-1.103581429E0,9.270190597E-1
6.421531340E-1,-1.683867097E0,-1.194126248E0,9.440627694E-1
6.446750090E-1,-1.696649909E0,-1.278279662E0,9.611064792E-1
6.471968840E-1,-1.708367467E0,-1.343258858E0,9.760197401E-1
6.497187590E-1,-1.714758873E0,-1.394389987E0,9.898678064E-1
6.522406340E-1,-1.715824127E0,-1.433670521E0,1.002650619E0
6.547625610E-1,-1.714758873E0,-1.469888449E0,1.007843614E0
6.572844360E-1,-1.713693619E0,-1.491193056E0,1.012104511E0
6.598063110E-1,-1.705171704E0,-1.499714971E0,1.011039257E0
6.623281860E-1,-1.692389011E0,-1.499714971E0,1.012104511E0
6.648500610E-1,-1.679606199E0,-1.490127802E0,1.008908868E0
6.673719360E-1,-1.662562490E0,-1.476279855E0,1.003715873E0
6.699741760E-1,-1.635931611E0,-1.462431788E0,9.930635095E-1
6.724960510E-1,-1.609300733E0,-1.440061927E0,9.898678064E-1
6.750179260E-1,-1.578409076E0,-1.402911901E0,9.792154431E-1
6.775398010E-1,-1.543256402E0,-1.364563465E0,9.568455815E-1
6.800616760E-1,-1.504907966E0,-1.330476046E0,9.270190597E-1
6.825835510E-1,-1.467624784E0,-1.293192863E0,9.014534354E-1
6.851054260E-1,-1.423950195E0,-1.256974936E0,8.726921678E-1
6.876273010E-1,-1.378145218E0,-1.215430856E0,8.364742398E-1
6.901491760E-1,-1.333405495E0,-1.177082539E0,7.970606089E-1
6.926710510E-1,-1.284404755E0,-1.139799356E0,7.555165291E-1
6.951929260E-1,-1.234338760E0,-1.100385666E0,7.192986012E-1
6.977148530E-1,-1.182142377E0,-1.052450180E0,6.862763762E-1
7.002381860E-1,-1.129013896E0,-9.991886020E-1,6.457974911E-1
7.027600610E-1,-1.073621750E0,-9.384703040E-1,6.021229625E-1
7.052819360E-1,-1.016099095E0,-8.777520061E-1,5.605788827E-1
7.078038110E-1,-9.596418142E-1,-8.129059672E-1,5.200999975E-1
7.103256860E-1,-9.021192193E-1,-7.447310090E-1,4.785559475E-1
7.128475610E-1,-8.382052183E-1,-6.776213646E-1,4.380770922E-1
7.153694880E-1,-7.817478776E-1,-6.105116606E-1,4.018591642E-1
7.178913630E-1,-7.252905369E-1,-5.423367620E-1,3.625786901E-1
7.204132380E-1,-6.613765359E-1,-4.688356817E-1,3.189041317E-1
7.229351130E-1,-6.027887464E-1,-3.953346014E-1,2.794905007E-1
7.254569880E-1,-5.463314056E-1,-3.218335211E-1,2.432725877E-1
7.279788630E-1,-4.910724163E-1,-2.451367527E-1,2.059894353E-1
7.305416240E-1,-4.388760030E-1,-1.728340536E-1,1.633801162E-1
7.330634990E-1,-3.898752928E-1,-9.933298081E-2,1.271621883E-1
7.355853740E-1,-3.408745527E-1,-2.370143496E-2,8.881380409E-2
7.381072490E-1,-2.950695455E-1,4.766917601E-2,4.833494872E-2
7.406291240E-1,-2.503297627E-1,1.233007237E-1,8.921326138E-3
7.431509990E-1,-2.034595013E-1,1.978670359E-1,-2.836182900E-2
7.456729260E-1,-1.555240154E-1,2.671071887E-1,-6.564498693E-2
7.481948010E-1,-1.118494645E-1,3.331516385E-1,-1.007976755E-1
7.507166760E-1,-7.137060910E-2,3.969324529E-1,-1.338198930E-1
7.532385510E-1,-2.769605815E-2,4.576507509E-1,-1.711030602E-1
7.557604260E-1,1.278279629E-2,5.141080618E-1,-2.094514370E-1
7.582823010E-1,5.326165259E-2,5.620435476E-1,-2.444709837E-1
7.608450610E-1,9.573781490E-2,6.067833900E-1,-2.785584331E-1
7.633669360E-1,1.351514459E-1,6.461969614E-1,-3.147763610E-1
7.658888110E-1,1.756303012E-1,6.802844405E-1,-3.467333615E-1
7.684106860E-1,2.171743810E-1,7.026543617E-1,-3.797555864E-1
7.709325610E-1,2.597837150E-1,7.228937745E-1,-4.106473327E-1
7.734544360E-1,2.981320918E-1,7.324808836E-1,-4.415390790E-1
7.759763630E-1,3.386109471E-1,7.410027385E-1,-4.671046734E-1
7.784982380E-1,3.801550269E-1,7.441984415E-1,-4.926702678E-1
7.810201130E-1,4.174381793E-1,7.410027385E-1,-5.129097104E-1
7.835419880E-1,4.579170346E-1,7.378070354E-1,-5.363448262E-1
7.860638630E-1,4.952002168E-1,7.324808836E-1,-5.565842390E-1
7.885857380E-1,5.314181447E-1,7.196980715E-1,-5.736280084E-1
7.911484990E-1,5.708317757E-1,7.090457082E-1,-5.885412693E-1
7.936703740E-1,6.091801524E-1,7.015891075E-1,-6.077154279E-1
7.961922490E-1,6.485937834E-1,6.898715496E-1,-6.258243918E-1
7.987141240E-1,6.846785545E-1,6.781539917E-1,-6.471290588E-1
8.012359990E-1,7.240921259E-1,6.728277802E-1,-6.652380228E-1
8.037578740E-1,7.613753080E-1,6.632407308E-1,-6.844122410E-1
8.062798010E-1,8.007889390E-1,6.557840705E-1,-7.089125514E-1
8.088016760E-1,8.412677646E-1,6.557840705E-1,-7.312824726E-1
8.113235510E-1,8.796161413E-1,6.579145193E-1,-7.536523938E-1
8.138454260E-1,9.168993235E-1,6.600450277E-1,-7.824136615E-1
8.163673010E-1,9.541825056E-1,6.696321368E-1,-8.090444803E-1
8.188891760E-1,9.935960770E-1,6.802844405E-1,-8.344769478E-1
8.214519360E-1,1.034074903E0,6.941324472E-1,-8.664339185E-1
8.239738110E-1,1.070292830E0,7.122414112E-1,-8.994561434E-1
8.264956860E-1,1.107576013E0,7.388722301E-1,-9.324783683E-1
8.290175610E-1,1.149120092E0,7.612421513E-1,-9.623048902E-1
8.315394360E-1,1.190664172E0,7.889382243E-1,-9.985228181E-1
8.340613110E-1,1.224751711E0,8.155690432E-1,-1.036871195E0
8.365832380E-1,1.264165282E0,8.390041590E-1,-1.073089123E0
8.391051130E-1,1.293858647E0,8.603088260E-1,-1.114633203E0
8.416269880E-1,1.321554661E0,8.720263839E-1,-1.157242537E0
8.441488630E-1,1.344989896E0,8.794830441E-1,-1.192395210E0
8.466707380E-1,1.366294503E0,8.805482388E-1,-1.219026089E0
8.491926130E-1,1.371620655E0,8.730916381E-1,-1.239265442E0
8.517554260E-1,1.363098860E0,8.624392748E-1,-1.252048254E0
8.542773010E-1,1.337533236E0,8.411346078E-1,-1.261635303E0
8.567991760E-1,1.304510951E0,8.134385943E-1,-1.266961575E0
8.593210510E-1,1.260969639E0,7.825468183E-1,-1.258439660E0
8.618429260E-1,1.202381730E0,7.441984415E-1,-1.238200188E0
8.643648010E-1,1.131011128E0,7.047848105E-1,-1.198786616E0
8.668867280E-1,1.042596817E0,6.781539917E-1,-1.142329216E0
8.694086030E-1,9.360735416E-1,6.728277802E-1,-1.073089123E0
8.719304780E-1,8.199630976E-1,6.770887375E-1,-9.921314120E-1
8.744523530E-1,6.932004094E-1,6.951977015E-1,-9.005213380E-1
8.769742280E-1,5.761579275E-1,7.154371142E-1,-8.026530743E-1
8.794961030E-1,4.856131077E-1,7.228937745E-1,-7.099778056E-1
8.820588110E-1,4.238295853E-1,7.154371142E-1,-6.226286888E-1
8.845806860E-1,3.929378390E-1,6.717625856E-1,-5.438014865E-1
8.871025610E-1,3.961335421E-1,5.982614756E-1,-4.734960794E-1
8.896244360E-1,4.248948097E-1,4.959991276E-1,-4.085168540E-1
8.921463110E-1,4.675041437E-1,3.704347908E-1,-3.552552164E-1
8.946681860E-1,5.122439265E-1,2.372806519E-1,-3.062545061E-1
8.971901130E-1,5.473966002E-1,1.179745570E-1,-2.679060996E-1
8.997119880E-1,5.623098612E-1,1.145125460E-2,-2.455362082E-1
9.022338630E-1,5.431357026E-1,-8.548495173E-2,-2.423405200E-1
9.047557380E-1,4.888088107E-1,-1.834863871E-1,-2.689713240E-1
9.072776130E-1,4.185034335E-1,-2.920069993E-1,-3.201025128E-1
9.097994880E-1,3.439370990E-1,-4.123783410E-1,-3.925383687E-1
9.123623010E-1,2.906754613E-1,-5.316844583E-1,-4.703003764E-1
9.148841760E-1,2.672403455E-1,-6.264901757E-1,-5.512580872E-1
9.174060510E-1,2.725664973E-1,-6.829475164E-1,-6.300853491E-1
9.199279260E-1,3.034582436E-1,-6.818822622E-1,-7.014559507E-1
9.224498010E-1,3.556546867E-1,-6.275554299E-1,-7.664351463E-1
9.249716760E-1,4.344819188E-1,-5.412715077E-1,-8.270202875E-1
9.274936030E-1,5.346138477E-1,-4.272916019E-1,-8.856080770E-1
9.300154780E-1,6.507242322E-1,-2.941374779E-1,-9.388697743E-1
9.325373530E-1,7.943975329E-1,-1.451379955E-1,-9.836095572E-1
9.350592280E-1,9.413996935E-1,1.251648832E-2,-1.033675551E0
9.375811030E-1,1.104380369E0,1.765623689E-1,-1.082676172E0
9.401029780E-1,1.272687197E0,3.438039720E-1,-1.125285506E0
9.426657380E-1,1.435534596E0,4.970643520E-1,-1.165764332E0
9.451876130E-1,1.587862968E0,6.312837005E-1,-1.197721362E0
9.477094880E-1,1.723147511E0,7.473941445E-1,-1.224352241E0
9.502313630E-1,1.840323210E0,8.400694132E-1,-1.237135053E0
9.527532380E-1,1.941387177E0,8.997224569E-1,-1.239265442E0
9.552751130E-1,2.025540590E0,9.220923185E-1,-1.237135053E0
9.577970400E-1,2.096911192E0,9.242228270E-1,-1.230743647E0
9.603189150E-1,2.153368473E0,9.018529058E-1,-1.217960835E0
9.628407900E-1,2.182129860E0,8.603088260E-1,-1.207308531E0
9.653626650E-1,2.192782164E0,8.102428913E-1,-1.198786616E0
9.678845400E-1,2.178934097E0,7.527202964E-1,-1.189199567E0
9.704064150E-1,2.139520645E0,6.909367442E-1,-1.186003804E0
9.729691760E-1,2.080932617E0,6.216966510E-1,-1.193460464E0
9.754910510E-1,2.006366491E0,5.492607951E-1,-1.208373666E0
9.780129260E-1,1.922212958E0,4.853467941E-1,-1.223286986E0
9.805348010E-1,1.846714616E0,4.320851564E-1,-1.239265442E0
9.830566760E-1,1.778539658E0,3.958672285E-1,-1.254178762E0
9.855785510E-1,1.719951868E0,3.757609427E-1,-1.261635303E0
9.881004780E-1,1.663494468E0,3.651086092E-1,-1.256309152E0
9.906223530E-1,1.617689490E0,3.661738634E-1,-1.243526459E0
9.931442280E-1,1.580406308E0,3.789566457E-1,-1.220091224E0
9.956661030E-1,1.552710295E0,3.979976773E-1,-1.192395210E0
9.982187070E-1,1.522883773E0,4.299546778E-1,-1.159373045E0
1.000740582E0,1.501579046E0,4.619116783E-1,-1.128481269E0
1.003262405E0,1.484535336E0,4.949339032E-1,-1.094393730E0
1.005851103E0,1.467491627E0,5.279561281E-1,-1.057110667E0
1.008372978E0,1.450447917E0,5.545869470E-1,-1.021957874E0
1.010894905E0,1.435534596E0,5.684349537E-1,-9.793485999E-1
1.013416780E0,1.409969091E0,5.801525116E-1,-9.303479195E-1
1.015938655E0,1.381207824E0,5.961310267E-1,-8.685643673E-1
1.018460530E0,1.342859387E0,6.131747365E-1,-8.026530743E-1
1.020982405E0,1.308771968E0,6.195661426E-1,-7.334129214E-1
1.023504280E0,1.268426180E0,6.142399907E-1,-6.641727686E-1
1.026026155E0,1.224751711E0,5.950657725E-1,-6.002588272E-1
1.028548030E0,1.181077123E0,5.652392507E-1,-5.469971299E-1
1.031069905E0,1.136337280E0,5.300865769E-1,-5.054530501E-1
1.033576103E0,1.094793200E0,4.917382002E-1,-4.734960794E-1
1.036097978E0,1.061771035E0,4.597811997E-1,-4.543218911E-1
1.038619853E0,1.040466309E0,4.342156053E-1,-4.489957094E-1
1.041141728E0,1.027683616E0,4.150414169E-1,-4.521914124E-1
1.043663603E0,1.027683616E0,4.086500108E-1,-4.585828185E-1
1.046185478E0,1.037270665E0,4.139761925E-1,-4.692351520E-1
1.048707405E0,1.056444883E0,4.384765327E-1,-4.830831885E-1
1.051229280E0,1.085206151E0,4.800206423E-1,-5.011921525E-1
1.053751155E0,1.118228316E0,5.332822800E-1,-5.171706080E-1
1.056273030E0,1.155511498E0,5.993267298E-1,-5.331491232E-1
1.058794905E0,1.197055578E0,6.770887375E-1,-5.501928329E-1
1.061316780E0,1.242860675E0,7.633726001E-1,-5.672366023E-1
1.063918968E0,1.291861296E0,8.517869711E-1,-5.853455663E-1
1.066440843E0,1.334337473E0,9.455274343E-1,-6.045197248E-1
1.068962718E0,1.381207824E0,1.035939097E0,-6.204982400E-1
1.071484593E0,1.428078055E0,1.112635851E0,-6.364767551E-1
1.074006468E0,1.469622135E0,1.177615166E0,-6.567161679E-1
1.076528343E0,1.503709555E0,1.234072447E0,-6.748251319E-1
1.079050218E0,1.533536077E0,1.282007933E0,-6.897383928E-1
1.081572093E0,1.565493107E0,1.311834455E0,-7.067821026E-1
1.084093968E0,1.589993477E0,1.332073927E0,-7.216953635E-1
1.086615843E0,1.610232830E0,1.343791485E0,-7.312824726E-1
1.089137718E0,1.629407048E0,1.336334825E0,-7.430000305E-1
1.091659645E0,1.644320369E0,1.318225861E0,-7.493914366E-1
1.094183030E0,1.661364079E0,1.293725491E0,-7.568480372E-1
1.096704905E0,1.670951128E0,1.264964223E0,-7.643046975E-1
1.099226780E0,1.677342534E0,1.235137701E0,-7.706961036E-1
1.101748655E0,1.685864449E0,1.197854519E0,-7.728265524E-1
1.104270530E0,1.690125346E0,1.158440948E0,-7.781527042E-1
1.106792405E0,1.690125346E0,1.109440207E0,-7.813484073E-1
1.109314332E0,1.693320990E0,1.057243824E0,-7.813484073E-1
1.111836207E0,1.693320990E0,1.009308338E0,-7.824136615E-1
1.114358082E0,1.695451498E0,9.561797976E-1,-7.834789157E-1
1.116879957E0,1.692255855E0,9.082443118E-1,-7.845441103E-1
1.119401832E0,1.696516752E0,8.667002320E-1,-7.856093645E-1
1.121923707E0,1.695451498E0,8.304823041E-1,-7.856093645E-1
1.124486468E0,1.687994838E0,8.059819341E-1,-7.770875096E-1
1.127008343E0,1.679473042E0,7.953296304E-1,-7.643046975E-1
1.129530218E0,1.668820739E0,7.953296304E-1,-7.472609878E-1
1.132052093E0,1.656037927E0,8.059819341E-1,-7.376738787E-1
1.134573968E0,1.646450758E0,8.198299408E-1,-7.291520238E-1
1.137095843E0,1.637928963E0,8.421998620E-1,-7.163692117E-1
1.139617770E0,1.631537557E0,8.720263839E-1,-7.014559507E-1
1.142139645E0,1.621950388E0,8.943963051E-1,-6.897383928E-1
1.144661520E0,1.623015642E0,9.103747606E-1,-6.780208349E-1
1.147183395E0,1.619819999E0,9.210271239E-1,-6.726946831E-1
1.149705270E0,1.619819999E0,9.252880216E-1,-6.599118710E-1
1.152227145E0,1.620885253E0,9.274185300E-1,-6.492595077E-1
1.154789957E0,1.621950388E0,9.306141734E-1,-6.375419497E-1
1.157311832E0,1.620885253E0,9.252880216E-1,-6.236939430E-1
1.159833707E0,1.618754745E0,9.199618697E-1,-6.130415797E-1
1.162355582E0,1.618754745E0,9.157009125E-1,-5.991935730E-1
1.164877457E0,1.617689490E0,9.082443118E-1,-5.874760151E-1
1.167399332E0,1.617689490E0,9.029181600E-1,-5.800193548E-1
1.169921259E0,1.620885253E0,9.039833546E-1,-5.672366023E-1
1.172443134E0,1.621950388E0,9.114400148E-1,-5.565842390E-1
1.174965009E0,1.624080896E0,9.210271239E-1,-5.480623841E-1
1.177486884E0,1.632602811E0,9.370055795E-1,-5.427362323E-1
1.180008759E0,1.635798454E0,9.487231374E-1,-5.374100804E-1
1.182530634E0,1.633667946E0,9.593755007E-1,-5.352795720E-1
1.185093395E0,1.640059352E0,9.721583128E-1,-5.310186744E-1
1.187615270E0,1.645385504E0,9.785496593E-1,-5.203663111E-1
1.190137145E0,1.645385504E0,9.870715737E-1,-5.075835586E-1
1.192659020E0,1.645385504E0,9.934629202E-1,-4.937354922E-1
1.195180895E0,1.650711775E0,9.945281744E-1,-4.777570069E-1
1.197702770E0,1.654972672E0,9.934629202E-1,-4.660394490E-1
1.200224697E0,1.662429333E0,9.828106165E-1,-4.521914124E-1
1.202746572E0,1.665624976E0,9.721583128E-1,-4.404738545E-1
1.205268447E0,1.664559722E0,9.583102465E-1,-4.308867455E-1
1.207790322E0,1.672016382E0,9.497883916E-1,-4.191691875E-1
1.210312197E0,1.673081636E0,9.402012825E-1,-4.106473327E-1
1.212834072E0,1.673081636E0,9.370055795E-1,-4.021254778E-1
1.215396832E0,1.669885874E0,9.338098764E-1,-3.925383687E-1
1.217918707E0,1.664559722E0,9.348751307E-1,-3.893426657E-1
1.220440582E0,1.658168316E0,9.327446818E-1,-3.850817382E-1
1.222962457E0,1.652842164E0,9.348751307E-1,-3.808208108E-1
1.225484332E0,1.644320369E0,9.338098764E-1,-3.776251078E-1
1.228006207E0,1.637928963E0,9.252880216E-1,-3.744294047E-1
1.230528134E0,1.629407048E0,9.157009125E-1,-3.722989559E-1
1.233050009E0,1.618754745E0,8.986572027E-1,-3.712337017E-1
1.235571884E0,1.604906678E0,8.794830441E-1,-3.701684773E-1
1.238093759E0,1.596384883E0,8.539174199E-1,-3.733641803E-1
1.240615634E0,1.584667325E0,8.219604492E-1,-3.754946291E-1
1.243137509E0,1.562297344E0,7.889382243E-1,-3.829512596E-1
1.245700322E0,1.544188380E0,7.527202964E-1,-3.914731443E-1
1.248222197E0,1.528209925E0,7.111762166E-1,-3.989297748E-1
1.250744072E0,1.512231469E0,6.675016284E-1,-4.085168540E-1
1.253265947E0,1.498383403E0,6.195661426E-1,-4.138430357E-1
1.255787822E0,1.476013541E0,5.695002079E-1,-4.170387387E-1
1.258309697E0,1.457904577E0,5.173037648E-1,-4.234301150E-1
1.260831624E0,1.439795613E0,4.651073813E-1,-4.244953692E-1
1.263353499E0,1.417425752E0,4.150414169E-1,-4.223648906E-1
1.265875374E0,1.398251534E0,3.651086092E-1,-4.181039631E-1
1.268397249E0,1.381207824E0,3.203688264E-1,-4.159734845E-1
1.270919124E0,1.362033606E0,2.756290436E-1,-4.149082601E-1
1.273440999E0,1.344989896E0,2.308892608E-1,-4.106473327E-1
1.276003759E0,1.326880932E0,1.914756298E-1,-4.085168540E-1
1.278525634E0,1.309837103E0,1.616491079E-1,-4.074516296E-1
1.281047509E0,1.292926550E0,1.392792165E-1,-4.042559266E-1
1.283569384E0,1.280143738E0,1.201050207E-1,-4.042559266E-1
1.286091259E0,1.258839130E0,1.094526947E-1,-4.063864052E-1
1.288613134E0,1.239664912E0,1.073222235E-1,-4.127778113E-1
1.291135061E0,1.222621202E0,1.009308323E-1,-4.191691875E-1
1.293656936E0,1.206642747E0,9.453943372E-2,-4.191691875E-1
1.296178811E0,1.186403275E0,8.814803511E-2,-4.170387387E-1
1.298700686E0,1.166163802E0,7.962616533E-2,-4.127778113E-1
1.301222561E0,1.138467789E0,7.323476672E-2,-4.063864052E-1
1.303744436E0,1.109706521E0,7.003907114E-2,-3.978645205E-1
1.306307249E0,1.075619102E0,6.684337556E-2,-3.840165138E-1
1.308829124E0,1.044727325E0,6.364767253E-2,-3.691032529E-1
1.311350999E0,1.009574652E0,6.471290439E-2,-3.563204408E-1
1.313872874E0,9.765523672E-1,6.364767253E-2,-3.424724042E-1
1.316394749E0,9.445953965E-1,6.471290439E-2,-3.307548463E-1
1.318916624E0,9.168993235E-1,7.323476672E-2,-3.169068098E-1
1.321438551E0,8.902685046E-1,8.921326697E-2,-3.083849549E-1
1.323960426E0,8.678985834E-1,1.051917598E-1,-3.019935489E-1
1.326482301E0,8.476591706E-1,1.222354919E-1,-2.966673970E-1
1.329004176E0,8.316806555E-1,1.478010863E-1,-2.913412452E-1
1.331526051E0,8.199630976E-1,1.723014414E-1,-2.892107666E-1
1.334047926E0,8.146369457E-1,2.053236663E-1,-2.828193605E-1
1.336610686E0,8.114412427E-1,2.372806519E-1,-2.828193605E-1
1.339132561E0,8.093107939E-1,2.681724131E-1,-2.796236575E-1
1.341654436E0,8.071803451E-1,2.969337106E-1,-2.732322812E-1
1.344176311E0,8.093107939E-1,3.267602324E-1,-2.636451721E-1
1.346698186E0,8.093107939E-1,3.544562757E-1,-2.551233172E-1
1.349220061E0,8.082455397E-1,3.736304939E-1,-2.466014475E-1
1.351741988E0,8.071803451E-1,3.832175732E-1,-2.327534109E-1
1.354263863E0,8.007889390E-1,3.842828274E-1,-2.199706137E-1
1.356785738E0,7.922670841E-1,3.800218701E-1,-2.094514370E-1
1.359307613E0,7.826799750E-1,3.672390878E-1,-1.945381761E-1
1.361829488E0,7.741581202E-1,3.459344208E-1,-1.785596907E-1
1.364351363E0,7.539186478E-1,3.150426745E-1,-1.615159512E-1
1.366914176E0,7.326140404E-1,2.884118557E-1,-1.423417628E-1
1.369436051E0,7.102441192E-1,2.543243766E-1,-1.306242049E-1
1.371957926E0,6.878741980E-1,2.170412242E-1,-1.210371032E-1
1.374479801E0,6.709636450E-1,1.840189993E-1,-1.050586104E-1
1.377001676E0,6.507242322E-1,1.573881805E-1,-9.547150880E-2
1.379523551E0,6.283543110E-1,1.371487528E-1,-8.162347972E-2
1.382045478E0,6.102453470E-1,1.233007237E-1,-6.671021879E-2
1.384567353E0,5.900059342E-1,1.126483902E-1,-5.499265343E-2
1.387089228E0,5.772231221E-1,1.137136221E-1,-4.327509180E-2
1.389611103E0,5.676360726E-1,1.201050207E-1,-2.623136342E-2
1.392132978E0,5.527228117E-1,1.350182891E-1,-1.238333434E-2
1.394654853E0,5.452661514E-1,1.584534049E-1,-6.657706108E-4
1.397217613E0,5.367442966E-1,1.893451661E-1,1.318225823E-2
1.399739488E0,5.314181447E-1,2.234326303E-1,2.809552103E-2
1.402261363E0,5.282224417E-1,2.575200796E-1,4.300878197E-2
1.404783238E0,5.282224417E-1,2.905423045E-1,5.579157919E-2
1.407305113E0,5.239614844E-1,3.224993050E-1,6.111774594E-2
1.409826988E0,5.207657814E-1,3.491301239E-1,7.070484012E-2
1.412348915E0,5.197005868E-1,3.715000153E-1,8.242240548E-2
1.414870790E0,5.197005868E-1,3.906742036E-1,8.774857223E-2
1.417392665E0,5.175700784E-1,4.001281559E-1,9.413997084E-2
1.419914540E0,5.143743753E-1,4.001281559E-1,1.015966013E-1
1.422436415E0,5.122439265E-1,3.928046823E-1,1.079879999E-1
1.424958290E0,5.122439265E-1,3.874785006E-1,1.101184636E-1
1.427521103E0,5.175700784E-1,3.789566457E-1,1.090532318E-1
1.430042978E0,5.228962898E-1,3.651086092E-1,1.090532318E-1
1.432564853E0,5.303528905E-1,3.576519787E-1,1.037270650E-1
1.435086728E0,5.463314056E-1,3.480648994E-1,9.946613014E-2
1.437608603E0,5.623098612E-1,3.384777904E-1,8.881380409E-2
1.440130478E0,5.793536305E-1,3.288906813E-1,7.922670245E-2
1.442652405E0,5.963973403E-1,3.182383776E-1,7.390054315E-2
1.445174280E0,6.177020073E-1,3.075860441E-1,6.537867337E-2
1.447696155E0,6.390066743E-1,2.990641594E-1,5.685681105E-2
1.450218030E0,6.603113413E-1,2.926727831E-1,5.259587988E-2
1.452739905E0,6.805507541E-1,2.862813771E-1,4.300878197E-2
1.455261780E0,6.995918155E-1,2.809551954E-1,3.661738336E-2
1.457824540E0,7.155702710E-1,2.788247466E-1,2.489982173E-2
1.460346415E0,7.358096838E-1,2.766942680E-1,1.318225823E-2
1.462868290E0,7.560491562E-1,2.766942680E-1,1.464695437E-3
1.465390165E0,7.741581202E-1,2.713681161E-1,-9.187635034E-3
1.467912040E0,7.975932360E-1,2.681724131E-1,-2.090519853E-2
1.470433915E0,8.199630976E-1,2.607157826E-1,-3.581846133E-2
1.472955843E0,8.423330188E-1,2.500634491E-1,-4.114462435E-2
1.475477718E0,8.625724316E-1,2.351501882E-1,-4.434032366E-2
1.477999593E0,8.817466497E-1,2.170412242E-1,-4.753602296E-2
1.480521468E0,9.019860625E-1,1.957365721E-1,-5.073172227E-2
1.483043343E0,9.158340693E-1,1.723014414E-1,-4.860125855E-2
1.485565218E0,9.307473302E-1,1.435401440E-1,-4.327509180E-2
1.488127978E0,9.403344393E-1,1.190397888E-1,-3.262276202E-2
1.490649853E0,9.413996935E-1,9.453943372E-2,-2.623136342E-2
1.493171728E0,9.413996935E-1,7.536523789E-2,-1.451379992E-2
1.495693603E0,9.350082874E-1,6.364767253E-2,-5.991935730E-3
1.498215478E0,9.264864326E-1,5.938674137E-2,-2.796236658E-3
1.500737353E0,9.105079174E-1,6.045197323E-2,-6.657706108E-4
1.503259280E0,8.881380558E-1,6.684337556E-2,-4.926702939E-3
1.505781155E0,8.668333888E-1,8.708280325E-2,-9.187635034E-3
1.508303030E0,8.412677646E-1,1.115831584E-1,-1.877473295E-2
1.510824905E0,8.167673945E-1,1.520620137E-1,-2.836182900E-2
1.513346780E0,7.890713811E-1,1.978670359E-1,-4.007939249E-2
1.515868655E0,7.613753080E-1,2.489982247E-1,-4.860125855E-2
1.518431207E0,7.294183373E-1,3.086512685E-1,-6.138405204E-2
1.520955582E0,6.974613070E-1,3.619129062E-1,-6.884068251E-2
1.523479957E0,6.645722389E-1,4.107804894E-1,-7.949301600E-2
1.526004384E0,6.294195652E-1,4.555202723E-1,-9.121058136E-2
1.528528759E0,5.921363831E-1,4.928034246E-1,-1.061238423E-1
1.531053134E0,5.495271087E-1,5.204994678E-1,-1.146457046E-1
1.533577509E0,5.005263686E-1,5.343475342E-1,-1.242327988E-1
1.536101884E0,4.547213614E-1,5.396736860E-1,-1.295589656E-1
1.538626311E0,3.971987665E-1,5.375432372E-1,-1.284937263E-1
1.541150686E0,3.375457227E-1,5.279561281E-1,-1.274285018E-1
1.543675061E0,2.704360485E-1,5.034557581E-1,-1.210371032E-1
1.546199436E0,2.033263594E-1,4.672378302E-1,-1.135804728E-1
1.548734697E0,1.340862066E-1,4.182371199E-1,-9.973244369E-2
1.551259072E0,6.710968167E-2,3.555215299E-1,-8.268871158E-2
1.553783447E0,1.065233024E-3,2.798899710E-1,-7.203638554E-2
1.556307874E0,-6.924014539E-2,2.031932026E-1,-5.925358832E-2
1.558832249E0,-1.288931966E-1,1.307573467E-1,-4.647079110E-2
1.561356624E0,-1.864157766E-1,6.790860742E-2,-3.155753016E-2
1.563880999E0,-2.300903350E-1,2.316881903E-2,-1.238333434E-2
1.566405374E0,-2.641777992E-1,2.929390874E-3,2.276935615E-2
1.568929801E0,-2.940043211E-1,-4.527240526E-3,5.685681105E-2
1.571454176E0,-3.195699155E-1,-2.663082560E-4,9.200949967E-2
1.573978551E0,-3.462007344E-1,-7.722939365E-3,1.260969639E-1
1.576502926E0,-3.696358502E-1,-4.500609636E-2,1.495320797E-1
1.579038134E0,-3.856143653E-1,-7.802832127E-2,1.601844132E-1
1.581562509E0,-3.909405172E-1,-1.131810099E-1,1.687062830E-1
1.584086884E0,-3.877448142E-1,-1.547250897E-1,1.814890802E-1
1.586611311E0,-3.760272563E-1,-1.952039450E-1,2.059894353E-1
1.589135686E0,-3.643096983E-1,-2.344844192E-1,2.475335300E-1
1.591660061E0,-3.536573648E-1,-2.717675865E-1,3.050560951E-1
1.594184436E0,-3.493964374E-1,-3.015941083E-1,3.647091687E-1
1.596708811E0,-3.579182923E-1,-3.154421151E-1,4.295552075E-1
1.599233238E0,-3.802881837E-1,-3.250292242E-1,4.966649115E-1
1.601757613E0,-4.154408872E-1,-3.282249272E-1,5.584484339E-1
1.604281988E0,-4.697677493E-1,-3.228987455E-1,6.223623753E-1
1.606806363E0,-5.294207931E-1,-3.122464418E-1,6.841459274E-1
1.609341572E0,-5.995930433E-1,-3.026593328E-1,7.352771163E-1
1.611865947E0,-6.805507541E-1,-2.962679267E-1,7.832126021E-1
1.614390322E0,-7.625737190E-1,-2.909417748E-1,8.247566819E-1
1.616914749E0,-8.541837335E-1,-2.866808474E-1,8.641703129E-1
1.619439124E0,-9.489894509E-1,-2.802894413E-1,9.035838842E-1
1.621963499E0,-1.049121380E0,-2.802894413E-1,9.355409145E-1
1.624487874E0,-1.155511498E0,-2.845503688E-1,9.579107761E-1
1.627012249E0,-1.260969639E0,-2.898765504E-1,9.738892913E-1
1.629536676E0,-1.371753812E0,-2.994636297E-1,9.856068492E-1
1.632061051E0,-1.480407596E0,-3.175725937E-1,9.941287041E-1
1.634585426E0,-1.585865617E0,-3.420729637E-1,9.973244071E-1
1.637109801E0,-1.692389011E0,-3.761604130E-1,1.008908868E0
1.639645061E0,-1.783865809E0,-4.145087898E-1,1.014235020E0
1.642169436E0,-1.876541138E0,-4.635095298E-1,1.024887323E0
1.644693811E0,-1.964955449E0,-5.199668407E-1,1.039800644E0
1.647218238E0,-2.046978474E0,-5.828156471E-1,1.055779099E0
1.649742613E0,-2.124740362E0,-6.456643939E-1,1.073888063E0
1.652266988E0,-2.197176218E0,-7.181001902E-1,1.095192671E0
1.654791363E0,-2.270677328E0,-7.820141912E-1,1.118627787E0
1.657315738E0,-2.340982676E0,-8.372731805E-1,1.142062902E0
1.659840165E0,-2.407959223E0,-8.788172603E-1,1.172954679E0
1.662364540E0,-2.479329824E0,-9.118394852E-1,1.209172606E0
1.664888915E0,-2.546439648E0,-9.395354986E-1,1.246455789E0
1.667413290E0,-2.611418724E0,-9.682968259E-1,1.293326020E0
1.669948499E0,-2.674267530E0,-9.938623905E-1,1.339131117E0
1.672472874E0,-2.742442369E0,-1.026884675E0,1.393458009E0
1.674997249E0,-2.808486938E0,-1.073754907E0,1.453111053E0
1.677521676E0,-2.876661777E0,-1.131277442E0,1.517024994E0
1.680046051E0,-2.953358650E0,-1.196256638E0,1.580938935E0
1.682570426E0,-3.033117771E0,-1.272953510E0,1.644719839E0
1.685094801E0,-3.115140915E0,-1.343258858E0,1.710764289E0
1.687619176E0,-3.212077141E0,-1.414629459E0,1.773612976E0
1.690143603E0,-3.314339399E0,-1.476279855E0,1.834331274E0
1.692667978E0,-3.416601658E0,-1.529541492E0,1.884397268E0
1.695192353E0,-3.522059917E0,-1.570020318E0,1.928071737E0
1.697716728E0,-3.628449917E0,-1.594520688E0,1.965354919E0
1.700251936E0,-3.722190380E0,-1.609433889E0,1.991985798E0
1.702776311E0,-3.797821999E0,-1.607303500E0,2.009029388E0
1.705300686E0,-3.858540297E0,-1.592390180E0,2.013290405E0
1.707825113E0,-3.889432192E0,-1.565759420E0,2.000507593E0
1.710349488E0,-3.901149750E0,-1.540193796E0,1.971746325E0
1.712873863E0,-3.892627716E0,-1.517823935E0,1.912093282E0
1.715398238E0,-3.857475042E0,-1.496519208E0,1.826874614E0
1.717922613E0,-3.807409048E0,-1.462431788E0,1.720351338E0
1.720447040E0,-3.740299463E0,-1.399716139E0,1.601178408E0
1.722971415E0,-3.654015541E0,-1.303845167E0,1.472285151E0
1.725495790E0,-3.550821066E0,-1.177082539E0,1.344457269E0
1.728020165E0,-3.432580233E0,-1.020493269E0,1.219824910E0
1.730555426E0,-3.302621841E0,-8.383383751E-1,1.089866519E0
1.733079801E0,-3.154554367E0,-6.382077336E-1,9.600412846E-1
1.735604176E0,-2.993704319E0,-4.326177537E-1,8.311480880E-1
1.738128603E0,-2.829791546E0,-2.248973250E-1,7.001243830E-1
1.740652978E0,-2.663615227E0,-2.370143496E-2,5.797531009E-1
1.743177353E0,-2.496373653E0,1.573881805E-1,4.625774324E-1
1.745701728E0,-2.337786913E0,3.139774203E-1,3.583177626E-1
1.748226103E0,-2.196110964E0,4.480636418E-1,2.613815665E-1
1.750750530E0,-2.065087318E0,5.524564981E-1,1.697715074E-1
1.753274905E0,-1.951107383E0,6.366099119E-1,8.774857223E-2
1.755799280E0,-1.858432174E0,6.973281503E-1,1.637795754E-2
1.758323655E0,-1.783865809E0,7.410027385E-1,-4.966649041E-2
1.760858863E0,-1.730737329E0,7.655031085E-1,-1.157109365E-1
1.763383238E0,-1.690258503E0,7.655031085E-1,-1.774944514E-1
1.765907613E0,-1.666823387E0,7.473941445E-1,-2.370143533E-1
1.768432040E0,-1.657236218E0,7.143719196E-1,-2.924064696E-1
1.770956415E0,-1.664692879E0,6.685668826E-1,-3.350157738E-1
1.773480790E0,-1.688127995E0,6.142399907E-1,-3.722989559E-1
1.776005165E0,-1.723280668E0,5.588479042E-1,-3.999949992E-1
1.778529540E0,-1.766822100E0,4.949339032E-1,-4.212996662E-1
1.781053968E0,-1.812627196E0,4.235632718E-1,-4.362129271E-1
1.783578343E0,-1.866953969E0,3.480648994E-1,-4.447347820E-1
1.786102718E0,-1.922346115E0,2.671071887E-1,-4.436695576E-1
1.788627093E0,-1.977738261E0,1.808233112E-1,-4.330172241E-1
1.791162301E0,-2.033130407E0,9.666989744E-2,-4.170387387E-1
1.793686676E0,-2.086391926E0,6.125089712E-3,-3.967992961E-1
1.796211051E0,-2.134327412E0,-9.613727778E-2,-3.701684773E-1
1.798735478E0,-2.179067373E0,-2.142449915E-1,-3.414071798E-1
1.801259853E0,-2.215285301E0,-3.431381881E-1,-3.105154335E-1
1.803784228E0,-2.242981195E0,-4.837489426E-1,-2.721670270E-1
1.806308603E0,-2.268546820E0,-6.435338855E-1,-2.359491140E-1
1.808832978E0,-2.282394886E0,-8.255556226E-1,-2.030600458E-1
1.811357405E0,-2.297308207E0,-1.029015064E0,-1.700378209E-1
1.813881780E0,-2.312221527E0,-1.252714038E0,-1.391460598E-1
1.816406155E0,-2.321808577E0,-1.491193056E0,-1.071890742E-1
1.818930530E0,-2.332460880E0,-1.737261891E0,-7.842778414E-2
1.821465738E0,-2.343113184E0,-1.989722133E0,-4.753602296E-2
1.823990113E0,-2.358958483E0,-2.258027792E0,-2.090519853E-2
1.826514488E0,-2.374937057E0,-2.517944574E0,1.424749196E-2
1.829038915E0,-2.395176411E0,-2.770271540E0,5.259587988E-2
1.831563290E0,-2.421807289E0,-3.007818699E0,9.307473898E-2
1.834087665E0,-2.461220980E0,-3.221930504E0,1.335535944E-1
1.836612040E0,-2.510221720E0,-3.412473917E0,1.825543046E-1
1.839136415E0,-2.564548492E0,-3.574389458E0,2.358159572E-1
1.841660843E0,-2.626332045E0,-3.716065407E0,2.912080884E-1
1.844185218E0,-2.691311121E0,-3.838567257E0,3.455349505E-1
1.846709593E0,-2.754159927E0,-3.937500715E0,3.975982368E-1
1.849233968E0,-2.817008734E0,-4.018458366E0,4.487294257E-1
1.851769228E0,-2.875596523E0,-4.058937073E0,5.009258389E-1
1.854293603E0,-2.928858280E0,-4.046154499E0,5.488613248E-1
1.856817978E0,-2.980921507E0,-3.982240438E0,5.978620052E-1
1.859342405E0,-3.018204689E0,-3.874651909E0,6.468627453E-1
1.861866780E0,-3.037378788E0,-3.730978727E0,6.947982311E-1
1.864391155E0,-3.043770313E0,-3.558410883E0,7.374075651E-1
1.866915530E0,-3.032052755E0,-3.352820873E0,7.768211961E-1
1.869439905E0,-2.994769573E0,-3.114341974E0,8.141043186E-1
1.871964332E0,-2.944836617E0,-2.849098921E0,8.386046886E-1
1.874488707E0,-2.877727032E0,-2.552031994E0,8.524527550E-1
1.877013082E0,-2.798899889E0,-2.234592676E0,8.577789068E-1
1.879537457E0,-2.723268270E0,-1.906633973E0,8.577789068E-1
1.882072665E0,-2.643375635E0,-1.585998774E0,8.471265435E-1
1.884597040E0,-2.569874763E0,-1.286801457E0,8.332785368E-1
1.887121415E0,-2.500634432E0,-1.017297506E0,8.119738698E-1
1.889645843E0,-2.435655355E0,-7.841446400E-1,7.874734998E-1
1.892170218E0,-2.378132820E0,-5.945332050E-1,7.608426809E-1
1.894694593E0,-2.330330372E0,-4.443353117E-1,7.310161591E-1
1.897218968E0,-2.286655903E0,-3.314206302E-1,7.001243830E-1
1.899743343E0,-2.249372721E0,-2.632457018E-1,6.681674123E-1
1.902267770E0,-2.213154793E0,-2.376801223E-1,6.351451874E-1
1.904792145E0,-2.184393406E0,-2.504629195E-1,6.053186655E-1
1.907316520E0,-2.159893036E0,-2.909417748E-1,5.829487443E-1
1.909840895E0,-2.143914700E0,-3.601819277E-1,5.595136285E-1
1.912376103E0,-2.139653683E0,-4.464657903E-1,5.339480639E-1
1.914900478E0,-2.138588428E0,-5.529890656E-1,5.105129480E-1
1.917424853E0,-2.143914700E0,-6.669690013E-1,4.924039543E-1
1.919949280E0,-2.154567003E0,-7.841446400E-1,4.796211720E-1
1.922473655E0,-2.165219307E0,-9.139699340E-1,4.700340629E-1
1.924998030E0,-2.174806356E0,-1.042863131E0,4.604469836E-1
1.927522405E0,-2.185458660E0,-1.168560624E0,4.583165050E-1
1.930046780E0,-2.196110964E0,-1.284671068E0,4.583165050E-1
1.932571207E0,-2.206763268E0,-1.387998581E0,4.625774324E-1
1.935095582E0,-2.217415810E0,-1.482671261E0,4.679036140E-1
1.937619957E0,-2.227002859E0,-1.566824675E0,4.796211720E-1
1.940144332E0,-2.231263638E0,-1.640325665E0,4.966649115E-1
1.942679540E0,-2.237655163E0,-1.711696267E0,5.115781426E-1
1.945203915E0,-2.237655163E0,-1.779871225E0,5.328828096E-1
1.947728290E0,-2.236589909E0,-1.836328626E0,5.584484339E-1
1.950252718E0,-2.230198383E0,-1.882133603E0,5.818835497E-1
1.952777093E0,-2.217415810E0,-1.913025379E0,6.063839197E-1
1.955301468E0,-2.200371981E0,-1.929003835E0,6.234276295E-1
1.957825843E0,-2.176936865E0,-1.933264732E0,6.362104416E-1
1.960350218E0,-2.153501749E0,-1.929003835E0,6.468627453E-1
1.962874645E0,-2.121544838E0,-1.924742937E0,6.532541513E-1
1.965399020E0,-2.090652943E0,-1.917286277E0,6.607108116E-1
1.967923395E0,-2.053369761E0,-1.908764482E0,6.607108116E-1
1.970447770E0,-2.017151833E0,-1.881068349E0,6.564498544E-1
1.972983030E0,-1.979868770E0,-1.848046184E0,6.457974911E-1
1.975507405E0,-1.941520333E0,-1.817154408E0,6.308842301E-1
1.978031780E0,-1.905302405E0,-1.784132123E0,6.159709692E-1
1.980556207E0,-1.863758326E0,-1.752175212E0,5.999925137E-1
1.983080582E0,-1.820083737E0,-1.717022538E0,5.818835497E-1
1.985604957E0,-1.776409268E0,-1.678674102E0,5.627093315E-1
1.988129332E0,-1.729672074E0,-1.636064768E0,5.382089615E-1
1.990653707E0,-1.682801843E0,-1.599846840E0,5.083824396E-1
1.993178134E0,-1.635931611E0,-1.564694166E0,4.785559475E-1
1.995702509E0,-1.585865617E0,-1.526345730E0,4.444684684E-1
1.998226884E0,-1.535799742E0,-1.483736396E0,4.114462435E-1
2.000751259E0,-1.484668493E0,-1.446453333E0,3.817528784E-1
2.003286468E0,-1.431406856E0,-1.405042410E0,3.540568352E-1
2.005810843E0,-1.380275726E0,-1.364563465E0,3.220998347E-1
2.008335218E0,-1.328079224E0,-1.325149894E0,2.869471312E-1
2.010859645E0,-1.276948094E0,-1.280410051E0,2.507292330E-1
2.013384020E0,-1.231143117E0,-1.235670328E0,2.134460658E-1
2.015908395E0,-1.176816225E0,-1.185604334E0,1.708367467E-1
2.018432770E0,-1.123687744E0,-1.136603594E0,1.292926520E-1
2.020957145E0,-1.070425987E0,-1.088668108E0,8.987903595E-2
2.023481572E0,-1.019294858E0,-1.043928385E0,4.940018058E-2
2.026005947E0,-9.670984149E-1,-9.959928989E-1,1.105179265E-2
2.028530322E0,-9.117063284E-1,-9.544488192E-1,-2.942706272E-2
2.031054697E0,-8.584446907E-1,-9.129046798E-1,-6.990591437E-2
2.033589801E0,-8.019872904E-1,-8.798824549E-1,-1.103847697E-1
2.036114905E0,-7.519213557E-1,-8.511211872E-1,-1.497983932E-1
2.038640009E0,-6.975944638E-1,-8.192973733E-1,-1.966686398E-1
2.041165113E0,-6.390066743E-1,-7.798837423E-1,-2.434057444E-1
2.043690218E0,-5.846797824E-1,-7.489919662E-1,-2.902759910E-1
2.046215322E0,-5.324833393E-1,-7.181001902E-1,-3.360810280E-1
2.048740426E0,-4.793548584E-1,-6.829475164E-1,-3.829512596E-1
2.051265530E0,-4.197018147E-1,-6.467295885E-1,-4.266258180E-1
2.053790686E0,-3.611139953E-1,-6.062507629E-1,-4.681699276E-1
2.056315790E0,-2.982652485E-1,-5.551195741E-1,-5.065183043E-1
2.058840895E0,-2.364817262E-1,-5.039883852E-1,-5.459319353E-1
2.061365999E0,-1.725677550E-1,-4.422048628E-1,-5.853455663E-1
2.063932718E0,-1.022623703E-1,-3.782908916E-1,-6.226286888E-1
2.066457822E0,-3.621792421E-2,-3.175725937E-1,-6.513900161E-1
2.068982926E0,3.195698932E-2,-2.557890713E-1,-6.865426898E-1
2.071508030E0,1.042596847E-1,-1.994648874E-1,-7.216953635E-1
2.074033134E0,1.713693589E-1,-1.451379955E-1,-7.525871396E-1
2.076558238E0,2.352833450E-1,-8.868064731E-2,-7.856093645E-1
2.079083343E0,2.991973162E-1,-3.861469775E-2,-8.259550333E-1
2.081608447E0,3.631113172E-1,6.125089712E-3,-8.653686643E-1
2.084133551E0,4.227643609E-1,4.660394415E-2,-9.037170410E-1
2.086658655E0,4.834826291E-1,9.134373069E-2,-9.484568238E-1
2.089183759E0,5.335485935E-1,1.233007237E-1,-9.889357090E-1
2.091708863E0,5.878754854E-1,1.467358470E-1,-1.032610297E0
2.094196676E0,6.411371231E-1,1.691057384E-1,-1.080545783E0
2.096721780E0,6.932004094E-1,1.904104054E-1,-1.133807421E0
2.099246884E0,7.390053868E-1,2.106498331E-1,-1.184938550E0
2.101771988E0,7.880061269E-1,2.308892608E-1,-1.235004544E0
2.104297093E0,8.338111639E-1,2.500634491E-1,-1.291461945E0
2.106822197E0,8.817466497E-1,2.681724131E-1,-1.346853971E0
2.109347301E0,9.275516272E-1,2.926727831E-1,-1.401180863E0
2.111872405E0,9.627043605E-1,3.171731234E-1,-1.460700750E0
2.114397561E0,9.935960770E-1,3.374125659E-1,-1.515027642E0
2.116922665E0,1.019161701E0,3.533910513E-1,-1.569354534E0
2.119447770E0,1.039401174E0,3.661738634E-1,-1.622616172E0
2.121972874E0,1.044727325E0,3.757609427E-1,-1.670551658E0
2.124500113E0,1.028748751E0,3.768261969E-1,-1.712095737E0
2.127025218E0,9.925308824E-1,3.661738634E-1,-1.742987514E0
2.129550322E0,9.339430332E-1,3.587172329E-1,-1.760031223E0
2.132075426E0,8.338111639E-1,3.512606025E-1,-1.768553138E0
2.134600530E0,6.868090034E-1,3.406082690E-1,-1.757900834E0
2.137125634E0,5.101134777E-1,3.001294136E-1,-1.733400464E0
2.139650738E0,2.981320918E-1,2.415415943E-1,-1.691856384E0
2.142175843E0,4.793548584E-2,1.904104054E-1,-1.625811934E0
2.144700999E0,-2.354165018E-1,1.595186442E-1,-1.531006217E0
2.147226103E0,-5.198337436E-1,1.350182891E-1,-1.417159438E0
2.149751207E0,-7.487256527E-1,1.062569916E-1,-1.287200928E0
2.152276311E0,-8.776188493E-1,3.382114694E-2,-1.146590233E0
2.154803551E0,-8.850755095E-1,-8.441971987E-2,-9.942618608E-1
2.157328655E0,-7.817478776E-1,-2.589847744E-1,-8.472597003E-1
2.159853759E0,-5.942668915E-1,-4.944012761E-1,-7.302172184E-1
2.162378863E0,-3.334179223E-1,-7.862751484E-1,-6.556509137E-1
2.164903968E0,-2.663082629E-2,-1.081211567E0,-6.109111309E-1
2.167429072E0,2.970668674E-1,-1.311301827E0,-5.864107609E-1
2.169954176E0,6.049191952E-1,-1.417825103E0,-5.757584572E-1
2.172479280E0,8.710942864E-1,-1.350715518E0,-5.778889060E-1
2.175004436E0,1.090532303E0,-1.112103224E0,-6.045197248E-1
2.177529540E0,1.267361045E0,-7.585790753E-1,-6.588466167E-1
2.180054645E0,1.408903837E0,-3.750951886E-1,-7.483261824E-1
2.182579749E0,1.507970452E0,-2.370143496E-2,-8.611077666E-1
2.185107040E0,1.551645041E0,2.724333405E-1,-9.825443029E-1
2.187632145E0,1.533536077E0,5.311518312E-1,-1.093328595E0
2.190157249E0,1.450447917E0,7.708292603E-1,-1.181742907E0
2.192682353E0,1.313032866E0,9.785496593E-1,-1.238200188E0
2.195207457E0,1.155511498E0,1.119027257E0,-1.264831066E0
2.197732561E0,1.001052737E0,1.155245185E0,-1.268026710E0
2.200257665E0,8.977251053E-1,1.066830873E0,-1.261635303E0
2.202782770E0,8.710942864E-1,8.954614997E-1,-1.252048254E0
2.205307926E0,9.094427228E-1,7.090457082E-1,-1.244591594E0
2.207833030E0,9.786828160E-1,5.588479042E-1,-1.241395950E0
2.210358134E0,1.043662071E0,4.661726058E-1,-1.242461205E0
2.212883238E0,1.103315115E0,4.214328229E-1,-1.254178762E0
2.215410478E0,1.162968159E0,4.139761925E-1,-1.276548624E0
2.217935582E0,1.235404015E0,4.214328229E-1,-1.314897060E0
2.220460686E0,1.319424272E0,4.448679388E-1,-1.370289087E0
2.222985790E0,1.395055771E0,4.821510911E-1,-1.428876996E0
2.225510895E0,1.458969831E0,5.311518312E-1,-1.495853424E0
2.228035999E0,1.515427113E0,5.812177658E-1,-1.565093637E0
2.230561103E0,1.572949767E0,6.312837005E-1,-1.635398984E0
2.233086207E0,1.615558982E0,6.888062954E-1,-1.698247790E0
2.235611363E0,1.646450758E0,7.484593391E-1,-1.754705071E0
2.238136468E0,1.666690230E0,8.091776371E-1,-1.804771066E0
2.240661572E0,1.691190600E0,8.517869711E-1,-1.842054248E0
2.243186676E0,1.725278020E0,8.645697236E-1,-1.865489364E0
2.245713915E0,1.759365439E0,8.485912681E-1,-1.872945905E0
2.248239020E0,1.788126826E0,8.027862310E-1,-1.863358855E0
2.250764124E0,1.803040028E0,7.335460782E-1,-1.840988994E0
2.253289228E0,1.798779130E0,6.536536217E-1,-1.809031963E0
2.255814332E0,1.788126826E0,5.695002079E-1,-1.760031223E0
2.258339436E0,1.765756845E0,4.810858667E-1,-1.707834840E0
2.260864540E0,1.734865189E0,3.885437548E-1,-1.647116542E0
2.263389645E0,1.703973413E0,2.894770801E-1,-1.587463498E0
2.265914801E0,1.673081636E0,1.893451661E-1,-1.521419048E0
2.268439905E0,1.632602811E0,8.069140464E-2,-1.457505107E0
2.270965009E0,1.587862968E0,-8.788172156E-3,-1.386267662E0
2.273490113E0,1.547384143E0,-7.909355313E-2,-1.308505654E0
2.276017353E0,1.510100961E0,-1.291595101E-1,-1.232874036E0
2.278542457E0,1.474948287E0,-1.579207927E-1,-1.158307791E0
2.281067561E0,1.451513171E0,-1.653774232E-1,-1.088002324E0
2.283592665E0,1.435534596E0,-1.536598653E-1,-1.024088383E0
2.286117770E0,1.423817039E0,-1.270290315E-1,-9.665657878E-1
2.288642874E0,1.419556141E0,-8.548495173E-2,-9.196955562E-1
2.291167978E0,1.425947547E0,-3.115806542E-2,-8.824124336E-1
2.293693082E0,1.445121765E0,3.275591508E-2,-8.483249545E-1
2.296218238E0,1.466426373E0,9.986559302E-2,-8.216941357E-1
2.298743343E0,1.497318149E0,1.797580719E-1,-7.973269224E-1
2.301268447E0,1.530340433E0,2.639114857E-1,-7.760222554E-1
2.303793551E0,1.567623496E0,3.555215299E-1,-7.579132915E-1
2.306320843E0,1.609167695E0,4.555202723E-1,-7.419347763E-1
2.308845947E0,1.654972672E0,5.588479042E-1,-7.270215154E-1
2.311371051E0,1.701842904E0,6.643059254E-1,-7.153039575E-1
2.313896155E0,1.748713136E0,7.633726001E-1,-7.078473568E-1
2.316421259E0,1.800909638E0,8.635045290E-1,-7.003906965E-1
2.318946363E0,1.848845124E0,9.572450519E-1,-6.918688416E-1
2.321471468E0,1.894650102E0,1.039134860E0,-6.854774356E-1
2.323996572E0,1.939256668E0,1.115831614E0,-6.812165380E-1
2.326521728E0,1.980800867E0,1.182941318E0,-6.748251319E-1
2.329046832E0,2.019149303E0,1.239398599E0,-6.726946831E-1
2.331571936E0,2.056432247E0,1.285203695E0,-6.726946831E-1
2.334097040E0,2.086258888E0,1.320356369E0,-6.694989800E-1
2.336624280E0,2.115020275E0,1.343791485E0,-6.748251319E-1
2.339149384E0,2.140585661E0,1.351248145E0,-6.737598777E-1
2.341674488E0,2.161890507E0,1.339530468E0,-6.748251319E-1
2.344199593E0,2.183195114E0,1.321421623E0,-6.790860295E-1
2.346724697E0,2.199173689E0,1.306508303E0,-6.822817326E-1
2.349249801E0,2.208760738E0,1.284138441E0,-6.865426898E-1
2.351774905E0,2.222608805E0,1.261768460E0,-6.971949935E-1
2.354300009E0,2.231130600E0,1.244724751E0,-7.099778056E-1
2.356825165E0,2.242848158E0,1.227681041E0,-7.227606177E-1
2.359350270E0,2.251369953E0,1.209572077E0,-7.334129214E-1
2.361875374E0,2.255630970E0,1.187202215E0,-7.483261824E-1
2.364400478E0,2.256696224E0,1.165897489E0,-7.696308494E-1
2.366927770E0,2.262022257E0,1.141397238E0,-7.856093645E-1
2.369452874E0,2.268413782E0,1.120092511E0,-8.015878797E-1
2.371977978E0,2.272674561E0,1.099853039E0,-8.154358864E-1
2.374503082E0,2.275870323E0,1.075352788E0,-8.291507363E-1
2.377028186E0,2.279066086E0,1.046591401E0,-8.483249545E-1
2.379553290E0,2.280131340E0,1.015699744E0,-8.664339185E-1
2.382078395E0,2.276935577E0,9.870715737E-1,-8.813471794E-1
2.384603499E0,2.270544291E0,9.487231374E-1,-9.037170410E-1
2.387128655E0,2.259891748E0,9.093095660E-1,-9.250217080E-1
2.389653759E0,2.244978666E0,8.773525357E-1,-9.473916292E-1
2.392178863E0,2.226869583E0,8.571131229E-1,-9.686962962E-1
2.394703968E0,2.213021517E0,8.443303108E-1,-9.878704548E-1
2.397231207E0,2.200238705E0,8.411346078E-1,-1.003849030E0
2.399756311E0,2.188521147E0,8.464608192E-1,-1.018762231E0
2.402281415E0,2.179999352E0,8.571131229E-1,-1.032610297E0
2.404806520E0,2.173608065E0,8.667002320E-1,-1.044327855E0
2.407331624E0,2.167216539E0,8.805482388E-1,-1.053914905E0
2.409856728E0,2.164020777E0,8.912006021E-1,-1.063502073E0
2.412381832E0,2.171477556E0,8.943963051E-1,-1.067762971E0
2.414906936E0,2.179999352E0,8.880048990E-1,-1.069893360E0
2.417432093E0,2.189586401E0,8.826786876E-1,-1.068828225E0
2.419957197E0,2.200238705E0,8.922657967E-1,-1.068828225E0
2.422482301E0,2.206630230E0,9.210271239E-1,-1.062436819E0
2.425007405E0,2.216217279E0,9.678973556E-1,-1.060306311E0
2.427534697E0,2.225804329E0,1.017830133E0,-1.057110667E0
2.430059801E0,2.238587141E0,1.073222280E0,-1.053914905E0
2.432584905E0,2.251369953E0,1.127549171E0,-1.050719261E0
2.435110009E0,2.266283274E0,1.185071707E0,-1.047523499E0
2.437635113E0,2.279066086E0,1.239398599E0,-1.044327855E0
2.440160218E0,2.297174931E0,1.291594982E0,-1.036871195E0
2.442685322E0,2.315284014E0,1.343791485E0,-1.027284145E0
2.445210426E0,2.338719130E0,1.387466073E0,-1.015566587E0
2.447735582E0,2.364284754E0,1.429010153E0,-9.974575639E-1
2.450260686E0,2.387719870E0,1.458836675E0,-9.782834053E-1
2.452785790E0,2.409024477E0,1.482271791E0,-9.505873322E-1
2.455310895E0,2.426068306E0,1.499315500E0,-9.143694043E-1
2.457838134E0,2.438851118E0,1.513163567E0,-8.706948161E-1
2.460363238E0,2.444177151E0,1.522750616E0,-8.216941357E-1
2.462888343E0,2.445242405E0,1.515293956E0,-7.738918066E-1
2.465413447E0,2.447372913E0,1.492924094E0,-7.227606177E-1
2.467938551E0,2.448438168E0,1.454575658E0,-6.705641747E-1
2.470463655E0,2.448438168E0,1.402379274E0,-6.194329858E-1
2.472988759E0,2.439916134E0,1.343791485E0,-5.736280084E-1
2.475513863E0,2.426068306E0,1.290529847E0,-5.299534202E-1
2.478039020E0,2.401567936E0,1.243659496E0,-4.873441160E-1
2.480564124E0,2.373871803E0,1.206376433E0,-4.415390790E-1
2.483089228E0,2.348306179E0,1.166962743E0,-4.042559266E-1
2.485614332E0,2.314218760E0,1.133940578E0,-3.701684773E-1
2.488141624E0,2.280131340E0,1.103048801E0,-3.435376585E-1
2.490666728E0,2.239652395E0,1.073222280E0,-3.254286945E-1
2.493191832E0,2.202369213E0,1.050852418E0,-3.094501793E-1
2.495716936E0,2.169347048E0,1.026352048E0,-2.966673970E-1
2.498242040E0,2.143781424E0,1.008243084E0,-2.838846147E-1
2.500767145E0,2.118215799E0,9.870715737E-1,-2.721670270E-1
2.503292249E0,2.095845938E0,9.689626098E-1,-2.593842447E-1
2.505817353E0,2.079867363E0,9.529840946E-1,-2.466014475E-1
2.508342509E0,2.062823772E0,9.338098764E-1,-2.295577228E-1
2.510867613E0,2.043649673E0,9.188966155E-1,-2.115819156E-1
2.513392718E0,2.027671099E0,9.029181600E-1,-1.945381761E-1
2.515917822E0,2.009562016E0,8.848091960E-1,-1.764292270E-1
2.518445061E0,1.992518425E0,8.677654266E-1,-1.625811905E-1
2.520970165E0,1.965887547E0,8.549826741E-1,-1.455374658E-1
2.523495270E0,1.939256668E0,8.379389048E-1,-1.348851323E-1
2.526020374E0,1.907299757E0,8.262213469E-1,-1.252980381E-1
2.528545478E0,1.876541138E0,8.123733401E-1,-1.199718714E-1
2.531070582E0,1.837127447E0,7.942643762E-1,-1.157109365E-1
2.533595686E0,1.797713876E0,7.729597092E-1,-1.146457046E-1
2.536120790E0,1.757235050E0,7.505898476E-1,-1.157109365E-1
2.538645947E0,1.712495208E0,7.228937745E-1,-1.210371032E-1
2.541171051E0,1.664559722E0,6.866758466E-1,-1.295589656E-1
2.543696155E0,1.617689490E0,6.493926644E-1,-1.391460598E-1
2.546221259E0,1.569754004E0,6.078485847E-1,-1.487331539E-1
2.548748551E0,1.519688010E0,5.673697591E-1,-1.583202630E-1
2.551273811E0,1.470687389E0,5.247604251E-1,-1.721682847E-1
2.553799072E0,1.428078055E0,4.810858667E-1,-1.849510819E-1
2.556324332E0,1.382272959E0,4.448679388E-1,-1.987991184E-1
2.558849540E0,1.337533236E0,4.107804894E-1,-2.094514370E-1
2.561374801E0,1.295989156E0,3.821523488E-1,-2.221010923E-1
2.563900061E0,1.258839130E0,3.565867543E-1,-2.348838747E-1
2.566425322E0,1.221555948E0,3.352820873E-1,-2.476666719E-1
2.568950582E0,1.194925189E0,3.235645294E-1,-2.615146935E-1
2.571475843E0,1.165098667E0,3.097164929E-1,-2.796236575E-1
2.574001051E0,1.143793941E0,2.990641594E-1,-2.913412452E-1
2.576526311E0,1.127815485E0,2.905423045E-1,-3.009283245E-1
2.579051988E0,1.113967419E0,2.820204496E-1,-3.137111366E-1
2.581577249E0,1.101184607E0,2.734985650E-1,-3.179720640E-1
2.584102509E0,1.092662811E0,2.596505582E-1,-3.232982159E-1
2.586627770E0,1.082010388E0,2.458025217E-1,-3.275591433E-1
2.589152978E0,1.074553847E0,2.298240215E-1,-3.254286945E-1
2.591678238E0,1.066031933E0,2.138455361E-1,-3.222329915E-1
2.594203499E0,1.051118731E0,1.936061084E-1,-3.211677670E-1
2.596728759E0,1.034074903E0,1.669752747E-1,-3.158415854E-1
2.599254020E0,1.011705041E0,1.318225861E-1,-3.083849549E-1
2.601779280E0,9.872047305E-1,9.560466558E-2,-3.051892519E-1
2.604304488E0,9.573782086E-1,5.406057462E-2,-3.009283245E-1
2.606829749E0,9.264864326E-1,1.038602181E-2,-2.998631001E-1
2.609355478E0,8.966599107E-1,-2.902759984E-2,-2.987978756E-1
2.611880738E0,8.636376858E-1,-6.418029219E-2,-2.987978756E-1
2.614405999E0,8.327459097E-1,-9.187635034E-2,-3.009283245E-1
2.616931259E0,8.007889390E-1,-1.163767055E-1,-2.998631001E-1
2.619456468E0,7.698971629E-1,-1.334204376E-1,-2.998631001E-1
2.621981728E0,7.432663441E-1,-1.408770680E-1,-3.009283245E-1
2.624506988E0,7.166355252E-1,-1.419423074E-1,-3.019935489E-1
2.627032249E0,6.889394522E-1,-1.376813650E-1,-2.998631001E-1
2.629557509E0,6.645722389E-1,-1.291595101E-1,-2.987978756E-1
2.632082770E0,6.422023773E-1,-1.142462417E-1,-2.998631001E-1
2.634607978E0,6.283543110E-1,-9.400681406E-2,-3.041240275E-1
2.637133238E0,6.198324561E-1,-7.163692266E-2,-3.030588031E-1
2.639658968E0,6.123758554E-1,-3.967992961E-2,-3.030588031E-1
2.642184228E0,6.134410501E-1,3.994623665E-3,-3.041240275E-1
2.644709488E0,6.208977103E-1,6.151720881E-2,-3.083849549E-1
2.647234749E0,6.315500140E-1,1.318225861E-1,-3.126458824E-1
2.649759957E0,6.475285292E-1,2.138455361E-1,-3.190372884E-1
2.652285218E0,6.656374931E-1,3.129121959E-1,-3.254286945E-1
2.654810478E0,6.889394522E-1,4.224980474E-1,-3.264939189E-1
2.657335738E0,7.198312283E-1,5.386084318E-1,-3.296896219E-1
2.659860999E0,7.432663441E-1,6.557840705E-1,-3.328853250E-1
2.662386259E0,7.688319087E-1,7.718944550E-1,-3.382114768E-1
2.664911468E0,7.997236848E-1,8.826786876E-1,-3.424724042E-1
2.667436728E0,8.274197578E-1,9.849410653E-1,-3.467333615E-1
2.669962405E0,8.551158309E-1,1.073222280E0,-3.552552164E-1
2.672487665E0,8.838770986E-1,1.145658135E0,-3.648423254E-1
2.675012926E0,9.094427228E-1,1.204245925E0,-3.691032529E-1
2.677538186E0,9.307473302E-1,1.250050902E0,-3.744294047E-1
2.680063395E0,9.488562942E-1,1.268159866E0,-3.786903322E-1
2.682588655E0,9.690957665E-1,1.258572817E0,-3.808208108E-1
2.685113915E0,9.872047305E-1,1.214898229E0,-3.765598834E-1
2.687639176E0,1.005313635E0,1.140331984E0,-3.712337017E-1
2.690164436E0,1.025553107E0,1.033808708E0,-3.563204408E-1
2.692689697E0,1.037270665E0,8.943963051E-1,-3.328853250E-1
2.695214905E0,1.050053477E0,7.356765866E-1,-3.051892519E-1
2.697740165E0,1.063901424E0,5.631088018E-1,-2.753627300E-1
2.700265895E0,1.071358085E0,3.768261969E-1,-2.391448170E-1
2.702791155E0,1.082010388E0,1.893451661E-1,-2.019948065E-1
2.705316415E0,1.097988963E0,1.145125460E-2,-1.636464298E-1
2.707841676E0,1.115032673E0,-1.440727711E-1,-1.295589656E-1
2.710366884E0,1.132076383E0,-2.760285139E-1,-9.440627694E-2
2.712892145E0,1.161902905E0,-3.772256374E-1,-6.351451576E-2
2.715417405E0,1.192794681E0,-4.496614933E-1,-3.368799388E-2
2.717942665E0,1.231143117E0,-4.901403487E-1,-4.926702939E-3
2.720467926E0,1.274817586E0,-5.029231310E-1,1.531272475E-2
2.722993186E0,1.316228509E0,-4.901403487E-1,2.703028731E-2
2.725518395E0,1.357772589E0,-4.560528994E-1,3.661738336E-2
2.728043655E0,1.397186279E0,-3.974650800E-1,3.661738336E-2
2.730569384E0,1.432338953E0,-3.154421151E-1,3.342168778E-2
2.733094645E0,1.456839323E0,-2.185059190E-1,2.596505545E-2
2.735619905E0,1.478143930E0,-1.110505462E-1,1.744319126E-2
2.738145165E0,1.493057251E0,-3.462007269E-3,7.856093347E-3
2.740670374E0,1.495187759E0,1.062569916E-1,-2.796236658E-3
2.743195634E0,1.483470082E0,2.095845938E-1,-1.451379992E-2
2.745720895E0,1.468556881E0,2.979989350E-1,-2.197043039E-2
2.748246155E0,1.449382663E0,3.757609427E-1,-2.836182900E-2
2.750771415E0,1.415295243E0,4.288894534E-1,-2.942706272E-2
2.753296676E0,1.380142570E0,4.597811997E-1,-2.197043039E-2
2.755821884E0,1.335402727E0,4.661726058E-1,-1.557903271E-2
2.758347145E0,1.281208992E0,4.576507509E-1,-5.991935730E-3
2.760872822E0,1.222621202E0,4.342156053E-1,9.986559860E-3
2.763398082E0,1.158707261E0,3.969324529E-1,3.129122034E-2
2.765923343E0,1.092662811E0,3.406082690E-1,5.685681105E-2
2.768448603E0,1.031944513E0,2.777595222E-1,8.242240548E-2
2.770973811E0,9.722914696E-1,2.074541301E-1,1.069227681E-1
2.773499072E0,9.211602807E-1,1.264964193E-1,1.346188188E-1
2.776024332E0,8.785509467E-1,3.701684624E-2,1.601844132E-1
2.778549593E0,8.412677646E-1,-5.352795869E-2,1.825543046E-1
2.781074853E0,8.103760481E-1,-1.398118287E-1,2.006632686E-1
2.783600113E0,7.890713811E-1,-2.174406946E-1,2.177069932E-1
2.786125322E0,7.720276117E-1,-2.877460718E-1,2.315550297E-1
2.788650582E0,7.549839020E-1,-3.473991156E-1,2.422073632E-1
2.791176311E0,7.347444892E-1,-3.995955288E-1,2.507292330E-1
2.793701572E0,7.166355252E-1,-4.475310147E-1,2.624467909E-1
2.796226832E0,6.942656040E-1,-4.869446456E-1,2.720338702E-1
2.798752093E0,6.624417901E-1,-5.189016461E-1,2.858819067E-1
2.801277301E0,6.198324561E-1,-5.412715077E-1,2.975994647E-1
2.803802561E0,5.697665215E-1,-5.583152771E-1,3.199693561E-1
2.806327822E0,5.122439265E-1,-5.710980296E-1,3.476654291E-1
2.808853082E0,4.451342523E-1,-5.838808417E-1,3.796224296E-1
2.811378343E0,3.758940995E-1,-5.934679508E-1,4.146419466E-1
2.813903603E0,3.034582436E-1,-6.009245515E-1,4.572512805E-1
2.816428811E0,2.320876420E-1,-6.126421690E-1,4.966649115E-1
2.818954072E0,1.564560980E-1,-6.232944727E-1,5.339480639E-1
2.821479749E0,8.188978583E-2,-6.360772848E-1,5.701659918E-1
2.824005009E0,1.171756350E-2,-6.467295885E-1,6.063839197E-1
2.826530270E0,-5.965305120E-2,-6.605776548E-1,6.372756362E-1
2.829055530E0,-1.331541240E-1,-6.754909158E-1,6.660369635E-1
2.831580738E0,-2.066552043E-1,-6.861432195E-1,6.947982311E-1
2.834105999E0,-2.812215090E-1,-6.914693713E-1,7.224943042E-1
2.836631259E0,-3.600487709E-1,-6.978607774E-1,7.512555718E-1
2.839156520E0,-4.431369305E-1,-7.053174376E-1,7.736254930E-1
2.841681780E0,-5.262250900E-1,-7.106435895E-1,7.938649058E-1
2.844207040E0,-6.145063043E-1,-7.127740383E-1,8.173000216E-1
2.846732249E0,-7.007901669E-1,-7.181001902E-1,8.322132826E-1
2.849257509E0,-7.838783264E-1,-7.298177481E-1,8.471265435E-1
2.851783238E0,-8.584446907E-1,-7.415353656E-1,8.545832038E-1
2.854308499E0,-9.319457412E-1,-7.596443295E-1,8.599093556E-1
2.856833759E0,-9.979901910E-1,-7.852098942E-1,8.567136526E-1
2.859359020E0,-1.060838938E0,-8.255556226E-1,8.439308405E-1
2.861884228E0,-1.118361473E0,-8.734911084E-1,8.215609789E-1
2.864409488E0,-1.166163802E0,-9.437964559E-1,7.864083052E-1
2.866934749E0,-1.216229796E0,-1.027949810E0,7.469946742E-1
2.869460009E0,-1.265230536E0,-1.127016544E0,6.958634853E-1
2.871985270E0,-1.314231277E0,-1.237800717E0,6.415365934E-1
2.874510530E0,-1.368558168E0,-1.348585010E0,5.893401504E-1
2.877035738E0,-1.422885060E0,-1.464562297E0,5.403394699E-1
2.879560999E0,-1.480407596E0,-1.578542233E0,4.945344329E-1
2.882086676E0,-1.547517300E0,-1.695717812E0,4.604469836E-1
2.884611936E0,-1.617822647E0,-1.805436850E0,4.359466136E-1
2.887137197E0,-1.687062860E0,-1.901307821E0,4.167724252E-1
2.889662457E0,-1.760430694E0,-1.989722133E0,4.114462435E-1
2.892187665E0,-1.836062312E0,-2.062024832E0,4.167724252E-1
2.894712926E0,-1.913824320E0,-2.121677876E0,4.370118380E-1
2.897238186E0,-1.993716717E0,-2.166417599E0,4.625774324E-1
2.899763447E0,-2.075739622E0,-2.188787460E0,4.945344329E-1
2.902288707E0,-2.154567003E0,-2.190917969E0,5.328828096E-1
2.904813968E0,-2.235524654E0,-2.176004648E0,5.744268894E-1
2.907339176E0,-2.318612814E0,-2.147243500E0,6.212971807E-1
2.909864436E0,-2.401567936E0,-2.108895063E0,6.713631153E-1
2.912429645E0,-2.488916874E0,-2.066285849E0,7.256900072E-1
2.914954853E0,-2.582657576E0,-2.034461975E0,7.821473479E-1
2.917480113E0,-2.684919834E0,-2.005700588E0,8.503222466E-1
2.920005374E0,-2.787182093E0,-1.983330727E0,9.259538054E-1
2.922530634E0,-2.896901131E0,-1.981200218E0,1.004647851E0
2.925055895E0,-3.012878418E0,-1.983330727E0,1.081344724E0
2.927581155E0,-3.126858473E0,-1.997178793E0,1.153780460E0
2.930106415E0,-3.244034052E0,-2.025939941E0,1.219824910E0
2.932631624E0,-3.356948614E0,-2.057763815E0,1.280543208E0
2.935156884E0,-3.468798161E0,-2.085459948E0,1.329543948E0
2.937682145E0,-3.564669132E0,-2.105699301E0,1.372153282E0
2.940207405E0,-3.649754763E0,-2.103569031E0,1.399849296E0
2.942693655E0,-3.715799093E0,-2.074807644E0,1.412632108E0
2.945218915E0,-3.761604071E0,-2.020613909E0,1.409436464E0
2.947744176E0,-3.783973932E0,-1.944982290E0,1.383870840E0
2.950269436E0,-3.785039186E0,-1.850176573E0,1.358305216E0
2.952794645E0,-3.767995596E0,-1.738327146E0,1.328478694E0
2.955319905E0,-3.731777668E0,-1.604107738E0,1.286934614E0
2.957845165E0,-3.687037706E0,-1.462431788E0,1.241129637E0
2.960370426E0,-3.626319408E0,-1.308106184E0,1.187867999E0
2.962895686E0,-3.551886320E0,-1.144060254E0,1.132475853E0
2.965420947E0,-3.475189686E0,-9.746882319E-1,1.070692301E0
2.967946155E0,-3.394231796E0,-8.065145612E-1,1.002650619E0
2.970471415E0,-3.315404654E0,-6.467295885E-1,9.398018122E-1
2.973036572E0,-3.233381748E0,-5.061188340E-1,8.748226166E-1
2.975561780E0,-3.158815384E0,-3.804213405E-1,8.119738698E-1
2.978087040E0,-3.089575291E0,-2.707023323E-1,7.523208261E-1
2.980612301E0,-3.022465467E0,-1.845516264E-1,6.852111220E-1
2.983137561E0,-2.961880445E0,-1.174419373E-1,6.255580783E-1
2.985662822E0,-2.909683943E0,-7.057169080E-2,5.659050345E-1
2.988188082E0,-2.858552933E0,-4.926702753E-2,5.073172450E-1
2.990713343E0,-2.808486938E0,-6.204982474E-2,4.497946501E-1
2.993238551E0,-2.761616707E0,-1.046591476E-1,3.870790601E-1
2.995763811E0,-2.708354950E0,-1.707035899E-1,3.220998347E-1
2.998289072E0,-2.656158447E0,-2.664414048E-1,2.571206093E-1
3.000814332E0,-2.596505404E0,-3.868127465E-1,1.878804713E-1
3.003300582E0,-2.529395819E0,-5.316844583E-1,1.271621883E-1
3.005825843E0,-2.461220980E0,-6.946650743E-1,8.029194176E-2
3.008351103E0,-2.396241665E0,-8.788172603E-1,3.874785081E-2
3.010876363E0,-2.338852167E0,-1.076950550E0,1.464695437E-3
3.013401572E0,-2.298373461E0,-1.289997220E0,-4.220985994E-2
3.015926832E0,-2.281329632E0,-1.501845360E0,-8.908011019E-2
3.018452093E0,-2.297308207E0,-1.665891290E0,-1.370155960E-1
3.020977353E0,-2.330330372E0,-1.831002355E0,-1.881467849E-1
3.023502613E0,-2.361088991E0,-2.029135704E0,-2.348838747E-1
3.026027874E0,-2.394111156E0,-2.248440504E0,-2.732322812E-1
3.028553082E0,-2.432459593E0,-2.481726646E0,-3.094501793E-1
3.031078343E0,-2.466547012E0,-2.718075275E0,-3.360810280E-1
3.033604072E0,-2.504895449E0,-2.956687450E0,-3.659075499E-1
3.036129332E0,-2.542178631E0,-3.204886675E0,-3.978645205E-1
3.038654593E0,-2.574135542E0,-3.451887608E0,-4.298215210E-1
3.041179853E0,-2.599701166E0,-3.695826054E0,-4.532566369E-1
3.043705061E0,-2.619940519E0,-3.924717903E0,-4.671046734E-1
3.046230322E0,-2.640180111E0,-4.144155979E0,-4.798874855E-1
3.048755582E0,-2.660419464E0,-4.347615242E0,-4.862788618E-1
3.051280843E0,-2.672137022E0,-4.540289402E0,-4.852136374E-1
3.053806103E0,-2.685985088E0,-4.721379280E0,-4.841484129E-1
3.056331363E0,-2.696637392E0,-4.882229328E0,-4.830831885E-1
3.058856572E0,-2.712615967E0,-5.014317989E0,-4.756265581E-1
3.061381832E0,-2.728594303E0,-5.122838974E0,-4.639089704E-1
3.063946936E0,-2.743507624E0,-5.208057404E0,-4.458000064E-1
3.066472353E0,-2.763746977E0,-5.264514923E0,-4.287562966E-1
3.068997822E0,-2.785051823E0,-5.290080547E0,-4.085168540E-1
3.071523238E0,-2.804225922E0,-5.289015293E0,-3.840165138E-1
3.074048655E0,-2.824465275E0,-5.268775463E0,-3.584509194E-1
3.076574124E0,-2.845770121E0,-5.225100994E0,-3.371462524E-1
3.079099540E0,-2.859617949E0,-5.173969746E0,-3.169068098E-1
3.081624957E0,-2.872400761E0,-5.117512703E0,-2.934716940E-1
3.084150426E0,-2.880922794E0,-5.050536156E0,-2.785584331E-1
3.086675843E0,-2.889444590E0,-4.988752365E0,-2.689713240E-1
3.089201311E0,-2.891575098E0,-4.926969051E0,-2.647103965E-1
3.091726728E0,-2.891575098E0,-4.853467941E0,-2.625799477E-1
3.094210947E0,-2.895835876E0,-4.770380020E0,-2.647103965E-1
3.096736415E0,-2.893705606E0,-4.672378540E0,-2.796236575E-1
3.099261832E0,-2.889444590E0,-4.556267738E0,-2.956021726E-1
3.101787249E0,-2.887314081E0,-4.428573132E0,-3.232982159E-1
3.104312718E0,-2.891575098E0,-4.291158199E0,-3.520595133E-1
3.106838134E0,-2.888379335E0,-4.153742790E0,-3.786903322E-1
3.109363551E0,-2.885183573E0,-4.014197350E0,-4.106473327E-1
3.111889020E0,-2.873466015E0,-3.884238958E0,-4.415390790E-1
3.114414436E0,-2.842574358E0,-3.769327164E0,-4.649742246E-1
3.116939905E0,-2.806356430E0,-3.667064667E0,-4.926702678E-1
3.119465322E0,-2.756290436E0,-3.588237524E0,-5.129097104E-1
3.121990738E0,-2.693441629E0,-3.529649734E0,-5.278229713E-1
3.124514436E0,-2.630593061E0,-3.472126961E0,-5.438014865E-1
3.127039905E0,-2.561352730E0,-3.428452492E0,-5.587147474E-1
3.129565322E0,-2.489982128E0,-3.390104055E0,-5.725627542E-1
3.132090738E0,-2.417546272E0,-3.360277653E0,-5.885412693E-1
3.134616207E0,-2.340982676E0,-3.331516266E0,-6.066502333E-1
3.137141624E0,-2.273873091E0,-3.299559355E0,-6.268896461E-1
3.139667040E0,-2.205698013E0,-3.272928476E0,-6.481943130E-1
3.142192509E0,-2.144979954E0,-3.244300365E0,-6.780208349E-1
3.144717926E0,-2.085326910E0,-3.213408470E0,-7.110430598E-1
3.147243395E0,-2.025673866E0,-3.187843084E0,-7.472609878E-1
3.149768811E0,-1.972412109E0,-3.154820681E0,-7.824136615E-1
3.152294228E0,-1.917019963E0,-3.117537498E0,-8.207620382E-1
3.154817874E0,-1.858432174E0,-3.087711096E0,-8.568468094E-1
3.157343343E0,-1.807300925E0,-3.057884455E0,-8.941299915E-1
3.159868759E0,-1.757235050E0,-3.034449339E0,-9.378045201E-1
3.162394176E0,-1.705171704E0,-3.016340494E0,-9.814790487E-1
3.164919645E0,-1.655105829E0,-3.003557682E0,-1.021957874E0
3.167445061E0,-1.603974581E0,-2.995035887E0,-1.061371565E0
3.169970478E0,-1.554973960E0,-2.987579107E0,-1.096524239E0
3.172495947E0,-1.501712203E0,-2.985448599E0,-1.137003064E0
3.175021363E0,-1.447385430E0,-2.988644361E0,-1.182808161E0
3.177546832E0,-1.393058538E0,-2.988644361E0,-1.223286986E0
3.180072249E0,-1.338731647E0,-2.992905378E0,-1.264831066E0
3.182597665E0,-1.284404755E0,-2.999296665E0,-1.306375146E0
3.185121363E0,-1.230077863E0,-2.998231411E0,-1.345788717E0
3.187646832E0,-1.174685717E0,-2.988644361E0,-1.385202408E0
3.190172249E0,-1.122622490E0,-2.974796295E0,-1.422485590E0
3.192697665E0,-1.065099835E0,-2.957752705E0,-1.455374599E0
3.195223134E0,-1.013968706E0,-2.931121826E0,-1.487331629E0
3.197748551E0,-9.585765600E-1,-2.901295185E0,-1.516092896E0
3.200273968E0,-9.031844735E-1,-2.864012241E0,-1.536332369E0
3.202799436E0,-8.467270732E-1,-2.820337534E0,-1.551245570E0
3.205324853E0,-7.924002409E-1,-2.774532557E0,-1.566158891E0
3.207850322E0,-7.402037978E-1,-2.727662325E0,-1.575745940E0
3.210375738E0,-6.901378632E-1,-2.678661585E0,-1.580006838E0
3.212901155E0,-6.368761659E-1,-2.634054899E0,-1.581072092E0
3.215464332E0,-5.878754854E-1,-2.592510939E0,-1.582137346E0
3.217989749E0,-5.410051942E-1,-2.543510199E0,-1.580006838E0
3.220515218E0,-4.878767133E-1,-2.495574713E0,-1.572550297E0
3.223040634E0,-4.399412274E-1,-2.449769735E0,-1.564028382E0
3.225566051E0,-3.909405172E-1,-2.396507978E0,-1.555506468E0
3.228091520E0,-3.462007344E-1,-2.343246460E0,-1.549115181E0
3.230616936E0,-3.014609516E-1,-2.287854195E0,-1.544854164E0
3.233142353E0,-2.524602413E-1,-2.229266405E0,-1.541658521E0
3.235667822E0,-2.066552043E-1,-2.167482853E0,-1.536332369E0
3.238193238E0,-1.608501822E-1,-2.099308014E0,-1.528875709E0
3.240718707E0,-1.150451675E-1,-2.032331467E0,-1.521419048E0
3.243244124E0,-7.243584841E-2,-1.962026119E0,-1.511831999E0
3.245728290E0,-2.876129188E-2,-1.885329247E0,-1.497983932E0
3.248253759E0,1.065232977E-2,-1.811828256E0,-1.484135866E0
3.250779176E0,4.580501840E-2,-1.736196637E0,-1.466026902E0
3.253304593E0,8.402025700E-2,-1.653108478E0,-1.445787549E0
3.255830061E0,1.159772426E-1,-1.572150826E0,-1.426746488E0
3.258355478E0,1.479342431E-1,-1.502910614E0,-1.401180863E0
3.260880895E0,1.766955256E-1,-1.440061927E0,-1.379876256E0
3.263406363E0,2.065220475E-1,-1.385868192E0,-1.361767292E0
3.265931780E0,2.352833450E-1,-1.341128349E0,-1.340462565E0
3.268457249E0,2.629793882E-1,-1.305975676E0,-1.320223212E0
3.270982665E0,2.853493094E-1,-1.274018645E0,-1.299983740E0
3.273508082E0,3.087844253E-1,-1.246322632E0,-1.276548624E0
3.276031728E0,3.279586136E-1,-1.231409431E0,-1.262700558E0
3.278557197E0,3.471328020E-1,-1.233539820E0,-1.247787356E0
3.281082613E0,3.663070202E-1,-1.253779292E0,-1.233939290E0
3.283608030E0,3.844159544E-1,-1.286801457E0,-1.224352241E0
3.286133499E0,3.993292153E-1,-1.320888996E0,-1.213699818E0
3.288658915E0,4.174381793E-1,-1.360302567E0,-1.204112768E0
3.291184332E0,4.344819188E-1,-1.406107545E0,-1.194525719E0
3.293709801E0,4.461994767E-1,-1.450714231E0,-1.184938550E0
3.296235218E0,4.621779919E-1,-1.497584462E0,-1.171090603E0
3.298760686E0,4.770912528E-1,-1.549780846E0,-1.156177282E0
3.301286103E0,4.920045137E-1,-1.593455434E0,-1.143394470E0
3.303811520E0,5.101134777E-1,-1.637130022E0,-1.126350760E0
3.306335218E0,5.314181447E-1,-1.676543593E0,-1.099720001E0
3.308860686E0,5.527228117E-1,-1.708500624E0,-1.075219631E0
3.311386103E0,5.761579275E-1,-1.736196637E0,-1.046458244E0
3.313911520E0,6.006582975E-1,-1.758566618E0,-1.018762231E0
3.316436988E0,6.315500140E-1,-1.778805971E0,-9.868052602E-1
3.318962405E0,6.592460871E-1,-1.794784546E0,-9.537830353E-1
3.321487822E0,6.910699010E-1,-1.803306341E0,-9.228912592E-1
3.324013290E0,7.177007794E-1,-1.800110698E0,-8.866733313E-1
3.326538707E0,7.517881989E-1,-1.793719292E0,-8.493902087E-1
3.329064176E0,7.848104239E-1,-1.780936480E0,-8.111749291E-1
3.331589593E0,8.167673945E-1,-1.767088413E0,-7.760222554E-1
3.334115009E0,8.487244248E-1,-1.750044703E0,-7.419347763E-1
3.336638707E0,8.710942864E-1,-1.730870485E0,-7.014559507E-1
3.339164176E0,8.870728016E-1,-1.708500624E0,-6.567161679E-1
3.341689593E0,9.030513167E-1,-1.691456914E0,-6.130415797E-1
3.344215009E0,9.126383662E-1,-1.670152187E0,-5.640408993E-1
3.346740478E0,9.243559837E-1,-1.647782326E0,-5.203663111E-1
3.349265895E0,9.296821356E-1,-1.629673362E0,-4.756265581E-1
3.351791311E0,9.307473302E-1,-1.610499144E0,-4.330172241E-1
3.354316780E0,9.275516272E-1,-1.585998774E0,-3.936035931E-1
3.356842197E0,9.200950265E-1,-1.551911354E0,-3.605813682E-1
3.359367665E0,9.083774686E-1,-1.515693426E0,-3.318201005E-1
3.361893082E0,8.838770986E-1,-1.477345109E0,-3.073197305E-1
3.364418499E0,8.593767285E-1,-1.435800910E0,-2.828193605E-1
3.366942197E0,8.231588006E-1,-1.401846647E0,-2.604494691E-1
3.369467665E0,7.837451696E-1,-1.370954871E0,-2.359491140E-1
3.371993082E0,7.432663441E-1,-1.347519755E0,-2.135792226E-1
3.374518499E0,7.006570101E-1,-1.329410791E0,-1.945381761E-1
3.377043968E0,6.581808329E-1,-1.318758488E0,-1.753639877E-1
3.379569384E0,6.113106012E-1,-1.317693233E0,-1.615159512E-1
3.382094801E0,5.676360726E-1,-1.318758488E0,-1.455374658E-1
3.384620270E0,5.239614844E-1,-1.328345537E0,-1.306242049E-1
3.387145686E0,4.781564772E-1,-1.336867452E0,-1.189066395E-1
3.389671155E0,4.248948097E-1,-1.352845907E0,-1.103847697E-1
3.392196572E0,3.705679476E-1,-1.375215888E0,-1.039933711E-1
3.394721988E0,3.130453527E-1,-1.397585750E0,-9.760197252E-2
3.397245634E0,2.523270845E-1,-1.425281763E0,-9.440627694E-2
3.399771103E0,1.862826198E-1,-1.451779485E0,-9.334104508E-2
3.402296520E0,1.127815470E-1,-1.478410244E0,-9.547150880E-2
3.404821936E0,3.515268862E-2,-1.509302020E0,-1.039933711E-1
3.407347405E0,-4.260931909E-2,-1.529541492E0,-1.167761683E-1
3.409872822E0,-1.246322617E-1,-1.547650456E0,-1.316894293E-1
3.412398238E0,-2.098509073E-1,-1.559368014E0,-1.508636326E-1
3.414923707E0,-2.993304729E-1,-1.562563658E0,-1.689725816E-1
3.417449124E0,-4.015928507E-1,-1.558302760E0,-1.838858575E-1
3.419974593E0,-5.070509315E-1,-1.543389440E0,-2.009295821E-1
3.422500009E0,-6.155715585E-1,-1.511432528E0,-2.157096863E-1
3.425025426E0,-7.327471375E-1,-1.473084092E0,-2.327534109E-1
3.427549124E0,-8.499227762E-1,-1.414629459E0,-2.466014475E-1
3.430074593E0,-9.713593721E-1,-1.337932706E0,-2.647103965E-1
3.432600009E0,-1.090665460E0,-1.255909681E0,-2.817541361E-1
3.435125426E0,-1.206642747E0,-1.166430116E0,-2.998631001E-1
3.437650895E0,-1.303578854E0,-1.071624398E0,-3.201025128E-1
3.440176311E0,-1.380275726E0,-9.810796380E-1,-3.424724042E-1
3.442701728E0,-1.429276466E0,-9.054480791E-1,-3.648423254E-1
3.445227197E0,-1.445254922E0,-8.564473391E-1,-3.936035931E-1
3.447752613E0,-1.438863516E0,-8.362079263E-1,-4.234301150E-1
3.450278082E0,-1.410102248E0,-8.468602300E-1,-4.596480429E-1
3.452803499E0,-1.362166762E0,-8.766867518E-1,-5.075835586E-1
3.455328915E0,-1.292926550E0,-9.161003828E-1,-5.597799420E-1
3.457852613E0,-1.205577493E0,-9.725577235E-1,-6.162372828E-1
3.460378082E0,-1.108774424E0,-1.032210827E0,-6.684337258E-1
3.462903499E0,-1.006512046E0,-1.092929125E0,-7.195649147E-1
3.465428915E0,-9.170324802E-1,-1.152582169E0,-7.568480372E-1
3.467954384E0,-8.520532846E-1,-1.211169958E0,-7.792179585E-1
3.470479801E0,-8.222267628E-1,-1.255909681E0,-7.898702621E-1
3.473005218E0,-8.360747695E-1,-1.274018645E0,-7.898702621E-1
3.475530686E0,-8.893364072E-1,-1.228213668E0,-7.802832127E-1
3.478056103E0,-9.766855240E-1,-1.102516174E0,-7.643046975E-1
3.480581572E0,-1.073621750E0,-8.852086663E-1,-7.525871396E-1
3.483106988E0,-1.149120092E0,-5.625761747E-1,-7.568480372E-1
3.485632405E0,-1.172555208E0,-1.387466043E-1,-7.621742487E-1
3.488156103E0,-1.110904932E0,3.778914213E-1,-7.760222554E-1
3.490681572E0,-9.436632991E-1,9.423317909E-1,-7.951964736E-1
3.493206988E0,-6.667027473E-1,1.499315500E0,-8.186315894E-1
3.495732405E0,-3.153089881E-1,1.959362984E0,-8.451292515E-1
3.498257874E0,6.710968167E-2,2.248973131E0,-8.728253245E-1
3.500783290E0,4.408733249E-1,2.348039865E0,-9.069127440E-1
3.503308707E0,7.762885690E-1,2.269212723E0,-9.495220780E-1
3.505834176E0,1.058575273E0,2.049907684E0,-1.002783775E0
3.508359593E0,1.288665652E0,1.719685555E0,-1.053914905E0
3.510885061E0,1.456839323E0,1.288399339E0,-1.092263341E0
3.513410478E0,1.562297344E0,7.793511152E-1,-1.116763711E0
3.515935895E0,1.597450018E0,2.308892608E-1,-1.105046153E0
3.518459593E0,1.572949767E0,-3.005288541E-1,-1.062436819E0
3.520985061E0,1.496252894E0,-7.905360460E-1,-9.974575639E-1
3.523510478E0,1.379077315E0,-1.219691753E0,-9.069127440E-1
3.526035895E0,1.244991064E0,-1.554041862E0,-7.973269224E-1
3.528561363E0,1.117163181E0,-1.764958024E0,-6.886731386E-1
3.531086780E0,1.017031193E0,-1.854437590E0,-5.800193548E-1
3.533612197E0,9.467258453E-1,-1.844850421E0,-4.830831885E-1
3.536137665E0,8.987903595E-1,-1.772414565E0,-3.914731443E-1
3.538663082E0,8.721595407E-1,-1.659499884E0,-3.051892519E-1
3.541188551E0,8.678985834E-1,-1.516758680E0,-2.284924835E-1
3.543713968E0,8.764204979E-1,-1.368824482E0,-1.668421179E-1
3.546239384E0,8.934642076E-1,-1.223952770E0,-1.199718714E-1
3.548763030E0,9.264864326E-1,-1.090798616E0,-8.162347972E-2
3.551288499E0,9.616391063E-1,-9.661663771E-1,-4.860125855E-2
3.553813915E0,1.002117991E0,-8.500559330E-1,-1.983996481E-2
3.556339332E0,1.036205411E0,-7.319482565E-1,1.424749196E-2
3.558864801E0,1.068162441E0,-6.190335155E-1,5.366111174E-2
3.561390218E0,1.089467049E0,-5.018579364E-1,9.520520270E-2
3.563915634E0,1.109706521E0,-3.761604130E-1,1.410102248E-1
3.566441103E0,1.131011128E0,-2.355496585E-1,1.964023411E-1
3.568966520E0,1.156576753E0,-7.483261824E-2,2.603163123E-1
3.571491988E0,1.186403275E0,1.094526947E-1,3.338173926E-1
3.574017405E0,1.224751711E0,3.086512685E-1,4.007939398E-1
3.576542822E0,1.266295791E0,5.151733160E-1,4.615122080E-1
3.579066572E0,1.311967611E0,7.324808836E-1,5.179695487E-1
3.581591728E0,1.362033606E0,9.519188404E-1,5.669702888E-1
3.584116884E0,1.414229989E0,1.158440948E0,6.042534113E-1
3.586642093E0,1.467491627E0,1.335269570E0,6.319494843E-1
3.589167249E0,1.505840063E0,1.474815130E0,6.479279995E-1
3.591692405E0,1.537796974E0,1.566425204E0,6.543194056E-1
3.594217561E0,1.564427853E0,1.610099673E0,6.468627453E-1
3.596742718E0,1.579341054E0,1.603708267E0,6.212971807E-1
3.599267874E0,1.578275919E0,1.551511884E0,5.797531009E-1
3.601793030E0,1.565493107E0,1.456706166E0,5.190348029E-1
3.604318238E0,1.545253634E0,1.315030217E0,4.402075410E-1
3.606843395E0,1.509035707E0,1.131810069E0,3.423392773E-1
3.609370061E0,1.465361238E0,9.082443118E-1,2.315550297E-1
3.611895218E0,1.413164735E0,6.568493247E-1,1.090532318E-1
3.614420374E0,1.355642200E0,3.842828274E-1,-1.131810062E-2
3.616945582E0,1.289730906E0,1.009308323E-1,-1.359503716E-1
3.619470738E0,1.217295051E0,-1.792254597E-1,-2.519276142E-1
3.621995895E0,1.142728686E0,-4.464657903E-1,-3.584509194E-1
3.624521051E0,1.068162441E0,-6.925346255E-1,-4.553871155E-1
3.627046207E0,9.925308824E-1,-9.224917889E-1,-5.395405293E-1
3.629571363E0,9.243559837E-1,-1.127016544E0,-6.130415797E-1
3.632096520E0,8.689638376E-1,-1.301714778E0,-6.737598777E-1
3.634621728E0,8.210283518E-1,-1.459236145E0,-7.227606177E-1
3.637146884E0,7.826799750E-1,-1.595585942E0,-7.706961036E-1
3.639673551E0,7.603100538E-1,-1.712761521E0,-8.090444803E-1
3.642198707E0,7.507229447E-1,-1.808632493E0,-8.429988027E-1
3.644723863E0,7.539186478E-1,-1.893851161E0,-8.706948161E-1
3.647249072E0,7.698971629E-1,-1.969482660E0,-8.994561434E-1
3.649774228E0,7.997236848E-1,-2.034461975E0,-9.250217080E-1
3.652299384E0,8.220936060E-1,-2.063090086E0,-9.452611804E-1
3.654824540E0,8.295502067E-1,-2.048176765E0,-9.559134841E-1
3.657349697E0,8.327459097E-1,-2.000374556E0,-9.623048902E-1
3.659874853E0,8.327459097E-1,-1.936460495E0,-9.601744413E-1
3.662400009E0,8.359416127E-1,-1.864024639E0,-9.505873322E-1
3.664925218E0,8.370068669E-1,-1.785197377E0,-9.367392659E-1
3.667450374E0,8.306154609E-1,-1.695717812E0,-9.218260050E-1
3.669977040E0,8.167673945E-1,-1.593455434E0,-9.047822952E-1
3.672502197E0,7.986584306E-1,-1.477345109E0,-8.834776282E-1
3.675027353E0,7.730928659E-1,-1.347519755E0,-8.579120636E-1
3.677552561E0,7.443315983E-1,-1.210104704E0,-8.355421424E-1
3.680077718E0,7.145050764E-1,-1.070559144E0,-8.165011406E-1
3.682602874E0,6.900047064E-1,-9.352746010E-1,-7.909355164E-1
3.685128030E0,6.709636450E-1,-8.086450100E-1,-7.664351463E-1
3.687653186E0,6.571156383E-1,-6.925346255E-1,-7.461957335E-1
3.690178343E0,6.507242322E-1,-5.860112906E-1,-7.291520238E-1
3.692703499E0,6.507242322E-1,-4.901403487E-1,-7.153039575E-1
3.695228707E0,6.517894268E-1,-4.059869349E-1,-6.950645447E-1
3.697753863E0,6.528546810E-1,-3.399424851E-1,-6.758903265E-1
3.700280530E0,6.613765359E-1,-2.920069993E-1,-6.588466167E-1
3.702805686E0,6.688331962E-1,-2.643109560E-1,-6.407376528E-1
3.705330843E0,6.720288992E-1,-2.462019771E-1,-6.173025370E-1
3.707856051E0,6.741593480E-1,-2.323539555E-1,-5.970631242E-1
3.710381207E0,6.741593480E-1,-2.270277888E-1,-5.757584572E-1
3.712906363E0,6.677679420E-1,-2.259625494E-1,-5.544537902E-1
3.715431520E0,6.645722389E-1,-2.270277888E-1,-5.331491232E-1
3.717956676E0,6.603113413E-1,-2.302234918E-1,-5.139749050E-1
3.720481832E0,6.571156383E-1,-2.366148829E-1,-4.969311953E-1
3.723006988E0,6.539199352E-1,-2.419410497E-1,-4.852136374E-1
3.725532197E0,6.496589780E-1,-2.483324558E-1,-4.777570069E-1
3.728057353E0,6.507242322E-1,-2.579195499E-1,-4.671046734E-1
3.730583968E0,6.539199352E-1,-2.685718834E-1,-4.617785215E-1
3.733109124E0,6.592460871E-1,-2.760285139E-1,-4.564523399E-1
3.735634280E0,6.635070443E-1,-2.824199200E-1,-4.521914124E-1
3.738159488E0,6.762897968E-1,-2.834851444E-1,-4.511261880E-1
3.740684645E0,6.878741980E-1,-2.824199200E-1,-4.521914124E-1
3.743209801E0,6.953308582E-1,-2.770937383E-1,-4.500609636E-1
3.745734957E0,7.102441192E-1,-2.675066292E-1,-4.489957094E-1
3.748260113E0,7.240921259E-1,-2.547238469E-1,-4.436695576E-1
3.750785270E0,7.390053868E-1,-2.430062890E-1,-4.436695576E-1
3.753310426E0,7.539186478E-1,-2.334191799E-1,-4.404738545E-1
3.755835634E0,7.688319087E-1,-2.259625494E-1,-4.340824485E-1
3.758360790E0,7.837451696E-1,-2.206363827E-1,-4.287562966E-1
3.760887457E0,7.986584306E-1,-2.185059190E-1,-4.212996662E-1
3.763412613E0,8.093107939E-1,-2.217016220E-1,-4.127778113E-1
3.765937770E0,8.252893090E-1,-2.302234918E-1,-4.042559266E-1
3.768462978E0,8.423330188E-1,-2.408758104E-1,-3.957340717E-1
3.770988134E0,8.519201279E-1,-2.568543255E-1,-3.872122169E-1
3.773513290E0,8.668333888E-1,-2.792242169E-1,-3.829512596E-1
3.776038447E0,8.785509467E-1,-3.047898114E-1,-3.754946291E-1
3.778563603E0,8.870728016E-1,-3.314206302E-1,-3.722989559E-1
3.781088759E0,8.987903595E-1,-3.633776009E-1,-3.701684773E-1
3.783613915E0,9.094427228E-1,-3.932041526E-1,-3.637770712E-1
3.786139124E0,9.232907295E-1,-4.240958989E-1,-3.563204408E-1
3.788664280E0,9.339430332E-1,-4.635095298E-1,-3.509942889E-1
3.791190947E0,9.435301423E-1,-4.997274280E-1,-3.477985859E-1
3.793716103E0,9.520519972E-1,-5.338149071E-1,-3.435376585E-1
3.796241259E0,9.637695551E-1,-5.679023266E-1,-3.414071798E-1
3.798766468E0,9.744219184E-1,-5.955983996E-1,-3.371462524E-1
3.801291624E0,9.829437733E-1,-6.254249215E-1,-3.328853250E-1
3.803816780E0,9.946613312E-1,-6.541862488E-1,-3.275591433E-1
3.806341936E0,1.003183246E0,-6.797518134E-1,-3.254286945E-1
3.808867093E0,1.017031193E0,-7.074478865E-1,-3.190372884E-1
3.811392249E0,1.028748751E0,-7.351439595E-1,-3.126458824E-1
3.813917405E0,1.039401174E0,-7.585790753E-1,-3.062545061E-1
3.816442613E0,1.048988223E0,-7.820141912E-1,-2.987978756E-1
3.818967770E0,1.063901424E0,-8.011884093E-1,-2.892107666E-1
3.821494436E0,1.071358085E0,-8.161016703E-1,-2.828193605E-1
3.824019593E0,1.078814745E0,-8.287512660E-1,-2.764279842E-1
3.826544749E0,1.085206151E0,-8.404688835E-1,-2.742975056E-1
3.829069957E0,1.092662811E0,-8.415340781E-1,-2.721670270E-1
3.831595113E0,1.097988963E0,-8.415340781E-1,-2.689713240E-1
3.834120270E0,1.105445623E0,-8.330122232E-1,-2.636451721E-1
3.836645426E0,1.108641267E0,-8.192973733E-1,-2.615146935E-1
3.839170582E0,1.112902164E0,-7.969274521E-1,-2.604494691E-1
3.841695738E0,1.117163181E0,-7.681661844E-1,-2.593842447E-1
3.844220895E0,1.123554587E0,-7.362091541E-1,-2.583190203E-1
3.846746103E0,1.127815485E0,-6.967955232E-1,-2.561885417E-1
3.849271259E0,1.129945874E0,-6.541862488E-1,-2.583190203E-1
3.851797926E0,1.124619722E0,-6.083812118E-1,-2.604494691E-1
3.854323082E0,1.124619722E0,-5.625761747E-1,-2.615146935E-1
3.856848238E0,1.119293571E0,-5.189016461E-1,-2.657756507E-1
3.859373447E0,1.111836910E0,-4.826837182E-1,-2.689713240E-1
3.861898603E0,1.104380369E0,-4.496614933E-1,-2.721670270E-1
3.864423759E0,1.097988963E0,-4.177044928E-1,-2.753627300E-1
3.866948915E0,1.085206151E0,-3.857475221E-1,-2.828193605E-1
3.869474072E0,1.074553847E0,-3.580514491E-1,-2.860150635E-1
3.871999228E0,1.062836289E0,-3.282249272E-1,-2.881455421E-1
3.874524384E0,1.052183867E0,-3.037245572E-1,-2.945369184E-1
3.877049593E0,1.042596817E0,-2.781589627E-1,-2.987978756E-1
3.879574749E0,1.033009768E0,-2.472672164E-1,-3.062545061E-1
3.882101415E0,1.022357345E0,-2.185059190E-1,-3.115806580E-1
3.884626572E0,1.012770295E0,-1.898777932E-1,-3.190372884E-1
3.887151728E0,1.007444143E0,-1.611164957E-1,-3.264939189E-1
3.889676936E0,1.005313635E0,-1.302247345E-1,-3.318201005E-1
3.892202093E0,1.006378889E0,-9.720251709E-2,-3.371462524E-1
3.894727249E0,1.008509398E0,-6.844121963E-2,-3.467333615E-1
3.897252405E0,1.011705041E0,-4.287562892E-2,-3.520595133E-1
3.899777561E0,1.014900804E0,-2.370143496E-2,-3.605813682E-1
3.902302718E0,1.019161701E0,-1.304910425E-2,-3.680379987E-1
3.904827874E0,1.023422599E0,-5.592473317E-3,-3.786903322E-1
3.907353082E0,1.029814005E0,-2.396774245E-3,-3.861469626E-1
3.909878238E0,1.033009768E0,-3.462007269E-3,-3.914731443E-1
3.912404905E0,1.037270665E0,-5.592473317E-3,-3.925383687E-1
3.914930061E0,1.036205411E0,-8.788172156E-3,-3.936035931E-1
3.917455218E0,1.033009768E0,-1.304910425E-2,-3.936035931E-1
3.919980426E0,1.034074903E0,-1.624480449E-2,-3.893426657E-1
3.922505582E0,1.027683616E0,-1.731003635E-2,-3.818860352E-1
3.925030738E0,1.012770295E0,-1.837527007E-2,-3.680379987E-1
3.927555895E0,1.001052737E0,-2.050573565E-2,-3.541899920E-1
3.930081051E0,9.861394763E-1,-1.624480449E-2,-3.339505494E-1
3.932606207E0,9.659000635E-1,-8.788172156E-3,-3.062545061E-1
3.935131363E0,9.382039905E-1,7.989247679E-4,-2.817541361E-1
3.937656572E0,9.094427228E-1,1.571218669E-2,-2.551233172E-1
3.940181728E0,8.785509467E-1,3.488638252E-2,-2.263620198E-1
3.942708395E0,8.444634676E-1,5.725627393E-2,-1.966686398E-1
3.945233551E0,8.146369457E-1,8.175663650E-2,-1.700378209E-1
3.947758707E0,7.837451696E-1,1.115831584E-1,-1.476679295E-1
3.950283915E0,7.560491562E-1,1.424749196E-1,-1.221023351E-1
3.952809072E0,7.326140404E-1,1.712362021E-1,-9.547150880E-2
3.955334228E0,7.070484161E-1,1.968017966E-1,-7.310161740E-2
3.957859384E0,6.846785545E-1,2.255630940E-1,-5.286218971E-2
3.960384540E0,6.656374931E-1,2.521939278E-1,-3.155753016E-2
3.962909697E0,6.475285292E-1,2.703028917E-1,-1.770949923E-2
3.965434853E0,6.251586080E-1,2.916075289E-1,-6.657706108E-4
3.967960061E0,6.038539410E-1,3.118469715E-1,1.318225823E-2
3.970485218E0,5.857450366E-1,3.256950080E-1,2.703028731E-2
3.973011884E0,5.665708184E-1,3.384777904E-1,4.300878197E-2
3.975537040E0,5.473966002E-1,3.512606025E-1,5.685681105E-2
3.978062197E0,5.250267386E-1,3.608476818E-1,7.070484012E-2
3.980587405E0,5.026568174E-1,3.683043122E-1,8.881380409E-2
3.983112561E0,4.781564772E-1,3.725652397E-1,1.037270650E-1
3.985637718E0,4.557865858E-1,3.746957183E-1,1.218360290E-1
3.988162874E0,4.270252883E-1,3.746957183E-1,1.410102248E-1
3.990688030E0,3.993292153E-1,3.746957183E-1,1.601844132E-1
3.993213186E0,3.684374690E-1,3.757609427E-1,1.772281379E-1
3.995738343E0,3.354152441E-1,3.715000153E-1,1.900109351E-1
3.998263551E0,3.077192008E-1,3.715000153E-1,2.070546746E-1
4.000788707E0,2.864145339E-1,3.736304939E-1,2.187722325E-1
4.003315374E0,2.619141638E-1,3.821523488E-1,2.283593267E-1
4.005840530E0,2.384790480E-1,3.917394578E-1,2.326202542E-1
4.008365686E0,2.214353085E-1,4.043890834E-1,2.326202542E-1
4.010890895E0,2.129134536E-1,4.214328229E-1,2.336854935E-1
4.013416051E0,1.980001926E-1,4.320851564E-1,2.272941023E-1
4.015941207E0,2.001306564E-1,4.427374899E-1,2.187722325E-1
4.018466363E0,2.011958808E-1,4.533897936E-1,2.113156021E-1
4.020991520E0,2.043915838E-1,4.523245692E-1,2.017285079E-1
4.023516676E0,2.065220475E-1,4.469984174E-1,1.921414137E-1
4.026041832E0,2.075872868E-1,4.310199022E-1,1.889457107E-1
4.028567040E0,2.097177505E-1,4.022586346E-1,1.878804713E-1
4.031092197E0,2.022611201E-1,3.619129062E-1,1.857500076E-1
4.033658343E0,1.926740259E-1,3.097164929E-1,1.900109351E-1
4.036183499E0,1.809564531E-1,2.500634491E-1,1.974675655E-1
4.038708655E0,1.596518010E-1,1.786928326E-1,2.091851383E-1
4.041233811E0,1.287600398E-1,9.773512930E-2,2.304897904E-1
4.043758968E0,9.360735118E-2,1.358172111E-2,2.528596818E-1
4.046284124E0,5.219641700E-2,-6.631075591E-2,2.720338702E-1
4.048809332E0,3.195699072E-3,-1.472684592E-1,2.922733128E-1
4.051334488E0,-4.687025398E-2,-2.270277888E-1,3.167736828E-1
4.053859645E0,-9.693620354E-2,-3.005288541E-1,3.380783200E-1
4.056384801E0,-1.501978636E-1,-3.655080795E-1,3.561872840E-1
4.058909957E0,-2.002638131E-1,-4.187697470E-1,3.689700961E-1
4.061435113E0,-2.545906901E-1,-4.677704573E-1,3.828181326E-1
4.063961832E0,-3.067871034E-1,-4.997274280E-1,3.892095089E-1
4.066486988E0,-3.568530679E-1,-5.231625438E-1,3.913399875E-1
4.069012145E0,-4.079842567E-1,-5.370106101E-1,3.954677582E-1
4.071537301E0,-4.665720761E-1,-5.455324650E-1,3.954677582E-1
4.074062457E0,-5.315513015E-1,-5.551195741E-1,3.870790601E-1
4.076587613E0,-5.974625945E-1,-5.561847687E-1,3.785571754E-1
4.079112822E0,-6.677679420E-1,-5.593804717E-1,3.700353205E-1
4.081637978E0,-7.444647551E-1,-5.647066832E-1,3.615134656E-1
4.084163134E0,-8.211615086E-1,-5.764242411E-1,3.466002047E-1
4.086688290E0,-8.978582621E-1,-5.892069936E-1,3.284912407E-1
4.089213447E0,-9.788159728E-1,-6.115769148E-1,3.093170524E-1
4.091738603E0,-1.059773684E0,-6.467295885E-1,2.858819067E-1
4.094225843E0,-1.139666200E0,-6.872084737E-1,2.656424940E-1
4.096751103E0,-1.220490694E0,-7.340787053E-1,2.347507328E-1
4.099276363E0,-1.305709362E0,-7.937317491E-1,2.113156021E-1
4.101801624E0,-1.395188928E0,-8.596430421E-1,1.900109351E-1
4.104326884E0,-1.492125154E0,-9.342093468E-1,1.750976741E-1
4.106852197E0,-1.592257023E0,-1.013036609E0,1.633801162E-1
4.109377457E0,-1.698780417E0,-1.091863871E0,1.580539495E-1
4.111902718E0,-1.806235790E0,-1.170691133E0,1.601844132E-1
4.114427978E0,-1.915954709E0,-1.248453140E0,1.633801162E-1
4.116953238E0,-2.026738882E0,-1.317693233E0,1.729672104E-1
4.119478499E0,-2.148175478E0,-1.380542040E0,1.921414137E-1
4.122003759E0,-2.272807837E0,-1.442192316E0,2.166417688E-1
4.124529332E0,-2.397306919E0,-1.496519208E0,2.475335300E-1
4.127054593E0,-2.524069548E0,-1.546585202E0,2.858819067E-1
4.129579853E0,-2.652962923E0,-1.599846840E0,3.263607621E-1
4.132105113E0,-2.787182093E0,-1.641390920E0,3.711005449E-1
4.134630374E0,-2.916075468E0,-1.674413204E0,4.231638312E-1
4.137155686E0,-3.042705059E0,-1.711696267E0,4.796211720E-1
4.139680947E0,-3.162011147E0,-1.745783806E0,5.456656218E-1
4.142206207E0,-3.283447742E0,-1.775610328E0,6.095796227E-1
4.144731468E0,-3.402753830E0,-1.803306341E0,6.777545214E-1
4.147256728E0,-3.518864155E0,-1.827806711E0,7.491251230E-1
4.149781988E0,-3.625254393E0,-1.846980929E0,8.173000216E-1
4.152307249E0,-3.729647160E0,-1.866155148E0,8.780183196E-1
4.154832822E0,-3.826583385E0,-1.885329247E0,9.323452115E-1
4.157358082E0,-3.912867308E0,-1.894916415E0,9.802806973E-1
4.159883343E0,-3.995955467E0,-1.891720653E0,1.018495917E0
4.162408603E0,-4.072652340E0,-1.881068349E0,1.049387693E0
4.164933863E0,-4.136566162E0,-1.861894131E0,1.074953318E0
4.167459176E0,-4.193955421E0,-1.832067609E0,1.095192671E0
4.169984436E0,-4.241890907E0,-1.788393140E0,1.102649331E0
4.172509697E0,-4.284500599E0,-1.733000994E0,1.101584077E0
4.175034957E0,-4.324979305E0,-1.666956544E0,1.091997027E0
4.177560218E0,-4.354805946E0,-1.589194536E0,1.077083707E0
4.180085478E0,-4.377175808E0,-1.501845360E0,1.060039997E0
4.182610738E0,-4.394219398E0,-1.406107545E0,1.041931033E0
4.185136311E0,-4.401676178E0,-1.301714778E0,1.020626426E0
4.187661572E0,-4.401676178E0,-1.196256638E0,1.000520110E0
4.190186832E0,-4.392088890E0,-1.087602973E0,9.834764004E-1
4.192712093E0,-4.373980045E0,-9.821448326E-1,9.696283340E-1
4.195237353E0,-4.348414421E0,-8.777520061E-1,9.557803273E-1
4.197762665E0,-4.314326763E0,-7.702966332E-1,9.355409145E-1
4.200287926E0,-4.271717548E0,-6.744256616E-1,9.142362475E-1
4.202813186E0,-4.224847317E0,-5.902722478E-1,8.918663263E-1
4.205338447E0,-4.175979614E0,-5.189016461E-1,8.663007617E-1
4.207863707E0,-4.118457317E0,-4.581833482E-1,8.332785368E-1
4.210388968E0,-4.055608273E0,-4.113130867E-1,7.906692028E-1
4.212914228E0,-3.992759705E0,-3.814865649E-1,7.416685224E-1
4.215439801E0,-3.913932323E0,-3.804213405E-1,6.852111220E-1
4.217965061E0,-3.822322369E0,-4.219654202E-1,6.212971807E-1
4.220490322E0,-3.716864347E0,-5.103797913E-1,5.573831797E-1
4.223015582E0,-3.593297243E0,-6.360772848E-1,4.913387299E-1
4.225540843E0,-3.463472128E0,-7.947970033E-1,4.295552075E-1
4.228066155E0,-3.327122211E0,-9.736229777E-1,3.679048419E-1
4.230591415E0,-3.193968058E0,-1.171756268E0,3.061213493E-1
4.233116676E0,-3.075727224E0,-1.384802938E0,2.368811965E-1
4.235641936E0,-2.983052015E0,-1.592390180E0,1.655105799E-1
4.238167197E0,-2.919270992E0,-1.807567239E0,9.733566642E-2
4.240692457E0,-2.876661777E0,-2.017418146E0,3.555215150E-2
4.243217718E0,-2.855357170E0,-2.210092306E0,-2.090519853E-2
4.245743290E0,-2.857487679E0,-2.412486553E0,-7.097115368E-2
4.248268551E0,-2.885183573E0,-2.615946054E0,-1.178414002E-1
4.250793811E0,-2.933119059E0,-2.807554722E0,-1.647116542E-1
4.253319072E0,-2.997965097E0,-2.999296665E0,-2.146444470E-1
4.255844332E0,-3.074661970E0,-3.193169117E0,-2.785584331E-1
4.258369645E0,-3.165206671E0,-3.385843277E0,-3.371462524E-1
4.260894905E0,-3.258947372E0,-3.573324203E0,-3.872122169E-1
4.263420165E0,-3.363340139E0,-3.752283335E0,-4.394086301E-1
4.265945426E0,-3.480515718E0,-3.928978920E0,-4.894745648E-1
4.268470686E0,-3.598623514E0,-4.098351002E0,-5.363448262E-1
4.270995947E0,-3.722190380E0,-4.257070541E0,-5.768237114E-1
4.273521207E0,-3.844692230E0,-4.393420219E0,-6.130415797E-1
4.276046780E0,-3.967194080E0,-4.494484425E0,-6.449986100E-1
4.278572040E0,-4.081173897E0,-4.563724518E0,-6.726946831E-1
4.281097301E0,-4.188629627E0,-4.602073193E0,-6.950645447E-1
4.283622561E0,-4.278109074E0,-4.605268478E0,-7.057169080E-1
4.286147822E0,-4.353740692E0,-4.573311806E0,-7.025212049E-1
4.288673134E0,-4.414458752E0,-4.518984795E0,-6.908035874E-1
4.291198395E0,-4.458133221E0,-4.444551468E0,-6.705641747E-1
4.293723655E0,-4.493286133E0,-4.363594055E0,-6.418029070E-1
4.296248915E0,-4.517786503E0,-4.275179386E0,-6.077154279E-1
4.298774176E0,-4.531634331E0,-4.179308414E0,-5.693670511E-1
4.301299436E0,-4.541221619E0,-4.087698460E0,-5.310186744E-1
4.303824697E0,-4.543352127E0,-4.000349522E0,-4.926702678E-1
4.306350270E0,-4.536960602E0,-3.920456886E0,-4.511261880E-1
4.308875530E0,-4.525242805E0,-3.854545593E0,-4.095821083E-1
4.311400790E0,-4.505003452E0,-3.802349329E0,-3.648423254E-1
4.313926051E0,-4.467720509E0,-3.752283335E0,-3.211677670E-1
4.316451311E0,-4.416589260E0,-3.717130661E0,-2.721670270E-1
4.318976624E0,-4.355871201E0,-3.691565037E0,-2.231663167E-1
4.321501884E0,-4.295152664E0,-3.667064667E0,-1.849510819E-1
4.324027145E0,-4.230173588E0,-3.602085352E0,-1.434070021E-1
4.326552405E0,-4.166392803E0,-3.513671160E0,-9.973244369E-2
4.329077665E0,-4.112065792E0,-3.418865442E0,-5.925358832E-2
4.331602926E0,-4.058804035E0,-3.321929216E0,-1.983996481E-2
4.334128186E0,-4.004477024E0,-3.231517553E0,2.063889056E-2
4.336653759E0,-3.958672285E0,-3.164407969E0,6.005251035E-2
4.339179020E0,-3.910736799E0,-3.114341974E0,9.627043456E-2
4.341704280E0,-3.861736059E0,-3.089841604E0,1.378145218E-1
4.344229540E0,-3.820191860E0,-3.086645842E0,1.804238409E-1
4.346754801E0,-3.776517391E0,-3.109015703E0,2.262288630E-1
4.349280113E0,-3.730712414E0,-3.146298885E0,2.688381970E-1
4.351805374E0,-3.688102961E0,-3.184647322E0,3.114475012E-1
4.354330634E0,-3.649754763E0,-3.215538979E0,3.497959077E-1
4.356855895E0,-3.615667105E0,-3.237908840E0,3.838833570E-1
4.359381155E0,-3.584775448E0,-3.240039349E0,4.157072008E-1
4.361906415E0,-3.551886320E0,-3.232582808E0,4.465989470E-1
4.364431676E0,-3.525255442E0,-3.214473724E0,4.774906933E-1
4.366957249E0,-3.495429039E0,-3.191038609E0,5.030562878E-1
4.369482509E0,-3.464537144E0,-3.158016443E0,5.243609548E-1
4.372007770E0,-3.429384470E0,-3.111146212E0,5.488613248E-1
4.374533030E0,-3.397427559E0,-3.054688931E0,5.659050345E-1
4.377058290E0,-3.364405394E0,-2.988644361E0,5.744268894E-1
4.379583603E0,-3.331383228E0,-2.911947727E0,5.840139985E-1
4.382108863E0,-3.294100046E0,-2.825663805E0,5.893401504E-1
4.384634124E0,-3.257882118E0,-2.734053612E0,5.882749557E-1
4.387159384E0,-3.218468428E0,-2.642576933E0,5.850792527E-1
4.389684645E0,-3.177989483E0,-2.553097248E0,5.765573978E-1
4.392209905E0,-3.130053997E0,-2.465748072E0,5.637745857E-1
4.394735165E0,-3.088510036E0,-2.374138117E0,5.499265194E-1
4.397260686E0,-3.049096346E0,-2.277201891E0,5.318176150E-1
4.399785947E0,-3.007552385E0,-2.182396173E0,5.137086511E-1
4.402311207E0,-2.967073441E0,-2.089720964E0,4.966649115E-1
4.404836468E0,-2.925662518E0,-2.011026859E0,4.860125780E-1
4.407361728E0,-2.888379335E0,-1.950308561E0,4.710993171E-1
4.409887040E0,-2.848965645E0,-1.908764482E0,4.583165050E-1
4.412412301E0,-2.813812971E0,-1.881068349E0,4.434032440E-1
4.414937561E0,-2.778660297E0,-1.856567979E0,4.306204617E-1
4.417462822E0,-2.748833895E0,-1.837393761E0,4.146419466E-1
4.419988082E0,-2.721137762E0,-1.813958645E0,3.934704363E-1
4.422513343E0,-2.689180851E0,-1.797980189E0,3.753614724E-1
4.425038603E0,-2.656158447E0,-1.791588783E0,3.529915810E-1
4.427564176E0,-2.626332045E0,-1.796914935E0,3.306216896E-1
4.430089436E0,-2.593309879E0,-1.802241087E0,3.103822768E-1
4.432614697E0,-2.562417984E0,-1.812893510E0,2.848166823E-1
4.435139957E0,-2.534722090E0,-1.819284797E0,2.645772398E-1
4.437665218E0,-2.504895449E0,-1.827806711E0,2.454030514E-1
4.440190530E0,-2.480395079E0,-1.835263371E0,2.294245660E-1
4.442715790E0,-2.447372913E0,-1.843785167E0,2.198374718E-1
4.445241051E0,-2.414350748E0,-1.853372335E0,2.102503628E-1
4.447766311E0,-2.379198074E0,-1.856567979E0,1.985328048E-1
4.450291572E0,-2.339917421E0,-1.849111319E0,1.836195439E-1
4.452816832E0,-2.296242952E0,-1.829937220E0,1.676410437E-1
4.455342093E0,-2.242981195E0,-1.795849681E0,1.537930220E-1
4.457867665E0,-2.186523914E0,-1.747914195E0,1.378145218E-1
4.460392926E0,-2.126870871E0,-1.685065508E0,1.175750941E-1
4.462918186E0,-2.062956810E0,-1.610499144E0,9.733566642E-2
4.465443447E0,-1.995847225E0,-1.535932899E0,7.603100687E-2
4.467968707E0,-1.922346115E0,-1.463497043E0,4.833494872E-2
4.470494020E0,-1.847779870E0,-1.373085380E0,2.276935615E-2
4.473019280E0,-1.770017862E0,-1.271888256E0,-1.344856713E-2
4.475544540E0,-1.687062860E0,-1.177082539E0,-6.031882018E-2
4.478069801E0,-1.597583175E0,-1.084407210E0,-1.082543060E-1
4.480595061E0,-1.507038474E0,-9.938623905E-1,-1.561897993E-1
4.483120322E0,-1.422885060E0,-9.086437821E-1,-2.073209733E-1
4.485645582E0,-1.337666392E0,-8.266208172E-1,-2.583190203E-1
4.488171103E0,-1.253512979E0,-7.500572205E-1,-3.009283245E-1
4.490696363E0,-1.174685717E0,-6.882736683E-1,-3.456681073E-1
4.493221624E0,-1.100252509E0,-6.371424794E-1,-3.925383687E-1
4.495746884E0,-1.027816772E0,-5.987941027E-1,-4.319519997E-1
4.498272145E0,-9.617722631E-1,-5.689675808E-1,-4.703003764E-1
4.500797457E0,-9.010539651E-1,-5.476629138E-1,-5.054530501E-1
4.503322718E0,-8.424661756E-1,-5.402063131E-1,-5.427362323E-1
4.505847978E0,-7.913349867E-1,-5.434020162E-1,-5.789541602E-1
4.508373238E0,-7.476604581E-1,-5.540543199E-1,-6.066502333E-1
4.510898499E0,-7.103772759E-1,-5.753589869E-1,-6.343462467E-1
4.513423759E0,-6.784203053E-1,-5.987941027E-1,-6.599118710E-1
4.515949020E0,-6.528546810E-1,-6.339467764E-1,-6.801512837E-1
4.518474593E0,-6.315500140E-1,-6.690995097E-1,-6.982602477E-1
4.520999853E0,-6.208977103E-1,-7.106435895E-1,-7.121082544E-1
4.523525113E0,-6.166367531E-1,-7.479267120E-1,-7.153039575E-1
4.526050374E0,-6.177020073E-1,-7.916013002E-1,-7.184996605E-1
4.528575634E0,-6.240934134E-1,-8.340774775E-1,-7.195649147E-1
4.531100947E0,-6.272891164E-1,-8.702954054E-1,-7.142387629E-1
4.533626207E0,-6.358109713E-1,-9.086437821E-1,-7.089125514E-1
4.536151468E0,-6.496589780E-1,-9.427312016E-1,-7.003906965E-1
4.538676728E0,-6.592460871E-1,-9.746882319E-1,-6.876079440E-1
4.541201988E0,-6.709636450E-1,-1.003449559E0,-6.790860295E-1
4.543727249E0,-6.848116517E-1,-1.023688912E0,-6.716294289E-1
4.546252509E0,-6.922683120E-1,-1.040732622E0,-6.673684716E-1
4.548778082E0,-7.018554211E-1,-1.053515434E0,-6.641727686E-1
4.551303343E0,-7.093120217E-1,-1.062037349E0,-6.673684716E-1
4.553828603E0,-7.125077248E-1,-1.069494009E0,-6.684337258E-1
4.556353863E0,-7.135729790E-1,-1.063102603E0,-6.748251319E-1
4.558879124E0,-7.093120217E-1,-1.051385045E0,-6.854774356E-1
4.561404436E0,-7.007901669E-1,-1.037536979E0,-6.950645447E-1
4.563929697E0,-6.912030578E-1,-1.010906100E0,-7.067821026E-1
4.566454957E0,-6.762897968E-1,-9.800143838E-1,-7.270215154E-1
4.568980218E0,-6.549851298E-1,-9.480574131E-1,-7.536523938E-1
4.571505478E0,-6.315500140E-1,-9.075785279E-1,-7.802832127E-1
4.574030738E0,-6.081148982E-1,-8.617734909E-1,-8.122401834E-1
4.576555999E0,-5.814840794E-1,-8.118407130E-1,-8.429988027E-1
4.579081572E0,-5.559184551E-1,-7.649704814E-1,-8.696296215E-1
4.581606832E0,-5.283555984E-1,-7.106435895E-1,-8.930647373E-1
4.584132093E0,-5.006595254E-1,-6.605776548E-1,-9.260869622E-1
4.586657353E0,-4.708330035E-1,-6.169030666E-1,-9.559134841E-1
4.589182613E0,-4.378107786E-1,-5.838808417E-1,-9.868052602E-1
4.591707926E0,-4.058537781E-1,-5.593804717E-1,-1.013436079E0
4.594233186E0,-3.802881837E-1,-5.434020162E-1,-1.039001703E0
4.596758447E0,-3.515268862E-1,-5.370106101E-1,-1.068828225E0
4.599283707E0,-3.217003644E-1,-5.402063131E-1,-1.094393730E0
4.601808968E0,-2.929390669E-1,-5.529890656E-1,-1.118894100E0
4.604334228E0,-2.673735023E-1,-5.689675808E-1,-1.146590233E0
4.606859488E0,-2.418078929E-1,-5.881417990E-1,-1.174286246E0
4.609385009E0,-2.162422985E-1,-6.030550599E-1,-1.204112768E0
4.611910322E0,-2.013290375E-1,-6.158378124E-1,-1.231808782E0
4.614435582E0,-1.832200736E-1,-6.328815818E-1,-1.262700558E0
4.616960895E0,-1.704372764E-1,-6.371424794E-1,-1.296788096E0
4.619486155E0,-1.608501822E-1,-6.350120306E-1,-1.328745008E0
4.622011415E0,-1.565892547E-1,-6.339467764E-1,-1.364962935E0
4.624536728E0,-1.533935517E-1,-6.232944727E-1,-1.402246118E0
4.627061988E0,-1.523283273E-1,-6.051855087E-1,-1.437265635E0
4.629587301E0,-1.523283273E-1,-5.849460959E-1,-1.478809714E0
4.632112561E0,-1.597849578E-1,-5.551195741E-1,-1.517158151E0
4.634637874E0,-1.746982187E-1,-5.199668407E-1,-1.552310824E0
4.637163134E0,-1.842853129E-1,-4.848141670E-1,-1.591724396E0
4.639688499E0,-1.991985738E-1,-4.528571963E-1,-1.632203341E0
4.642213811E0,-2.151770741E-1,-4.219654202E-1,-1.671616912E0
4.644739072E0,-2.375469655E-1,-3.995955288E-1,-1.709965348E0
4.647264384E0,-2.673735023E-1,-3.836170435E-1,-1.746183276E0
4.649789645E0,-3.035914004E-1,-3.804213405E-1,-1.781335950E0
4.652314905E0,-3.366136253E-1,-3.963998258E-1,-1.810097218E0
4.654840218E0,-3.760272563E-1,-4.294220507E-1,-1.832467079E0
4.657365478E0,-4.260932207E-1,-4.826837182E-1,-1.838858485E0
4.659890790E0,-4.729634523E-1,-5.615109801E-1,-1.832467079E0
4.662416051E0,-5.272903442E-1,-6.563166976E-1,-1.815423369E0
4.664941363E0,-5.921363831E-1,-7.521876693E-1,-1.777074933E0
4.667466624E0,-6.613765359E-1,-8.564473391E-1,-1.718487144E0
4.669991936E0,-7.455299497E-1,-9.587097168E-1,-1.635398984E0
4.672517249E0,-8.563141823E-1,-1.058841586E0,-1.529940963E0
4.675042509E0,-1.000120640E0,-1.154712558E0,-1.409702778E0
4.677567822E0,-1.149120092E0,-1.235670328E0,-1.281874776E0
4.680093082E0,-1.281208992E0,-1.289997220E0,-1.143394470E0
4.682618343E0,-1.351514339E0,-1.332606554E0,-1.004914165E0
4.685143655E0,-1.325948834E0,-1.370954871E0,-8.717600703E-1
4.687668915E0,-1.199186087E0,-1.445388079E0,-7.461957335E-1
4.690194228E0,-9.852073789E-1,-1.585998774E0,-6.428681016E-1
4.692719488E0,-7.306166887E-1,-1.800110698E0,-5.693670511E-1
4.695244801E0,-4.825505614E-1,-2.082264185E0,-5.299534202E-1
4.697770061E0,-2.737648785E-1,-2.362420559E0,-5.139749050E-1
4.700295426E0,-1.139799356E-1,-2.568010569E0,-5.022573471E-1
4.702820738E0,-4.260932095E-3,-2.642576933E0,-4.798874855E-1
4.705345999E0,5.113118514E-2,-2.588249922E0,-4.553871155E-1
4.707871311E0,7.030537724E-2,-2.414617062E0,-4.330172241E-1
4.710396572E0,7.869409025E-2,-2.150439262E0,-4.287562966E-1
4.712921832E0,1.074553803E-1,-1.825676203E0,-4.404738545E-1
4.715447145E0,1.628475040E-1,-1.440061927E0,-4.788222313E-1
4.717972405E0,2.651098669E-1,-9.842753410E-1,-5.459319353E-1
4.720497718E0,4.270252883E-1,-4.645747542E-1,-6.375419497E-1
4.723022978E0,6.315500140E-1,8.388710022E-2,-7.461957335E-1
4.725548290E0,8.487244248E-1,6.089138389E-1,-8.472597003E-1
4.728073551E0,1.027683616E0,1.068961382E0,-9.154346585E-1
4.730598915E0,1.148054838E0,1.415162086E0,-9.431306720E-1
4.733124228E0,1.208773136E0,1.617423177E0,-9.314131141E-1
4.735649488E0,1.221555948E0,1.661097765E0,-8.962604403E-1
4.738174801E0,1.211968899E0,1.549381375E0,-8.461945057E-1
4.740700061E0,1.207707882E0,1.315030217E0,-7.866745591E-1
4.743225322E0,1.221555948E0,1.006112576E0,-7.366086245E-1
4.745750634E0,1.235404015E0,6.760234833E-1,-7.046516538E-1
4.748275895E0,1.230077863E0,3.715000153E-1,-6.908035874E-1
4.750801207E0,1.198120832E0,1.456706226E-1,-6.918688416E-1
4.753326468E0,1.151250601E0,5.059856921E-3,-7.142387629E-1
4.755851780E0,1.113967419E0,-6.204982474E-2,-7.611089945E-1
4.758377040E0,1.101184607E0,-7.909355313E-2,-8.398030996E-1
4.760902405E0,1.108641267E0,-4.926702753E-2,-9.463263750E-1
4.763427718E0,1.143793941E0,4.234301299E-2,-1.063502073E0
4.765952978E0,1.202381730E0,2.021279633E-1,-1.189199567E0
4.768478290E0,1.270556688E0,4.246285260E-1,-1.308505654E0
4.771003551E0,1.356707454E0,6.909367442E-1,-1.427811742E0
4.773528811E0,1.453643560E0,9.838758707E-1,-1.534201860E0
4.776054124E0,1.554840803E0,1.292660236E0,-1.624746680E0
4.778579384E0,1.651776910E0,1.589860320E0,-1.704639196E0
4.781104697E0,1.746582747E0,1.853904963E0,-1.771748781E0
4.783629957E0,1.833931804E0,2.070147276E0,-1.831401825E0
4.786155270E0,1.904103994E0,2.211823225E0,-1.871880770E0
4.788680530E0,1.964822292E0,2.281995535E0,-1.891054869E0
4.791205843E0,1.999974966E0,2.278799772E0,-1.883598328E0
4.793731155E0,1.996779323E0,2.204366684E0,-1.855902195E0
4.796256415E0,1.964822292E0,2.068016768E0,-1.809031963E0
4.798781728E0,1.911560655E0,1.889057636E0,-1.739791870E0
4.801306988E0,1.842453718E0,1.683467627E0,-1.655638456E0
4.803832249E0,1.764691710E0,1.478010774E0,-1.565093637E0
4.806357561E0,1.681603432E0,1.284138441E0,-1.462831259E0
4.808882822E0,1.597450018E0,1.109440207E0,-1.361767292E0
4.811408134E0,1.516492367E0,9.593755007E-1,-1.266961575E0
4.813933395E0,1.445121765E0,8.336780071E-1,-1.186003804E0
4.816458707E0,1.382272959E0,7.271546721E-1,-1.123155117E0
4.818983968E0,1.339663625E0,6.568493247E-1,-1.063502073E0
4.821509332E0,1.315163374E0,6.216966510E-1,-1.025153637E0
4.824034645E0,1.306641459E0,6.089138389E-1,-1.002783775E0
4.826559905E0,1.311967611E0,6.110442877E-1,-9.846747518E-1
4.829085218E0,1.327946067E0,6.291532516E-1,-9.697614908E-1
4.831610478E0,1.346055031E0,6.536536217E-1,-9.655005932E-1
4.834135738E0,1.363098860E0,6.781539917E-1,-9.580439329E-1
4.836661051E0,1.378012061E0,7.005238533E-1,-9.559134841E-1
4.839186311E0,1.389729619E0,7.122414112E-1,-9.612396359E-1
4.841711624E0,1.399316788E0,7.186328173E-1,-9.676310420E-1
4.844236884E0,1.409969091E0,7.079805136E-1,-9.772181511E-1
4.846762197E0,1.418490887E0,6.920019984E-1,-9.921314120E-1
4.849287457E0,1.423817039E0,6.696321368E-1,-1.005979419E0
4.851812822E0,1.429143310E0,6.504579186E-1,-1.027284145E0
4.854338134E0,1.437665105E0,6.430012584E-1,-1.048588753E0
4.856863395E0,1.446187019E0,6.493926644E-1,-1.066697717E0
4.859388707E0,1.463230729E0,6.824148893E-1,-1.083741426E0
4.861913968E0,1.479209185E0,7.346113324E-1,-1.108241796E0
4.864439228E0,1.503709555E0,8.102428913E-1,-1.135937810E0
4.866964540E0,1.537796974E0,9.018529058E-1,-1.162568688E0
4.869489801E0,1.579341054E0,1.010373473E0,-1.186003804E0
4.872015113E0,1.626211405E0,1.124353409E0,-1.209438920E0
4.874540374E0,1.672016382E0,1.231941938E0,-1.235004544E0
4.877065686E0,1.722082376E0,1.329943419E0,-1.259504914E0
4.879590947E0,1.775344014E0,1.422618747E0,-1.279744267E0
4.882116311E0,1.827540398E0,1.492924094E0,-1.296788096E0
4.884641624E0,1.877606392E0,1.551511884E0,-1.309570789E0
4.887166884E0,1.928604364E0,1.597316861E0,-1.317027450E0
4.889692197E0,1.976539850E0,1.631271243E0,-1.320223212E0
4.892217457E0,2.019149303E0,1.648314953E0,-1.321288466E0
4.894742718E0,2.059628010E0,1.657902002E0,-1.317027450E0
4.897268030E0,2.091585159E0,1.662163019E0,-1.310636044E0
4.899793290E0,2.124607325E0,1.664293408E0,-1.296788096E0
4.902318603E0,2.149107695E0,1.666423917E0,-1.278679132E0
4.904843863E0,2.167216539E0,1.668554425E0,-1.260570168E0
4.907369176E0,2.182129860E0,1.672815323E0,-1.229678392E0
4.909894436E0,2.190651655E0,1.674945831E0,-1.197721362E0
4.912419801E0,2.193847418E0,1.680271983E0,-1.167894840E0
4.914945113E0,2.183195114E0,1.686663389E0,-1.129546523E0
4.917470374E0,2.172542810E0,1.687728524E0,-1.083741426E0
4.919995686E0,2.151238203E0,1.686663389E0,-1.041132092E0
4.922520947E0,2.129933357E0,1.687728524E0,-9.942618608E-1
4.925046207E0,2.103302717E0,1.683467627E0,-9.431306720E-1
4.927571520E0,2.071345568E0,1.677076221E0,-8.951951861E-1
4.930096780E0,2.039388657E0,1.668554425E0,-8.472597003E-1
4.932622093E0,2.009562016E0,1.657902002E0,-7.983921766E-1
4.935147353E0,1.986127019E0,1.633401632E0,-7.557828426E-1
4.937672665E0,1.965887547E0,1.598382115E0,-7.227606177E-1
4.940197926E0,1.944582939E0,1.552577138E0,-6.876079440E-1
4.942723343E0,1.928604364E0,1.500380754E0,-6.567161679E-1
4.945248655E0,1.919017315E0,1.436466694E0,-6.332810521E-1
4.947773915E0,1.901973605E0,1.372552752E0,-6.151720881E-1
4.950299228E0,1.888258696E0,1.320356369E0,-5.949326158E-1
4.952824488E0,1.870149732E0,1.276681781E0,-5.778889060E-1
4.955349749E0,1.858432174E0,1.228746295E0,-5.683017969E-1
4.957875061E0,1.846714616E0,1.182941318E0,-5.629756451E-1
4.960400322E0,1.840323210E0,1.145658135E0,-5.587147474E-1
4.962925634E0,1.837127447E0,1.107309699E0,-5.597799420E-1
4.965450895E0,1.833931804E0,1.072157025E0,-5.619103909E-1
4.967976207E0,1.840323210E0,1.038069606E0,-5.661713481E-1
4.970501468E0,1.845649362E0,1.011438727E0,-5.778889060E-1
4.973026780E0,1.850975513E0,9.923977256E-1,-5.959978700E-1
4.975552093E0,1.864823580E0,9.796149135E-1,-6.087806821E-1
4.978077353E0,1.880802035E0,9.689626098E-1,-6.236939430E-1
4.980602665E0,1.895715356E0,9.647016525E-1,-6.364767551E-1
4.983127926E0,1.916886806E0,9.647016525E-1,-6.471290588E-1
4.985653186E0,1.937126279E0,9.647016525E-1,-6.567161679E-1
4.988178499E0,1.963757038E0,9.657669067E-1,-6.663032770E-1
4.990703759E0,1.985061765E0,9.625712037E-1,-6.790860295E-1
4.993229072E0,2.007431746E0,9.593755007E-1,-6.865426898E-1
4.995754332E0,2.028736353E0,9.583102465E-1,-6.961297989E-1
4.998279645E0,2.042584419E0,9.604407549E-1,-7.035863996E-1
5.000804905E0,2.057497501E0,9.604407549E-1,-7.099778056E-1
5.003330322E0,2.067084789E0,9.572450519E-1,-7.153039575E-1
5.005855634E0,2.070280313E0,9.593755007E-1,-7.174344659E-1
5.008380895E0,2.066019535E0,9.615059495E-1,-7.195649147E-1
5.010906207E0,2.058562756E0,9.657669067E-1,-7.184996605E-1
5.013431468E0,2.044714689E0,9.678973556E-1,-7.142387629E-1
5.015956728E0,2.023410082E0,9.732235074E-1,-7.046516538E-1
5.018482040E0,2.001040220E0,9.785496593E-1,-6.939992905E-1
5.021007301E0,1.972278953E0,9.774844646E-1,-6.801512837E-1
5.023532613E0,1.939256668E0,9.785496593E-1,-6.620423198E-1
5.026057874E0,1.917952061E0,9.774844646E-1,-6.460638046E-1
5.028583186E0,1.890389204E0,9.636363983E-1,-6.279548407E-1
5.031108447E0,1.864823580E0,9.348751307E-1,-6.077154279E-1
5.033633811E0,1.841388464E0,8.901353478E-1,-5.864107609E-1
5.036159124E0,1.820083737E0,8.326127529E-1,-5.661713481E-1
5.038684384E0,1.800909638E0,7.655031085E-1,-5.512580872E-1
5.041209697E0,1.779604912E0,6.898715496E-1,-5.395405293E-1
5.043734957E0,1.758300304E0,6.057181358E-1,-5.310186744E-1
5.046260218E0,1.734865189E0,5.226299763E-1,-5.256925225E-1
5.048785530E0,1.708234310E0,4.384765327E-1,-5.235620141E-1
5.051310790E0,1.678407788E0,3.608476818E-1,-5.182358623E-1
5.053836103E0,1.648581266E0,2.873466015E-1,-5.129097104E-1
5.056361363E0,1.620885253E0,2.181064636E-1,-5.086487532E-1
5.058886676E0,1.597450018E0,1.616491079E-1,-5.075835586E-1
5.061411936E0,1.570819259E0,1.083874628E-1,-5.054530501E-1
5.063976780E0,1.545253634E0,6.258244067E-2,-4.969311953E-1
5.066502040E0,1.521818519E0,2.423405088E-2,-4.937354922E-1
5.069027353E0,1.497318149E0,-9.853405878E-3,-4.926702678E-1
5.071552613E0,1.478143930E0,-3.754946589E-2,-4.873441160E-1
5.074077926E0,1.457904577E0,-5.778888986E-2,-4.830831885E-1
5.076603186E0,1.436599851E0,-7.057169080E-2,-4.788222313E-1
5.079128499E0,1.417425752E0,-7.909355313E-2,-4.745613039E-1
5.081653759E0,1.395055771E0,-8.548495173E-2,-4.745613039E-1
5.084179020E0,1.370555401E0,-8.015878499E-2,-4.766917825E-1
5.086704332E0,1.343924642E0,-7.376738638E-2,-4.734960794E-1
5.089229593E0,1.317293763E0,-6.098458916E-2,-4.713656008E-1
5.091754905E0,1.290796161E0,-3.435376659E-2,-4.692351520E-1
5.094240790E0,1.260969639E0,-3.462007269E-3,-4.660394490E-1
5.096766103E0,1.229012609E0,3.062544949E-2,-4.553871155E-1
5.099291363E0,1.195990324E0,6.897383928E-2,-4.479304850E-1
5.101816676E0,1.161902905E0,1.094526947E-1,-4.404738545E-1
5.104341936E0,1.128880739E0,1.509967744E-1,-4.298215210E-1
5.106867197E0,1.091597557E0,1.968017966E-1,-4.159734845E-1
5.109392509E0,1.058575273E0,2.426068187E-1,-4.042559266E-1
5.111917770E0,1.028748751E0,2.916075289E-1,-3.893426657E-1
5.114443082E0,9.989222884E-1,3.406082690E-1,-3.744294047E-1
5.116968343E0,9.744219184E-1,3.896089792E-1,-3.563204408E-1
5.119493655E0,9.520519972E-1,4.406070113E-1,-3.424724042E-1
5.122018915E0,9.350082874E-1,4.949339032E-1,-3.275591433E-1
5.124544332E0,9.254211783E-1,5.545869470E-1,-3.115806580E-1
5.127069645E0,9.147688746E-1,6.099790335E-1,-2.945369184E-1
5.129594905E0,9.083774686E-1,6.685668826E-1,-2.806889117E-1
5.132120218E0,9.083774686E-1,7.303503752E-1,-2.625799477E-1
5.134645478E0,9.105079174E-1,7.836120725E-1,-2.497971505E-1
5.137170790E0,9.094427228E-1,8.368737102E-1,-2.391448170E-1
5.139696051E0,9.105079174E-1,8.880048990E-1,-2.252967805E-1
5.142221363E0,9.115731716E-1,9.316794276E-1,-2.157096863E-1
5.144746676E0,9.094427228E-1,9.721583128E-1,-2.030600458E-1
5.147271936E0,8.987903595E-1,1.000919580E0,-1.892120093E-1
5.149797249E0,8.870728016E-1,1.021025896E0,-1.732335240E-1
5.152322509E0,8.742899895E-1,1.029547691E0,-1.572550237E-1
5.154847822E0,8.529853225E-1,1.019960642E0,-1.423417628E-1
5.157373134E0,8.252893090E-1,9.977238774E-1,-1.295589656E-1
5.159898395E0,7.954627872E-1,9.604407549E-1,-1.146457046E-1
5.162423707E0,7.592448592E-1,9.093095660E-1,-9.760197252E-2
