time,seconds_elapsed,z,y,x
1686426574592588300,0.10058837890625,-0.66845703125,-0.5932159423828125,0.044586181640625
1686426574602533000,0.110533203125,-0.6708984375,-0.597137451171875,0.063873291015625
1686426574612478200,0.120478271484375,-0.658966064453125,-0.5773162841796875,0.0745697021484375
1686426574622422300,0.13042236328125,-0.6609039306640625,-0.57171630859375,0.0741729736328125
1686426574632367000,0.1403671875,-0.6779937744140625,-0.5735931396484375,0.0652008056640625
1686426574642312200,0.150312255859375,-0.7022247314453125,-0.556427001953125,0.0474700927734375
1686426574652257300,0.16025732421875,-0.7327728271484375,-0.5267486572265625,0.0280303955078125
1686426574662202000,0.1702021484375,-0.768157958984375,-0.4958953857421875,0.0097503662109375
1686426574672146200,0.180146240234375,-0.7916107177734375,-0.4625244140625,-0.01922607421875
1686426574682091300,0.19009130859375,-0.8075408935546875,-0.433624267578125,-0.0552520751953125
1686426574692036000,0.2000361328125,-0.806671142578125,-0.458648681640625,-0.08624267578125
1686426574701981200,0.209981201171875,-0.7939605712890625,-0.48187255859375,-0.0557403564453125
1686426574711926300,0.21992626953125,-0.7781524658203125,-0.4769134521484375,0.0152130126953125
1686426574721871000,0.22987109375,-0.775543212890625,-0.4814300537109375,0.07037353515625
1686426574731815200,0.239815185546875,-0.802886962890625,-0.4962921142578125,0.106109619140625
1686426574741760300,0.24976025390625,-0.8324737548828125,-0.502777099609375,0.124267578125
1686426574751705000,0.259705078125,-0.8245086669921875,-0.5145721435546875,0.132965087890625
1686426574761650200,0.269650146484375,-0.7906494140625,-0.5517425537109375,0.114593505859375
1686426574771595300,0.27959521484375,-0.7811431884765625,-0.5606842041015625,0.10662841796875
1686426574781540000,0.2895400390625,-0.7782135009765625,-0.5271148681640625,0.1294403076171875
1686426574791484200,0.299484130859375,-0.793182373046875,-0.5016937255859375,0.15386962890625
1686426574801429200,0.30942919921875,-0.8288116455078125,-0.4741973876953125,0.1837615966796875
1686426574811374000,0.3193740234375,-0.8610992431640625,-0.431488037109375,0.2229461669921875
1686426574821319200,0.329319091796875,-0.8893280029296875,-0.3901824951171875,0.248199462890625
1686426574831264300,0.33926416015625,-0.902008056640625,-0.371795654296875,0.272613525390625
1686426574841209000,0.349208984375,-0.889251708984375,-0.3507537841796875,0.2977447509765625
1686426574851153200,0.359153076171875,-0.897247314453125,-0.32098388671875,0.313995361328125
1686426574861098200,0.36909814453125,-0.9158935546875,-0.314910888671875,0.3337249755859375
1686426574871043300,0.379043212890625,-0.9058074951171875,-0.296905517578125,0.366180419921875
1686426574880988200,0.38898828125,-0.875732421875,-0.1938934326171875,0.3680419921875
1686426574890933200,0.398933349609375,-0.853668212890625,-0.082183837890625,0.31683349609375
1686426574900877300,0.408877197265625,-0.8338165283203125,-0.1732025146484375,0.3294525146484375
1686426574910822100,0.418822265625,-0.7803497314453125,-0.20538330078125,0.301422119140625
1686426574920767200,0.428767333984375,-0.68695068359375,-0.2439727783203125,0.378143310546875
1686426574930712300,0.43871240234375,-0.6054229736328125,-0.2849578857421875,0.435211181640625
1686426574940657200,0.4486572265625,-0.56976318359375,-0.34014892578125,0.4777679443359375
1686426574950602200,0.458602294921875,-0.5258026123046875,-0.367645263671875,0.536102294921875
1686426574960546300,0.46854638671875,-0.4229736328125,-0.3253631591796875,0.53466796875
1686426574970491100,0.4784912109375,-0.362762451171875,-0.245880126953125,0.5278472900390625
1686426574980436000,0.48843603515625,-0.2714385986328125,-0.172515869140625,0.5280303955078125
1686426574990381300,0.49838134765625,-0.1689605712890625,-0.126251220703125,0.5628662109375
1686426575000326100,0.508326171875,-0.07763671875,-0.08978271484375,0.61004638671875
1686426575010271200,0.518271240234375,-0.033966064453125,-0.0771484375,0.6736907958984375
1686426575020215300,0.52821533203125,-0.0514678955078125,-0.048675537109375,0.7070465087890625
1686426575030160100,0.53816015625,-0.0605926513671875,-0.0043182373046875,0.746917724609375
1686426575040105200,0.548105224609375,-0.068817138671875,0.0315704345703125,0.7561798095703125
1686426575050050300,0.55805029296875,-0.0649261474609375,0.0134735107421875,0.7755889892578125
1686426575059995100,0.5679951171875,-0.027923583984375,-0.024749755859375,0.8404693603515625
1686426575069940000,0.57793994140625,0.012725830078125,-0.1280975341796875,0.9436492919921875
1686426575079884300,0.58788427734375,0.0413055419921875,-0.2536773681640625,1.0554656982421875
1686426575089829000,0.5978291015625,0.0863037109375,-0.307403564453125,1.12921142578125
1686426575099774200,0.607774169921875,0.1536712646484375,-0.2862091064453125,1.2159881591796875
1686426575109719300,0.61771923828125,0.2448577880859375,-0.1084747314453125,1.310455322265625
1686426575119664000,0.6276640625,0.3571014404296875,0.2237701416015625,1.4047088623046875
1686426575129609200,0.637609130859375,0.4237823486328125,0.445098876953125,1.452667236328125
1686426575139553300,0.64755322265625,0.464813232421875,0.4906768798828125,1.4512786865234375
1686426575149498000,0.657498046875,0.5309295654296875,0.51934814453125,1.4547119140625
1686426575159443200,0.667443115234375,0.5545806884765625,0.54815673828125,1.44366455078125
1686426575169388300,0.67738818359375,0.5808868408203125,0.6272735595703125,1.3712615966796875
1686426575179333000,0.6873330078125,0.5860443115234375,0.7398681640625,1.281463623046875
1686426575189278200,0.6972783203125,0.5976409912109375,0.8125152587890625,1.195159912109375
1686426575199222000,0.707221923828125,0.6502685546875,0.8253021240234375,1.10906982421875
1686426575209167400,0.71716748046875,0.696197509765625,0.748199462890625,1.0734100341796875
1686426575219112200,0.7271123046875,0.6935882568359375,0.6546478271484375,1.10595703125
1686426575229057000,0.73705712890625,0.6229248046875,0.6236114501953125,1.1781463623046875
1686426575239002000,0.747002197265625,0.630584716796875,0.701690673828125,1.2737274169921875
1686426575248947200,0.756947265625,0.5642242431640625,0.8498382568359375,1.4627227783203125
1686426575258892300,0.766892333984375,0.464874267578125,0.985076904296875,1.7304534912109375
1686426575268836400,0.77683642578125,0.3297119140625,1.041595458984375,1.99957275390625
1686426575278781200,0.78678125,0.1752166748046875,0.9847869873046875,2.24127197265625
1686426575288726000,0.79672607421875,0.041778564453125,0.909149169921875,2.36981201171875
1686426575298671400,0.80667138671875,-0.07867431640625,0.83441162109375,2.3990020751953125
1686426575308616200,0.8166162109375,-0.160430908203125,0.676025390625,2.367950439453125
1686426575318560000,0.82656005859375,-0.1421661376953125,0.5027618408203125,2.301727294921875
1686426575328505000,0.836505126953125,0.0050811767578125,0.347015380859375,2.250732421875
1686426575338450200,0.8464501953125,0.20758056640625,0.2504119873046875,2.156524658203125
1686426575348395000,0.85639501953125,0.3560943603515625,0.1991729736328125,1.98956298828125
1686426575358340400,0.86634033203125,0.418212890625,0.17572021484375,1.7696075439453125
1686426575368285200,0.87628515625,0.3951873779296875,0.1304473876953125,1.5323028564453125
1686426575378230000,0.88622998046875,0.3160400390625,0.095672607421875,1.3058319091796875
1686426575388174000,0.896174072265625,0.2184906005859375,0.0729522705078125,1.1263580322265625
1686426575398119200,0.906119140625,0.1138763427734375,0.0977935791015625,0.978546142578125
1686426575408064000,0.91606396484375,0.012786865234375,0.1800384521484375,0.8494873046875
1686426575418009000,0.926009033203125,-0.08544921875,0.2849273681640625,0.73944091796875
1686426575427954200,0.9359541015625,-0.169952392578125,0.38250732421875,0.639007568359375
1686426575437899000,0.94589892578125,-0.243621826171875,0.441619873046875,0.562255859375
1686426575447843000,0.955843017578125,-0.290374755859375,0.468963623046875,0.503265380859375
1686426575457788200,0.9657880859375,-0.2900390625,0.4995269775390625,0.4438629150390625
1686426575467733200,0.975733154296875,-0.295745849609375,0.5413818359375,0.3833160400390625
1686426575477678000,0.985677978515625,-0.329071044921875,0.58740234375,0.3045806884765625
1686426575487623200,0.995623046875,-0.1900177001953125,0.6553955078125,0.2530670166015625
1686426575497568300,1.005568359375,0.1293487548828125,0.68060302734375,0.2168121337890625
1686426575507513000,1.01551318359375,0.2857513427734375,0.62554931640625,0.20367431640625
1686426575517457200,1.02545703125,0.2351226806640625,0.5479583740234375,0.1824951171875
1686426575527402200,1.03540234375,0.208099365234375,0.4139404296875,0.19964599609375
1686426575537347000,1.04534716796875,0.2559814453125,0.200897216796875,0.315216064453125
1686426575547292200,1.055292236328125,0.104400634765625,0.2188262939453125,0.393890380859375
1686426575557237200,1.0652373046875,0.061614990234375,0.218353271484375,0.4879608154296875
1686426575567182000,1.07518212890625,0.0183258056640625,0.2929840087890625,0.523773193359375
1686426575577126100,1.085126220703125,0.0793304443359375,0.3623809814453125,0.5108642578125
1686426575587071200,1.0950712890625,-0.0442352294921875,0.2741241455078125,0.5301361083984375
1686426575597016000,1.10501611328125,-0.1304779052734375,0.2660064697265625,0.600830078125
1686426575606961200,1.114961181640625,-0.1695556640625,0.309295654296875,0.62921142578125
1686426575616906200,1.12490625,-0.2536773681640625,0.3680572509765625,0.593963623046875
1686426575626851000,1.13485107421875,-0.3094635009765625,0.4556121826171875,0.559906005859375
1686426575636795100,1.144795166015625,-0.3278350830078125,0.4853057861328125,0.5322265625
1686426575646740200,1.154740234375,-0.3685150146484375,0.490020751953125,0.5117340087890625
1686426575656685000,1.16468505859375,-0.3157196044921875,0.5034637451171875,0.494140625
1686426575666630100,1.174630126953125,-0.2196807861328125,0.465789794921875,0.5479583740234375
1686426575676575200,1.1845751953125,-0.114501953125,0.4251251220703125,0.6436004638671875
1686426575686520000,1.19452001953125,0.0014801025390625,0.3609771728515625,0.7971343994140625
1686426575696465200,1.204465087890625,0.03948974609375,0.3013153076171875,0.9451751708984375
1686426575706409200,1.2144091796875,0.108154296875,0.41241455078125,1.1061248779296875
1686426575716354000,1.22435400390625,0.0755462646484375,0.5628204345703125,1.2638702392578125
1686426575726299100,1.234299072265625,-0.01995849609375,0.65985107421875,1.3145904541015625
1686426575736244200,1.244244140625,-0.0533294677734375,0.6942291259765625,1.2775421142578125
1686426575746189000,1.25418896484375,-0.09442138671875,0.6923370361328125,1.1940765380859375
1686426575756134100,1.264134033203125,-0.11199951171875,0.7133026123046875,1.1858978271484375
1686426575766079200,1.274079345703125,-0.10302734375,0.6949615478515625,1.2525787353515625
1686426575776023000,1.28402294921875,-0.086456298828125,0.674774169921875,1.2546539306640625
1686426575785968000,1.293968017578125,-0.17181396484375,0.6560821533203125,1.15380859375
1686426575795913200,1.303913330078125,-0.1898193359375,0.5343170166015625,1.123809814453125
1686426575805858000,1.313858154296875,-0.169189453125,0.5672149658203125,1.082183837890625
1686426575815803100,1.32380322265625,-0.230133056640625,0.53680419921875,1.0618743896484375
1686426575825748200,1.333748291015625,-0.2709197998046875,0.543121337890625,1.058624267578125
1686426575835692300,1.3436923828125,-0.2926788330078125,0.6110687255859375,1.078125
1686426575845637000,1.35363720703125,-0.3224029541015625,0.5856170654296875,0.9419708251953125
1686426575855582200,1.363582275390625,-0.3457794189453125,0.5699615478515625,0.8403472900390625
1686426575865527000,1.373527099609375,-0.373626708984375,0.56103515625,0.7678070068359375
1686426575875472100,1.38347216796875,-0.45001220703125,0.6276092529296875,0.7448577880859375
1686426575885417200,1.393417236328125,-0.53857421875,0.624267578125,0.672576904296875
1686426575895362000,1.403362060546875,-0.606201171875,0.735076904296875,0.684600830078125
1686426575905306000,1.41330615234375,-0.7112579345703125,0.8026885986328125,0.7413482666015625
1686426575915251200,1.423251220703125,-0.80633544921875,0.8575439453125,0.777587890625
1686426575925196300,1.4331962890625,-0.7589263916015625,0.81146240234375,0.805023193359375
1686426575935141000,1.44314111328125,-0.6210479736328125,0.7133636474609375,0.837493896484375
1686426575945086200,1.453086181640625,-0.4431610107421875,0.607330322265625,0.827545166015625
1686426575955031000,1.463031005859375,-0.2857818603515625,0.50054931640625,0.7861328125
1686426575964976000,1.47297607421875,-0.1996612548828125,0.428985595703125,0.7030181884765625
1686426575974920000,1.482919921875,-0.155731201171875,0.4185638427734375,0.5902099609375
1686426575984865300,1.492865234375,-0.17230224609375,0.4390869140625,0.4694671630859375
1686426575994810000,1.50281005859375,-0.21514892578125,0.467498779296875,0.389801025390625
1686426576004755200,1.512755126953125,-0.2252960205078125,0.4564056396484375,0.3937530517578125
1686426576014700300,1.5227001953125,-0.1946258544921875,0.3985137939453125,0.507904052734375
1686426576024645000,1.53264501953125,-0.158935546875,0.50408935546875,0.5738067626953125
1686426576034589000,1.5425888671875,-0.1367950439453125,0.708740234375,0.6214752197265625
1686426576044534300,1.5525341796875,-0.1332855224609375,0.7230682373046875,0.7340240478515625
1686426576054479000,1.56247900390625,-0.111328125,0.711151123046875,0.7366485595703125
1686426576064424000,1.572423828125,-0.097259521484375,0.698394775390625,0.7361907958984375
1686426576074369300,1.582369384765625,-0.1041107177734375,0.67327880859375,0.73480224609375
1686426576084314000,1.592314208984375,-0.1479644775390625,0.6539764404296875,0.6864776611328125
1686426576094259200,1.60225927734375,-0.1764984130859375,0.6433563232421875,0.6045989990234375
1686426576104203300,1.612203369140625,-0.2087554931640625,0.649688720703125,0.5008392333984375
1686426576114148000,1.622148193359375,-0.2486724853515625,0.6230010986328125,0.4181671142578125
1686426576124093000,1.632093017578125,-0.2616729736328125,0.572357177734375,0.35498046875
1686426576134038300,1.642038330078125,-0.2430877685546875,0.5294647216796875,0.3167724609375
1686426576143983000,1.651983154296875,-0.2145233154296875,0.497589111328125,0.297882080078125
1686426576153928000,1.661927978515625,-0.19775390625,0.46649169921875,0.305023193359375
1686426576163873300,1.671873291015625,-0.2010955810546875,0.4561614990234375,0.33123779296875
1686426576173817000,1.681817138671875,-0.2236480712890625,0.4951324462890625,0.3643646240234375
1686426576183762200,1.69176220703125,-0.251953125,0.519317626953125,0.450531005859375
1686426576193707300,1.701707275390625,-0.282623291015625,0.5338897705078125,0.56756591796875
1686426576203652000,1.711652099609375,-0.3205718994140625,0.583953857421875,0.6551513671875
1686426576213597200,1.72159716796875,-0.345458984375,0.6363372802734375,0.702362060546875
1686426576223542300,1.731542236328125,-0.3353424072265625,0.6010894775390625,0.806549072265625
1686426576233487000,1.741487060546875,-0.283203125,0.565185546875,0.877685546875
1686426576243431200,1.75143115234375,-0.1990203857421875,0.5554351806640625,0.887420654296875
1686426576253376300,1.761376220703125,-0.1495208740234375,0.52459716796875,0.857696533203125
1686426576263321000,1.771321044921875,-0.1256103515625,0.50543212890625,0.77459716796875
1686426576273266200,1.78126611328125,-0.0984344482421875,0.524810791015625,0.63714599609375
1686426576283211300,1.791211181640625,-0.1547088623046875,0.5188446044921875,0.6676483154296875
1686426576293156000,1.801156005859375,-0.3591461181640625,0.594146728515625,1.0364227294921875
1686426576303101200,1.81110107421875,-0.4170379638671875,0.753021240234375,1.2646484375
1686426576313045200,1.821045166015625,-0.408599853515625,0.8897705078125,1.26416015625
1686426576322990000,1.830989990234375,-0.340484619140625,0.939605712890625,1.0995635986328125
1686426576332935200,1.84093505859375,-0.2937164306640625,0.956817626953125,0.8990631103515625
1686426576342880000,1.8508798828125,-0.2600860595703125,0.9647674560546875,0.69219970703125
1686426576352825000,1.8608251953125,-0.2567138671875,0.92559814453125,0.5312957763671875
1686426576362770200,1.870770263671875,-0.2873382568359375,0.864654541015625,0.4332122802734375
1686426576372715000,1.880715087890625,-0.3455657958984375,0.7245635986328125,0.3958587646484375
1686426576382659000,1.8906591796875,-0.3759307861328125,0.7008819580078125,0.3095550537109375
1686426576392604200,1.900604248046875,-0.4681396484375,0.7562713623046875,0.2305145263671875
1686426576402549000,1.910549072265625,-0.7076873779296875,1.2628326416015625,0.580657958984375
1686426576412494000,1.920494140625,-1.07159423828125,2.03192138671875,1.0202484130859375
1686426576422439200,1.930439208984375,-1.0567169189453125,2.124786376953125,0.4763641357421875
1686426576432384000,1.940384033203125,-0.846832275390625,2.1336822509765625,-0.257965087890625
1686426576442329000,1.9503291015625,-0.675933837890625,2.16143798828125,-0.5257720947265625
1686426576452273200,1.960273193359375,-0.5880584716796875,1.8881988525390625,-0.467010498046875
1686426576462218000,1.970218017578125,-0.526611328125,1.4231414794921875,-0.448028564453125
1686426576472163000,1.9801630859375,-0.4756317138671875,1.0455169677734375,-0.459716796875
1686426576482108200,1.990108154296875,-0.4220733642578125,0.79046630859375,-0.53656005859375
1686426576492053000,2.000052978515625,-0.3841552734375,0.6242828369140625,-0.58306884765625
1686426576501998000,2.009998046875,-0.3641815185546875,0.486297607421875,-0.6110687255859375
1686426576511943200,2.019943115234375,-0.362396240234375,0.435638427734375,-0.6055755615234375
1686426576521887000,2.029886962890625,-0.3052978515625,0.4736328125,-0.56890869140625
1686426576531832000,2.03983203125,-0.2511749267578125,0.56829833984375,-0.4648895263671875
1686426576541777200,2.049777099609375,-0.2296905517578125,0.6668701171875,-0.3618316650390625
1686426576551722000,2.059721923828125,-0.1963043212890625,0.7773895263671875,-0.2697296142578125
1686426576561667000,2.0696669921875,-0.17578125,0.876373291015625,-0.2057647705078125
1686426576571612200,2.079612060546875,-0.183197021484375,0.9587554931640625,-0.1362152099609375
1686426576581557000,2.089556884765625,-0.1855621337890625,0.9712677001953125,-0.0793914794921875
1686426576591501000,2.0995009765625,-0.16064453125,0.9442596435546875,-0.060516357421875
1686426576601446100,2.109446044921875,-0.1710052490234375,0.9222412109375,-0.0227508544921875
1686426576611391000,2.119390869140625,-0.20599365234375,0.907806396484375,-0.010955810546875
1686426576621336000,2.129336181640625,-0.2500762939453125,0.8583221435546875,-0.0310821533203125
1686426576631281200,2.13928125,-0.2723846435546875,0.806732177734375,-0.07080078125
1686426576641226000,2.14922607421875,-0.2776031494140625,0.756744384765625,-0.117431640625
1686426576651171000,2.159171142578125,-0.2929229736328125,0.726531982421875,-0.1222686767578125
1686426576661115100,2.169115234375,-0.3097381591796875,0.706939697265625,-0.1371917724609375
1686426576671060000,2.17906005859375,-0.3172454833984375,0.752197265625,-0.1654815673828125
1686426576681005000,2.189005126953125,-0.3056640625,0.7835235595703125,-0.132354736328125
1686426576690950100,2.1989501953125,-0.2884521484375,0.7684326171875,-0.10626220703125
1686426576700895000,2.20889501953125,-0.2653045654296875,0.7381744384765625,-0.08489990234375
1686426576710840000,2.218840087890625,-0.23651123046875,0.6708221435546875,-0.0855712890625
1686426576720785200,2.22878515625,-0.197296142578125,0.5756378173828125,-0.1048126220703125
1686426576730729200,2.238729248046875,-0.1548004150390625,0.4651336669921875,-0.14923095703125
1686426576740674000,2.248674072265625,-0.1279296875,0.3710479736328125,-0.223388671875
1686426576750619100,2.258619140625,-0.1388397216796875,0.32269287109375,-0.2534027099609375
1686426576760564000,2.26856396484375,-0.156341552734375,0.3602142333984375,-0.2366790771484375
1686426576770509000,2.278509033203125,-0.1827392578125,0.4620819091796875,-0.24029541015625
1686426576780454100,2.2884541015625,-0.194061279296875,0.641876220703125,-0.274078369140625
1686426576790399000,2.29839892578125,-0.18463134765625,0.835418701171875,-0.305023193359375
1686426576800343000,2.308343017578125,-0.1580657958984375,0.9635467529296875,-0.362091064453125
1686426576810287900,2.318287841796875,-0.1458587646484375,1.0379638671875,-0.3831329345703125
1686426576820233200,2.328233154296875,-0.13531494140625,1.0821380615234375,-0.3886871337890625
1686426576830178000,2.338177978515625,-0.13525390625,1.1453094482421875,-0.379119873046875
1686426576840123100,2.348123046875,-0.1581573486328125,1.2069854736328125,-0.358917236328125
1686426576850068000,2.35806787109375,-0.1929473876953125,1.243438720703125,-0.3334808349609375
1686426576860013000,2.368012939453125,-0.244171142578125,1.279815673828125,-0.3160552978515625
1686426576869956900,2.377956787109375,-0.282684326171875,1.288482666015625,-0.2464141845703125
1686426576879902200,2.387902099609375,-0.2900848388671875,1.283477783203125,-0.1879425048828125
1686426576889847000,2.397846923828125,-0.2881622314453125,1.306121826171875,-0.1749420166015625
1686426576899792000,2.4077919921875,-0.30645751953125,1.2788848876953125,-0.2124481201171875
1686426576909737200,2.4177373046875,-0.3586578369140625,1.1401824951171875,-0.2671966552734375
1686426576919682000,2.42768212890625,-0.4139404296875,0.97760009765625,-0.3397064208984375
1686426576929627100,2.437627197265625,-0.4547119140625,0.964141845703125,-0.3982086181640625
1686426576939571200,2.4475712890625,-0.5213470458984375,1.0742340087890625,-0.422637939453125
1686426576949516000,2.45751611328125,-0.5847015380859375,1.334808349609375,-0.3892059326171875
1686426576959460900,2.4674609375,-0.6383209228515625,1.5042266845703125,-0.3675689697265625
1686426576969406200,2.47740625,-0.6126708984375,1.4438323974609375,-0.3574371337890625
1686426576979351000,2.48735107421875,-0.5247039794921875,1.280609130859375,-0.269073486328125
1686426576989295900,2.4972958984375,-0.4412384033203125,1.1062164306640625,-0.1891021728515625
1686426576999241200,2.5072412109375,-0.3990478515625,0.96429443359375,-0.1658782958984375
1686426577009186000,2.51718603515625,-0.3845367431640625,0.8712005615234375,-0.1434326171875
1686426577019130000,2.527130126953125,-0.376800537109375,0.7977752685546875,-0.111053466796875
1686426577029075200,2.5370751953125,-0.3646240234375,0.72198486328125,-0.1037139892578125
1686426577039020000,2.54702001953125,-0.3538818359375,0.6682586669921875,-0.089080810546875
1686426577048964900,2.55696484375,-0.365234375,0.64324951171875,-0.0750579833984375
1686426577058910200,2.56691015625,-0.3855133056640625,0.6465606689453125,-0.05657958984375
1686426577068855000,2.57685498046875,-0.409515380859375,0.6626434326171875,-0.0357513427734375
1686426577078800000,2.5867998046875,-0.44451904296875,0.7087860107421875,-0.029144287109375
1686426577088744200,2.596744140625,-0.4900360107421875,0.782684326171875,-0.017974853515625
1686426577098689000,2.60668896484375,-0.5341644287109375,0.8457794189453125,0.0027618408203125
1686426577108634000,2.616634033203125,-0.5592803955078125,0.9150848388671875,-0.0169525146484375
1686426577118579200,2.6265791015625,-0.55865478515625,1.016448974609375,-0.03985595703125
1686426577128524000,2.63652392578125,-0.53143310546875,1.0823822021484375,0.0177154541015625
1686426577138468900,2.64646875,-0.4842987060546875,1.04730224609375,0.048309326171875
1686426577148414200,2.656414306640625,-0.40704345703125,0.9566650390625,0.048675537109375
1686426577158359000,2.666359130859375,-0.33221435546875,0.8624267578125,0.0565643310546875
1686426577168303000,2.67630322265625,-0.262237548828125,0.7707977294921875,0.0600738525390625
1686426577178248200,2.686248291015625,-0.202667236328125,0.692413330078125,0.0483245849609375
1686426577188193000,2.696193115234375,-0.1839447021484375,0.63482666015625,0.0397186279296875
1686426577198138000,2.70613818359375,-0.2128143310546875,0.59002685546875,0.0044403076171875
1686426577208083200,2.716083251953125,-0.304229736328125,0.594024658203125,-0.0384368896484375
1686426577218028000,2.726028076171875,-0.394622802734375,0.5977020263671875,-0.06561279296875
1686426577227972900,2.735972900390625,-0.4564361572265625,0.6013946533203125,-0.0738525390625
1686426577237917200,2.745917236328125,-0.4700927734375,0.584808349609375,-0.07110595703125
1686426577247862000,2.755862060546875,-0.440521240234375,0.5505523681640625,-0.073150634765625
1686426577257807000,2.76580712890625,-0.385040283203125,0.5413055419921875,-0.075286865234375
1686426577267752200,2.775752197265625,-0.3435211181640625,0.553985595703125,-0.0501251220703125
1686426577277697000,2.785697021484375,-0.32525634765625,0.5906524658203125,-0.0257568359375
1686426577287642000,2.79564208984375,-0.3164215087890625,0.653900146484375,-0.0408477783203125
1686426577297587200,2.805587158203125,-0.311065673828125,0.7366943359375,-0.05511474609375
1686426577307532000,2.815531982421875,-0.29541015625,0.8109893798828125,-0.05621337890625
1686426577317476000,2.82547607421875,-0.25823974609375,0.8365936279296875,-0.04083251953125
1686426577327420200,2.835420166015625,-0.232086181640625,0.8360748291015625,-0.0226898193359375
1686426577337365200,2.845365234375,-0.2329559326171875,0.8654327392578125,-0.00244140625
1686426577347310300,2.855310302734375,-0.23876953125,0.9151153564453125,0.0394744873046875
1686426577357255200,2.865255126953125,-0.2484893798828125,0.9674835205078125,0.09063720703125
1686426577367200300,2.8752001953125,-0.2700653076171875,0.9793243408203125,0.115234375
1686426577377145300,2.885145263671875,-0.3106689453125,0.9543304443359375,0.1473846435546875
1686426577387089200,2.895089111328125,-0.3460235595703125,0.9211273193359375,0.1612548828125
1686426577397034200,2.9050341796875,-0.3549957275390625,0.9130401611328125,0.1723785400390625
1686426577406979000,2.91497900390625,-0.34100341796875,0.8992919921875,0.202178955078125
1686426577416924200,2.924924072265625,-0.3427734375,0.9852142333984375,0.1918792724609375
1686426577426869200,2.934869140625,-0.3176422119140625,1.055938720703125,0.208770751953125
1686426577436814300,2.944814453125,-0.285797119140625,1.08135986328125,0.23297119140625
1686426577446759200,2.95475927734375,-0.2888031005859375,1.0405731201171875,0.23388671875
1686426577456704300,2.964704345703125,-0.359649658203125,1.0349578857421875,0.216766357421875
1686426577466648000,2.97464794921875,-0.4221343994140625,1.024444580078125,0.19720458984375
1686426577476593200,2.98459326171875,-0.409881591796875,1.042327880859375,0.145263671875
1686426577486538200,2.994538330078125,-0.3251495361328125,1.0501861572265625,0.0985260009765625
1686426577496483000,3.004483154296875,-0.244659423828125,1.0591583251953125,0.05999755859375
1686426577506428200,3.01442822265625,-0.212921142578125,1.091644287109375,0.03167724609375
1686426577516373200,3.024373291015625,-0.226715087890625,1.1304779052734375,0.013671875
1686426577526318000,3.034318115234375,-0.272613525390625,1.1569976806640625,-0.024169921875
1686426577536263200,3.04426318359375,-0.3629150390625,1.2201690673828125,-0.0272674560546875
1686426577546207200,3.054207275390625,-0.49090576171875,1.2982940673828125,0.0259552001953125
1686426577556152000,3.064152099609375,-0.6623382568359375,1.4229736328125,0.1473236083984375
1686426577566097200,3.07409716796875,-0.8115997314453125,1.5037841796875,0.2289276123046875
1686426577576042200,3.084042236328125,-0.8345794677734375,1.477935791015625,0.2720794677734375
1686426577585987000,3.093987060546875,-0.774688720703125,1.38958740234375,0.2977142333984375
1686426577595932200,3.10393212890625,-0.760528564453125,1.39971923828125,0.2952423095703125
1686426577605877200,3.113877197265625,-0.7049102783203125,1.3825225830078125,0.1999969482421875
1686426577615822000,3.123822021484375,-0.6277923583984375,1.3841094970703125,0.1524505615234375
1686426577625766400,3.133766357421875,-0.5343780517578125,1.2837982177734375,0.1551971435546875
1686426577635711200,3.143711181640625,-0.4889068603515625,1.2404937744140625,0.10223388671875
1686426577645656000,3.153656005859375,-0.5196533203125,1.201416015625,-0.0019073486328125
1686426577655601200,3.16360107421875,-0.540740966796875,1.14801025390625,-0.063262939453125
1686426577665546200,3.173546142578125,-0.499359130859375,1.1130828857421875,-0.0665740966796875
1686426577675491000,3.183490966796875,-0.496063232421875,1.0796356201171875,-0.080078125
1686426577685436200,3.193436279296875,-0.574249267578125,1.14788818359375,-0.1641845703125
1686426577695381200,3.20338134765625,-0.6573333740234375,1.1730499267578125,-0.22576904296875
1686426577705325000,3.213324951171875,-0.6405487060546875,1.0849761962890625,-0.252593994140625
1686426577715270400,3.2232705078125,-0.61865234375,1.02703857421875,-0.3001708984375
1686426577725215200,3.23321533203125,-0.540191650390625,0.8316650390625,-0.20477294921875
1686426577735160000,3.24316015625,-0.506805419921875,0.7913360595703125,-0.2212677001953125
1686426577745105200,3.253105224609375,-0.4442596435546875,0.6927947998046875,-0.170074462890625
1686426577755050200,3.26305029296875,-0.4287872314453125,0.7022552490234375,-0.20941162109375
1686426577764995000,3.2729951171875,-0.3452911376953125,0.5791015625,-0.1437530517578125
1686426577774940200,3.282940185546875,-0.288848876953125,0.4713287353515625,-0.0714263916015625
1686426577784884200,3.29288427734375,-0.252960205078125,0.4517364501953125,-0.0605316162109375
1686426577794829000,3.3028291015625,-0.19781494140625,0.4266204833984375,-0.01617431640625
1686426577804774400,3.3127744140625,-0.1787109375,0.4663238525390625,-0.029693603515625
1686426577814719200,3.32271923828125,-0.1750335693359375,0.5218963623046875,-0.0456695556640625
1686426577824664000,3.3326640625,-0.1816864013671875,0.58868408203125,-0.059112548828125
1686426577834609200,3.342609130859375,-0.1892547607421875,0.6460113525390625,-0.0743255615234375
1686426577844554200,3.35255419921875,-0.188720703125,0.6799774169921875,-0.08514404296875
1686426577854499000,3.3624990234375,-0.1890869140625,0.68841552734375,-0.092498779296875
1686426577864444200,3.372444091796875,-0.1881103515625,0.6992950439453125,-0.107391357421875
1686426577874388200,3.38238818359375,-0.176666259765625,0.7171630859375,-0.1288299560546875
1686426577884333000,3.3923330078125,-0.1693267822265625,0.714599609375,-0.1854095458984375
1686426577894278400,3.4022783203125,-0.149658203125,0.726318359375,-0.2423095703125
1686426577904223200,3.41222314453125,-0.14715576171875,0.751251220703125,-0.27667236328125
1686426577914168000,3.42216796875,-0.1549530029296875,0.756927490234375,-0.2901153564453125
1686426577924113200,3.432113037109375,-0.1645355224609375,0.771087646484375,-0.304840087890625
1686426577934058200,3.442058349609375,-0.1595916748046875,0.77850341796875,-0.3251800537109375
1686426577944003000,3.452003173828125,-0.179595947265625,0.7787933349609375,-0.3339080810546875
1686426577953947400,3.461947509765625,-0.2333831787109375,0.8067169189453125,-0.3377838134765625
1686426577963892200,3.471892333984375,-0.2785797119140625,0.7838287353515625,-0.2661590576171875
1686426577973837000,3.481837158203125,-0.298187255859375,0.7308502197265625,-0.156768798828125
1686426577983782400,3.491782470703125,-0.2972869873046875,0.70166015625,-0.0551605224609375
1686426577993727200,3.501727294921875,-0.2892303466796875,0.728912353515625,0.006103515625
1686426578003672000,3.511672119140625,-0.2713623046875,0.771392822265625,0.0615386962890625
1686426578013617200,3.5216171875,-0.2208404541015625,0.8773193359375,0.12945556640625
1686426578023562200,3.531562255859375,-0.1372222900390625,1.018585205078125,0.1825714111328125
1686426578033506000,3.541506103515625,-0.0269927978515625,1.1054229736328125,0.209075927734375
1686426578043451400,3.551451416015625,0.0469207763671875,1.1103973388671875,0.1712799072265625
1686426578053396200,3.561396240234375,0.0590972900390625,1.0358734130859375,0.090850830078125
1686426578063341000,3.571341064453125,0.0490875244140625,0.9188995361328125,-0.008544921875
1686426578073286400,3.581286376953125,0.0438079833984375,0.8198394775390625,-0.09625244140625
1686426578083231200,3.591231201171875,0.038482666015625,0.760589599609375,-0.1691436767578125
1686426578093176000,3.601176025390625,0.0384521484375,0.715728759765625,-0.2752532958984375
1686426578103121400,3.611121337890625,0.0310821533203125,0.6872711181640625,-0.352691650390625
1686426578113065200,3.621065185546875,0.0172119140625,0.6768646240234375,-0.353851318359375
1686426578123010000,3.631010009765625,0.0192413330078125,0.6925811767578125,-0.275634765625
1686426578132955100,3.640955078125,0.0637969970703125,0.741455078125,-0.16796875
1686426578142900200,3.650900146484375,0.1482696533203125,0.81805419921875,-0.0768280029296875
1686426578152845000,3.660844970703125,0.218353271484375,0.898101806640625,0.0099334716796875
1686426578162790400,3.670790283203125,0.2652587890625,0.9583740234375,0.0410614013671875
1686426578172735200,3.6807353515625,0.2536468505859375,1.004638671875,0.0460052490234375
1686426578182680000,3.69068017578125,0.2041778564453125,1.0356292724609375,0.0438995361328125
1686426578192624000,3.7006240234375,0.121612548828125,1.0622406005859375,0.034576416015625
1686426578202569200,3.7105693359375,0.0001220703125,1.0876007080078125,-0.0126495361328125
1686426578212514000,3.72051416015625,-0.100128173828125,1.10791015625,-0.0792388916015625
1686426578222459100,3.730459228515625,-0.1389312744140625,1.128448486328125,-0.17242431640625
1686426578232404200,3.740404296875,-0.134857177734375,1.1197662353515625,-0.274078369140625
1686426578242349000,3.75034912109375,-0.0912628173828125,1.0803070068359375,-0.3159332275390625
1686426578252294400,3.76029443359375,0.0037384033203125,1.0521392822265625,-0.27337646484375
1686426578262239200,3.7702392578125,0.1276397705078125,1.0705413818359375,-0.203704833984375
1686426578272184000,3.78018408203125,0.2321319580078125,1.1275787353515625,-0.15545654296875
1686426578282128100,3.790128173828125,0.2757720947265625,1.2075958251953125,-0.146087646484375
1686426578292073200,3.8000732421875,0.2628021240234375,1.31561279296875,-0.176605224609375
1686426578302018000,3.81001806640625,0.2065582275390625,1.446502685546875,-0.1988372802734375
1686426578311963100,3.819963134765625,0.0986175537109375,1.57989501953125,-0.1810150146484375
1686426578321908200,3.829908203125,-0.052459716796875,1.6768951416015625,-0.13690185546875
1686426578331853300,3.839853271484375,-0.1956329345703125,1.6956024169921875,-0.082061767578125
1686426578341798400,3.84979833984375,-0.348541259765625,1.6138458251953125,-0.0854949951171875
1686426578351743500,3.859743408203125,-0.4962158203125,1.380218505859375,-0.255828857421875
1686426578361688300,3.869688232421875,-0.5089569091796875,1.085418701171875,-0.3748016357421875
1686426578371632400,3.87963232421875,-0.46649169921875,0.8724365234375,-0.3956146240234375
1686426578381577500,3.889577392578125,-0.444854736328125,0.772979736328125,-0.3546142578125
1686426578391522300,3.899522216796875,-0.441741943359375,0.75030517578125,-0.2289886474609375
1686426578401467400,3.90946728515625,-0.485137939453125,0.7545928955078125,-0.0438232421875
1686426578411412500,3.91941259765625,-0.5585479736328125,0.74560546875,0.09722900390625
1686426578421357300,3.929357421875,-0.6628570556640625,0.7093658447265625,0.180572509765625
1686426578431302400,3.939302490234375,-0.7640228271484375,0.6927947998046875,0.2010345458984375
1686426578441247500,3.94924755859375,-0.8178863525390625,0.730438232421875,0.2415771484375
1686426578451191600,3.959191650390625,-0.7979888916015625,0.7951202392578125,0.34857177734375
1686426578461136400,3.969136474609375,-0.702239990234375,0.8600616455078125,0.4277496337890625
1686426578471081500,3.97908154296875,-0.54071044921875,0.9051666259765625,0.381866455078125
1686426578481026300,3.9890263671875,-0.3745269775390625,0.9008026123046875,0.24200439453125
1686426578490971400,3.998971435546875,-0.305145263671875,0.8967742919921875,0.15185546875
1686426578500916500,4.00891650390625,-0.29833984375,0.8984527587890625,0.0858001708984375
1686426578510861300,4.018861328125,-0.3067779541015625,0.9289703369140625,-0.014312744140625
1686426578520806400,4.028806396484375,-0.310394287109375,0.9836883544921875,-0.11077880859375
1686426578530751500,4.03875146484375,-0.3001708984375,1.0015716552734375,-0.1776275634765625
1686426578540695600,4.048695556640625,-0.276580810546875,0.979156494140625,-0.190460205078125
1686426578550640400,4.058640380859375,-0.2580108642578125,0.932708740234375,-0.2273712158203125
1686426578560585500,4.06858544921875,-0.245574951171875,0.891998291015625,-0.2781219482421875
1686426578570530300,4.0785302734375,-0.2534332275390625,0.860382080078125,-0.3089752197265625
1686426578580475400,4.088475341796875,-0.2825469970703125,0.8205108642578125,-0.318359375
1686426578590420500,4.09842041015625,-0.292144775390625,0.7972564697265625,-0.3100738525390625
1686426578600365300,4.108365234375,-0.283782958984375,0.8008880615234375,-0.2913665771484375
1686426578610310400,4.118310302734375,-0.25775146484375,0.819488525390625,-0.245361328125
1686426578620254500,4.12825439453125,-0.197265625,0.8604278564453125,-0.1608734130859375
1686426578630199600,4.138199462890625,-0.1196441650390625,0.9242095947265625,-0.061309814453125
1686426578640144400,4.148144287109375,-0.0660552978515625,0.9840850830078125,-0.0354461669921875
1686426578650089500,4.15808935546875,-0.0706329345703125,1.008026123046875,-0.00201416015625
1686426578660034300,4.168034423828125,-0.10577392578125,0.9923858642578125,0.05462646484375
1686426578669979400,4.1779794921875,-0.14678955078125,0.958099365234375,0.0893402099609375
1686426578679924500,4.187924560546875,-0.161865234375,0.9486846923828125,0.104949951171875
1686426578689869300,4.197869384765625,-0.1746368408203125,0.945220947265625,0.116455078125
1686426578699814400,4.207814453125,-0.2023468017578125,0.9424896240234375,0.128814697265625
1686426578709758200,4.21775830078125,-0.225341796875,0.9307708740234375,0.1326446533203125
1686426578719703600,4.22770361328125,-0.2331085205078125,0.9106903076171875,0.12432861328125
1686426578729648400,4.2376484375,-0.22723388671875,0.902923583984375,0.12994384765625
1686426578739593500,4.247593505859375,-0.1923370361328125,0.897796630859375,0.1446380615234375
1686426578749538300,4.257538330078125,-0.138275146484375,0.9220123291015625,0.1535797119140625
1686426578759483400,4.2674833984375,-0.09295654296875,0.9777679443359375,0.1522064208984375
1686426578769428500,4.277428466796875,-0.0777435302734375,1.02667236328125,0.1321868896484375
1686426578779373300,4.287373291015625,-0.093170166015625,1.072052001953125,0.1034698486328125
1686426578789318400,4.297318359375,-0.1073455810546875,1.1003875732421875,0.062408447265625
1686426578799262200,4.30726220703125,-0.1078033447265625,1.122222900390625,0.02410888671875
1686426578809207600,4.31720751953125,-0.1102142333984375,1.15545654296875,0.00506591796875
1686426578819152400,4.32715234375,-0.121673583984375,1.2071685791015625,0.00537109375
1686426578829097500,4.337097412109375,-0.14862060546875,1.2776336669921875,0.0176544189453125
1686426578839042300,4.347042236328125,-0.2098541259765625,1.3512115478515625,0.0587158203125
1686426578848987400,4.3569873046875,-0.298980712890625,1.3887786865234375,0.108245849609375
1686426578858932500,4.366932373046875,-0.37158203125,1.3924713134765625,0.1612091064453125
1686426578868877300,4.376877197265625,-0.4432220458984375,1.4036865234375,0.238861083984375
1686426578878822400,4.386822509765625,-0.5087738037109375,1.441314697265625,0.311553955078125
1686426578888766200,4.39676611328125,-0.5500030517578125,1.4766998291015625,0.3209991455078125
1686426578898711600,4.406711669921875,-0.540679931640625,1.45263671875,0.260406494140625
1686426578908656400,4.416656494140625,-0.543731689453125,1.3755035400390625,0.2626190185546875
1686426578918601500,4.4266015625,-0.6150054931640625,1.2705841064453125,0.301910400390625
1686426578928546300,4.43654638671875,-0.6909942626953125,1.1604766845703125,0.2858734130859375
1686426578938491400,4.446491455078125,-0.7242279052734375,1.074371337890625,0.224700927734375
1686426578948436500,4.4564365234375,-0.731964111328125,1.01220703125,0.1565704345703125
1686426578958381300,4.46638134765625,-0.7349700927734375,0.9772796630859375,0.087493896484375
1686426578968325400,4.476325439453125,-0.7574615478515625,0.9755859375,0.011962890625
1686426578978270200,4.486270263671875,-0.806976318359375,0.9872283935546875,-0.05975341796875
1686426578988215600,4.496215576171875,-0.85205078125,0.991302490234375,-0.1277618408203125
1686426578998160400,4.506160400390625,-0.86981201171875,0.9879302978515625,-0.1900634765625
1686426579008105500,4.51610546875,-0.84222412109375,0.9634857177734375,-0.2605438232421875
1686426579018050600,4.526050537109375,-0.787109375,0.942596435546875,-0.3443603515625
1686426579027995400,4.535995361328125,-0.712249755859375,0.937774658203125,-0.4031829833984375
1686426579037940500,4.5459404296875,-0.618438720703125,0.9497528076171875,-0.4327545166015625
1686426579047885300,4.55588525390625,-0.5129547119140625,0.982177734375,-0.446197509765625
1686426579057829400,4.565829345703125,-0.3989715576171875,1.0253448486328125,-0.41943359375
1686426579067774200,4.575774169921875,-0.2848663330078125,1.0729827880859375,-0.3620452880859375
1686426579077719600,4.585719482421875,-0.2071685791015625,1.0913543701171875,-0.2850799560546875
1686426579087664400,4.595664306640625,-0.180450439453125,1.1018829345703125,-0.193389892578125
1686426579097609500,4.605609375,-0.2115020751953125,1.0879364013671875,-0.1097412109375
1686426579107554600,4.615554443359375,-0.265472412109375,1.0605621337890625,-0.0662841796875
1686426579117499400,4.62549951171875,-0.314239501953125,1.061676025390625,-0.026336669921875
1686426579127444500,4.635444580078125,-0.3798828125,1.067230224609375,-0.0406646728515625
1686426579137389300,4.645389404296875,-0.4511566162109375,1.011962890625,-0.1042938232421875
1686426579147333400,4.65533349609375,-0.4985198974609375,0.915679931640625,-0.156982421875
1686426579157278200,4.6652783203125,-0.49566650390625,0.812774658203125,-0.1923065185546875
1686426579167223600,4.6752236328125,-0.466033935546875,0.7078704833984375,-0.2143096923828125
1686426579177168400,4.68516845703125,-0.4050140380859375,0.5941162109375,-0.1928558349609375
1686426579187113200,4.69511328125,-0.3480072021484375,0.481170654296875,-0.166046142578125
1686426579197058600,4.70505859375,-0.2841949462890625,0.392059326171875,-0.1171417236328125
1686426579207003400,4.71500341796875,-0.19921875,0.333404541015625,-0.07672119140625
1686426579216948500,4.724948486328125,-0.1131134033203125,0.2820892333984375,-0.0580902099609375
1686426579226893300,4.734893310546875,-0.0410614013671875,0.252471923828125,-0.0195159912109375
1686426579236837400,4.74483740234375,-0.009033203125,0.25921630859375,-0.0007171630859375
1686426579246782200,4.7547822265625,0.0468597412109375,0.2808074951171875,0.001556396484375
1686426579256727600,4.7647275390625,0.1153411865234375,0.30426025390625,-0.0428619384765625
1686426579266672400,4.77467236328125,0.1403350830078125,0.349945068359375,-0.1037139892578125
1686426579276617200,4.7846171875,0.0963134765625,0.469696044921875,-0.152191162109375
1686426579286562600,4.7945625,-0.02325439453125,0.6810150146484375,-0.2074127197265625
1686426579296507400,4.80450732421875,-0.1300048828125,0.8766632080078125,-0.242523193359375
1686426579306452500,4.814452392578125,-0.1980743408203125,1.0260467529296875,-0.2632598876953125
1686426579316397300,4.824397216796875,-0.2472991943359375,1.151641845703125,-0.2953948974609375
1686426579326342400,4.83434228515625,-0.2681121826171875,1.2125396728515625,-0.32379150390625
1686426579336287200,4.844287353515625,-0.27838134765625,1.20745849609375,-0.326446533203125
1686426579346232000,4.854232177734375,-0.2894134521484375,1.181549072265625,-0.309173583984375
1686426579356177400,4.864177490234375,-0.299285888671875,1.22344970703125,-0.2596435546875
1686426579366122200,4.874122314453125,-0.3224945068359375,1.314910888671875,-0.17108154296875
1686426579376067000,4.884067138671875,-0.35516357421875,1.362274169921875,-0.0954437255859375
1686426579386012400,4.894012451171875,-0.3740081787109375,1.2754669189453125,-0.1385650634765625
1686426579395957200,4.903957275390625,-0.35662841796875,0.9795989990234375,-0.322113037109375
1686426579405902300,4.91390234375,-0.3712310791015625,0.730743408203125,-0.4845733642578125
1686426579415846400,4.923846435546875,-0.489898681640625,0.7052764892578125,-0.5377960205078125
1686426579425791200,4.933791259765625,-0.6670074462890625,0.9515838623046875,-0.48687744140625
1686426579435736000,4.943736083984375,-0.7575225830078125,1.3494720458984375,-0.3214874267578125
1686426579445681400,4.953681396484375,-0.6781768798828125,1.5287628173828125,-0.232574462890625
1686426579455626200,4.963626220703125,-0.5028228759765625,1.3894500732421875,-0.154937744140625
1686426579465571000,4.973571044921875,-0.3991851806640625,1.196258544921875,-0.16278076171875
1686426579475516400,4.983516357421875,-0.4144134521484375,1.0359954833984375,-0.205291748046875
1686426579485461200,4.993461181640625,-0.447418212890625,0.8648529052734375,-0.207000732421875
1686426579495405300,5.0034052734375,-0.4484405517578125,0.7330322265625,-0.1772613525390625
1686426579505350400,5.013350341796875,-0.468048095703125,0.63116455078125,-0.1337432861328125
1686426579515295200,5.023295166015625,-0.4844207763671875,0.5546417236328125,-0.0885772705078125
1686426579525240000,5.033239990234375,-0.5148773193359375,0.5089111328125,-0.051025390625
1686426579535185400,5.043185302734375,-0.5460052490234375,0.5027618408203125,-0.0298919677734375
1686426579545130200,5.053130126953125,-0.5814208984375,0.5355224609375,-0.039276123046875
1686426579555075000,5.063074951171875,-0.6085052490234375,0.60540771484375,-0.056732177734375
1686426579565020400,5.0730205078125,-0.6260223388671875,0.7061004638671875,-0.057861328125
1686426579574965200,5.08296533203125,-0.6255645751953125,0.82244873046875,-0.0470123291015625
1686426579584910300,5.092910400390625,-0.59014892578125,0.9452056884765625,-0.0428314208984375
1686426579594854400,5.1028544921875,-0.5540008544921875,1.0638427734375,-0.055877685546875
1686426579604799200,5.11279931640625,-0.562255859375,1.1433258056640625,-0.0635528564453125
1686426579614744000,5.122744140625,-0.5637054443359375,1.1306915283203125,-0.0788116455078125
1686426579624689400,5.132689453125,-0.5128936767578125,1.05926513671875,-0.105438232421875
1686426579634634200,5.14263427734375,-0.44091796875,0.97576904296875,-0.192626953125
1686426579644579000,5.1525791015625,-0.38934326171875,0.9034271240234375,-0.2482147216796875
1686426579654524400,5.1625244140625,-0.3615875244140625,0.8481903076171875,-0.230804443359375
1686426579664469200,5.17246923828125,-0.362640380859375,0.7987823486328125,-0.1891021728515625
1686426579674414000,5.1824140625,-0.373077392578125,0.7542572021484375,-0.15966796875
1686426579684358400,5.1923583984375,-0.36785888671875,0.7040863037109375,-0.135223388671875
1686426579694303200,5.20230322265625,-0.351776123046875,0.66009521484375,-0.1120147705078125
1686426579704248000,5.212248046875,-0.3239288330078125,0.62774658203125,-0.0904541015625
1686426579714193400,5.222193359375,-0.30401611328125,0.6078948974609375,-0.069244384765625
1686426579724138200,5.23213818359375,-0.30328369140625,0.5934906005859375,-0.0558013916015625
1686426579734083000,5.2420830078125,-0.2954559326171875,0.594573974609375,-0.0454864501953125
1686426579744028400,5.2520283203125,-0.288238525390625,0.60357666015625,-0.033599853515625
1686426579753973200,5.26197314453125,-0.2751312255859375,0.613250732421875,-0.0174713134765625
1686426579763918000,5.27191796875,-0.24542236328125,0.6395263671875,-0.0009002685546875
1686426579773862400,5.2818623046875,-0.2152252197265625,0.6830596923828125,0.03228759765625
1686426579783807200,5.29180712890625,-0.1799163818359375,0.74273681640625,0.0737152099609375
1686426579793752300,5.30175244140625,-0.195068359375,0.7938385009765625,0.0862274169921875
1686426579803697400,5.311697509765625,-0.2083892822265625,0.8438262939453125,0.0880126953125
1686426579813642200,5.321642333984375,-0.2219390869140625,0.900909423828125,0.0778961181640625
1686426579823587000,5.331587158203125,-0.2573699951171875,0.9515838623046875,0.0697784423828125
1686426579833532400,5.341532470703125,-0.298828125,0.9925384521484375,0.0712890625
1686426579843477200,5.351477294921875,-0.331329345703125,1.0256805419921875,0.0958099365234375
1686426579853422000,5.361422119140625,-0.33380126953125,1.05841064453125,0.137939453125
1686426579863366400,5.371366455078125,-0.314605712890625,1.0998382568359375,0.1646881103515625
1686426579873311200,5.381311279296875,-0.3003082275390625,1.1580657958984375,0.158782958984375
1686426579883256300,5.39125634765625,-0.2964324951171875,1.20745849609375,0.110443115234375
1686426579893201400,5.401201416015625,-0.316162109375,1.2393951416015625,0.0626220703125
1686426579903146200,5.411146240234375,-0.3673095703125,1.26873779296875,0.0253143310546875
1686426579913091000,5.421091064453125,-0.4557952880859375,1.319122314453125,0.028076171875
1686426579923036400,5.431036376953125,-0.5561370849609375,1.3900909423828125,0.060089111328125
1686426579932981200,5.440981201171875,-0.6535491943359375,1.47674560546875,0.116729736328125
1686426579942926000,5.450926025390625,-0.6992034912109375,1.539459228515625,0.119140625
1686426579952870400,5.460870361328125,-0.7085113525390625,1.5462799072265625,0.09765625
1686426579962815200,5.470815185546875,-0.70404052734375,1.5079193115234375,0.0906524658203125
1686426579972760300,5.48076025390625,-0.650604248046875,1.40838623046875,0.0751953125
1686426579982705400,5.490705322265625,-0.60467529296875,1.2941741943359375,0.058502197265625
1686426579992650200,5.500650146484375,-0.56842041015625,1.196319580078125,0.0114593505859375
1686426580002595000,5.510594970703125,-0.555267333984375,1.119781494140625,-0.0472564697265625
1686426580012540400,5.52054052734375,-0.5775604248046875,1.0571441650390625,-0.10809326171875
1686426580022485200,5.5304853515625,-0.6143951416015625,0.9958343505859375,-0.1697540283203125
1686426580032430000,5.54043017578125,-0.6455230712890625,0.940093994140625,-0.2178192138671875
1686426580042375400,5.55037548828125,-0.6608428955078125,0.888397216796875,-0.2601165771484375
1686426580052319200,5.5603193359375,-0.6658172607421875,0.84906005859375,-0.2912139892578125
1686426580062264300,5.570264404296875,-0.664794921875,0.8096923828125,-0.303436279296875
1686426580072209400,5.58020947265625,-0.638946533203125,0.7773284912109375,-0.3065185546875
1686426580082154200,5.590154296875,-0.59930419921875,0.7529754638671875,-0.3135986328125
1686426580092099000,5.60009912109375,-0.5681610107421875,0.7570037841796875,-0.3100128173828125
1686426580102044400,5.61004443359375,-0.524017333984375,0.7909698486328125,-0.29742431640625
1686426580111989200,5.6199892578125,-0.46575927734375,0.8433380126953125,-0.2711181640625
1686426580121934000,5.62993408203125,-0.3783721923828125,0.903839111328125,-0.21490478515625
1686426580131879400,5.63987939453125,-0.26666259765625,0.9835052490234375,-0.123443603515625
1686426580141823200,5.6498232421875,-0.21453857421875,1.0499114990234375,-0.0018463134765625
1686426580151768300,5.659768310546875,-0.2423858642578125,1.0399017333984375,0.056793212890625
1686426580161713400,5.66971337890625,-0.2814483642578125,0.9568634033203125,0.0295257568359375
1686426580171658200,5.679658203125,-0.3227996826171875,0.86627197265625,-0.010467529296875
1686426580181603000,5.68960302734375,-0.3919219970703125,0.8033447265625,-0.034515380859375
1686426580191548400,5.69954833984375,-0.447784423828125,0.758026123046875,-0.0341033935546875
1686426580201493200,5.7094931640625,-0.4562530517578125,0.6971588134765625,-0.0620269775390625
1686426580211438000,5.71943798828125,-0.439300537109375,0.6385650634765625,-0.124542236328125
1686426580221383400,5.729383544921875,-0.4083709716796875,0.60906982421875,-0.2113494873046875
1686426580231328300,5.739328369140625,-0.3725433349609375,0.6070709228515625,-0.2845916748046875
1686426580241272300,5.749272216796875,-0.3214111328125,0.5897369384765625,-0.3022308349609375
1686426580251217400,5.759217529296875,-0.2832794189453125,0.5844879150390625,-0.2731170654296875
1686426580261162200,5.769162353515625,-0.2624053955078125,0.6122589111328125,-0.2316741943359375
1686426580271107000,5.779107177734375,-0.26214599609375,0.634002685546875,-0.1707611083984375
1686426580281052400,5.789052490234375,-0.2568511962890625,0.6251220703125,-0.109161376953125
1686426580290997200,5.798997314453125,-0.20660400390625,0.5998687744140625,-0.0886993408203125
1686426580300942000,5.808942138671875,-0.128936767578125,0.562469482421875,-0.0730133056640625
1686426580310887400,5.818887451171875,-0.0777130126953125,0.50311279296875,-0.0673980712890625
1686426580320832300,5.828832275390625,-0.0840911865234375,0.4429168701171875,-0.08990478515625
1686426580330776000,5.838776123046875,-0.12890625,0.39178466796875,-0.1262969970703125
1686426580340721000,5.848720947265625,-0.16943359375,0.372711181640625,-0.1659698486328125
1686426580350665700,5.858665771484375,-0.161376953125,0.4165496826171875,-0.2055816650390625
1686426580360611000,5.868611083984375,-0.12884521484375,0.5552215576171875,-0.2552032470703125
1686426580370556000,5.878555908203125,-0.101654052734375,0.794952392578125,-0.3188018798828125
1686426580380500700,5.888500732421875,-0.0832061767578125,1.0009002685546875,-0.371612548828125
1686426580390445800,5.89844580078125,-0.09429931640625,1.129058837890625,-0.386810302734375
1686426580400391000,5.908390869140625,-0.129852294921875,1.17169189453125,-0.38836669921875
1686426580410336000,5.9183359375,-0.18310546875,1.1689605712890625,-0.36944580078125
1686426580420280800,5.92828076171875,-0.21026611328125,1.1837921142578125,-0.3327789306640625
1686426580430225000,5.938224853515625,-0.2020721435546875,1.2257843017578125,-0.2816925048828125
1686426580440169700,5.948169677734375,-0.2137451171875,1.284149169921875,-0.21697998046875
1686426580450115000,5.958114990234375,-0.2361297607421875,1.289093017578125,-0.16162109375
1686426580460060000,5.968059814453125,-0.23736572265625,1.1994476318359375,-0.1593780517578125
1686426580470004700,5.978004638671875,-0.242523193359375,1.0910186767578125,-0.2130584716796875
1686426580479949800,5.98794970703125,-0.282501220703125,1.0946197509765625,-0.2832794189453125
1686426580489895000,5.99789501953125,-0.36474609375,1.179473876953125,-0.3464202880859375
1686426580499839700,6.00783984375,-0.490875244140625,1.279876708984375,-0.3803863525390625
1686426580509784800,6.017784912109375,-0.6433563232421875,1.3309478759765625,-0.3228759765625
1686426580519729000,6.02772900390625,-0.7466888427734375,1.315704345703125,-0.3492584228515625
1686426580529673700,6.037673828125,-0.7805633544921875,1.3450775146484375,-0.3688812255859375
1686426580539619000,6.047619140625,-0.6800689697265625,1.2603912353515625,-0.3256988525390625
1686426580549564000,6.05756396484375,-0.4929656982421875,1.0996856689453125,-0.2865447998046875
1686426580559508700,6.0675087890625,-0.3974609375,0.998809814453125,-0.256439208984375
1686426580569454000,6.0774541015625,-0.35345458984375,0.9477996826171875,-0.229217529296875
1686426580579399000,6.08739892578125,-0.2936553955078125,0.878936767578125,-0.199920654296875
1686426580589343700,6.09734375,-0.2454986572265625,0.7982177734375,-0.1673736572265625
1686426580599288800,6.107288818359375,-0.2356719970703125,0.7264556884765625,-0.1256561279296875
1686426580609234000,6.11723388671875,-0.251251220703125,0.6671295166015625,-0.1023406982421875
1686426580619177700,6.127177734375,-0.2767181396484375,0.624176025390625,-0.097259521484375
1686426580629123000,6.137123046875,-0.3128662109375,0.6051177978515625,-0.10174560546875
1686426580639068000,6.14706787109375,-0.351654052734375,0.62115478515625,-0.1148223876953125
1686426580649012700,6.1570126953125,-0.3968658447265625,0.6725311279296875,-0.1259002685546875
1686426580658958000,6.1669580078125,-0.4394378662109375,0.75787353515625,-0.1303558349609375
1686426580668903000,6.17690283203125,-0.4844818115234375,0.87213134765625,-0.11053466796875
1686426580678847700,6.18684765625,-0.5316009521484375,0.9887542724609375,-0.0705108642578125
1686426580688792800,6.196792724609375,-0.56610107421875,1.0761260986328125,-0.0236358642578125
1686426580698738000,6.206738037109375,-0.5770721435546875,1.101226806640625,0.009185791015625
1686426580708683000,6.21668310546875,-0.5719451904296875,1.056060791015625,0.0161895751953125
1686426580718627000,6.226626953125,-0.5555877685546875,0.98101806640625,0.009918212890625
1686426580728572000,6.236572021484375,-0.52203369140625,0.887969970703125,0.0036468505859375
1686426580738516700,6.246516845703125,-0.46966552734375,0.813690185546875,-0.023712158203125
1686426580748462000,6.256462158203125,-0.41864013671875,0.769287109375,-0.0735321044921875
1686426580758407000,6.266406982421875,-0.390533447265625,0.746917724609375,-0.099945068359375
1686426580768351700,6.276351806640625,-0.3712921142578125,0.7317047119140625,-0.0909576416015625
1686426580778296800,6.286296875,-0.363983154296875,0.7296142578125,-0.066986083984375
1686426580788242000,6.296241943359375,-0.364837646484375,0.7588958740234375,-0.04052734375
1686426580798187000,6.30618701171875,-0.3603668212890625,0.786895751953125,-0.0511322021484375
1686426580808131800,6.3161318359375,-0.3262176513671875,0.7796630859375,-0.0758056640625
1686426580818076000,6.326075927734375,-0.273529052734375,0.748809814453125,-0.0829315185546875
1686426580828020700,6.336020751953125,-0.21661376953125,0.719482421875,-0.0841522216796875
1686426580837966000,6.345966064453125,-0.1689605712890625,0.693206787109375,-0.0833892822265625
1686426580847911000,6.355910888671875,-0.1415863037109375,0.674835205078125,-0.0775146484375
1686426580857855700,6.365855712890625,-0.13916015625,0.659027099609375,-0.081817626953125
1686426580867800800,6.37580078125,-0.15704345703125,0.6510467529296875,-0.0716094970703125
1686426580877746000,6.385745849609375,-0.180206298828125,0.66229248046875,-0.05230712890625
1686426580887690800,6.395690673828125,-0.2201385498046875,0.6853485107421875,-0.0247650146484375
1686426580897635800,6.4056357421875,-0.255523681640625,0.7086334228515625,0.017333984375
1686426580907581000,6.415580810546875,-0.2847747802734375,0.730804443359375,0.0465545654296875
1686426580917524700,6.425524658203125,-0.3115234375,0.7583465576171875,0.0626068115234375
1686426580927470000,6.435469970703125,-0.3136138916015625,0.794036865234375,0.0842437744140625
1686426580937415000,6.445414794921875,-0.308074951171875,0.8289794921875,0.113555908203125
1686426580947359700,6.45535986328125,-0.3014984130859375,0.86865234375,0.1496429443359375
1686426580957304800,6.465304931640625,-0.2820892333984375,0.9020538330078125,0.1655426025390625
1686426580967250000,6.47525,-0.258636474609375,0.94000244140625,0.1858367919921875
1686426580977194800,6.48519482421875,-0.2390289306640625,0.9979705810546875,0.20330810546875
1686426580987139800,6.495139892578125,-0.2353668212890625,1.0556793212890625,0.202484130859375
1686426580997085000,6.5050849609375,-0.2462310791015625,1.112396240234375,0.2151641845703125
1686426581007030000,6.515030029296875,-0.27386474609375,1.176177978515625,0.23822021484375
1686426581016974800,6.524974853515625,-0.3081817626953125,1.2337799072265625,0.250946044921875
1686426581026919000,6.5349189453125,-0.3184967041015625,1.282623291015625,0.2197418212890625
1686426581036863700,6.54486376953125,-0.3280487060546875,1.314788818359375,0.17877197265625
1686426581046808800,6.554808837890625,-0.3814697265625,1.3220977783203125,0.14825439453125
1686426581056754000,6.56475390625,-0.4899139404296875,1.3288726806640625,0.1306610107421875
1686426581066698800,6.57469873046875,-0.6033172607421875,1.3428802490234375,0.1300201416015625
1686426581076643800,6.584643798828125,-0.6685028076171875,1.3655853271484375,0.1352996826171875
1686426581086589000,6.5945888671875,-0.6750946044921875,1.3739776611328125,0.0899658203125
1686426581096534000,6.604533935546875,-0.7204742431640625,1.377838134765625,0.074188232421875
1686426581106478800,6.614478759765625,-0.776397705078125,1.34552001953125,0.0179290771484375
1686426581116424000,6.624423828125,-0.737335205078125,1.269439697265625,-0.0550689697265625
1686426581126369000,6.634369140625,-0.6728515625,1.217529296875,-0.03839111328125
1686426581136313000,6.64431298828125,-0.6167449951171875,1.1927642822265625,-0.0209808349609375
1686426581146258000,6.6542578125,-0.604827880859375,1.1981201171875,-0.03265380859375
1686426581156202800,6.66420263671875,-0.6450347900390625,1.2046661376953125,-0.0847320556640625
1686426581166147800,6.67414794921875,-0.67840576171875,1.191131591796875,-0.1312103271484375
1686426581176093000,6.684093017578125,-0.6741790771484375,1.141754150390625,-0.176788330078125
1686426581186038000,6.6940380859375,-0.6536712646484375,1.0612945556640625,-0.244598388671875
1686426581195982800,6.70398291015625,-0.628936767578125,0.9866180419921875,-0.314910888671875
1686426581205928000,6.713927978515625,-0.6019744873046875,0.918304443359375,-0.367340087890625
1686426581215873000,6.723873046875,-0.57904052734375,0.8520355224609375,-0.3628387451171875
1686426581225817900,6.73381787109375,-0.5750885009765625,0.78887939453125,-0.31915283203125
1686426581235762000,6.743761962890625,-0.575347900390625,0.7406463623046875,-0.28265380859375
1686426581245706800,6.753706787109375,-0.5672607421875,0.717864990234375,-0.2541046142578125
1686426581255651800,6.76365185546875,-0.546630859375,0.7269744873046875,-0.2415008544921875
1686426581265597000,6.773596923828125,-0.5087432861328125,0.7650604248046875,-0.2451019287109375
1686426581275541800,6.783541748046875,-0.4486236572265625,0.82647705078125,-0.2338714599609375
1686426581285486800,6.79348681640625,-0.3606719970703125,0.8951416015625,-0.198150634765625
1686426581295432000,6.803431884765625,-0.26611328125,0.968994140625,-0.1472930908203125
1686426581305377000,6.813376953125,-0.261260986328125,0.99346923828125,-0.08941650390625
1686426581315321900,6.82332177734375,-0.3314361572265625,0.91326904296875,-0.0885772705078125
1686426581325267000,6.833266845703125,-0.3673248291015625,0.79425048828125,-0.1038818359375
1686426581335211000,6.8432109375,-0.36334228515625,0.7067413330078125,-0.1239776611328125
1686426581345155300,6.8531552734375,-0.365081787109375,0.6677093505859375,-0.1483306884765625
1686426581355100200,6.86310009765625,-0.3781280517578125,0.683563232421875,-0.15753173828125
1686426581365045000,6.873044921875,-0.39068603515625,0.7238006591796875,-0.1698760986328125
1686426581374990300,6.882990234375,-0.4078369140625,0.7598114013671875,-0.1929168701171875
1686426581384935200,6.89293505859375,-0.4230499267578125,0.7772369384765625,-0.2464752197265625
1686426581394880000,6.9028798828125,-0.430877685546875,0.78375244140625,-0.27978515625
1686426581404825000,6.9128251953125,-0.3983001708984375,0.7883453369140625,-0.2690582275390625
1686426581414770200,6.922770263671875,-0.348297119140625,0.7969207763671875,-0.2299957275390625
1686426581424715000,6.932715087890625,-0.3376617431640625,0.78472900390625,-0.16058349609375
1686426581434660000,6.94266015625,-0.344696044921875,0.719757080078125,-0.10595703125
1686426581444605200,6.952605224609375,-0.30413818359375,0.6345672607421875,-0.0933074951171875
1686426581454549000,6.962549072265625,-0.24664306640625,0.5378570556640625,-0.1056976318359375
1686426581464494300,6.972494384765625,-0.1781463623046875,0.4301605224609375,-0.066162109375
1686426581474439200,6.982439208984375,-0.1200408935546875,0.3443603515625,-0.0591583251953125
1686426581484384000,6.992384033203125,-0.098052978515625,0.3174896240234375,-0.077301025390625
1686426581494329000,7.0023291015625,-0.1184539794921875,0.3515472412109375,-0.082427978515625
1686426581504274200,7.012274169921875,-0.1402587890625,0.43365478515625,-0.0848236083984375
1686426581514219000,7.022218994140625,-0.1396636962890625,0.552459716796875,-0.1185760498046875
1686426581524164000,7.0321640625,-0.0970611572265625,0.7072601318359375,-0.1950531005859375
1686426581534109200,7.042109130859375,-0.045166015625,0.8589019775390625,-0.28570556640625
1686426581544054300,7.05205419921875,-0.037261962890625,0.9647064208984375,-0.34454345703125
1686426581553999000,7.0619990234375,-0.0755615234375,1.038818359375,-0.3826446533203125
1686426581563944200,7.071944091796875,-0.1363067626953125,1.1131591796875,-0.3859405517578125
1686426581573888000,7.081887939453125,-0.2092437744140625,1.1883544921875,-0.3442230224609375
1686426581583833300,7.091833251953125,-0.2487030029296875,1.253570556640625,-0.2925872802734375
1686426581593778200,7.101778076171875,-0.241790771484375,1.3018798828125,-0.2420654296875
1686426581603723000,7.111722900390625,-0.233917236328125,1.2818145751953125,-0.21417236328125
1686426581613668000,7.121668212890625,-0.2358551025390625,1.1917877197265625,-0.2340087890625
1686426581623613200,7.13161328125,-0.24884033203125,1.1802825927734375,-0.2617340087890625
1686426581633558000,7.14155810546875,-0.2607269287109375,1.2678985595703125,-0.290191650390625
1686426581643503000,7.151503173828125,-0.298309326171875,1.2422027587890625,-0.367095947265625
1686426581653448200,7.1614482421875,-0.417572021484375,1.1794281005859375,-0.41876220703125
1686426581663393300,7.171393310546875,-0.54913330078125,1.1176910400390625,-0.379364013671875
1686426581673338000,7.181338134765625,-0.67803955078125,1.2014312744140625,-0.3341522216796875
1686426581683283200,7.191283203125,-0.7242431640625,1.3614044189453125,-0.2882537841796875
1686426581693227000,7.20122705078125,-0.59942626953125,1.259674072265625,-0.261383056640625
1686426581703172000,7.211172119140625,-0.4649658203125,1.07781982421875,-0.243560791015625
1686426581713117200,7.2211171875,-0.4208831787109375,0.9813079833984375,-0.247161865234375
1686426581723062000,7.23106201171875,-0.39501953125,0.913238525390625,-0.263031005859375
1686426581733007000,7.241007080078125,-0.3693084716796875,0.82635498046875,-0.2402191162109375
1686426581742952200,7.2509521484375,-0.3526153564453125,0.7526092529296875,-0.1968231201171875
1686426581752897300,7.260897216796875,-0.358551025390625,0.695098876953125,-0.1548919677734375
1686426581762842000,7.270842041015625,-0.3834381103515625,0.6419830322265625,-0.13037109375
1686426581772787200,7.280787109375,-0.4143524169921875,0.616668701171875,-0.113525390625
1686426581782732300,7.290732177734375,-0.4507598876953125,0.6225128173828125,-0.0974273681640625
1686426581792677000,7.300677001953125,-0.4908447265625,0.6578521728515625,-0.084503173828125
1686426581802622000,7.3106220703125,-0.5328521728515625,0.72003173828125,-0.0861358642578125
1686426581812566000,7.32056591796875,-0.5819091796875,0.8045196533203125,-0.088348388671875
1686426581822511000,7.330510986328125,-0.640411376953125,0.8966064453125,-0.0826873779296875
1686426581832456200,7.340456298828125,-0.6721954345703125,0.9733428955078125,-0.067230224609375
1686426581842401300,7.3504013671875,-0.6431884765625,1.0180206298828125,-0.051666259765625
1686426581852346000,7.36034619140625,-0.5826568603515625,1.0144805908203125,-0.05523681640625
1686426581862291200,7.370291259765625,-0.5350494384765625,0.9758148193359375,-0.0708160400390625
1686426581872236300,7.380236328125,-0.515411376953125,0.9264068603515625,-0.0718231201171875
1686426581882181000,7.39018115234375,-0.4969329833984375,0.866180419921875,-0.0602569580078125
1686426581892126200,7.400126220703125,-0.4612884521484375,0.819122314453125,-0.07110595703125
1686426581902071300,7.4100712890625,-0.4065093994140625,0.7882537841796875,-0.11761474609375
1686426581912016100,7.42001611328125,-0.3548736572265625,0.766754150390625,-0.14654541015625
1686426581921961000,7.4299609375,-0.32806396484375,0.7510528564453125,-0.1344451904296875
1686426581931905300,7.4399052734375,-0.3144683837890625,0.7467803955078125,-0.1030120849609375
1686426581941850000,7.44985009765625,-0.3223876953125,0.75189208984375,-0.094085693359375
1686426581951795200,7.459795166015625,-0.3447265625,0.749481201171875,-0.0919189453125
1686426581961740300,7.469740234375,-0.3587188720703125,0.7364349365234375,-0.0782318115234375
1686426581971685000,7.47968505859375,-0.3467559814453125,0.7078704833984375,-0.0646820068359375
1686426581981630200,7.489630126953125,-0.3112640380859375,0.6766510009765625,-0.053253173828125
1686426581991575300,7.4995751953125,-0.2807464599609375,0.653533935546875,-0.040374755859375
1686426582001520000,7.50952001953125,-0.254974365234375,0.6418304443359375,-0.0199127197265625
1686426582011465000,7.51946484375,-0.2247772216796875,0.642608642578125,-0.008697509765625
1686426582021410300,7.529410400390625,-0.2384033203125,0.6422119140625,-0.0101776123046875
1686426582031355100,7.539355224609375,-0.2575531005859375,0.663238525390625,0.0002593994140625
1686426582041300000,7.549300048828125,-0.2874298095703125,0.695098876953125,0.0348052978515625
1686426582051245300,7.559245361328125,-0.31817626953125,0.7322845458984375,0.0619354248046875
1686426582061190100,7.569190185546875,-0.347137451171875,0.770538330078125,0.0753631591796875
1686426582071134200,7.57913427734375,-0.3585968017578125,0.80926513671875,0.076080322265625
1686426582081079300,7.589079345703125,-0.356048583984375,0.84375,0.067657470703125
1686426582091024100,7.599024169921875,-0.3369903564453125,0.879486083984375,0.0692138671875
1686426582100969000,7.608968994140625,-0.314422607421875,0.9250946044921875,0.0826416015625
1686426582110914300,7.618914306640625,-0.3020782470703125,0.9797210693359375,0.0974273681640625
1686426582120859100,7.628859130859375,-0.3173065185546875,1.025115966796875,0.1139984130859375
1686426582130804000,7.638803955078125,-0.331207275390625,1.0739593505859375,0.1352996826171875
1686426582140749300,7.648749267578125,-0.34149169921875,1.1143951416015625,0.1483306884765625
1686426582150694100,7.658694091796875,-0.352081298828125,1.1512451171875,0.14495849609375
1686426582160639000,7.668638916015625,-0.3599395751953125,1.18878173828125,0.1175994873046875
1686426582170584300,7.678584228515625,-0.35205078125,1.2213287353515625,0.0689239501953125
1686426582180529200,7.688529052734375,-0.340576171875,1.2469329833984375,0.0291290283203125
1686426582190473000,7.698472900390625,-0.3753814697265625,1.2835540771484375,0.047821044921875
1686426582200418300,7.708418212890625,-0.4937744140625,1.334869384765625,0.0850982666015625
1686426582210363100,7.718363037109375,-0.630462646484375,1.3664398193359375,0.04840087890625
1686426582220308000,7.728307861328125,-0.7363739013671875,1.371551513671875,0.0306243896484375
1686426582230253300,7.73825341796875,-0.7693023681640625,1.3749237060546875,0.047943115234375
1686426582240198100,7.7481982421875,-0.7111968994140625,1.3645477294921875,0.0467987060546875
1686426582250143000,7.75814306640625,-0.618316650390625,1.3129425048828125,0.0088653564453125
1686426582260088300,7.76808837890625,-0.5752716064453125,1.238128662109375,0.017303466796875
1686426582270033200,7.778033203125,-0.56158447265625,1.17352294921875,0.0296478271484375
1686426582279978000,7.78797802734375,-0.5470123291015625,1.1306304931640625,0.005340576171875
1686426582289923000,7.797923095703125,-0.5406646728515625,1.10308837890625,-0.0458831787109375
1686426582299868200,7.8078681640625,-0.5670623779296875,1.0801544189453125,-0.10174560546875
1686426582309813200,7.817813232421875,-0.615081787109375,1.0529632568359375,-0.1554412841796875
1686426582319757300,7.82775732421875,-0.6435546875,1.0157470703125,-0.2127838134765625
1686426582329702700,7.83770263671875,-0.6387786865234375,0.971160888671875,-0.2703857421875
1686426582339647500,7.8476474609375,-0.6213836669921875,0.911529541015625,-0.3168487548828125
1686426582349592300,7.85759228515625,-0.61407470703125,0.8562164306640625,-0.318511962890625
1686426582359537700,7.86753759765625,-0.596893310546875,0.80438232421875,-0.28961181640625
1686426582369482500,7.877482421875,-0.584686279296875,0.75775146484375,-0.2327728271484375
1686426582379427300,7.88742724609375,-0.5683441162109375,0.7208404541015625,-0.1727142333984375
1686426582389372700,7.89737255859375,-0.5383148193359375,0.707122802734375,-0.131500244140625
1686426582399317500,7.9073173828125,-0.5060882568359375,0.7332305908203125,-0.108673095703125
1686426582409262300,7.917262451171875,-0.466949462890625,0.788787841796875,-0.0902557373046875
1686426582419207700,7.927207763671875,-0.405975341796875,0.8554229736328125,-0.0721588134765625
1686426582429152500,7.937152587890625,-0.3212738037109375,0.9544677734375,-0.05072021484375
1686426582439097600,7.94709765625,-0.246673583984375,1.0666046142578125,-0.02117919921875
1686426582449042400,7.95704248046875,-0.2696380615234375,1.1044158935546875,0.0180511474609375
1686426582458986500,7.966986572265625,-0.3306732177734375,1.0401611328125,0.0379486083984375
1686426582468931300,7.976931396484375,-0.3648681640625,0.90179443359375,0.023529052734375
1686426582478876700,7.986876708984375,-0.38714599609375,0.77593994140625,-0.0349273681640625
1686426582488821500,7.996821533203125,-0.4100799560546875,0.70855712890625,-0.0915985107421875
1686426582498766300,8.006766357421874,-0.43267822265625,0.679046630859375,-0.1298370361328125
1686426582508711700,8.016711669921875,-0.4315185546875,0.6492156982421875,-0.1876373291015625
1686426582518656500,8.026656494140624,-0.4301300048828125,0.628997802734375,-0.2391815185546875
1686426582528601300,8.036601318359375,-0.413330078125,0.6410675048828125,-0.2678070068359375
1686426582538546700,8.046546630859375,-0.384124755859375,0.6731719970703125,-0.283111572265625
1686426582548491500,8.056491455078126,-0.3598785400390625,0.723602294921875,-0.2698211669921875
1686426582558436600,8.0664365234375,-0.33941650390625,0.7690887451171875,-0.24334716796875
1686426582568381400,8.07638134765625,-0.3123626708984375,0.8025360107421875,-0.211883544921875
1686426582578326500,8.086326416015625,-0.2911224365234375,0.8108367919921875,-0.181060791015625
1686426582588270300,8.096270263671874,-0.285980224609375,0.7811279296875,-0.1459808349609375
1686426582598215700,8.106215576171875,-0.2504425048828125,0.6779937744140625,-0.132720947265625
1686426582608160500,8.116160400390624,-0.1918182373046875,0.55975341796875,-0.14996337890625
1686426582618105300,8.126105224609375,-0.146636962890625,0.4767913818359375,-0.1469879150390625
1686426582628050700,8.13605078125,-0.1190032958984375,0.4261627197265625,-0.1571807861328125
1686426582637995500,8.14599560546875,-0.1141510009765625,0.4074249267578125,-0.1700592041015625
1686426582647940600,8.155940673828125,-0.1103973388671875,0.429962158203125,-0.172149658203125
1686426582657885400,8.165885498046874,-0.11102294921875,0.4836273193359375,-0.19073486328125
1686426582667830500,8.17583056640625,-0.1033782958984375,0.572296142578125,-0.2119903564453125
1686426582677775600,8.185775634765625,-0.08489990234375,0.7058563232421875,-0.22967529296875
1686426582687720400,8.195720458984376,-0.107208251953125,0.861175537109375,-0.24835205078125
1686426582697665500,8.20566552734375,-0.16015625,0.9727325439453125,-0.255584716796875
1686426582707610600,8.215610595703126,-0.212066650390625,1.046783447265625,-0.25799560546875
1686426582717555500,8.225555419921875,-0.2408905029296875,1.0974273681640625,-0.2509613037109375
1686426582727500500,8.23550048828125,-0.2365264892578125,1.1329498291015625,-0.2387237548828125
1686426582737444600,8.245444580078125,-0.221893310546875,1.158294677734375,-0.2274932861328125
1686426582747389400,8.255389404296874,-0.2255096435546875,1.16229248046875,-0.2081451416015625
1686426582757334500,8.26533447265625,-0.2463836669921875,1.1497802734375,-0.1900787353515625
1686426582767279600,8.275279541015625,-0.260223388671875,1.1260528564453125,-0.18212890625
1686426582777224400,8.285224365234376,-0.2504425048828125,1.0967254638671875,-0.1585235595703125
1686426582787169500,8.29516943359375,-0.2355804443359375,1.0727691650390625,-0.1396636962890625
1686426582797114600,8.305114501953126,-0.22137451171875,1.035919189453125,-0.1676483154296875
1686426582807059500,8.3150595703125,-0.1982421875,1.0032806396484375,-0.2336883544921875
1686426582817004500,8.325004638671874,-0.21783447265625,1.0642242431640625,-0.3021697998046875
1686426582826949600,8.33494970703125,-0.263946533203125,1.157623291015625,-0.416229248046875
1686426582836894500,8.34489453125,-0.38995361328125,1.29571533203125,-0.4725494384765625
1686426582846839600,8.354839599609376,-0.5488128662109375,1.374267578125,-0.4090118408203125
1686426582856784600,8.36478466796875,-0.6414794921875,1.398651123046875,-0.46099853515625
1686426582866729500,8.3747294921875,-0.67034912109375,1.4085540771484375,-0.532073974609375
1686426582876673500,8.384673583984375,-0.61932373046875,1.24444580078125,-0.435791015625
1686426582886618600,8.39461865234375,-0.485321044921875,1.0027313232421875,-0.3275299072265625
1686426582896563500,8.4045634765625,-0.39874267578125,0.8726654052734375,-0.2658843994140625
1686426582906508500,8.414508544921874,-0.3728485107421875,0.8077850341796875,-0.2148895263671875
1686426582916453600,8.42445361328125,-0.345245361328125,0.760955810546875,-0.1726226806640625
1686426582926398500,8.4343984375,-0.3209381103515625,0.7169036865234375,-0.148101806640625
1686426582936343600,8.444343505859376,-0.3243865966796875,0.687744140625,-0.116424560546875
1686426582946288600,8.45428857421875,-0.3617706298828125,0.65631103515625,-0.0966033935546875
1686426582956233500,8.4642333984375,-0.4153900146484375,0.631103515625,-0.0865631103515625
1686426582966178300,8.47417822265625,-0.476043701171875,0.6320953369140625,-0.086029052734375
1686426582976123600,8.48412353515625,-0.5432281494140625,0.6652374267578125,-0.101226806640625
1686426582986068500,8.494068359375,-0.6198272705078125,0.7193756103515625,-0.1335906982421875
1686426582996013600,8.504013671875,-0.688507080078125,0.797607421875,-0.1642608642578125
1686426583005958700,8.513958740234376,-0.7316436767578125,0.8921661376953125,-0.1716766357421875
1686426583015902500,8.52390234375,-0.72235107421875,0.9855194091796875,-0.1440277099609375
1686426583025847600,8.53384765625,-0.6532745361328125,1.0685577392578125,-0.1263885498046875
1686426583035792600,8.543792724609375,-0.5600128173828125,1.1361846923828125,-0.1103668212890625
1686426583045737500,8.553737548828124,-0.494171142578125,1.139251708984375,-0.0794525146484375
1686426583055682300,8.563682373046875,-0.417510986328125,1.0696563720703125,-0.059112548828125
1686426583065627600,8.573627685546874,-0.3520965576171875,0.977264404296875,-0.0366058349609375
1686426583075572500,8.583572509765625,-0.2985076904296875,0.9214324951171875,-0.037078857421875
1686426583085517600,8.593517578125,-0.2658538818359375,0.894744873046875,-0.07293701171875
1686426583095462700,8.603462646484376,-0.2703704833984375,0.865509033203125,-0.0860137939453125
1686426583105407500,8.613407470703125,-0.3033447265625,0.837677001953125,-0.077117919921875
1686426583115352600,8.6233525390625,-0.336090087890625,0.819915771484375,-0.079986572265625
1686426583125297700,8.633297607421875,-0.3486175537109375,0.8058929443359375,-0.090972900390625
1686426583135242500,8.643242431640624,-0.3404541015625,0.7931060791015625,-0.0937957763671875
1686426583145187600,8.6531875,-0.32818603515625,0.7801971435546875,-0.0845489501953125
1686426583155132400,8.66313232421875,-0.312896728515625,0.7648468017578125,-0.07073974609375
1686426583165076500,8.673076416015626,-0.3043060302734375,0.7555084228515625,-0.059356689453125
1686426583175021300,8.683021240234375,-0.2908477783203125,0.745513916015625,-0.0470733642578125
1686426583184966700,8.692966552734376,-0.2764892578125,0.7365264892578125,-0.0417327880859375
1686426583194911500,8.702911376953125,-0.2604217529296875,0.7323150634765625,-0.042755126953125
1686426583204856600,8.712856689453124,-0.240997314453125,0.73760986328125,-0.037384033203125
1686426583214801700,8.7228017578125,-0.2244415283203125,0.7243499755859375,-0.052154541015625
1686426583224746500,8.73274658203125,-0.231353759765625,0.7140045166015625,-0.0557098388671875
1686426583234691600,8.742691650390626,-0.229339599609375,0.7215576171875,-0.041168212890625
1686426583244636400,8.752636474609375,-0.22564697265625,0.7221221923828125,-0.02703857421875
1686426583254581500,8.76258154296875,-0.2321319580078125,0.7233428955078125,-0.01751708984375
1686426583264526600,8.772526611328125,-0.2578887939453125,0.7215576171875,-0.0043792724609375
1686426583274471400,8.782471435546874,-0.2865753173828125,0.7232818603515625,0.019805908203125
1686426583284416500,8.79241650390625,-0.3028717041015625,0.7320709228515625,0.039215087890625
1686426583294361600,8.802361572265625,-0.2887115478515625,0.75164794921875,0.060394287109375
1686426583304306400,8.812306396484376,-0.2607879638671875,0.788360595703125,0.0879974365234375
1686426583314251500,8.82225146484375,-0.2396392822265625,0.8345489501953125,0.1150054931640625
1686426583324195600,8.832195556640626,-0.2333526611328125,0.8777618408203125,0.1269378662109375
1686426583334140400,8.842140380859375,-0.2523193359375,0.9155731201171875,0.134185791015625
1686426583344085200,8.852085205078126,-0.28350830078125,0.952392578125,0.1389617919921875
1686426583354030300,8.8620302734375,-0.29901123046875,0.9844818115234375,0.139434814453125
1686426583363975200,8.87197509765625,-0.295989990234375,1.0068359375,0.12896728515625
1686426583373920300,8.881920166015625,-0.2872314453125,1.0139923095703125,0.1228485107421875
1686426583383865300,8.891865234375,-0.291046142578125,1.0207366943359375,0.117584228515625
1686426583393810200,8.90181005859375,-0.301300048828125,1.040313720703125,0.10333251953125
1686426583403755300,8.91175537109375,-0.3043212890625,1.0731201171875,0.0725250244140625
1686426583413700400,8.921700439453126,-0.296722412109375,1.1168212890625,0.031219482421875
1686426583423645200,8.931645263671875,-0.2877655029296875,1.1603546142578125,-0.016754150390625
1686426583433590300,8.94159033203125,-0.272796630859375,1.2058563232421875,-0.0615692138671875
1686426583443535400,8.951535400390625,-0.2795562744140625,1.2693023681640625,-0.0532989501953125
1686426583453480200,8.961480224609375,-0.3399200439453125,1.3527069091796875,-0.0103302001953125
1686426583463425300,8.97142529296875,-0.4400634765625,1.42681884765625,-0.0003662109375
1686426583473370400,8.981370361328125,-0.5477752685546875,1.467041015625,-0.00811767578125
1686426583483315200,8.991315185546876,-0.609649658203125,1.486785888671875,0.03082275390625
1686426583493259300,9.00125927734375,-0.5835113525390625,1.49609375,0.070709228515625
1686426583503204400,9.011204345703124,-0.548370361328125,1.4614105224609375,0.1149444580078125
1686426583513149200,9.021149169921875,-0.521026611328125,1.37310791015625,0.109222412109375
1686426583523094300,9.03109423828125,-0.492767333984375,1.2946929931640625,0.10748291015625
1686426583533039400,9.041039306640625,-0.4702606201171875,1.241546630859375,0.118560791015625
1686426583542984200,9.050984130859375,-0.465057373046875,1.2172698974609375,0.1126556396484375
1686426583552929300,9.06092919921875,-0.47833251953125,1.2047119140625,0.0836334228515625
1686426583562874400,9.070874267578125,-0.4950103759765625,1.1609954833984375,0.01690673828125
1686426583572819200,9.080819091796876,-0.5144805908203125,1.1118621826171875,-0.0581817626953125
1686426583582764300,9.090764404296875,-0.528839111328125,1.0587615966796875,-0.123809814453125
1686426583592709400,9.10070947265625,-0.5367431640625,0.9956512451171875,-0.181243896484375
1686426583602654200,9.110654296875,-0.5321197509765625,0.9318389892578125,-0.2391815185546875
1686426583612599300,9.120599365234375,-0.5369415283203125,0.885589599609375,-0.2829437255859375
1686426583622544400,9.13054443359375,-0.5460357666015625,0.851318359375,-0.312896728515625
1686426583632489200,9.1404892578125,-0.54180908203125,0.828826904296875,-0.3275604248046875
1686426583642434300,9.150434326171874,-0.5225830078125,0.8225555419921875,-0.3094940185546875
1686426583652379400,9.16037939453125,-0.5028076171875,0.813629150390625,-0.2882080078125
1686426583662323200,9.1703232421875,-0.4647979736328125,0.8101348876953125,-0.2693023681640625
1686426583672268300,9.180268310546875,-0.433349609375,0.8069610595703125,-0.23675537109375
1686426583682213400,9.19021337890625,-0.4116058349609375,0.81622314453125,-0.2089385986328125
1686426583692158200,9.200158203125,-0.39306640625,0.832000732421875,-0.1855926513671875
1686426583702103300,9.210103271484375,-0.3783721923828125,0.8543243408203125,-0.1679534912109375
1686426583712048400,9.22004833984375,-0.3520965576171875,0.8908233642578125,-0.1553802490234375
1686426583721993200,9.2299931640625,-0.3170928955078125,0.9242706298828125,-0.13873291015625
1686426583731938300,9.239938232421874,-0.2823333740234375,0.937408447265625,-0.1213531494140625
1686426583741883400,9.24988330078125,-0.267578125,0.928131103515625,-0.0822296142578125
1686426583751828200,9.259828125,-0.2813568115234375,0.90625,-0.0325164794921875
1686426583761773300,9.269773193359375,-0.30133056640625,0.8589324951171875,0.008758544921875
1686426583771718100,9.27971826171875,-0.315704345703125,0.8023681640625,0.02783203125
1686426583781663200,9.289663330078126,-0.3325653076171875,0.760498046875,0.017364501953125
1686426583791608300,9.2996083984375,-0.3879852294921875,0.7405853271484375,-0.00042724609375
1686426583801553200,9.30955322265625,-0.43316650390625,0.722503662109375,-0.0612030029296875
1686426583811498200,9.319498291015625,-0.453887939453125,0.697357177734375,-0.1273956298828125
1686426583821443300,9.329443359375,-0.4723968505859375,0.666412353515625,-0.17095947265625
1686426583831388200,9.33938818359375,-0.4709320068359375,0.65985107421875,-0.1987762451171875
1686426583841332200,9.349332275390625,-0.4380645751953125,0.6790008544921875,-0.2032623291015625
1686426583851277300,9.35927734375,-0.396881103515625,0.708648681640625,-0.18902587890625
1686426583861222100,9.36922216796875,-0.3414764404296875,0.736663818359375,-0.1864471435546875
1686426583871167200,9.379167236328126,-0.2838897705078125,0.737518310546875,-0.17901611328125
1686426583881112300,9.3891123046875,-0.205535888671875,0.6759796142578125,-0.1710205078125
1686426583891057200,9.39905712890625,-0.15301513671875,0.5950775146484375,-0.1712188720703125
1686426583901002200,9.409002197265625,-0.1160736083984375,0.5263824462890625,-0.16204833984375
1686426583910947300,9.418947265625,-0.0963897705078125,0.4967803955078125,-0.1600341796875
1686426583920892200,9.42889208984375,-0.083984375,0.5037841796875,-0.151641845703125
1686426583930837500,9.43883740234375,-0.09088134765625,0.5476837158203125,-0.13665771484375
1686426583940782300,9.4487822265625,-0.12493896484375,0.5888519287109375,-0.1356048583984375
1686426583950727200,9.45872705078125,-0.139373779296875,0.6165008544921875,-0.168426513671875
1686426583960672300,9.46867236328125,-0.1298065185546875,0.647125244140625,-0.208251953125
1686426583970617300,9.478617431640625,-0.127777099609375,0.721588134765625,-0.237335205078125
1686426583980562200,9.488562255859375,-0.1488800048828125,0.8635711669921875,-0.254974365234375
1686426583990507300,9.49850732421875,-0.20098876953125,1.0158233642578125,-0.266632080078125
1686426584000452400,9.508452392578125,-0.2433013916015625,1.15966796875,-0.2489166259765625
1686426584010397200,9.518397216796876,-0.240814208984375,1.246826171875,-0.2411346435546875
1686426584020342300,9.52834228515625,-0.21942138671875,1.2692413330078125,-0.210693359375
1686426584030286300,9.538286376953126,-0.203155517578125,1.2697906494140625,-0.1912841796875
1686426584040231200,9.548231201171875,-0.1924896240234375,1.252593994140625,-0.1890106201171875
1686426584050176300,9.55817626953125,-0.1733245849609375,1.160369873046875,-0.1922760009765625
1686426584060121300,9.568121337890625,-0.16693115234375,1.0294036865234375,-0.216400146484375
1686426584070066200,9.578066162109375,-0.172454833984375,1.029815673828125,-0.1876373291015625
1686426584080011300,9.58801123046875,-0.1968994140625,1.1542816162109375,-0.2420654296875
1686426584089956400,9.597956298828125,-0.2695159912109375,1.2239532470703125,-0.352294921875
1686426584099901200,9.607901123046876,-0.4557647705078125,1.298919677734375,-0.3107757568359375
1686426584109846300,9.61784619140625,-0.5807952880859375,1.235504150390625,-0.3079833984375
1686426584119791400,9.627791259765624,-0.6187744140625,1.1659698486328125,-0.3889312744140625
1686426584129736200,9.637736083984375,-0.71002197265625,1.2158050537109375,-0.4349517822265625
1686426584139681300,9.647681396484375,-0.65667724609375,1.1218414306640625,-0.397735595703125
1686426584149626400,9.65762646484375,-0.516448974609375,0.9683380126953125,-0.3385467529296875
1686426584159571200,9.6675712890625,-0.4347991943359375,0.8972625732421875,-0.2930908203125
1686426584169516300,9.677516357421876,-0.3958282470703125,0.8653564453125,-0.2393951416015625
1686426584179461000,9.687461181640625,-0.36541748046875,0.839111328125,-0.2151336669921875
1686426584189406500,9.697406494140624,-0.365814208984375,0.8087615966796875,-0.2071685791015625
1686426584199351300,9.707351318359375,-0.3749847412109375,0.7751922607421875,-0.2170867919921875
1686426584209296100,9.717296142578125,-0.408966064453125,0.727294921875,-0.2230987548828125
1686426584219241500,9.727241455078126,-0.4636688232421875,0.6962738037109375,-0.212188720703125
1686426584229185300,9.737185302734375,-0.5313568115234375,0.69976806640625,-0.19189453125
1686426584239130400,9.74713037109375,-0.605499267578125,0.7393341064453125,-0.1744384765625
1686426584249075200,9.7570751953125,-0.6400909423828125,0.798309326171875,-0.17486572265625
1686426584259020300,9.767020263671874,-0.6566925048828125,0.8448028564453125,-0.188507080078125
1686426584268965000,9.776965087890625,-0.6944732666015625,0.8897552490234375,-0.1855316162109375
1686426584278910200,9.78691015625,-0.717071533203125,0.9378204345703125,-0.153106689453125
1686426584288855300,9.796855224609375,-0.6812286376953125,0.98162841796875,-0.1088104248046875
1686426584298800000,9.806800048828125,-0.6189422607421875,1.00030517578125,-0.084136962890625
1686426584308745500,9.816745361328126,-0.5767669677734375,0.9798583984375,-0.0874481201171875
1686426584318690300,9.826690185546875,-0.5505218505859375,0.93597412109375,-0.11334228515625
1686426584328635100,9.83663525390625,-0.5353546142578125,0.88232421875,-0.13177490234375
1686426584338580700,9.846580810546875,-0.4986572265625,0.8406982421875,-0.16937255859375
1686426584348525600,9.856525634765624,-0.437835693359375,0.8209228515625,-0.221282958984375
1686426584358470700,9.866470703125,-0.400238037109375,0.816558837890625,-0.2356109619140625
1686426584368415500,9.87641552734375,-0.3792266845703125,0.811187744140625,-0.2166900634765625
1686426584378360600,9.886360595703126,-0.36517333984375,0.79815673828125,-0.1800689697265625
1686426584388305700,9.8963056640625,-0.354248046875,0.7764739990234375,-0.1292724609375
1686426584398250500,9.90625048828125,-0.3477630615234375,0.7550048828125,-0.075927734375
1686426584408195600,9.916195556640625,-0.3587493896484375,0.740997314453125,-0.0247955322265625
1686426584418140700,9.926140625,-0.3626251220703125,0.723602294921875,0.0029449462890625
1686426584428085500,9.93608544921875,-0.36456298828125,0.7059478759765625,0.022216796875
1686426584438030600,9.946030517578125,-0.3605499267578125,0.6920166015625,0.0391082763671875
1686426584447974700,9.955974609375,-0.356781005859375,0.6771697998046875,0.04754638671875
1686426584457919500,9.96591943359375,-0.351165771484375,0.6691741943359375,0.056884765625
1686426584467864600,9.975864501953126,-0.3428497314453125,0.6673736572265625,0.06634521484375
1686426584477809700,9.9858095703125,-0.336669921875,0.6649169921875,0.0689544677734375
1686426584487754500,9.99575439453125,-0.33135986328125,0.6597137451171875,0.060577392578125
1686426584497699600,10.005699462890625,-0.2940673828125,0.6760711669921875,0.05718994140625
1686426584507644700,10.015644775390625,-0.242584228515625,0.7097930908203125,0.05499267578125
1686426584517589500,10.025589599609376,-0.24578857421875,0.733978271484375,0.032440185546875
1686426584527534600,10.03553466796875,-0.29473876953125,0.7602691650390625,0.0178375244140625
1686426584537479700,10.045479736328126,-0.3311614990234375,0.794281005859375,0.0172882080078125
1686426584547424500,10.055424560546875,-0.3423004150390625,0.829681396484375,0.019805908203125
1686426584557369300,10.065369384765624,-0.343994140625,0.8633575439453125,0.04345703125
1686426584567314700,10.075314697265625,-0.352294921875,0.8923187255859375,0.0750274658203125
1686426584577259500,10.085259521484375,-0.3732452392578125,0.916351318359375,0.089874267578125
1686426584587204400,10.095204345703126,-0.39959716796875,0.9400634765625,0.10186767578125
1686426584597149700,10.105149658203125,-0.4205322265625,0.9684295654296875,0.1190032958984375
1686426584607094500,10.115094482421876,-0.4188690185546875,1.0049285888671875,0.1221923828125
1686426584617039600,10.12503955078125,-0.4007720947265625,1.0486297607421875,0.1167449951171875
1686426584626984700,10.134984619140624,-0.3844451904296875,1.102874755859375,0.090911865234375
1686426584636929500,10.144929443359375,-0.3880157470703125,1.1578369140625,0.0594024658203125
1686426584646874600,10.15487451171875,-0.414306640625,1.2067108154296875,0.032379150390625
1686426584656819500,10.1648193359375,-0.4547119140625,1.25299072265625,0.022308349609375
1686426584666763500,10.174763427734375,-0.5517578125,1.2986297607421875,0.0654144287109375
1686426584676708400,10.184708251953126,-0.658843994140625,1.3270263671875,0.0719757080078125
1686426584686653700,10.19465380859375,-0.741943359375,1.322052001953125,0.0429229736328125
1686426584696598500,10.2045986328125,-0.7885894775390625,1.308197021484375,0.03973388671875
1686426584706543600,10.214543701171875,-0.8042449951171875,1.29071044921875,0.0426025390625
1686426584716488700,10.22448876953125,-0.764739990234375,1.2471160888671875,-0.0070953369140625
1686426584726433500,10.23443359375,-0.700836181640625,1.1556243896484375,-0.057373046875
1686426584736378600,10.244378662109375,-0.663665771484375,1.0816497802734375,-0.0608367919921875
1686426584746323700,10.25432373046875,-0.6574249267578125,1.0643463134765625,-0.0587310791015625
1686426584756268500,10.2642685546875,-0.659088134765625,1.0669708251953125,-0.07171630859375
1686426584766213600,10.274213623046874,-0.67822265625,1.0769195556640625,-0.13104248046875
1686426584776158500,10.284158447265625,-0.6847381591796875,1.08984375,-0.1837158203125
1686426584786103600,10.294103515625,-0.65850830078125,1.0810546875,-0.2290496826171875
1686426584796048600,10.304048583984375,-0.6262969970703125,1.048187255859375,-0.2794952392578125
1686426584805993500,10.313993408203125,-0.598052978515625,0.9989013671875,-0.331329345703125
1686426584815938600,10.3239384765625,-0.5937957763671875,0.94012451171875,-0.37042236328125
1686426584825883600,10.333883544921875,-0.599456787109375,0.87335205078125,-0.3759307861328125
1686426584835828500,10.343828369140626,-0.5939788818359375,0.803070068359375,-0.34246826171875
1686426584845773600,10.353773681640625,-0.5818634033203125,0.740020751953125,-0.2757720947265625
1686426584855718700,10.36371875,-0.5540618896484375,0.69696044921875,-0.2124786376953125
1686426584865663500,10.37366357421875,-0.514190673828125,0.6806488037109375,-0.1758575439453125
1686426584875608600,10.383608642578125,-0.4708404541015625,0.700836181640625,-0.172393798828125
1686426584885552600,10.393552734375,-0.4281768798828125,0.7553253173828125,-0.1689910888671875
1686426584895497500,10.40349755859375,-0.3856964111328125,0.8180694580078125,-0.1560516357421875
1686426584905442600,10.413442626953126,-0.3392181396484375,0.8819732666015625,-0.13470458984375
1686426584915387600,10.4233876953125,-0.2923126220703125,0.9457244873046875,-0.1143951416015625
1686426584925332500,10.43333251953125,-0.2961273193359375,0.9808197021484375,-0.0941619873046875
1686426584935277600,10.443277587890625,-0.34539794921875,0.927520751953125,-0.12200927734375
1686426584945222700,10.45322265625,-0.3992919921875,0.8006744384765625,-0.1718597412109375
1686426584955167500,10.46316748046875,-0.42388916015625,0.682220458984375,-0.234344482421875
1686426584965112600,10.473112548828125,-0.4274444580078125,0.606475830078125,-0.28765869140625
1686426584975057700,10.4830576171875,-0.4268646240234375,0.5737457275390625,-0.31658935546875
1686426584985002500,10.49300244140625,-0.4145050048828125,0.584747314453125,-0.3115386962890625
1686426584994947600,10.502947509765624,-0.3965301513671875,0.64019775390625,-0.2809295654296875
1686426585004892700,10.512892578125,-0.392547607421875,0.7250823974609375,-0.26104736328125
1686426585014837500,10.52283740234375,-0.418731689453125,0.83709716796875,-0.243438720703125
1686426585024782600,10.532782470703125,-0.44293212890625,0.94287109375,-0.211151123046875
1686426585034727700,10.542727783203125,-0.4579315185546875,1.0093994140625,-0.182647705078125
1686426585044672500,10.552672607421876,-0.4584197998046875,0.9988861083984375,-0.18096923828125
1686426585054617600,10.56261767578125,-0.4389801025390625,0.868072509765625,-0.1886444091796875
1686426585064562400,10.5725625,-0.37530517578125,0.6505126953125,-0.1968994140625
1686426585074507500,10.582507568359375,-0.3042449951171875,0.478973388671875,-0.225677490234375
1686426585084452600,10.59245263671875,-0.28466796875,0.354339599609375,-0.1857452392578125
1686426585094397400,10.6023974609375,-0.2568817138671875,0.3182220458984375,-0.1412353515625
1686426585104342500,10.612342529296875,-0.2489013671875,0.35430908203125,-0.0883331298828125
1686426585114287600,10.62228759765625,-0.222198486328125,0.4217987060546875,-0.0640716552734375
1686426585124231700,10.632231689453125,-0.1598663330078125,0.511138916015625,-0.0781097412109375
1686426585134176500,10.642176513671876,-0.1047515869140625,0.6217193603515625,-0.1172637939453125
1686426585144121600,10.65212158203125,-0.0578765869140625,0.7264556884765625,-0.1702117919921875
1686426585154066700,10.662066650390624,-0.0538177490234375,0.7981109619140625,-0.2295989990234375
1686426585164011500,10.672011474609375,-0.08795166015625,0.8441314697265625,-0.3068695068359375
1686426585173956600,10.68195654296875,-0.16619873046875,0.9037628173828125,-0.3675079345703125
1686426585183901400,10.6919013671875,-0.2407684326171875,0.9999237060546875,-0.36981201171875
1686426585193846500,10.701846435546875,-0.27105712890625,1.0991363525390625,-0.3303985595703125
1686426585203791600,10.71179150390625,-0.2693328857421875,1.18182373046875,-0.2676849365234375
1686426585213736400,10.721736328125,-0.2589263916015625,1.2734375,-0.233489990234375
1686426585223681500,10.731681640625,-0.241607666015625,1.351593017578125,-0.2133636474609375
1686426585233626600,10.741626708984375,-0.19970703125,1.3249969482421875,-0.2009124755859375
1686426585243571500,10.751571533203125,-0.161468505859375,1.1670379638671875,-0.241790771484375
1686426585253516800,10.761516845703126,-0.1383514404296875,0.9977569580078125,-0.2805633544921875
1686426585263461600,10.771461669921875,-0.1716461181640625,1.0610504150390625,-0.2612457275390625
1686426585273406500,10.781406494140626,-0.2099456787109375,1.218597412109375,-0.3273773193359375
1686426585283351600,10.7913515625,-0.3620147705078125,1.236175537109375,-0.4020538330078125
1686426585293296600,10.801296630859374,-0.5986328125,1.19866943359375,-0.38427734375
1686426585303241500,10.811241455078125,-0.746002197265625,1.142120361328125,-0.4239959716796875
1686426585313186600,10.8211865234375,-0.86456298828125,1.2023468017578125,-0.485870361328125
1686426585323131600,10.831131591796876,-0.853363037109375,1.1844482421875,-0.4951629638671875
1686426585333077200,10.8410771484375,-0.6197967529296875,1.0343780517578125,-0.417449951171875
1686426585343022000,10.85102197265625,-0.46405029296875,0.9511871337890625,-0.3526153564453125
1686426585352967200,10.86096728515625,-0.434173583984375,0.9376068115234375,-0.3283233642578125
1686426585362912300,10.870912353515624,-0.4098358154296875,0.909820556640625,-0.32568359375
1686426585372856000,10.88085595703125,-0.3920135498046875,0.835540771484375,-0.3089599609375
1686426585382801200,10.89080126953125,-0.3976593017578125,0.7523040771484375,-0.26556396484375
1686426585392746200,10.900746337890626,-0.4069976806640625,0.687774658203125,-0.2315521240234375
1686426585402691000,10.910691162109375,-0.4475860595703125,0.6418914794921875,-0.2114715576171875
1686426585412636200,10.92063623046875,-0.509613037109375,0.6224822998046875,-0.20458984375
1686426585422581200,10.930581298828125,-0.573638916015625,0.628204345703125,-0.2026214599609375
1686426585432526000,10.940526123046874,-0.624420166015625,0.6607666015625,-0.207244873046875
1686426585442471200,10.95047119140625,-0.6651153564453125,0.7259521484375,-0.2158203125
1686426585452416300,10.960416259765625,-0.6976470947265625,0.8091583251953125,-0.1990203857421875
1686426585462361000,10.970361083984375,-0.7238006591796875,0.8889312744140625,-0.1488189697265625
1686426585472306200,10.98030615234375,-0.7127838134765625,0.9531402587890625,-0.0715179443359375
1686426585482251300,10.990251220703126,-0.6331024169921875,0.97869873046875,-0.009521484375
1686426585492196000,11.000196044921875,-0.52093505859375,0.95928955078125,0.0116424560546875
1686426585502141200,11.01014111328125,-0.44122314453125,0.8939971923828125,0.0028533935546875
1686426585512086300,11.020086181640625,-0.4030303955078125,0.8092498779296875,-0.01568603515625
1686426585522031000,11.030031005859374,-0.3876953125,0.7308807373046875,-0.037109375
1686426585531976200,11.03997607421875,-0.3978271484375,0.6947021484375,-0.0545654296875
1686426585541921000,11.049921142578125,-0.3977813720703125,0.6853179931640625,-0.0627593994140625
1686426585551866000,11.0598662109375,-0.4149017333984375,0.6975250244140625,-0.0865936279296875
1686426585561811200,11.069811279296875,-0.4348297119140625,0.710174560546875,-0.0799713134765625
1686426585571756000,11.079756103515624,-0.447052001953125,0.728271484375,-0.0544586181640625
1686426585581701000,11.089701171875,-0.4564208984375,0.7434844970703125,-0.04327392578125
1686426585591646200,11.099646240234375,-0.43927001953125,0.739898681640625,-0.0524749755859375
1686426585601591000,11.109591064453125,-0.394989013671875,0.70880126953125,-0.0656890869140625
1686426585611536400,11.119536376953125,-0.333038330078125,0.66400146484375,-0.0697021484375
1686426585621480200,11.129480224609376,-0.2947998046875,0.6231231689453125,-0.062744140625
1686426585631425000,11.139425048828125,-0.2861480712890625,0.58306884765625,-0.0497283935546875
1686426585641370000,11.1493701171875,-0.294342041015625,0.558837890625,-0.0452117919921875
1686426585651315200,11.159315185546875,-0.3099822998046875,0.5596466064453125,-0.028594970703125
1686426585661260000,11.169260009765624,-0.318695068359375,0.5791015625,-0.0266571044921875
1686426585671205000,11.179205078125,-0.3446807861328125,0.6077423095703125,-0.0420379638671875
1686426585681150200,11.189150146484375,-0.3620758056640625,0.649200439453125,-0.042449951171875
1686426585691095000,11.199094970703126,-0.34625244140625,0.70269775390625,-0.0472869873046875
1686426585701040400,11.209040283203125,-0.3074188232421875,0.7601470947265625,-0.0529022216796875
1686426585710985200,11.218985107421876,-0.27581787109375,0.8169403076171875,-0.0438995361328125
1686426585720930000,11.228929931640625,-0.3030242919921875,0.8670654296875,-0.028289794921875
1686426585730875100,11.238875244140624,-0.3546600341796875,0.914642333984375,-0.0020599365234375
1686426585740820200,11.2488203125,-0.37353515625,0.9506683349609375,0.023468017578125
1686426585750765000,11.25876513671875,-0.36968994140625,0.96417236328125,0.0639190673828125
1686426585760710100,11.268710205078126,-0.3548583984375,0.96173095703125,0.103851318359375
1686426585770655200,11.2786552734375,-0.3454437255859375,0.9475860595703125,0.1390838623046875
1686426585780600000,11.28860009765625,-0.345672607421875,0.9385833740234375,0.1760101318359375
1686426585790545200,11.298545166015625,-0.3466796875,0.9471893310546875,0.2039337158203125
1686426585800490200,11.308490234375,-0.3451995849609375,0.980865478515625,0.212982177734375
1686426585810435000,11.31843505859375,-0.3586578369140625,1.0389404296875,0.2216339111328125
1686426585820380200,11.328380126953125,-0.388702392578125,1.111419677734375,0.20611572265625
1686426585830325200,11.3383251953125,-0.41162109375,1.1894073486328125,0.1720428466796875
1686426585840270000,11.34827001953125,-0.4226531982421875,1.26751708984375,0.1192474365234375
1686426585850215200,11.358215087890626,-0.410614013671875,1.3262176513671875,0.050537109375
1686426585860160000,11.368159912109375,-0.4121246337890625,1.3576812744140625,0.016448974609375
1686426585870105300,11.378105224609374,-0.5218048095703125,1.3809661865234375,0.0623016357421875
1686426585880050200,11.38805029296875,-0.6710052490234375,1.3929595947265625,0.0695648193359375
1686426585889995000,11.3979951171875,-0.804443359375,1.3949127197265625,0.0462646484375
1686426585899940400,11.4079404296875,-0.89471435546875,1.405303955078125,0.04132080078125
1686426585909884200,11.41788427734375,-0.87335205078125,1.391998291015625,0.0090179443359375
1686426585919829200,11.427829345703126,-0.759918212890625,1.3084259033203125,-0.06158447265625
1686426585929774000,11.437774169921875,-0.69677734375,1.22747802734375,-0.026885986328125
1686426585939719200,11.44771923828125,-0.660980224609375,1.1949005126953125,0.0025634765625
1686426585949664000,11.4576640625,-0.631439208984375,1.193084716796875,-0.0223846435546875
1686426585959609000,11.467609130859374,-0.6411895751953125,1.20587158203125,-0.067352294921875
1686426585969554200,11.47755419921875,-0.6524505615234375,1.2098236083984375,-0.1205596923828125
1686426585979499000,11.4874990234375,-0.63922119140625,1.1973724365234375,-0.1661224365234375
1686426585989444400,11.4974443359375,-0.6032562255859375,1.1486663818359375,-0.208251953125
1686426585999389200,11.50738916015625,-0.5695343017578125,1.049652099609375,-0.235443115234375
1686426586009334000,11.517333984375,-0.5497283935546875,0.9386444091796875,-0.2735443115234375
1686426586019279400,11.527279296875,-0.5478515625,0.8517303466796875,-0.3053436279296875
1686426586029224200,11.53722412109375,-0.57513427734375,0.7945556640625,-0.2972564697265625
1686426586039169000,11.5471689453125,-0.597747802734375,0.74908447265625,-0.2744598388671875
1686426586049114000,11.557114013671875,-0.607879638671875,0.724945068359375,-0.2500152587890625
1686426586059059200,11.56705908203125,-0.59722900390625,0.7144622802734375,-0.2342071533203125
1686426586069004000,11.577004150390625,-0.5615997314453125,0.71728515625,-0.2250213623046875
1686426586078949000,11.58694921875,-0.5179901123046875,0.7305755615234375,-0.22412109375
1686426586088894200,11.596894287109375,-0.4730987548828125,0.757568359375,-0.2344818115234375
1686426586098839000,11.606839111328124,-0.4249725341796875,0.7950897216796875,-0.2380218505859375
1686426586108784000,11.6167841796875,-0.3711700439453125,0.840423583984375,-0.23394775390625
1686426586118729200,11.626729248046875,-0.3131561279296875,0.88836669921875,-0.21551513671875
1686426586128674300,11.63667431640625,-0.25738525390625,0.941436767578125,-0.2065582275390625
1686426586138619100,11.646619140625,-0.23480224609375,0.989410400390625,-0.1653900146484375
1686426586148564200,11.656564208984374,-0.255615234375,0.9862518310546875,-0.080352783203125
1686426586158509300,11.66650927734375,-0.2727813720703125,0.920013427734375,-0.0388946533203125
1686426586168454100,11.6764541015625,-0.282470703125,0.8172760009765625,-0.04443359375
1686426586178399000,11.68639892578125,-0.308441162109375,0.7161712646484375,-0.075286865234375
1686426586188344300,11.69634423828125,-0.361419677734375,0.659088134765625,-0.13848876953125
1686426586198289200,11.7062890625,-0.4158477783203125,0.63232421875,-0.1899871826171875
1686426586208234000,11.71623388671875,-0.4471435546875,0.625762939453125,-0.218170166015625
1686426586218178000,11.726177978515626,-0.4738616943359375,0.625762939453125,-0.228118896484375
1686426586228123100,11.736123046875,-0.4940032958984375,0.6536102294921875,-0.210540771484375
1686426586238068200,11.746068115234374,-0.4823455810546875,0.7029571533203125,-0.1685333251953125
1686426586248013300,11.756013427734375,-0.4398345947265625,0.736907958984375,-0.1284332275390625
1686426586257958100,11.765958251953125,-0.36737060546875,0.735870361328125,-0.113037109375
1686426586267903000,11.775903076171875,-0.2572174072265625,0.6879119873046875,-0.112823486328125
1686426586277848300,11.785848388671875,-0.169952392578125,0.6279449462890625,-0.1210784912109375
1686426586287793200,11.795793212890626,-0.116302490234375,0.5725860595703125,-0.1512603759765625
1686426586297738000,11.805738037109375,-0.0895843505859375,0.507781982421875,-0.17462158203125
1686426586307683300,11.815683349609374,-0.0737457275390625,0.464202880859375,-0.162841796875
1686426586317628200,11.825628173828125,-0.0753173828125,0.4444427490234375,-0.1443634033203125
1686426586327573000,11.835572998046874,-0.0794677734375,0.4442901611328125,-0.1367034912109375
1686426586337517800,11.845517822265625,-0.0887298583984375,0.467071533203125,-0.15362548828125
1686426586347462700,11.855462646484375,-0.117431640625,0.52520751953125,-0.172088623046875
1686426586357407500,11.865407470703126,-0.146728515625,0.607391357421875,-0.211181640625
1686426586367352800,11.875352783203125,-0.1806640625,0.70556640625,-0.26025390625
1686426586377297700,11.885297607421874,-0.2057647705078125,0.7778472900390625,-0.3025054931640625
1686426586387242500,11.895242431640625,-0.2111968994140625,0.8307952880859375,-0.33392333984375
1686426586397187600,11.9051875,-0.2031707763671875,0.88311767578125,-0.347381591796875
1686426586407132700,11.915132568359375,-0.19964599609375,0.9412689208984375,-0.3329925537109375
1686426586417077500,11.925077392578125,-0.19921875,1.01202392578125,-0.3043670654296875
1686426586427022600,11.935022705078126,-0.2171783447265625,1.0692901611328125,-0.27679443359375
1686426586436967700,11.9449677734375,-0.227264404296875,1.1012725830078125,-0.2783355712890625
1686426586446912800,11.954912841796874,-0.2251434326171875,1.13031005859375,-0.27880859375
1686426586456857600,11.964857666015625,-0.216033935546875,1.152313232421875,-0.27264404296875
1686426586466802700,11.974802734375,-0.1892242431640625,1.1712646484375,-0.2678070068359375
1686426586476747800,11.984747802734375,-0.16253662109375,1.21478271484375,-0.2497100830078125
1686426586486692600,11.994692626953125,-0.1843719482421875,1.2516632080078125,-0.1909332275390625
1686426586496637700,12.0046376953125,-0.20269775390625,1.2131500244140625,-0.12274169921875
1686426586506582800,12.014582763671875,-0.2277069091796875,1.0740814208984375,-0.13067626953125
1686426586516527600,12.024527587890624,-0.2693939208984375,0.9745635986328125,-0.18536376953125
1686426586526472400,12.034472412109375,-0.260498046875,1.0578765869140625,-0.2635040283203125
1686426586536416800,12.044416748046874,-0.207977294921875,1.3771514892578125,-0.4032745361328125
1686426586546361600,12.054361572265625,-0.2649078369140625,1.652069091796875,-0.42523193359375
1686426586556306700,12.064306640625,-0.5142974853515625,1.64862060546875,-0.4081268310546875
1686426586566251800,12.074251708984375,-0.5838775634765625,1.4217681884765625,-0.581756591796875
1686426586576196600,12.084196533203125,-0.5317840576171875,1.2631683349609375,-0.669525146484375
1686426586586141700,12.0941416015625,-0.4697418212890625,1.0782470703125,-0.51031494140625
1686426586596086800,12.104086669921875,-0.341827392578125,0.9302520751953125,-0.3968963623046875
1686426586606031600,12.114031494140624,-0.2704925537109375,0.8930816650390625,-0.323760986328125
1686426586615976400,12.1239765625,-0.25274658203125,0.86541748046875,-0.2688446044921875
1686426586625921800,12.133921875,-0.275146484375,0.84014892578125,-0.2572021484375
1686426586635866600,12.14386669921875,-0.31683349609375,0.81805419921875,-0.2755584716796875
1686426586645811500,12.1538115234375,-0.3353729248046875,0.8038177490234375,-0.3003387451171875
1686426586655756800,12.1637568359375,-0.3623046875,0.7957611083984375,-0.33160400390625
1686426586665701600,12.17370166015625,-0.403778076171875,0.7879638671875,-0.35198974609375
1686426586675646500,12.183646484375,-0.451202392578125,0.7773895263671875,-0.3553009033203125
1686426586685591800,12.193591796875,-0.5028228759765625,0.78955078125,-0.3447265625
1686426586695536600,12.20353662109375,-0.5626220703125,0.8210601806640625,-0.3228302001953125
1686426586705481700,12.213481689453126,-0.60235595703125,0.8616180419921875,-0.2852783203125
1686426586715426600,12.223426513671875,-0.6023712158203125,0.8991851806640625,-0.2169342041015625
1686426586725371600,12.23337158203125,-0.5642547607421875,0.91021728515625,-0.126007080078125
1686426586735316700,12.243316650390625,-0.5010528564453125,0.8979644775390625,-0.0521697998046875
1686426586745261600,12.253261474609374,-0.436859130859375,0.8735504150390625,-0.0121307373046875
1686426586755206700,12.26320654296875,-0.4048309326171875,0.85888671875,0.0270843505859375
1686426586765151700,12.27315185546875,-0.4054412841796875,0.85430908203125,0.06903076171875
1686426586775096600,12.2830966796875,-0.4164886474609375,0.8526458740234375,0.0802764892578125
1686426586785041700,12.293041748046875,-0.4394683837890625,0.8530120849609375,0.0618743896484375
1686426586794986800,12.30298681640625,-0.4586181640625,0.8442840576171875,0.0229034423828125
1686426586804931600,12.312931640625,-0.472320556640625,0.8412933349609375,-0.0198516845703125
1686426586814876700,12.322876708984374,-0.477386474609375,0.8480072021484375,-0.0480804443359375
1686426586824821800,12.33282177734375,-0.455413818359375,0.861114501953125,-0.0655975341796875
1686426586834766600,12.3427666015625,-0.414794921875,0.8591461181640625,-0.049041748046875
1686426586844711400,12.35271142578125,-0.3752288818359375,0.8297882080078125,-0.026092529296875
1686426586854656800,12.36265673828125,-0.344573974609375,0.77838134765625,-0.0032196044921875
1686426586864600600,12.3726005859375,-0.3394012451171875,0.717926025390625,0.0124969482421875
1686426586874545700,12.382545654296875,-0.3586883544921875,0.6626739501953125,0.0277252197265625
1686426586884490800,12.39249072265625,-0.362518310546875,0.621429443359375,0.01806640625
1686426586894435600,12.402435546875,-0.328704833984375,0.590118408203125,0.03131103515625
1686426586904380700,12.412380615234374,-0.31689453125,0.5824127197265625,0.0454254150390625
1686426586914325800,12.42232568359375,-0.3058624267578125,0.587799072265625,0.0618896484375
1686426586924270600,12.4322705078125,-0.288482666015625,0.60699462890625,0.068603515625
1686426586934215400,12.44221533203125,-0.262908935546875,0.6479339599609375,0.063385009765625
1686426586944160800,12.452160888671875,-0.240936279296875,0.6974334716796875,0.0462799072265625
1686426586954105600,12.462105712890626,-0.224945068359375,0.748504638671875,0.04327392578125
1686426586964050700,12.47205078125,-0.2066650390625,0.8048095703125,0.039215087890625
1686426586973995800,12.481995849609374,-0.196563720703125,0.8616943359375,0.0253448486328125
1686426586983940600,12.491940673828125,-0.19940185546875,0.9087677001953125,0.0041961669921875
1686426586993885700,12.5018857421875,-0.234039306640625,0.9431610107421875,-0.00335693359375
1686426587003830800,12.511830810546876,-0.2540740966796875,0.9671783447265625,0.001434326171875
1686426587013775600,12.521775634765625,-0.2610626220703125,0.9483642578125,0.001617431640625
1686426587023720700,12.531720703125,-0.2614288330078125,0.90032958984375,0.046295166015625
1686426587033665500,12.54166552734375,-0.268310546875,0.8431243896484375,0.10400390625
1686426587043610600,12.551610595703124,-0.286651611328125,0.7839202880859375,0.152099609375
1686426587053555700,12.5615556640625,-0.2963104248046875,0.7467193603515625,0.190185546875
1686426587063500500,12.57150048828125,-0.291961669921875,0.734283447265625,0.2246246337890625
1686426587073445600,12.581445556640626,-0.281829833984375,0.737548828125,0.262481689453125
1686426587083390700,12.591390625,-0.26324462890625,0.751983642578125,0.2838897705078125
1686426587093335600,12.60133544921875,-0.2351837158203125,0.7859344482421875,0.2786407470703125
1686426587103280600,12.61128076171875,-0.201171875,0.8488006591796875,0.27459716796875
1686426587113225700,12.621225830078124,-0.18560791015625,0.92584228515625,0.278045654296875
1686426587123170600,12.631170654296875,-0.1804656982421875,0.9886474609375,0.2882232666015625
1686426587133115600,12.64111572265625,-0.19158935546875,1.0304412841796875,0.2951812744140625
1686426587143060700,12.651060791015626,-0.2331085205078125,1.059417724609375,0.2988128662109375
1686426587153005600,12.661005615234375,-0.30767822265625,1.064361572265625,0.270172119140625
1686426587162949600,12.67094970703125,-0.35546875,1.052978515625,0.243804931640625
1686426587172894700,12.680894775390625,-0.3506011962890625,1.0288238525390625,0.23272705078125
1686426587182839600,12.690839599609374,-0.3251190185546875,1.012420654296875,0.2195587158203125
1686426587192784600,12.70078466796875,-0.3017425537109375,1.028717041015625,0.206756591796875
1686426587202729700,12.710729736328124,-0.275665283203125,1.074951171875,0.1771392822265625
1686426587212674600,12.720674560546875,-0.250640869140625,1.1251068115234375,0.1295166015625
1686426587222619600,12.73061962890625,-0.2417755126953125,1.1693572998046875,0.088348388671875
1686426587232564700,12.740564697265626,-0.2396087646484375,1.2007293701171875,0.066802978515625
1686426587242509600,12.750509521484375,-0.2374725341796875,1.219268798828125,0.065155029296875
1686426587252454700,12.76045458984375,-0.2442779541015625,1.2300872802734375,0.064971923828125
1686426587262399700,12.770399658203125,-0.2525634765625,1.22393798828125,0.0596466064453125
1686426587272344600,12.780344482421874,-0.290771484375,1.20184326171875,0.05206298828125
1686426587282289700,12.79028955078125,-0.3711700439453125,1.1934967041015625,0.0786590576171875
1686426587292234800,12.80023486328125,-0.44964599609375,1.2332305908203125,0.1568756103515625
1686426587302179600,12.8101796875,-0.5045166015625,1.353790283203125,0.29669189453125
1686426587312124700,12.820124755859375,-0.6093902587890625,1.514617919921875,0.398712158203125
1686426587322069800,12.83006982421875,-0.8887176513671875,1.551025390625,0.3762054443359375
1686426587332014600,12.8400146484375,-1.1215667724609375,1.420166015625,0.220458984375
1686426587341959700,12.849959716796874,-0.95867919921875,1.22100830078125,0.21600341796875
1686426587351904800,12.85990478515625,-0.630096435546875,1.0413055419921875,0.2483978271484375
1686426587361849900,12.869849853515625,-0.357025146484375,0.90234375,0.151763916015625
1686426587371794700,12.879794677734376,-0.24310302734375,0.82672119140625,-0.0182647705078125
1686426587381739800,12.88973974609375,-0.30242919921875,0.8556671142578125,-0.118255615234375
1686426587391684900,12.899684814453124,-0.424774169921875,0.9436798095703125,-0.157318115234375
1686426587401630000,12.9096298828125,-0.5207366943359375,1.0075225830078125,-0.1924896240234375
1686426587411574800,12.91957470703125,-0.5564422607421875,1.0359649658203125,-0.21148681640625
1686426587421520000,12.929519775390625,-0.5880279541015625,1.0376129150390625,-0.1970062255859375
1686426587431465000,12.93946484375,-0.6002349853515625,0.9968109130859375,-0.1893768310546875
1686426587441409800,12.949409912109376,-0.5936431884765625,0.9392852783203125,-0.2039794921875
