time,seconds_elapsed,z,y,x
1686426574597560000,0.10556005859375,-8.056554052877425,-5.591184514564276,-0.03119838778785197
1686426574607505200,0.115505126953125,-8.094506474652887,-5.53617574404776,0.010430999759078258
1686426574617450200,0.1254501953125,-8.135544002962112,-5.475401834133267,0.057332783884136006
1686426574627395000,0.13539501953125,-8.17849993211329,-5.4100949569642545,0.11570285666044801
1686426574637340400,0.14534033203125,-8.220782492047547,-5.343467060324549,0.1909988841306418
1686426574647284200,0.1552841796875,-8.259649690580368,-5.2790837277412415,0.2825746499462053
1686426574657229300,0.165229248046875,-8.292612633505463,-5.220976991209388,0.3799386803070083
1686426574667174100,0.175174072265625,-8.319048220488428,-5.171348160165548,0.47008229442760346
1686426574677119200,0.185119140625,-8.339959491091966,-5.12947651911974,0.5513025973802432
1686426574687064000,0.19506396484375,-8.356177050921321,-5.093668708157539,0.6318446357451379
1686426574697009200,0.205009033203125,-8.368118833127618,-5.061747967761755,0.7236512511745095
1686426574706953200,0.214953125,-8.376777355879545,-5.030712193506956,0.8318160039477049
1686426574716898300,0.224898193359375,-8.38336900922954,-4.998377611613273,0.9516966942820697
1686426574726843100,0.234843017578125,-8.388362579733133,-4.964373635202646,1.0773825637638568
1686426574736788200,0.244788330078125,-8.390626433011889,-4.929767601245642,1.2104380852308123
1686426574746733300,0.2547333984375,-8.388999708592891,-4.895075058048963,1.3539964421421289
1686426574756677000,0.264677001953125,-8.383988017910719,-4.859444649480283,1.5049667558103799
1686426574766622200,0.274622314453125,-8.37652191981375,-4.821830958139896,1.6595799560256301
1686426574776567300,0.2845673828125,-8.368179623404144,-4.7796425062298775,1.8163079564377664
1686426574786512100,0.29451220703125,-8.361504967945814,-4.726306052839756,1.979304807986319
1686426574796457200,0.304457275390625,-8.357879763185977,-4.656619353151321,2.1522378010071814
1686426574806402300,0.31440234375,-8.35375128507912,-4.573751100328565,2.33795311871171
1686426574816346000,0.32434619140625,-8.342346093967556,-4.481583688762783,2.547754976055026
1686426574826291200,0.334291259765625,-8.315483806005119,-4.382790721577406,2.7954008263632653
1686426574836236300,0.344236328125,-8.263753618767858,-4.2817461760729545,3.0898882150843736
1686426574846181000,0.35418115234375,-8.17905698147416,-4.183865355296433,3.4305522485688327
1686426574856126200,0.364126220703125,-8.053239229241013,-4.100093723893165,3.80853800470978
1686426574866071300,0.3740712890625,-7.885807025593519,-4.044836823834479,4.1980610539093615
1686426574876015000,0.38401513671875,-7.684385458582639,-4.026467931190133,4.572544939409196
1686426574885960200,0.393960205078125,-7.44689479932487,-4.039178067420423,4.939553666722774
1686426574895905300,0.4039052734375,-7.160002103516459,-4.071688882663846,5.322227288419008
1686426574905850000,0.41385009765625,-6.811573281249403,-4.1163358336418865,5.729627939614653
1686426574915795200,0.423795166015625,-6.401590796867013,-4.167767037932575,6.149774675136804
1686426574925740300,0.433740234375,-5.935266247537732,-4.2258866339460015,6.5639084339797495
1686426574935684000,0.44368408203125,-5.43587763299644,-4.288709293083846,6.9446817750126115
1686426574945629200,0.453629150390625,-4.930367905226349,-4.353662242248654,7.273753570380807
1686426574955574300,0.46357421875,-4.452107711170614,-4.409569422909617,7.543529127171635
1686426574965519000,0.47351904296875,-4.006577528066933,-4.445900965484976,7.7686349366307255
1686426574975464200,0.483464111328125,-3.57672685239315,-4.45684204621613,7.969564920732378
1686426574985409300,0.4934091796875,-3.141785575582087,-4.436934691958129,8.161689082565903
1686426574995353300,0.503353271484375,-2.6965362552464005,-4.3785959002360695,8.350268119138478
1686426575005298200,0.513298095703125,-2.2495248936742542,-4.281564389765262,8.531015146911145
1686426575015243300,0.5232431640625,-1.8099189860530196,-4.142354948778451,8.702612069022654
1686426575025188000,0.53318798828125,-1.3682451861165463,-3.952576473288238,8.869916846898198
1686426575035133200,0.54313330078125,-0.9134335991222411,-3.7099198095694184,9.031751084408164
1686426575045078300,0.553078369140625,-0.4440599644206464,-3.4195661596521734,9.180401430696248
1686426575055022300,0.563022216796875,0.027466861692885865,-3.0893238591998813,9.30729353416264
1686426575064967200,0.57296728515625,0.48229591584522274,-2.726609029687941,9.407624378439783
1686426575074912300,0.582912353515625,0.9353574808344245,-2.3337068594440815,9.478888118186592
1686426575084857300,0.592857421875,1.4032638925276695,-1.9140579904414712,9.51512730630338
1686426575094802200,0.60280224609375,1.8699156279847025,-1.477629251551628,9.51264659540355
1686426575104747300,0.612747314453125,2.305637095388025,-1.0330383951246738,9.475612457516789
1686426575114691300,0.62269140625,2.6923180530294775,-0.5778537735668942,9.412114091074466
1686426575124636200,0.63263623046875,3.0051816409185528,-0.11083478483320214,9.334183879175782
1686426575134581000,0.6425810546875,3.2207524370521305,0.3632796237878501,9.255548733878134
1686426575144526300,0.6525263671875,3.314997531674802,0.8384565379407256,9.191202226173877
1686426575154471200,0.66247119140625,3.3098592920035124,1.3220521747402847,9.1360496632725
1686426575164416000,0.672416015625,3.2264737373083827,1.8104785196319222,9.08198255752027
1686426575174360300,0.6823603515625,3.0780995776131745,2.29062818069607,9.02489288907647
1686426575184305200,0.69230517578125,2.895944436608255,2.759641238456964,8.953671819427608
1686426575194250000,0.70225,2.6889941693037747,3.211117178222537,8.867267793694138
1686426575204195300,0.7121953125,2.4494969925291836,3.6371164391651747,8.77164351967275
1686426575214140200,0.72214013671875,2.1751570504322646,4.040877272553741,8.6666259788841
1686426575224085000,0.7320849609375,1.862946227363497,4.432546686132252,8.547067871567606
1686426575234029300,0.742029296875,1.5170204739585518,4.818174189198017,8.405605975478887
1686426575243974100,0.75197412109375,1.1369272241443396,5.190136447265744,8.242589250186086
1686426575253919200,0.761919189453125,0.7451932208970189,5.534906162503361,8.061010447764396
1686426575263864300,0.7718642578125,0.35860754032358527,5.841048333182931,7.8691756242662665
1686426575273809200,0.78180908203125,-0.0034903023592603856,6.098740068948269,7.679565491080283
1686426575283754000,0.79175390625,-0.3299635200435295,6.301446999594569,7.506880189210176
1686426575293698300,0.8016982421875,-0.6213968184236437,6.448051519268751,7.362533093073964
1686426575303643100,0.81164306640625,-0.8929363892123102,6.537904224151372,7.2545748226583
1686426575313588200,0.821588134765625,-1.155069760686904,6.57075084722042,7.187587445056438
1686426575323533000,0.831532958984375,-1.4071202756948769,6.547001722842454,7.164298339405655
1686426575333478100,0.84147802734375,-1.644975092089921,6.470463257563114,7.183141571563482
1686426575343423200,0.85142333984375,-1.8620460636533795,6.352887848496437,7.234913259854912
1686426575353367000,0.861366943359375,-2.0552334708042443,6.211306709942221,7.305207277786732
1686426575363312000,0.87131201171875,-2.228966966553032,6.061272800341248,7.3799103443324565
1686426575373257200,0.88125732421875,-2.3837822652116416,5.911953176489472,7.452300457760691
1686426575383202000,0.8912021484375,-2.516047878409922,5.763198785305023,7.524987508308887
1686426575393147100,0.901147216796875,-2.622745335109532,5.611024356544018,7.603157958704233
1686426575403092200,0.91109228515625,-2.7080641959547993,5.453153761968016,7.687644752639532
1686426575413037000,0.921037109375,-2.7792417187228797,5.29128386862278,7.774863601887225
1686426575422981400,0.9309814453125,-2.8406103796601294,5.129153863036632,7.860858462297916
1686426575432926200,0.94092626953125,-2.8943820095971224,4.969188926529884,7.943556034728884
1686426575442871000,0.95087109375,-2.940319877168536,4.812455811551213,8.02278973044157
1686426575452816100,0.960816162109375,-2.981215658919513,4.660751922911405,8.096920550057291
1686426575462761200,0.97076123046875,-3.018924042806029,4.518445684953034,8.163340941426158
1686426575472706000,0.9807060546875,-3.0495412993878124,4.390068019104004,8.221799560135603
1686426575482650000,0.990650146484375,-3.067102967302501,4.279641605009139,8.273326918277144
1686426575492595200,1.00059521484375,-3.0523893822953103,4.197691343814134,8.320619415327906
1686426575502540000,1.0105400390625,-3.000639905835688,4.1469577663987875,8.364764262002707
1686426575512485400,1.0204853515625,-2.9281255815058946,4.121503299407661,8.402956337752938
1686426575522430200,1.03043017578125,-2.853146036106348,4.117053626522422,8.430884209120274
1686426575532375000,1.040375,-2.7894898487538096,4.133424331086874,8.444165130975842
1686426575542319000,1.050319091796875,-2.74004806471467,4.169338232772052,8.442698565554618
1686426575552264200,1.06026416015625,-2.718001944862306,4.219062633144855,8.425103872153162
1686426575562209000,1.070208984375,-2.7211507642820476,4.27676634183377,8.394939035513996
1686426575572154000,1.080154052734375,-2.743620077982545,4.341992554982006,8.354043546023965
1686426575582099200,1.09009912109375,-2.7710823776647446,4.411463273832202,8.308458437412977
1686426575592044000,1.1000439453125,-2.790776089172065,4.473868584340811,8.268400567790865
1686426575601988000,1.109988037109375,-2.783807419203222,4.519398163372278,8.245959603402017
1686426575611933200,1.11993310546875,-2.7490999706983565,4.544234790726006,8.243953524276614
1686426575621878300,1.129878173828125,-2.6966201341375706,4.54930990203321,8.258474801582098
1686426575631823000,1.139822998046875,-2.626903916093707,4.5424473227873445,8.284680086940526
1686426575641768200,1.149768310546875,-2.5518250019729134,4.530278161565959,8.31475490720868
1686426575651713000,1.159713134765625,-2.4817571940124035,4.524299087156355,8.339182661500573
1686426575661658000,1.169658203125,-2.4193663504205642,4.532161198833585,8.353236905816196
1686426575671602200,1.179602294921875,-2.3633770444341002,4.552594622792303,8.358151565864683
1686426575681547300,1.18954736328125,-2.309480034551769,4.582507530497014,8.356873216491937
1686426575691492000,1.1994921875,-2.2557987132467328,4.617631158587336,8.352200548505783
1686426575701437200,1.209437255859375,-2.201418011500686,4.654579956278204,8.34619926226437
1686426575711382300,1.21938232421875,-2.1524946983776987,4.682193939390778,8.34351396870315
1686426575721327000,1.2293271484375,-2.114914324785024,4.695027117478848,8.345912262016535
1686426575731272200,1.239272216796875,-2.091770034432411,4.6957799816727634,8.351319674018026
1686426575741216300,1.24921630859375,-2.087255333486944,4.691717262278497,8.354731528288125
1686426575751161000,1.2591611328125,-2.0963237522140146,4.689733102723956,8.353574759468435
1686426575761106200,1.269106201171875,-2.1143432468988,4.684062363611162,8.352215161553024
1686426575771051300,1.27905126953125,-2.1199000042431053,4.663193178583681,8.362477027848362
1686426575780996000,1.28899609375,-2.1135206784695386,4.636100881257653,8.379138824313879
1686426575790941200,1.298941162109375,-2.085033419653773,4.607032899944484,8.402278876882791
1686426575800885200,1.30888525390625,-2.036077373304963,4.579190953294932,8.429459144753217
1686426575810830000,1.318830078125,-1.9754248978130518,4.550462579199672,8.459394264289736
1686426575820775000,1.32877490234375,-1.9299441263593733,4.528714857771992,8.481535368949174
1686426575830720300,1.33872021484375,-1.911849228350818,4.5104283827140925,8.495366325902939
1686426575840665000,1.3486650390625,-1.9202204585939644,4.504171660406887,8.496797235488891
1686426575850610200,1.358610107421875,-1.9385864286288619,4.523388402052223,8.482407475608587
1686426575860555300,1.36855517578125,-1.954266812841594,4.570276117694378,8.45362561776042
1686426575870499000,1.3784990234375,-1.9480352249756454,4.6423979355752465,8.415681963813304
1686426575880444200,1.388444091796875,-1.9032358599148689,4.738455048055947,8.372281798025965
1686426575890389200,1.39838916015625,-1.8209493525028229,4.8555406277790665,8.323357315859198
1686426575900334000,1.408333984375,-1.726434939419478,4.978936413562297,8.270428274226187
1686426575910279000,1.41827880859375,-1.6467504311993717,5.093188815686107,8.21693458444774
1686426575920224300,1.428224365234375,-1.589938118392229,5.1911716355323785,8.1666540114969
1686426575930169000,1.438169189453125,-1.545149274725467,5.273312743124365,8.122504488646983
1686426575940113200,1.448113037109375,-1.5063330757275222,5.3422582690566776,8.084654358202219
1686426575950058200,1.458058349609375,-1.4699480493992567,5.400825024315714,8.052373552322388
1686426575960003000,1.468003173828125,-1.4312380872547625,5.453512658408284,8.023785171219705
1686426575969948200,1.4779482421875,-1.3869840811170637,5.508041536453366,7.994255709874629
1686426575979893200,1.487893310546875,-1.3379168294787407,5.575410022327303,7.955825149193406
1686426575989838000,1.497838134765625,-1.2978895011253655,5.666674932095408,7.897762836325168
1686426575999783000,1.507782958984375,-1.281798782546073,5.788754082322121,7.811383360511064
1686426576009727200,1.517727294921875,-1.315085842859,5.937681491985916,7.693170238062739
1686426576019672000,1.527672119140625,-1.4181602867558598,6.097374625813961,7.548591086736321
1686426576029617200,1.5376171875,-1.5660723818972706,6.2502843831121915,7.3926815631002185
1686426576039562200,1.547562255859375,-1.7137880776837466,6.386335944589972,7.242100541010498
1686426576049507000,1.557507080078125,-1.8341024101950227,6.501643993246555,7.108801493111252
1686426576059452200,1.5674521484375,-1.9253106213398277,6.592808365249633,6.9998898674935095
1686426576069396200,1.577396240234375,-2.00267165504843,6.658453680592775,6.915541020724177
1686426576079341000,1.587341064453125,-2.083237768408656,6.69939943896532,6.85190236902833
1686426576089286100,1.5972861328125,-2.17716079147011,6.719375474545359,6.802966196423768
1686426576099231200,1.607231201171875,-2.2835481593072413,6.726888918915391,6.7605304917544125
1686426576109176000,1.617176025390625,-2.4004051909714934,6.728258453702926,6.718555974856018
1686426576119121200,1.62712109375,-2.5263620594143865,6.7263669408679005,6.674119451758265
1686426576129066200,1.637066162109375,-2.658155086664855,6.721162357962131,6.628014118665456
1686426576139010300,1.64701025390625,-2.7924112891584634,6.711889502704143,6.5820496553480625
1686426576148955100,1.656955078125,-2.9199232780888673,6.698217535704374,6.540512945345044
1686426576158900200,1.666900146484375,-3.025343262198567,6.681988285437226,6.509124704390764
1686426576168845000,1.676844970703125,-3.093693744847178,6.670179189699888,6.489079110705852
1686426576178790100,1.6867900390625,-3.1204318219080567,6.666432988908887,6.480120143702626
1686426576188735200,1.6967353515625,-3.124819827733934,6.6629071528702974,6.481632301831245
1686426576198680000,1.70668017578125,-3.1179677698820827,6.658165511301159,6.489797488108277
1686426576208624000,1.7166240234375,-3.1085780102461573,6.657611384549736,6.4948711381107564
1686426576218569000,1.72656884765625,-3.1130364509597417,6.666863781541585,6.483234476330876
1686426576228514300,1.736514404296875,-3.1362004689261314,6.69000032697916,6.4481415356397624
1686426576238459100,1.746459228515625,-3.17022081194967,6.737354783350229,6.381861429524421
1686426576248404200,1.756404296875,-3.2081898925989862,6.817149620077013,6.277290463459491
1686426576258349000,1.76634912109375,-3.2589535728916523,6.932602630162239,6.12279606731832
1686426576268294100,1.776294189453125,-3.3235108007371426,7.086697213330864,5.907907700490951
1686426576278238000,1.786238037109375,-3.390483565291762,7.275930329897999,5.633456553104519
1686426576288183300,1.796183349609375,-3.447283895400166,7.472042100062966,5.3343415045827625
1686426576298128100,1.806128173828125,-3.4712753041014075,7.6498904837846755,5.0596255687803025
1686426576308073000,1.816072998046875,-3.45949280411005,7.801008096969127,4.83182832828015
1686426576318018300,1.826018310546875,-3.4316534878090024,7.928900901910662,4.639683123658597
1686426576327963100,1.835963134765625,-3.415350295522809,8.04492791249156,4.448023364466429
1686426576337908000,1.845907958984375,-3.417755895359814,8.163155647987127,4.225188714809716
1686426576347852000,1.85585205078125,-3.4539676109477875,8.291484506258367,3.9359596850082275
1686426576357797000,1.865797119140625,-3.540870526114106,8.426473406940698,3.5534736948385834
1686426576367742000,1.875741943359375,-3.6696199478849767,8.558441498497128,3.0752842279314994
1686426576377687000,1.88568701171875,-3.813515500861406,8.679480199760198,2.5088071135014296
1686426576387632000,1.895632080078125,-3.94615666937381,8.782890305352211,1.8598602440468965
1686426576397577000,1.905576904296875,-4.045448525992035,8.855912286943196,1.173697961854562
1686426576407522000,1.91552197265625,-4.108441573260724,8.886021009480952,0.5742010962782428
1686426576417466000,1.925466064453125,-4.142416323576867,8.888094308623671,0.11202924618162215
1686426576427411200,1.9354111328125,-4.133848693978786,8.888819115766882,-0.265668103205692
1686426576437356000,1.94535595703125,-4.050146620680391,8.910510723093152,-0.6078570629687979
1686426576447301000,1.955301025390625,-3.877482069337368,8.961112198561429,-0.9132187873277813
1686426576457246000,1.965245849609375,-3.635146892657876,9.031917673146724,-1.1749782109234481
1686426576467191000,1.97519091796875,-3.3561376435756682,9.109008511611819,-1.3902170716889202
1686426576477136100,1.98513623046875,-3.069184449751675,9.18239581938386,-1.5601595045916736
1686426576487080200,1.995080078125,-2.8004151473939416,9.244953690105676,-1.6908303959444164
1686426576497025000,2.00502490234375,-2.574620186626911,9.29421953305602,-1.777408609201014
1686426576506970000,2.01497021484375,-2.4139095463193954,9.330164706662297,-1.814230857902765
1686426576516915200,2.024915283203125,-2.32248287011832,9.351246657657622,-1.8250072495914995
1686426576526860000,2.034860107421875,-2.2851158470153807,9.358487130305171,-1.8350320922605692
1686426576536805000,2.04480517578125,-2.2777784898646174,9.356597371035814,-1.8536973375029862
1686426576546750000,2.05475,-2.281963228203356,9.350959072887896,-1.876856971555203
1686426576556694000,2.064694091796875,-2.288434323913604,9.345370459100604,-1.89670616588518
1686426576566639000,2.07463916015625,-2.293186925268173,9.339639806494116,-1.919060621034354
1686426576576584200,2.084584228515625,-2.293016391006857,9.334898749446868,-1.9422014042556284
1686426576586529000,2.094529052734375,-2.282840741690248,9.333955331116915,-1.9586507270142435
1686426576596474000,2.10447412109375,-2.261511099544167,9.337772843578458,-1.9651833436533808
1686426576606419200,2.114419189453125,-2.232447794406116,9.345864964619278,-1.9599429587818682
1686426576616364000,2.124364013671875,-2.2044199697956444,9.355943291041255,-1.9435158478550612
1686426576626307800,2.134307861328125,-2.18806665475741,9.364127182018755,-1.922463269084692
1686426576636253200,2.144253173828125,-2.1936795262031255,9.367036931985616,-1.9017796697571872
1686426576646198000,2.154197998046875,-2.2259141548536716,9.361939901107549,-1.8893838601730764
1686426576656142800,2.164142822265625,-2.286492542196065,9.348367887350916,-1.8842377294562755
1686426576666088200,2.174088134765625,-2.372207562752068,9.325836906591057,-1.8899137292660773
1686426576676033000,2.184032958984375,-2.476056644283235,9.293115955728291,-1.9176915246382356
1686426576685978000,2.19397802734375,-2.591936939869821,9.25121333502233,-1.9665429415687918
1686426576695922200,2.203922119140625,-2.715588746240735,9.202074333322047,-2.029234813933819
1686426576705867000,2.213866943359375,-2.8416397227078676,9.14806158810556,-2.0996290773697197
1686426576715811800,2.223811767578125,-2.9598706730738282,9.093239864593743,-2.1731416189566253
1686426576725757200,2.233757080078125,-3.0582080054461955,9.041878510668873,-2.249932013170421
1686426576735702000,2.243701904296875,-3.1269016024440526,8.99742211382687,-2.3322275806717574
1686426576745646800,2.253646728515625,-3.1703967530384656,8.958637917402386,-2.42111363247931
1686426576755592200,2.26359228515625,-3.1925203220412133,8.92612564085424,-2.5104721241042016
1686426576765536000,2.273535888671875,-3.200156223747134,8.899997512385248,-2.5921853616729376
1686426576775481000,2.283481201171875,-3.200700413626432,8.879123066660762,-2.6621546776950358
1686426576785426200,2.29342626953125,-3.2044612274646758,8.860356991392374,-2.719538652910292
1686426576795371000,2.30337109375,-3.2171050204604863,8.84167917892933,-2.765016794015467
1686426576805316000,2.313316162109375,-3.238531839370727,8.823077354311943,-2.7992165852591393
1686426576815261200,2.32326123046875,-3.26192352861315,8.806286378508807,-2.8248116297647354
1686426576825206000,2.3332060546875,-3.281626592470705,8.792456590598821,-2.8450007235735653
1686426576835150000,2.343150146484375,-3.294742386892438,8.782486985248326,-2.8605919681981202
1686426576845095200,2.35309521484375,-3.3015307318583127,8.777365404450894,-2.868474245880544
1686426576855040000,2.3630400390625,-3.305495543836057,8.776443613430857,-2.8667274022132156
1686426576864985000,2.372985107421875,-3.3094638629451394,8.780207934400439,-2.8505738475307822
1686426576874930200,2.38293017578125,-3.3108214150339363,8.791002884659171,-2.8155092561513184
1686426576884875000,2.392875,-3.3042914287433027,8.808344480082392,-2.768597575111687
1686426576894820000,2.402820068359375,-3.288338657329976,8.829864237973094,-2.7185864667519923
1686426576904764200,2.41276416015625,-3.2635487917274233,8.852500432673096,-2.6744842901751396
1686426576914709000,2.422708984375,-3.2330265199527144,8.874400129792093,-2.638742237925529
1686426576924654000,2.432654052734375,-3.2045003904312845,8.89290726186335,-2.6110890918463467
1686426576934599200,2.44259912109375,-3.1870325382798907,8.903978690975904,-2.5946809778809548
1686426576944544000,2.4525439453125,-3.187129861174524,8.905613598701358,-2.588946818143129
1686426576954489000,2.462489013671875,-3.2070275708213445,8.89744022911787,-2.5924726541817185
1686426576964434200,2.47243408203125,-3.2385961367785927,8.881842847013473,-2.6066768283620476
1686426576974378000,2.4823779296875,-3.270286283288896,8.865796552097796,-2.621691149881482
1686426576984323000,2.492322998046875,-3.2933450873151418,8.857523813793062,-2.620784848691523
1686426576994268200,2.50226806640625,-3.304266878823936,8.860302630856633,-2.597546596445143
1686426577004213000,2.512212890625,-3.305529153844714,8.87226136419773,-2.5547674851655957
1686426577014158000,2.522157958984375,-3.300633783018589,8.890402001044153,-2.4973890629082915
1686426577024103200,2.532103271484375,-3.290134016314149,8.912496928474306,-2.431625235752016
1686426577034048000,2.542048095703125,-3.2735563910007475,8.936994825392961,-2.363122192890197
1686426577043993000,2.5519931640625,-3.2517806125223636,8.962943505641817,-2.2938991651907563
1686426577053937000,2.56193701171875,-3.2274145252898334,8.989614070424437,-2.222841615540534
1686426577063882200,2.57188232421875,-3.2024013723254203,9.016925855720043,-2.1471037991195914
1686426577073827000,2.5818271484375,-3.1777409783214328,9.044539254310727,-2.0660748905532063
1686426577083772200,2.591772216796875,-3.1572996633172035,9.070575612843037,-1.981539873562008
1686426577093717000,2.601717041015625,-3.1454259779110547,9.093501730400323,-1.8933857892908155
1686426577103662000,2.611662109375,-3.1476462843090296,9.111626585155724,-1.8002707216113805
1686426577113607200,2.621607177734375,-3.169359811206162,9.122411014020443,-1.705042753431201
1686426577123551200,2.63155126953125,-3.209973561145365,9.126120389932394,-1.6063536850117146
1686426577133496000,2.64149609375,-3.2664281465560197,9.12420724978745,-1.4998948593735695
1686426577143441000,2.65144091796875,-3.3335385660156605,9.11794234417379,-1.3860140670411287
1686426577153386200,2.66138623046875,-3.404087727752328,9.108860043051838,-1.2693448130339384
1686426577163331000,2.6713310546875,-3.470380985610187,9.098975777897238,-1.1556303902443497
1686426577173276200,2.681276123046875,-3.523990118461847,9.091110451349616,-1.0505166956048457
1686426577183221000,2.691220947265625,-3.562372456087172,9.086512017643452,-0.9566489829272031
1686426577193166000,2.701166015625,-3.5946804422348735,9.082302875515818,-0.8720192733898758
1686426577203110000,2.71110986328125,-3.6275785032302137,9.07605082938373,-0.7977201845351606
1686426577213055200,2.72105517578125,-3.664517071788013,9.066305680438875,-0.7374275553315878
1686426577223000000,2.731,-3.710505500502884,9.051426091215014,-0.6886323986329138
1686426577232945000,2.74094482421875,-3.7674472849085925,9.031219754010438,-0.643267654774338
1686426577242890200,2.75089013671875,-3.83186919593662,9.007395226308702,-0.5949771231295541
1686426577252835000,2.7608349609375,-3.8974195264726874,8.982586948266626,-0.5418974575120955
1686426577262780000,2.77077978515625,-3.9588770347371693,8.958861789286136,-0.48628323191571976
1686426577272724200,2.78072412109375,-4.015262354303896,8.936544159016012,-0.4315457160886377
1686426577282669000,2.7906689453125,-4.070101613472402,8.913840159776806,-0.38486645556539295
1686426577292614000,2.80061376953125,-4.128440405194461,8.8883760481745,-0.35090058267544955
1686426577302559200,2.810559326171875,-4.193963847723603,8.858449111944436,-0.33006471539568155
1686426577312504000,2.820504150390625,-4.266099109607935,8.824477868759631,-0.3152314860641956
1686426577322448100,2.8304482421875,-4.339418320579827,8.789221261939407,-0.29902797302650286
1686426577332393200,2.840393310546875,-4.408523420988023,8.755398487314581,-0.27983216457134114
1686426577342338000,2.850338134765625,-4.470620688460767,8.724556189805268,-0.2570362127323635
1686426577352282400,2.860282470703125,-4.524725788135826,8.69739813376665,-0.2291726753055118
1686426577362227200,2.870227294921875,-4.56959924134612,8.674671338173747,-0.1980315044474788
1686426577372172000,2.880172119140625,-4.604967491847276,8.656623055785895,-0.1659023637317121
1686426577382117400,2.890117431640625,-4.631075454311072,8.64325913182199,-0.1326316517653875
1686426577392062200,2.900062255859375,-4.647613332135975,8.634832664260268,-0.09868426438020542
1686426577402007000,2.910007080078125,-4.65331066699475,8.632095348250866,-0.06336890397691168
1686426577411952400,2.919952392578125,-4.65007563059628,8.634017840746045,-0.030254818760848137
1686426577421897200,2.929897216796875,-4.643464980284869,8.637627847936749,-0.0015558034762230817
1686426577431841000,2.939841064453125,-4.634012969067692,8.642676363497973,0.021238196436385623
1686426577441786400,2.949786376953125,-4.619548098124564,8.650337691906094,0.04255995210353285
1686426577451731200,2.959731201171875,-4.604065282310545,8.658467222347856,0.06258934357231483
1686426577461676000,2.969676025390625,-4.59600910936594,8.662576995754241,0.08267521446868777
1686426577471621400,2.979621337890625,-4.601329135344923,8.659567292544246,0.10021826901445165
1686426577481566200,2.989566162109375,-4.616256363102793,8.65153771534562,0.10707808091449551
1686426577491511000,2.999510986328125,-4.630789623107016,8.643861189368367,0.09922936757495626
1686426577501456400,3.009456298828125,-4.638226787370443,8.64008810057044,0.0782017497159075
1686426577511400200,3.019400146484375,-4.636819550921023,8.641063667604326,0.04800544479282107
1686426577521345000,3.029344970703125,-4.628875606179237,8.645449335342645,0.010366298209124943
1686426577531290400,3.039290283203125,-4.619800903841853,8.65023247796595,-0.03603342271188739
1686426577541235200,3.049235107421875,-4.616754375752806,8.651526609429716,-0.08389338548625819
1686426577551180000,3.059179931640625,-4.626792662425339,8.645730490371584,-0.12052193824681452
1686426577561125400,3.06912548828125,-4.65376747085154,8.631052561199665,-0.1333052858437877
1686426577571070200,3.0790703125,-4.691650334522127,8.610634627071022,-0.1256151788657531
1686426577581015000,3.08901513671875,-4.723218900479376,8.593564834326505,-0.11065077003580517
1686426577590959400,3.09895947265625,-4.735740236139297,8.586751647180318,-0.1041964793298859
1686426577600904200,3.108904296875,-4.724745963916182,8.592583422073721,-0.12115417173574677
1686426577610849000,3.11884912109375,-4.692831068739295,8.609118961811065,-0.1754596254216507
1686426577620794400,3.12879443359375,-4.63854885893166,8.636282278546691,-0.26243980707526204
1686426577630739200,3.1387392578125,-4.555717723248899,8.676114522719383,-0.37529775916598734
1686426577640684000,3.14868408203125,-4.448310364714264,8.725089273768663,-0.5056869475005195
1686426577650629400,3.15862939453125,-4.3276396199807525,8.776591497468948,-0.6429263670559973
1686426577660573200,3.1685732421875,-4.194553922571242,8.83018981666565,-0.7770804974146187
1686426577670518300,3.178518310546875,-4.043637677177786,8.88852685482204,-0.9019248745709657
1686426577680463000,3.188463134765625,-3.8854111087709664,8.947236817944049,-1.010404611577466
1686426577690408200,3.198408203125,-3.740821436050534,8.99799786788821,-1.1012123521625996
1686426577700353000,3.20835302734375,-3.618989246322214,9.03856602512002,-1.1737246306657791
1686426577710298400,3.21829833984375,-3.5173739151924845,9.07092164980173,-1.2316015039645134
1686426577720243200,3.2282431640625,-3.4284807029917834,9.099553870046138,-1.270446052274108
1686426577730188000,3.23818798828125,-3.3460917581185696,9.126517280295491,-1.2964353567942977
1686426577740132000,3.248132080078125,-3.259127760414779,9.156072460603713,-1.309515056989342
1686426577750077200,3.2580771484375,-3.16382380438894,9.187328599610924,-1.3242403324343264
1686426577760022300,3.268022216796875,-3.057181000486016,9.221468185099958,-1.337368986337632
1686426577769967000,3.277967041015625,-2.9366052405595777,9.26042773809135,-1.3383578512445091
1686426577779912200,3.287912109375,-2.812693906469643,9.298832579809426,-1.3382245802536605
1686426577789857000,3.29785693359375,-2.693988324329257,9.333629167902469,-1.3402169231146572
1686426577799802400,3.30780224609375,-2.583005153134465,9.363913247007131,-1.3474489201948046
1686426577809747200,3.317747314453125,-2.4807705210626123,9.389377943131327,-1.362261873923242
1686426577819692000,3.327692138671875,-2.3889612752847373,9.410363448014856,-1.3814179714225232
1686426577829636000,3.337635986328125,-2.306990409693122,9.428185520431398,-1.3991111567623913
1686426577839581200,3.347581298828125,-2.232666843984276,9.444553302386403,-1.4092521731570362
1686426577849526300,3.3575263671875,-2.1647699503220617,9.46069195176065,-1.406932498037815
1686426577859471000,3.36747119140625,-2.1055786334238946,9.476424358421564,-1.390785373096168
1686426577869416200,3.377416259765625,-2.0565515676654873,9.49125835493803,-1.362718970040977
1686426577879361300,3.387361328125,-2.017943750721216,9.504493099564314,-1.327743372119218
1686426577889306400,3.397306396484375,-1.9896737879179416,9.515047811326385,-1.2943923066593706
1686426577899251200,3.407251220703125,-1.968300452760607,9.523208321428298,-1.2667588881939649
1686426577909195300,3.4171953125,-1.9513190689519047,9.529483163914083,-1.2456747452415524
1686426577919140000,3.42714013671875,-1.938221979230642,9.534106147539616,-1.2306491716757415
1686426577929085200,3.437085205078125,-1.9253095984265207,9.538028873941302,-1.2204756412509827
1686426577939030300,3.4470302734375,-1.9069762154869734,9.542411034548282,-1.2150051008854061
1686426577948975000,3.45697509765625,-1.8850657047130166,9.546194644740224,-1.2194574041191488
1686426577958920200,3.466920166015625,-1.8682272365063428,9.547470656025409,-1.2352877912618219
1686426577968865300,3.476865234375,-1.864762629135698,9.545477436381578,-1.2557504413150251
1686426577978810400,3.486810302734375,-1.8763500449463724,9.540764436385034,-1.2741744251474738
1686426577988754200,3.496754150390625,-1.8977379931509493,9.534686577776073,-1.2879144889473915
1686426577998699300,3.50669921875,-1.9198890346825122,9.529166937571764,-1.2959116251811384
1686426578008644000,3.51664404296875,-1.9366056300751864,9.525063009384274,-1.3012052015446125
1686426578018589200,3.526589111328125,-1.943302643495798,9.52262789119184,-1.3090201130792498
1686426578028534300,3.5365341796875,-1.934403736116737,9.522676406508683,-1.3217853404976427
1686426578038479000,3.54647900390625,-1.9049903023667631,9.525643439620733,-1.3429514626450836
1686426578048424200,3.556424072265625,-1.8548807020686566,9.530433596506715,-1.3786298020087182
1686426578058369300,3.566369384765625,-1.7889305585600435,9.53497182445824,-1.4333191313125193
1686426578068314000,3.576314208984375,-1.7139220793269574,9.537869299465417,-1.5039578710287809
1686426578078258200,3.586258056640625,-1.6390873492255806,9.539387302812933,-1.5760244515910744
1686426578088203300,3.596203369140625,-1.5730219087742268,9.540317861661315,-1.6365563694432377
1686426578098148000,3.606148193359375,-1.5232121682055293,9.54112567091286,-1.678428595010936
1686426578108093200,3.61609326171875,-1.4957960457526147,9.541621345475315,-1.7001288240350783
1686426578118038300,3.626038330078125,-1.495015709029883,9.541120410215854,-1.7036252878487108
1686426578127983000,3.635983154296875,-1.5158416394375265,9.539481410837173,-1.6943781515538692
1686426578137928200,3.64592822265625,-1.5442909043304622,9.538079142823815,-1.6764869594238698
1686426578147873300,3.655873291015625,-1.5640692253813147,9.53935690767467,-1.6506794412113726
1686426578157817000,3.665817138671875,-1.5625580901660023,9.54499052964747,-1.6192444385059177
1686426578167762200,3.67576220703125,-1.535388782081008,9.554932662469149,-1.5862616218365728
1686426578177707300,3.685707275390625,-1.4873448821410535,9.56764718261361,-1.5550902385033667
1686426578187652000,3.695652099609375,-1.429507171808928,9.58113327165246,-1.5260286869309843
1686426578197597200,3.70559716796875,-1.3768186609335242,9.59262263391614,-1.5021150196410715
1686426578207542300,3.715542236328125,-1.343216397191584,9.59967196790576,-1.487434752381593
1686426578217487000,3.725487060546875,-1.3342518772304057,9.601334932681917,-1.4847608569972217
1686426578227432200,3.73543212890625,-1.3488316067248582,9.597644845992326,-1.495405292869359
1686426578237376300,3.745376220703125,-1.3823705959722399,9.589825696673989,-1.514815657390654
1686426578247321000,3.755321044921875,-1.4254199024952947,9.580959668651223,-1.5309337023682892
1686426578257266200,3.76526611328125,-1.463691911613941,9.5747152213037,-1.5338941596090794
1686426578267211300,3.775211181640625,-1.484298646312952,9.57346668254733,-1.5218397108085453
1686426578277156000,3.785156005859375,-1.4803573613412677,9.577579963085055,-1.4996318245232105
1686426578287101200,3.79510107421875,-1.454494605810195,9.585391513618827,-1.4748210622631013
1686426578297046300,3.80504638671875,-1.4150924236178397,9.59414998961389,-1.4560896199166773
1686426578306991000,3.8149912109375,-1.3708088991247116,9.602119361057877,-1.4458837215922773
1686426578316936200,3.824936279296875,-1.3307972067318856,9.608570729154348,-1.4403998833537102
1686426578326880500,3.834880615234375,-1.3023049794800579,9.61296633376479,-1.4371068331576884
1686426578336825300,3.844825439453125,-1.294147099726647,9.613740240746736,-1.4392901685461401
1686426578346770200,3.854770263671875,-1.3055484914459288,9.609733927714824,-1.455654151108861
1686426578356715500,3.864715576171875,-1.3292086223661899,9.60157166404724,-1.4877539013333618
1686426578366660400,3.874660400390625,-1.3487712548397481,9.593817981180548,-1.519822233506292
1686426578376605400,3.88460546875,-1.3475734233573078,9.590952070355415,-1.5388484210155904
1686426578386550500,3.894550537109375,-1.3191544074721633,9.594509470576048,-1.5413028284303842
1686426578396495400,3.904495361328125,-1.274999039403349,9.602550738212466,-1.5283252734355628
1686426578406439400,3.914439453125,-1.2369408191658555,9.611871524265409,-1.5007584904655813
1686426578416384500,3.924384521484375,-1.226299452033639,9.61955214189589,-1.4597214005477726
1686426578426329300,3.934329345703125,-1.2604844840995966,9.622731940975784,-1.4087541605070233
1686426578436274200,3.944274169921875,-1.350261785658449,9.618634442529082,-1.3524194020837546
1686426578446219500,3.954219482421875,-1.4949316840082405,9.60600876971185,-1.288472268960625
1686426578456164400,3.964164306640625,-1.6781879181228576,9.58587140609026,-1.2104290251415222
1686426578466109400,3.974109375,-1.8715723091505467,9.560957914108037,-1.120576831715554
1686426578476054500,3.984054443359375,-2.0454155488841232,9.534939675754309,-1.035169927260652
1686426578485999400,3.993999267578125,-2.1838395385816693,9.511260109481215,-0.9680605307143181
1686426578495943400,4.003943359375,-2.289900158682465,9.491028637835383,-0.9203938665889203
1686426578505888500,4.013888427734375,-2.373183275916427,9.473499995407462,-0.8894768964082002
1686426578515833300,4.023833251953125,-2.4409761246822774,9.457647177237272,-0.874590877443552
1686426578525778200,4.033778076171875,-2.4982082703366872,9.442709135824442,-0.8744020768731832
1686426578535723500,4.0437236328125,-2.548130239108205,9.428523958605528,-0.8833773374240845
1686426578545668400,4.05366845703125,-2.5934762782663103,9.41503202434778,-0.8952328295864165
1686426578555613400,4.063613525390625,-2.6363600189641114,9.40214974642098,-0.905305091593787
1686426578565558500,4.07355859375,-2.6786440402030944,9.39000688868463,-0.9072150899335741
1686426578575503400,4.08350341796875,-2.7236554405793547,9.378227603563666,-0.8949462677299976
1686426578585447400,4.093447509765625,-2.7739564717963336,9.366212171599269,-0.8658070478115231
1686426578595392500,4.103392578125,-2.8280773535624144,9.354165759974718,-0.8197273606166243
1686426578605337300,4.11333740234375,-2.8820766547754406,9.342890917244553,-0.7578939317118376
1686426578615282200,4.1232822265625,-2.928899780748784,9.33413302577138,-0.6825633809175342
1686426578625227500,4.1332275390625,-2.960847993673384,9.329959539479017,-0.5963490690698847
1686426578635172400,4.14317236328125,-2.973903582340479,9.331135012999177,-0.5061590585242957
1686426578645117200,4.1531171875,-2.9702427217453717,9.336544763088225,-0.4206786504417658
1686426578655062500,4.1630625,-2.9565722160503265,9.344118997734785,-0.341344380431436
1686426578665006300,4.17300634765625,-2.940646332643926,9.351538334080576,-0.26778958887169135
1686426578674951400,4.182951416015625,-2.9265649080604312,9.357629052171111,-0.2009279382750392
1686426578684896500,4.192896484375,-2.9145670117527245,9.36246012558937,-0.14150362547175027
1686426578694841300,4.20284130859375,-2.9051901115983725,9.366038568598032,-0.08705950310067273
1686426578704786200,4.2127861328125,-2.8990912102013824,9.368266181519626,-0.035005655133305114
1686426578714731500,4.2227314453125,-2.8955419932872055,9.369420612251758,0.01352127451666165
1686426578724676400,4.23267626953125,-2.8931495451927183,9.370005718663334,0.05534902162181679
1686426578734621200,4.24262109375,-2.892333260373771,9.369989936572313,0.0900639912794344
1686426578744566500,4.25256640625,-2.893148083887994,9.36943464077711,0.11740206179376692
1686426578754510300,4.26251025390625,-2.8953873872473834,9.368454397568106,0.1385101610105019
1686426578764455400,4.272455322265625,-2.8995094356134534,9.366923534739017,0.15481966430647298
1686426578774400500,4.282400390625,-2.9070079746752975,9.364355145555734,0.1689339317136444
1686426578784345300,4.292345458984375,-2.919167491285503,9.360348248001932,0.18090130501892415
1686426578794290400,4.30229052734375,-2.934459752963483,9.355438264128566,0.18738038310622795
1686426578804235500,4.312235595703125,-2.9510151664450763,9.350232512179016,0.18718279644120484
1686426578814180400,4.322180419921875,-2.967179534782469,9.345222575062513,0.18179794333139435
1686426578824125200,4.332125244140625,-2.982211684219539,9.34058380934596,0.1740798980336636
1686426578834070500,4.342070556640625,-2.995949117670953,9.336302186504005,0.16775557211665434
1686426578844014300,4.352014404296875,-3.010835428896546,9.33148397256732,0.16931741460589692
1686426578853959400,4.36195947265625,-3.0316192737281322,9.324526993036269,0.1813203524149023
1686426578863904500,4.371904541015625,-3.059883829703927,9.314783597657083,0.20567471267702056
1686426578873849300,4.381849365234375,-3.0970185053557158,9.301615488526224,0.2424953722098842
1686426578883794400,4.39179443359375,-3.1428304084599015,9.285047800084948,0.2844133914143778
1686426578893739500,4.401739501953125,-3.1905981218069788,9.267825447127223,0.3128349463164806
1686426578903684400,4.411684326171875,-3.228498813395202,9.25462752737999,0.31471414765920486
1686426578913629200,4.421629150390625,-3.249879162815213,9.247733676213025,0.29680620532380414
1686426578923573500,4.431573486328125,-3.261720699517429,9.244342864730953,0.27147072506984693
1686426578933518300,4.441518310546875,-3.273620396147668,9.240895939147471,0.24417766274102032
1686426578943463400,4.45146337890625,-3.2898040537074205,9.235877234202622,0.2148162331729196
1686426578953408500,4.461408447265625,-3.309542773400247,9.229524650305509,0.1821240517469123
1686426578963353300,4.471353271484375,-3.3308161553144453,9.222540198245644,0.14418261715634725
1686426578973298400,4.48129833984375,-3.354700011987984,9.214462690252065,0.1003195556981489
1686426578983243500,4.491243408203125,-3.383255075342953,9.204425280362367,0.050217166025540785
1686426578993188400,4.501188232421875,-3.416689142911136,9.19220234312713,-0.007168194004270481
1686426579003133200,4.51113330078125,-3.4528780621454116,9.178371386173367,-0.07438505010511726
1686426579013077500,4.521077392578125,-3.487725211381912,9.164131263896822,-0.15762688548061995
1686426579023022300,4.531022216796875,-3.5181869851410386,9.15011267541647,-0.26110443028565494
1686426579032967400,4.540967529296875,-3.5419375708237286,9.1366108042866,-0.3839222335178405
1686426579042912500,4.55091259765625,-3.555011571930349,9.124518799954652,-0.5248180932216346
1686426579052857300,4.560857421875,-3.553581831388175,9.114809891366958,-0.6802081230282783
1686426579062802400,4.570802490234375,-3.5343808718338607,9.108775871899724,-0.8418660541232674
1686426579072747500,4.58074755859375,-3.494297575509548,9.108075030153989,-1.001616251900792
1686426579082692400,4.5906923828125,-3.4330332517296074,9.113524527731537,-1.152540169144049
1686426579092637200,4.60063720703125,-3.354064052172005,9.124332921993732,-1.2911973100103438
1686426579102581500,4.61058154296875,-3.2641198696136473,9.137870448958873,-1.419592365385592
1686426579112526300,4.6205263671875,-3.1714149901703,9.151582163447141,-1.5365687856458126
1686426579122471400,4.630471435546875,-3.0849209480658173,9.163369631874561,-1.6389955792888997
1686426579132416500,4.64041650390625,-3.0151687819257376,9.170390324291587,-1.727161353997886
1686426579142361300,4.650361328125,-2.9708482864230867,9.17060718191266,-1.8012268532924354
1686426579152306400,4.660306396484375,-2.9544936562106012,9.164721046483516,-1.8572127982780335
1686426579162251500,4.67025146484375,-2.963342733098566,9.154593620222807,-1.8927184114232658
1686426579172196400,4.6801962890625,-2.9908912497594953,9.142697430723905,-1.90684265223518
1686426579182141200,4.69014111328125,-3.031292818252742,9.13082637566626,-1.8999103687539696
1686426579192085500,4.70008544921875,-3.07930193914026,9.11988120328188,-1.875115388584882
1686426579202030300,4.7100302734375,-3.1296164143607017,9.110605425414443,-1.836510786511004
1686426579211975400,4.719975341796875,-3.1775065850436683,9.102751789304614,-1.7926945872686801
1686426579221920500,4.72992041015625,-3.216614898855984,9.096962684509158,-1.7518674868397415
1686426579231865300,4.739865234375,-3.246699363735318,9.092066144639253,-1.7215287549383937
1686426579241810400,4.749810546875,-3.26973741723448,9.086104605886339,-1.7093606166303157
1686426579251755500,4.759755615234375,-3.2843791060492395,9.078302992224693,-1.722690930585563
1686426579261700400,4.769700439453125,-3.2875241260766983,9.068421649679541,-1.768130931637436
1686426579271645200,4.779645263671875,-3.2806752830952406,9.055912296718358,-1.843364305667579
1686426579281589500,4.789589599609375,-3.271662540078163,9.040237173202634,-1.9340978850379584
1686426579291534300,4.799534423828125,-3.2671970851019023,9.023042292773724,-2.020029324823618
1686426579301479400,4.8094794921875,-3.2653309989690777,9.008695787513256,-2.086003433729708
1686426579311424500,4.819424560546875,-3.2619974706321955,9.000645752048491,-2.125587694490701
1686426579321369300,4.829369384765625,-3.250224615252018,9.000748627901077,-2.1431202824413775
1686426579331315200,4.839315185546875,-3.2247812541767953,9.008686435163021,-2.148192471139133
1686426579341260300,4.84926025390625,-3.185609227478504,9.023525692376493,-2.144361222413182
1686426579351205400,4.859205322265625,-3.135506349182129,9.044265698066352,-2.130781463741511
1686426579361150200,4.869150146484375,-3.0802833513930437,9.069411245238781,-2.104283625177294
1686426579371094300,4.87909423828125,-3.0253187122792005,9.097375941485167,-2.0629053206063808
1686426579381039400,4.889039306640625,-2.9723505076795815,9.126244893094897,-2.0117551252141594
1686426579390984200,4.898984130859375,-2.917197067995369,9.15464096649587,-1.9628810580603777
1686426579400929300,4.90892919921875,-2.856331388144195,9.181454154619574,-1.9268239485122263
1686426579410874400,4.918874267578125,-2.79960646135956,9.202860515263676,-1.9078614738889037
1686426579420819200,4.928819091796875,-2.771266502059996,9.211495657140016,-1.9075687745526433
1686426579430764300,4.938764404296875,-2.7936417077362536,9.202563578143716,-1.918008481632918
1686426579440709400,4.94870947265625,-2.863795148153603,9.178424577665329,-1.9301827574208377
1686426579450654200,4.958654296875,-2.95063464269489,9.148961751815676,-1.9392375860139726
1686426579460598300,4.968598388671875,-3.0198952259257434,9.12597893563509,-1.9409137025326488
1686426579470543400,4.97854345703125,-3.0590862495854494,9.11460063253045,-1.9329867089256643
1686426579480488200,4.98848828125,-3.073966715592146,9.113514006337523,-1.9144091419667004
1686426579490433300,4.998433349609375,-3.0739637929826973,9.11942995238304,-1.886040394964069
1686426579500378400,5.00837841796875,-3.0674408209547397,9.128950060400367,-1.850256841660291
1686426579510323200,5.0183232421875,-3.060609221369028,9.13953399825692,-1.8088605630412697
1686426579520268300,5.028268310546875,-3.0587022187039254,9.148979287472367,-1.763769667688012
1686426579530213400,5.03821337890625,-3.065812050709128,9.155542883771657,-1.71675174979493
1686426579540157400,5.048157470703125,-3.0843834801882504,9.157679895800351,-1.6714900279194116
1686426579550102300,5.058102294921875,-3.114823042115569,9.154223033344746,-1.6335500272341072
1686426579560047400,5.06804736328125,-3.154821290504932,9.145557496330142,-1.6050760662913321
1686426579569992200,5.0779921875,-3.20049027800709,9.13306392545998,-1.585681483861059
1686426579579937300,5.087937255859375,-3.247113789755106,9.118694039323925,-1.5735450558654962
1686426579589882400,5.09788232421875,-3.288984261757135,9.10497881770432,-1.5659971247039735
1686426579599827200,5.1078271484375,-3.3244092108815906,9.093400023591517,-1.5584423254102469
1686426579609772300,5.117772216796875,-3.355701882506907,9.084446317285298,-1.5435275187425315
1686426579619717400,5.12771728515625,-3.382406934081018,9.07896116387248,-1.5172911075934767
1686426579629662200,5.137662109375,-3.4032042229160666,9.07638634494841,-1.4858701334133744
1686426579639606300,5.147606201171875,-3.4201869218990204,9.075051296952367,-1.4547013804286717
1686426579649551400,5.15755126953125,-3.43731779718101,9.073950057712198,-1.4207963343478738
1686426579659496200,5.16749609375,-3.4600822944357987,9.071607293978333,-1.3799201340802012
1686426579669441300,5.177441162109375,-3.4950375802218914,9.065621789827942,-1.3302606156371533
1686426579679386400,5.187386474609375,-3.5446278328210115,9.05449073948264,-1.273647040272504
1686426579689331200,5.197331298828125,-3.6069030872091647,9.038366118633746,-1.2118492672029881
1686426579699276300,5.2072763671875,-3.6764588539943097,9.018977527552842,-1.1454694270402193
1686426579709221400,5.217221435546875,-3.7481630309849976,8.998121202006935,-1.0749262566529214
1686426579719166200,5.227166259765625,-3.819055014809966,8.976742898413539,-1.0016396327763795
1686426579729110300,5.2371103515625,-3.887770823639631,8.95514306102395,-0.9279211933538317
1686426579739055000,5.24705517578125,-3.953264455552399,8.933606936520338,-0.856008415113762
1686426579749000200,5.257000244140625,-4.0162446433395145,8.911738803583383,-0.7880798842042684
1686426579758945300,5.2669453125,-4.076714017349481,8.889556782391667,-0.7256555036690086
1686426579768890400,5.276890380859375,-4.133200166942179,8.867985002052784,-0.6677549572337418
1686426579778835200,5.286835205078125,-4.182025280387699,8.849185609036683,-0.6107081780835986
1686426579788780300,5.2967802734375,-4.222369273474812,8.833881656920909,-0.5518268404500558
1686426579798725400,5.306725341796875,-4.257250617241859,8.820810578423737,-0.48938755460660904
1686426579808670200,5.316670166015625,-4.287571813486516,8.809474945417046,-0.42456995879188175
1686426579818614300,5.3266142578125,-4.315028560210764,8.798993883413075,-0.3586267930133268
1686426579828559000,5.33655908203125,-4.341702632124722,8.78832109822929,-0.2922514828952029
1686426579838504200,5.346504150390625,-4.36874845996052,8.77684751805663,-0.2266584091959521
1686426579848449300,5.35644921875,-4.3948517462491985,8.765235406196117,-0.16220418506721035
1686426579858394400,5.366394287109375,-4.416483440081775,8.755282751980424,-0.10044900903040542
1686426579868339200,5.376339111328125,-4.430986304947734,8.748413450732826,-0.044652462836797344
1686426579878284300,5.3862841796875,-4.435031780946255,8.746477514234185,0.0006412789509045978
1686426579888229400,5.3962294921875,-4.427275467731058,8.750352894362807,0.03082036652200622
1686426579898174200,5.40617431640625,-4.4097342580825085,8.759155209499598,0.04287394995614886
1686426579908118300,5.4161181640625,-4.387590230813622,8.770286844366789,0.03868835766746197
1686426579918063000,5.42606298828125,-4.366298144198954,8.78095436885357,0.02570301209182944
1686426579928008200,5.43600830078125,-4.351138568989932,8.78850346905887,0.013221903411019593
1686426579937953300,5.445953369140625,-4.343069244302809,8.792503352349996,0.004908065340094617
1686426579947898400,5.4558984375,-4.338187609741092,8.794911582535505,-0.005310590859534568
1686426579957843200,5.46584326171875,-4.333382255285978,8.797259606966376,-0.020054306714329867
1686426579967788300,5.475788330078125,-4.324373019400238,8.801630661657452,-0.038604985666368156
1686426579977733400,5.4857333984375,-4.307305857004225,8.809894047611952,-0.057228227531118316
1686426579987678200,5.49567822265625,-4.279084263387322,8.82351106955409,-0.07414653320808429
1686426579997623300,5.505623291015625,-4.237963732969761,8.843166202616692,-0.09196947784088551
1686426580007567000,5.515567138671875,-4.185998860193789,8.867622013959288,-0.11431956734219566
1686426580017512400,5.525512451171875,-4.128286675937473,8.894203731414676,-0.14416172963194548
1686426580027457300,5.535457275390625,-4.069756745557487,8.92043532025814,-0.18247483794596045
1686426580037402400,5.54540234375,-4.012824021241069,8.945105066612362,-0.2296145921204239
1686426580047347200,5.55534716796875,-3.9577132516548037,8.968073854267598,-0.2838112973353825
1686426580057292300,5.565292236328125,-3.905084069751203,8.98906754245758,-0.34261465609557923
1686426580067237400,5.5752373046875,-3.8552874809250235,9.007974487501382,-0.40438868296332653
1686426580077182200,5.58518212890625,-3.8081481286093593,9.02478182991743,-0.4708591970842331
1686426580087127300,5.595127197265625,-3.764164025454223,9.039113722130656,-0.5439427726693451
1686426580097071000,5.605071044921875,-3.723775316442549,9.050621204572915,-0.6245991215962916
1686426580107016400,5.615016357421875,-3.68632441444844,9.059445731541514,-0.7126227844208478
1686426580116961300,5.624961181640625,-3.6494814152196047,9.066586835467815,-0.805411104363948
1686426580126906400,5.63490625,-3.60665115827471,9.075147158542276,-0.8967385579742491
1686426580136851200,5.644851318359375,-3.5527144009038802,9.087770493271947,-0.9803186123281716
1686426580146796300,5.65479638671875,-3.4885496795073148,9.103713327813148,-1.0596201856452971
1686426580156741400,5.664741455078125,-3.415834571908414,9.120696611317992,-1.1468959527119993
1686426580166686200,5.674686279296875,-3.3381121575415134,9.136449476245046,-1.2460657903857528
1686426580176631300,5.68463134765625,-3.2623785789042707,9.148737295410037,-1.3519935778871177
1686426580186575000,5.6945751953125,-3.196095550179481,9.156168906715513,-1.4560022338941692
1686426580196520400,5.7045205078125,-3.1434891646295786,9.158803346872329,-1.5508583000220357
1686426580206465300,5.71446533203125,-3.104705552726984,9.157840639320016,-1.6325247758395969
1686426580216410000,5.72441015625,-3.078135817970335,9.154906339433788,-1.6979823135256766
1686426580226355200,5.734355224609375,-3.0625051181182266,9.150697197306156,-1.7481982968077063
1686426580236300300,5.74430029296875,-3.057462740036845,9.145050131329894,-1.7861584634982048
1686426580246245400,5.754245361328125,-3.0634245710507035,9.138038791263103,-1.8116463943675158
1686426580256190200,5.764190185546875,-3.0794518690049646,9.130401428252458,-1.8229472483217715
1686426580266135300,5.77413525390625,-3.1052462354749437,9.122503368479013,-1.8187261234953997
1686426580276080400,5.784080322265625,-3.139088591583073,9.115336545589566,-1.7964307050570845
1686426580286024400,5.7940244140625,-3.172833332535624,9.11077902841568,-1.7598941414289175
1686426580295969300,5.80396923828125,-3.1929037684008477,9.111138509377836,-1.7213123357087372
1686426580305914000,5.8139140625,-3.18841434802711,9.11821823850572,-1.6918940796531736
1686426580315859200,5.823859130859375,-3.1604610499575734,9.130171126627921,-1.6798364159822463
1686426580325804000,5.833803955078125,-3.122195324449241,9.14121449868977,-1.6912937756724655
1686426580335748900,5.843748779296875,-3.0903862277343865,9.145109168040753,-1.7282611319333314
1686426580345694000,5.85369384765625,-3.0784988060638305,9.137758220756053,-1.787341681933403
1686426580355639000,5.86363916015625,-3.0919986313670873,9.119293174260854,-1.856994625482708
1686426580365584000,5.873583984375,-3.128579180267453,9.092970400002597,-1.9236080552056432
1686426580375528000,5.88352783203125,-3.1743098348289727,9.064583678951859,-1.981784934364259
1686426580385473000,5.89347314453125,-3.2108138113617897,9.040967241042852,-2.03026912541762
1686426580395417900,5.90341796875,-3.2267876255631447,9.02672419615686,-2.0679604120388624
1686426580405363000,5.913363037109375,-3.221491564981639,9.022978579887747,-2.0924217763394117
1686426580415308000,5.92330810546875,-3.201652015262842,9.027811406871676,-2.1020099811568853
1686426580425252900,5.9332529296875,-3.174123080085218,9.038702803242206,-2.096948167722672
1686426580435198000,5.943197998046875,-3.14305778747499,9.05424757837653,-2.0765775798670947
1686426580445143000,5.95314306640625,-3.1119372575461863,9.073333971640468,-2.0398159753113982
1686426580455087900,5.963087890625,-3.0801106251746413,9.095848001265525,-1.9871762720137833
1686426580465032700,5.97303271484375,-3.043807431910932,9.12101459122598,-1.9268435299955307
1686426580474977000,5.98297705078125,-3.001462035873532,9.146242555984854,-1.872933368370682
1686426580484921900,5.992921875,-2.9548154355108736,9.168719176208972,-1.8368613535143434
1686426580494867000,6.002866943359375,-2.910166730967164,9.185708304932714,-1.8232088218674063
1686426580504812000,6.01281201171875,-2.880684615895152,9.194391377604008,-1.8262566651307046
1686426580514756900,6.0227568359375,-2.8770407064348458,9.192674052292109,-1.8405929412581026
1686426580524702000,6.032701904296875,-2.9049492885798216,9.17910963732004,-1.8642942809715866
1686426580534647000,6.04264697265625,-2.9584952930673953,9.157112325045466,-1.8881207083694636
1686426580544592000,6.052591796875,-3.0163819571077823,9.135445852160453,-1.9014393318869172
1686426580554536700,6.06253662109375,-3.0621091045379636,9.120562171283364,-1.899798286681622
1686426580564482000,6.07248193359375,-3.0943826038941737,9.11258695462048,-1.8857200769685207
1686426580574425900,6.08242578125,-3.1157085927784443,9.110027333265542,-1.8628323917254805
1686426580584371000,6.092370849609375,-3.12795023471415,9.111707833698391,-1.833872400831431
1686426580594316000,6.10231591796875,-3.1325436999842524,9.116880267900228,-1.8000160161979495
1686426580604260900,6.1122607421875,-3.1319740834027527,9.12429668163657,-1.7630496828503905
1686426580614206000,6.1222060546875,-3.1273101832449433,9.133113025298714,-1.7252727637723086
1686426580624151000,6.132151123046875,-3.1190710549488663,9.14265125349462,-1.6893011405505238
1686426580634095900,6.142095947265625,-3.110198304924369,9.151645876333117,-1.6566294356569646
1686426580644040700,6.152040771484375,-3.1047973226636647,9.158600517776607,-1.628086647261679
1686426580653986000,6.161986083984375,-3.1070877716884016,9.161960349598527,-1.6046411820054054
1686426580663931000,6.171930908203125,-3.120328069272637,9.1608906745404,-1.5849354877993465
1686426580673875000,6.181875,-3.1461949164569374,9.155634069186448,-1.564035030850768
1686426580683820000,6.191820068359375,-3.1848584091112015,9.146998342788219,-1.5360609822541473
1686426580693764900,6.201764892578125,-3.232014712561667,9.137106478849052,-1.495908420085907
1686426580703710000,6.2117099609375,-3.282826323649287,9.12758111013472,-1.4424601768843828
1686426580713655000,6.221655029296875,-3.332726372849941,9.119735657331347,-1.3761268792770802
1686426580723600000,6.231599853515625,-3.3771421454206108,9.114691233423352,-1.2991123209185897
1686426580733544700,6.241544677734375,-3.413597022114694,9.11245835980475,-1.2169051623530684
1686426580743490000,6.251489990234375,-3.4412361396685243,9.11228651036918,-1.1377706892311572
1686426580753435000,6.261434814453125,-3.4632299448117614,9.112423288491367,-1.067794432011619
1686426580763379700,6.271379638671875,-3.483642618243396,9.111277625587583,-1.0095683799490331
1686426580773324000,6.281323974609375,-3.5068873002305625,9.107517396271229,-0.9618970396485179
1686426580783268900,6.291268798828125,-3.535979831463098,9.100553986999392,-0.9203967891983688
1686426580793214000,6.3012138671875,-3.5747590594515204,9.089408908128737,-0.8798362307511269
1686426580803159000,6.311158935546875,-3.624644787865877,9.073482440200447,-0.8391893091946839
1686426580813103900,6.321103759765625,-3.6834313233554363,9.05344912147522,-0.7986130417216569
1686426580823048700,6.331048583984375,-3.7467972955897446,9.030977177426218,-0.757209237383306
1686426580832994000,6.340994140625,-3.809270995159447,9.008405280134081,-0.7130748390372842
1686426580842939000,6.35093896484375,-3.866646494807303,8.987668781575561,-0.6642604661814868
1686426580852883700,6.3608837890625,-3.9167274535328147,8.969737988087534,-0.6111032052831724
1686426580862829000,6.3708291015625,-3.9603190502390264,8.954225946179031,-0.5550774397438392
1686426580872772900,6.38077294921875,-3.999592491485178,8.940116756805777,-0.4979585452055558
1686426580882718000,6.390718017578125,-4.037400536353886,8.9261221337229,-0.4406150481311604
1686426580892663000,6.4006630859375,-4.076391945788264,8.91103620827198,-0.38321919981501995
1686426580902608000,6.41060791015625,-4.117843315595388,8.894304853701591,-0.32420576023440806
1686426580912553000,6.420552978515625,-4.162029955585301,8.875719395697116,-0.26360664063123984
1686426580922498000,6.430498046875,-4.206754355713725,8.85622500615418,-0.20220383996237068
1686426580932443000,6.44044287109375,-4.2476755641669035,8.837847053420543,-0.14175785596114582
1686426580942387700,6.4503876953125,-4.28303358553499,8.82151492730081,-0.08296603237511589
1686426580952333000,6.4603330078125,-4.311941115589439,8.807767556977272,-0.028085505047882906
1686426580962278000,6.47027783203125,-4.334380034151673,8.79676685501337,0.020672045887028798
1686426580972222000,6.480221923828125,-4.3515626396209,8.788063908597826,0.06505487516932189
1686426580982167000,6.4901669921875,-4.364838008518516,8.781057829228043,0.10764808108848518
1686426580992111900,6.50011181640625,-4.376333216001093,8.774713428637385,0.14994719943189994
1686426581002057000,6.510056884765625,-4.387432117642462,8.768347985258698,0.19210748469335956
1686426581012002000,6.520001953125,-4.399507755361497,8.761260657346249,0.234550495886337
1686426581021947000,6.52994677734375,-4.411275350044668,8.75422652092576,0.27305549177695065
1686426581031891700,6.5398916015625,-4.41853423513174,8.74967660253644,0.30016738885259253
1686426581041837000,6.549837158203125,-4.4202387009620665,8.748324603405594,0.31416659677904096
1686426581051782000,6.559781982421875,-4.420640852022171,8.747877444159984,0.32086613095030186
1686426581061726700,6.569726806640625,-4.425618055912852,8.745130775800346,0.32707346115782854
1686426581071672000,6.579672119140625,-4.436986714406311,8.739048241016269,0.3355166606586426
1686426581081616000,6.589615966796875,-4.449781606310606,8.732305196496844,0.34158863751608876
1686426581091561000,6.59956103515625,-4.461827725674212,8.726167132133245,0.3412961208429187
1686426581101506000,6.609506103515625,-4.477861745630205,8.718170288160442,0.33562183806616813
1686426581111451000,6.619450927734375,-4.498322349856793,8.708323432406782,0.3171764461195096
1686426581121395700,6.629395751953125,-4.516479353316128,8.700007439482212,0.2857982151025906
1686426581131341000,6.639341064453125,-4.524474735984206,8.697048005154729,0.24669707994973286
1686426581141286000,6.649285888671875,-4.5172202348113055,8.701993060341477,0.2010808455481194
1686426581151230700,6.659230712890625,-4.4954324736341835,8.71433348647654,0.1478800012364052
1686426581161176000,6.669176025390625,-4.462350580504537,8.732132762539386,0.0875652789320331
1686426581171121000,6.679120849609375,-4.421660258197784,8.753214713534712,0.023006050925701856
1686426581181065000,6.68906494140625,-4.376166042740643,8.775966643568873,-0.044421069800294935
1686426581191010000,6.699010009765625,-4.327817606896161,8.799273284876346,-0.11479085638206452
1686426581200955000,6.708954833984375,-4.278279961267113,8.822230966615676,-0.18693826536191627
1686426581210899700,6.718899658203125,-4.229240620549023,8.844017266488075,-0.25934412434855475
1686426581220845000,6.728844970703125,-4.182513648426532,8.863931927269697,-0.32813005753867325
1686426581230790000,6.738789794921875,-4.140146040557324,8.881229683551192,-0.3915724925426766
1686426581240734700,6.748734619140625,-4.102638147678971,8.895804736870527,-0.45101193898301567
1686426581250680000,6.75868017578125,-4.069102081041038,8.907909600684047,-0.5117941052692011
1686426581260625000,6.768625,-4.037359327560663,8.918060407820343,-0.5816601435799151
1686426581270569700,6.77856982421875,-4.003816246660054,8.927359566563368,-0.664912427284196
1686426581280515000,6.78851513671875,-3.963038246069848,8.938034689834714,-0.7591104678947478
1686426581290459000,6.798458984375,-3.909470322011411,8.95260448245704,-0.8586719352345913
1686426581300403700,6.80840380859375,-3.8427176299482584,8.97105023972988,-0.9613402094833552
1686426581310349000,6.81834912109375,-3.768856567184627,8.989671938091515,-1.0732738863360136
1686426581320294000,6.8282939453125,-3.6931753032565116,9.005251200017332,-1.1984595512107015
1686426581330238200,6.83823828125,-3.6175115749850866,9.01745309446454,-1.3302395728491245
1686426581340183300,6.848183349609375,-3.5430016929239034,9.02704159154296,-1.4594665490038692
1686426581350128000,6.858128173828125,-3.473044067339599,9.034081573182345,-1.5791550047017633
1686426581360073200,6.8680732421875,-3.411173886620998,9.038270841565728,-1.686398258715868
1686426581370018300,6.878018310546875,-3.3617283031895755,9.03873319838047,-1.7805761333212256
1686426581379963100,6.887963134765625,-3.3285981870040295,9.034392538827657,-1.8629495883643625
1686426581389908000,6.897907958984375,-3.313862390165031,9.024345776587724,-1.936467244517803
1686426581399853300,6.907853271484375,-3.3171661078855394,9.009401305434107,-1.9993688141107557
1686426581409797000,6.917797119140625,-3.3353780564025044,8.992279490241408,-2.045611948239058
1686426581419742200,6.9277421875,-3.3660046653345224,8.975408434939384,-2.069403888845444
1686426581429687300,6.937687255859375,-3.4089299070864914,8.960147737443446,-2.0652637203007935
1686426581439632100,6.947632080078125,-3.4598104917570947,8.947480563572048,-2.0353614801205695
1686426581449577200,6.9575771484375,-3.508475153943896,8.938349162611365,-1.9917109928339718
1686426581459522300,6.967522216796875,-3.5407746645241973,8.935998215571045,-1.9445431450761854
1686426581469467100,6.977467041015625,-3.5477924343317744,8.942846474030613,-1.8997487484514712
1686426581479412000,6.987411865234375,-3.528449435958266,8.957167844849824,-1.868043988893926
1686426581489357300,6.997357421875,-3.489888819156587,8.973810936614871,-1.86058578184247
1686426581499302100,7.00730224609375,-3.445279862101376,8.986672756275533,-1.8815237943224608
1686426581509247000,7.0172470703125,-3.4123820933669804,8.98960880972743,-1.9269110422737896
1686426581519191300,7.02719140625,-3.4033418778210875,8.980401420921087,-1.9849562578767537
1686426581529136000,7.03713623046875,-3.41869580655843,8.961455897432565,-2.0433346509568393
1686426581539081200,7.047081298828125,-3.448420790475607,8.937695082616806,-2.0967577597171068
1686426581549026300,7.0570263671875,-3.478100473946333,8.915020893993972,-2.14374075242728
1686426581558971100,7.06697119140625,-3.496585686446726,8.898277264463902,-2.182869524505734
1686426581568916000,7.076916015625,-3.5018969445973633,8.889727462783455,-2.209036669810861
1686426581578861300,7.086861328125,-3.4961242064148186,8.88944046253562,-2.219315487241
1686426581588806100,7.09680615234375,-3.4803222416490316,8.897210512015223,-2.2130039660066365
1686426581598751000,7.1067509765625,-3.4568475502982734,8.9117095774889,-2.1913523984298107
1686426581608696300,7.1166962890625,-3.4276705556526776,8.931509671980143,-2.1562895606160164
1686426581618641200,7.12664111328125,-3.393119759014249,8.955308480718731,-2.1117653592348096
1686426581628585200,7.136585205078125,-3.354054407560825,8.9808427349478,-2.0652287951178847
1686426581638530300,7.1465302734375,-3.3089711109921334,9.006207477828859,-2.0271445636563
1686426581648475100,7.15647509765625,-3.263396816036105,9.027951107603311,-2.0041778218276796
1686426581658420000,7.166419921875,-3.229951934812963,9.042587535721063,-1.9923424226053057
1686426581668365300,7.176365234375,-3.221158095243573,9.046539488217235,-1.9886311469972133
1686426581678310100,7.18631005859375,-3.2456004625827073,9.036707245510817,-1.9935893539264797
1686426581688255000,7.1962548828125,-3.2930461043685675,9.017373014965653,-2.003302061906457
1686426581698200300,7.206200439453125,-3.3419609419241545,8.998363194069265,-2.0077713162750004
1686426581708145200,7.216145263671875,-3.3802389423921704,8.985349398717284,-2.001965406475216
1686426581718090000,7.226090087890625,-3.405568029437959,8.978687602740525,-1.9888827836707232
1686426581728035300,7.236035400390625,-3.419003265072405,8.977667027521132,-1.9703569468989968
1686426581737980200,7.245980224609375,-3.4240883132517337,8.981360621342063,-1.9445202025920152
1686426581747924000,7.255924072265625,-3.425607193382084,8.988233429720998,-1.9097844047755002
1686426581757869300,7.265869384765625,-3.4285420777902007,8.995824030980467,-1.868330989141762
1686426581767814100,7.275814208984375,-3.435749232690036,9.002173692268133,-1.8239745455428957
1686426581777759000,7.285759033203125,-3.447951711659133,9.006189942172169,-1.7806053594157099
1686426581787704300,7.295704345703125,-3.4650165359675884,9.007372429955005,-1.7410571928814051
1686426581797649200,7.305649169921875,-3.4862101306438444,9.005542291918397,-1.7079063261687755
1686426581807594000,7.315593994140625,-3.5108664329946038,9.001084727987646,-1.6806760816767812
1686426581817539300,7.325539306640625,-3.5384406686186787,8.994971213543414,-1.6553902492508292
1686426581827484200,7.335484130859375,-3.567348198673129,8.989066957935691,-1.6251378804586827
1686426581837429000,7.345428955078125,-3.5943837973758574,8.985734014120698,-1.5834722833789885
1686426581847374000,7.3553740234375,-3.6145895500585437,8.987177783188223,-1.528318405303359
1686426581857319200,7.365319091796875,-3.6254186948478218,8.99393427171111,-1.4614607915610074
1686426581867264000,7.375263916015625,-3.6287656671881674,9.004514702436328,-1.3860593674875794
1686426581877208300,7.385208251953125,-3.6293408367276188,9.016423751416802,-1.3047574871987104
1686426581887153200,7.395153076171875,-3.6316266095772383,9.027101797297597,-1.221922625188902
1686426581897098000,7.405097900390625,-3.6390880314990874,9.03427563444972,-1.1442471187036485
1686426581907043300,7.415043212890625,-3.6526746583029626,9.037176032066345,-1.0760123713891954
1686426581916988200,7.42498828125,-3.6729397399574517,9.035948536098003,-1.0156481382541358
1686426581926933000,7.43493310546875,-3.700660398314893,9.030811173209548,-0.9591315204579383
1686426581936878000,7.444878173828125,-3.736789696316421,9.021661067548393,-0.9035535717513412
1686426581946823200,7.4548232421875,-3.783360601094365,9.007545448434353,-0.848928685985878
1686426581956768000,7.46476806640625,-3.8410327456012365,8.988108926558494,-0.7941944215618073
1686426581966713000,7.474713134765625,-3.907312851716578,8.964279138159752,-0.7382226512320339
1686426581976658200,7.484658203125,-3.976116338829696,8.938480680036545,-0.6814938519898802
1686426581986603300,7.494603271484375,-4.040997976323962,8.913464312201738,-0.6251897809658199
1686426581996547300,7.50454736328125,-4.098272353684902,8.891042052513361,-0.5691331088315695
1686426582006492200,7.5144921875,-4.145388325124979,8.872469453990458,-0.5152045347671955
1686426582016437000,7.52443701171875,-4.182706248389184,8.85766176095903,-0.4660181867938488
1686426582026382000,7.534382080078125,-4.213461159875989,8.845228395843506,-0.4231618820922449
1686426582036327200,7.5443271484375,-4.241214843720197,8.833732603839039,-0.3842548995383084
1686426582046272000,7.55427197265625,-4.269778967164457,8.821604943671822,-0.34446974591035395
1686426582056217000,7.564217041015625,-4.301490448723733,8.80777223315239,-0.3012165508456528
1686426582066162200,7.574162109375,-4.336542180621624,8.792023459878564,-0.2551928864206187
1686426582076107300,7.584107177734375,-4.3733828417629,8.77496418852806,-0.2095422200264409
1686426582086052000,7.594052001953125,-4.409411601999402,8.757841204291582,-0.16640636773109435
1686426582095997200,7.6039970703125,-4.441605021856725,8.742242068621517,-0.12541641402379608
1686426582105942300,7.6139423828125,-4.468067789107561,8.729239963707327,-0.08441035856506787
1686426582115887000,7.62388720703125,-4.489147986537218,8.718719154214858,-0.04320768455569632
1686426582125831200,7.6338310546875,-4.5081031546369195,8.709040640765428,-0.0029804659844798152
1686426582135776000,7.64377587890625,-4.5257527930960055,8.699808702039718,0.0356031735018827
1686426582145721000,7.65372119140625,-4.542297977444529,8.690960794195533,0.07149002278335392
1686426582155666200,7.663666259765625,-4.557098948474228,8.682911927774548,0.10142372668092138
1686426582165611300,7.673611328125,-4.5669589559704065,8.677516206210852,0.11834167159828357
1686426582175556000,7.68355615234375,-4.567413714000582,8.677312208071351,0.11560228236280382
1686426582185501200,7.693501220703125,-4.55649922901541,8.683276669433713,0.0970352367978543
1686426582195446300,7.7034462890625,-4.539289443278313,8.692484058240055,0.0771394725129474
1686426582205391000,7.71339111328125,-4.524278336629271,8.700395562016963,0.06649450235127005
1686426582215336200,7.723336181640625,-4.516171602541208,8.70459710536003,0.06765323936576023
1686426582225281300,7.73328125,-4.51430230153799,8.705479148891568,0.07802249329201877
1686426582235226000,7.74322607421875,-4.51432100623846,8.70539965391457,0.08552561719743534
1686426582245171000,7.7531708984375,-4.509918679626286,8.70776930565536,0.07592983186170459
1686426582255115000,7.763114990234375,-4.497383899962902,8.714415319541096,0.05370348290449474
1686426582265060000,7.77306005859375,-4.476632788357138,8.725193903186916,0.03357627535073552
1686426582275005200,7.783005126953125,-4.446097364839911,8.740840385130047,0.017654447064944543
1686426582284950300,7.7929501953125,-4.40289739779979,8.762698581194877,-0.001332426923400635
1686426582294895000,7.80289501953125,-4.347868461278081,8.790082262682914,-0.02977515233498998
1686426582304840200,7.812840087890625,-4.28612804441899,8.820139547294378,-0.06806614471531938
1686426582314785300,7.822785400390625,-4.223814796108007,8.849694143080711,-0.11260357547085731
1686426582324730000,7.832730224609375,-4.1639512790367,8.877311633324622,-0.15882248847335576
1686426582334675500,7.842675537109375,-4.107222260598838,8.902747103354335,-0.2054281357711181
1686426582344620500,7.85262060546875,-4.05636008836776,8.924859566441178,-0.2514105731366202
1686426582354565600,7.862565673828125,-4.012989733196795,8.94311476957798,-0.2949535266618244
1686426582364510500,7.872510498046875,-3.9780663038536903,8.957347877591848,-0.3335835006389767
1686426582374455600,7.88245556640625,-3.951235580073297,8.967925385707616,-0.3666639324638992
1686426582384400600,7.892400634765625,-3.93034184512645,8.975812339565158,-0.39698421539310363
1686426582394344400,7.902344482421875,-3.9125314631476997,8.982090104660392,-0.42957916525602335
1686426582404289500,7.91228955078125,-3.896024857243895,8.987263123384118,-0.46956433496810496
1686426582414234600,7.922234619140625,-3.8788779076099393,8.991897212925553,-0.5200844888284802
1686426582424179500,7.932179443359375,-3.8567996390536425,8.997707360509038,-0.580284909703955
1686426582434124500,7.94212451171875,-3.822019709834456,9.00799728385508,-0.6469357488278299
1686426582444069600,7.952069580078125,-3.7736993310406803,9.022596887093782,-0.7227094402797519
1686426582454014500,7.962014404296875,-3.7175118721336124,9.038106006392836,-0.8143355845756828
1686426582463959600,7.97195947265625,-3.656080959615111,9.052859338888526,-0.9215287158377468
1686426582473904600,7.981904541015625,-3.591501519937813,9.06594035425782,-1.039340856269747
1686426582483849500,7.991849365234375,-3.524894958347082,9.077083679562806,-1.1627761703457682
1686426582493794600,8.001794677734376,-3.457713227216899,9.08647694633007,-1.2847267988219857
1686426582503739600,8.01173974609375,-3.3915257678210735,9.094266285032033,-1.4008036398939787
1686426582513684500,8.0216845703125,-3.3306016357809303,9.099301356589793,-1.510036460290104
1686426582523628500,8.031628662109375,-3.2800966064244506,9.100307318761944,-1.6111350740693509
1686426582533573600,8.04157373046875,-3.2433313486069437,9.097178957608342,-1.7007428642801938
1686426582543518500,8.0515185546875,-3.22130334893316,9.090519499719143,-1.7765249582342801
1686426582553463600,8.061463623046874,-3.2145620579794048,9.080817605394124,-1.8373130428045987
1686426582563408600,8.07140869140625,-3.2213159161537885,9.069014354875684,-1.8832126241922378
1686426582573353500,8.081353515625,-3.2375755615592,9.056827073475718,-1.9137332885317504
1686426582583298600,8.091298583984376,-3.259709944216907,9.045790131154655,-1.9283030811540782
1686426582593243600,8.10124365234375,-3.2832115235745905,9.037738926646114,-1.9261838970430194
1686426582603188500,8.1111884765625,-3.3008471335083245,9.034028381690382,-1.9134128244057296
1686426582613133300,8.12113330078125,-3.3047257285073397,9.035400839087366,-1.9001861169554293
1686426582623078700,8.13107861328125,-3.2924829175278543,9.041393357500434,-1.89292503991127
1686426582633023500,8.1410234375,-3.2699306017190217,9.048425155833362,-1.8984058094099163
1686426582642968300,8.15096826171875,-3.248128227494657,9.051511431410908,-1.9209880819655953
1686426582652913700,8.16091357421875,-3.2384964757964014,9.046226769006251,-1.9617136217162012
1686426582662857500,8.170857421875,-3.249911019258201,9.030003363958,-2.016801156557351
1686426582672802600,8.180802490234376,-3.2831554094731805,9.00428732342124,-2.077040667334199
1686426582682747600,8.19074755859375,-3.330188963326812,8.973542056545615,-2.134423911897093
1686426582692692500,8.2006923828125,-3.3791195829734204,8.943014816334843,-2.1850454072400924
1686426582702637300,8.21063720703125,-3.419358654381335,8.917294099622964,-2.2271613784357904
1686426582712582700,8.220582763671874,-3.4453234089821576,8.899293748030066,-2.258913338135928
1686426582722527500,8.230527587890625,-3.4564132505342364,8.889857811164855,-2.2790390113197265
1686426582732472300,8.240472412109375,-3.4545454108357427,8.888073265835642,-2.288809586966783
1686426582742417700,8.250417724609376,-3.443728248745203,8.892269548481702,-2.288810463749617
1686426582752362500,8.260362548828125,-3.429579311883449,8.900734594488144,-2.2771197336949407
1686426582762307600,8.2703076171875,-3.4150860916286705,8.911705485835672,-2.2559008584469558
1686426582772252700,8.280252685546875,-3.398746366724372,8.924977639862895,-2.2279281250245866
1686426582782197500,8.290197509765624,-3.3781253112390637,8.941297491022944,-2.1935966702252627
1686426582792142600,8.300142578125,-3.351410615053773,8.960974251395463,-2.153917863048613
1686426582802086700,8.310086669921875,-3.317239465382695,8.983855945289134,-2.111076500187814
1686426582812031500,8.320031494140625,-3.2777252011179923,9.00781082137227,-2.0703249492131173
1686426582821976300,8.329976318359375,-3.2344691199764606,9.030054801884294,-2.0412536068990828
1686426582831921700,8.339921630859376,-3.192776342628896,9.04673530305028,-2.0330124327763914
1686426582841866500,8.349866455078125,-3.1668744241312146,9.054458006256818,-2.039137199267
1686426582851811300,8.359811279296874,-3.1685642769142985,9.050562752383946,-2.053753899770975
1686426582861756700,8.369756591796875,-3.199060829725861,9.033784636062384,-2.0801760427504776
1686426582871701500,8.379701416015624,-3.2501161864414807,9.009365649598836,-2.106759952162951
1686426582881646600,8.389646484375,-3.3015427145570513,8.987928309294581,-2.1183337778396902
1686426582891591400,8.39959130859375,-3.3372479419276115,8.97612447425425,-2.112428060927242
1686426582901536500,8.40953662109375,-3.358221464112401,8.973059241464734,-2.0921143178254367
1686426582911481600,8.419481689453125,-3.370778455607593,8.97582519904673,-2.059805747155845
1686426582921426400,8.429426513671874,-3.3792528539642688,8.9822426648736,-2.017510181609541
1686426582931371500,8.43937158203125,-3.387145360779762,8.990518325787782,-1.9667792345426975
1686426582941316600,8.449316650390625,-3.396924119733274,8.99915755931735,-1.9095687161982058
1686426582951260700,8.4592607421875,-3.410495548968017,9.00669204647541,-1.8488922753088175
1686426582961205500,8.46920556640625,-3.427356667397916,9.012574674773216,-1.78804632307142
1686426582971150600,8.479150634765626,-3.4446409796759485,9.017307548514008,-1.7300285799972712
1686426582981095700,8.489095703125,-3.462022030326724,9.020208530652523,-1.6794782501943408
1686426582991040500,8.49904052734375,-3.4834576170653104,9.019358635824918,-1.6392289496533572
1686426583000985600,8.508985595703125,-3.511015486076474,9.014367403408885,-1.6075876107208429
1686426583010930400,8.518930419921874,-3.540389172337949,9.00814692145884,-1.5777569744721054
1686426583020875500,8.52887548828125,-3.5632577144891022,9.005593145322798,-1.540413039983809
1686426583030820600,8.538820556640625,-3.5718659683585163,9.010643998971581,-1.490119315290451
1686426583040765400,8.548765380859376,-3.564747953046858,9.023483022278548,-1.4281789919450878
1686426583050710500,8.55871044921875,-3.544876839146018,9.042185969182848,-1.357614048117399
1686426583060655600,8.568655517578126,-3.5144945603638886,9.065079938036202,-1.2818059429392217
1686426583070600400,8.578600341796875,-3.476658166183531,9.090303811141847,-1.2039932930056005
1686426583080545500,8.588545654296874,-3.434562945514917,9.116008745762706,-1.1280639726005495
1686426583090489600,8.598489501953125,-3.391796985977888,9.140698365861176,-1.0553374668247997
1686426583100434400,8.608434326171874,-3.35422187308222,9.16242036832571,-0.984693831737712
1686426583110379500,8.618379638671875,-3.3284570249676704,9.178994486507772,-0.9153354141555726
1686426583120324600,8.62832470703125,-3.3184935570970175,9.189015529784559,-0.8485197398588061
1686426583130269400,8.63826953125,-3.3243764776557683,9.192381206825376,-0.7867856066100299
1686426583140214500,8.648214599609375,-3.343255950170755,9.190216137745976,-0.730040806081146
1686426583150159600,8.65815966796875,-3.3705604289427398,9.18437267241478,-0.676018635449186
1686426583160104400,8.6681044921875,-3.4027354363605378,9.176245480060578,-0.6231420546557754
1686426583170049500,8.678049560546874,-3.436870345674455,9.166925863051414,-0.5707840178437531
1686426583179994600,8.68799462890625,-3.470846849556267,9.157212862810493,-0.5187085608327761
1686426583189939500,8.697939453125,-3.5021842371061442,9.14803879175186,-0.4674010925196111
1686426583199884300,8.70788427734375,-3.5286312222659584,9.14028452436328,-0.41756318530235437
1686426583209829600,8.71782958984375,-3.5477138161376116,9.134844379135966,-0.372483834256418
1686426583219774500,8.7277744140625,-3.5611838308244943,9.13106719868481,-0.3346253013094887
1686426583229719600,8.737719482421875,-3.5715637705415486,9.128148096367717,-0.30202854308197274
1686426583239664600,8.74766455078125,-3.5808494852811097,9.125453450456261,-0.27201179141029713
1686426583249608400,8.7576083984375,-3.5908962475210426,9.12234204043746,-0.2423771891903132
1686426583259553500,8.767553466796874,-3.6047000242069362,9.117671126016974,-0.21117119120145214
1686426583269498600,8.77749853515625,-3.625616555507481,9.110114427027106,-0.17632521100873128
1686426583279443500,8.787443359375,-3.656358899773657,9.098471920028329,-0.13860877167992294
1686426583289388500,8.797388427734376,-3.695884854476154,9.082985597082972,-0.10094756053653545
1686426583299333600,8.807333740234375,-3.7388808233767747,9.065688425323367,-0.06666180804246105
1686426583309278500,8.817278564453124,-3.780566878722608,9.048556673258542,-0.03637432455444941
1686426583319223600,8.8272236328125,-3.8169013439074155,9.033356766039132,-0.00987960496250307
1686426583329168400,8.83716845703125,-3.8472786542534827,9.02045636793375,0.013659204557962948
1686426583339113200,8.84711328125,-3.8742917488634583,9.008827889460324,0.03544338211357826
1686426583349058300,8.857058349609375,-3.8996757809668776,8.997771073395013,0.0551502156806644
1686426583359003400,8.86700341796875,-3.923405323861539,8.987340280273557,0.07071791959942783
1686426583368948200,8.8769482421875,-3.94449721172899,8.978023001351952,0.08011128226481377
1686426583378893300,8.886893310546874,-3.9615006612390276,8.970491436803341,0.08477657979526557
1686426583388838400,8.89683837890625,-3.973885511037707,8.964981148949265,0.08791643045726232
1686426583398783200,8.906783203125,-3.9812995866864918,8.961680938360095,0.0889206847295165
1686426583408727300,8.916727294921875,-3.982723774270713,8.961077127248048,0.08599612078601494
1686426583418672400,8.92667236328125,-3.9771600026637315,8.963636164081096,0.07625836969632654
1686426583428617200,8.9366171875,-3.963284914307296,8.969919189873337,0.05743803435689769
1686426583438562300,8.946562255859375,-3.9398815346270797,8.980351736560463,0.03154958954543108
1686426583448507400,8.95650732421875,-3.910138430531323,8.993393588963151,0.008997947877566912
1686426583458452200,8.9664521484375,-3.88152520724833,9.005784868502616,-0.0005431262592361236
1686426583468397300,8.976397216796874,-3.8614062560662625,9.014426440119744,0.006678085528677911
1686426583478342400,8.98634228515625,-3.854247324222326,9.017437896895409,0.03104345752104418
1686426583488287200,8.996287353515624,-3.855593478134274,9.016666328001023,0.06722484875270165
1686426583498232300,9.006232421875,-3.857171394975483,9.01560658981502,0.10699043916366062
1686426583508177400,9.016177490234375,-3.8524493348896502,9.017148558560013,0.14168689135047607
1686426583518122200,9.026122314453126,-3.837460732333362,9.023164457848667,0.16367847713716327
1686426583528067300,9.0360673828125,-3.808282276383042,9.035374535602331,0.17138773634023963
1686426583538012200,9.04601220703125,-3.762966924624145,9.054460928866266,0.16496426089769228
1686426583547957200,9.055957275390625,-3.703277010554075,9.079361561366914,0.14604019118915312
1686426583557902300,9.06590234375,-3.6362697592079636,9.106835259225964,0.11604490243061445
1686426583567847200,9.07584716796875,-3.5703070484787225,9.133324037700891,0.07541508727259934
1686426583577791200,9.085791259765625,-3.5112943030178543,9.156443047481774,0.02711431279501412
1686426583587736300,9.095736328125,-3.4620506718993185,9.175183403787017,-0.024721540473541245
1686426583597681400,9.105681396484375,-3.423132035440206,9.189476717555522,-0.0778424970826134
1686426583607626200,9.115626220703126,-3.3935464599937197,9.19984847396612,-0.13039461342832073
1686426583617571300,9.1255712890625,-3.3735587339758872,9.206335497897863,-0.18127306094076484
1686426583627516200,9.13551611328125,-3.3629517075046893,9.209107300698756,-0.23083900108253583
1686426583637461200,9.145461181640625,-3.3599802904784677,9.208902718037367,-0.2775147727407515
1686426583647406300,9.15540625,-3.362784826505184,9.206503255680204,-0.31992578136026856
1686426583657351200,9.16535107421875,-3.3688504101544616,9.202788034549355,-0.360479617805779
1686426583667296300,9.175296142578125,-3.374668156522512,9.198923760336637,-0.4022557625878602
1686426583677241300,9.185241455078126,-3.377616777195036,9.195678494805097,-0.44896300709657366
1686426583687186200,9.195186279296875,-3.376309786249697,9.193352097684144,-0.5031785448761656
1686426583697131300,9.20513134765625,-3.370756243775785,9.191729464918375,-0.5661251226546242
1686426583707076400,9.215076416015625,-3.362297335249185,9.19011326189339,-0.6380996775519102
1686426583717021200,9.225021240234375,-3.3519404841467737,9.187899677497148,-0.7192972937487065
1686426583726966300,9.23496630859375,-3.3393145190685987,9.185034935715795,-0.8090132935743779
1686426583736911400,9.244911376953125,-3.323943639196455,9.181683871722221,-0.9046841101512313
1686426583746855200,9.254855224609376,-3.3079365072473883,9.177263132670522,-1.0028837145533411
1686426583756800300,9.26480029296875,-3.292837137793004,9.171461752915382,-1.1008653653558342
1686426583766745300,9.274745361328126,-3.2788901532441375,9.164369164305924,-1.1973312047678977
1686426583776690200,9.284690185546875,-3.264122207701206,9.156736477470398,-1.2923105319492518
1686426583786635300,9.29463525390625,-3.2485575588226316,9.148680012264848,-1.385243374929577
1686426583796580400,9.304580322265625,-3.2354116615235804,9.138891024178266,-1.4775576476201415
1686426583806525200,9.314525146484375,-3.2227012330323457,9.127904350739717,-1.5703357384301722
1686426583816470300,9.32447021484375,-3.2090701825648544,9.11680194196701,-1.6601709076561033
1686426583826415400,9.334415283203125,-3.195908210913837,9.106066028419136,-1.7424474781960249
1686426583836360200,9.344360107421876,-3.185326026622951,9.095991793650388,-1.813013298806548
1686426583846305300,9.35430517578125,-3.1800314273461696,9.08647869989574,-1.8691440590903161
1686426583856250400,9.36425048828125,-3.181172414074838,9.077490506798028,-1.9104132041983306
1686426583866195200,9.3741953125,-3.1892452458932996,9.069107878378032,-1.9365913092888891
1686426583876140300,9.384140380859375,-3.2002298735052346,9.063177319285273,-1.9462075711570679
1686426583886085400,9.39408544921875,-3.2073250924631953,9.061977295845747,-1.9401092542819678
1686426583896030200,9.4040302734375,-3.204645059598982,9.066827073964475,-1.9217875617802143
1686426583905975300,9.413975341796874,-3.190831346040964,9.076857469591499,-1.8972725675962865
1686426583915920400,9.42392041015625,-3.1688235123723745,9.089007341590523,-1.8758654762998221
1686426583925865200,9.433865234375,-3.1460090384960173,9.0987682726264,-1.8669304746940731
1686426583935809300,9.443809326171875,-3.1341078805610536,9.10061302371025,-1.8779251853086054
1686426583945754400,9.45375439453125,-3.1421929873391985,9.090771428653598,-1.9117751402013003
1686426583955699200,9.46369921875,-3.172387926855683,9.068756580722331,-1.9657079520493745
1686426583965644300,9.473644287109375,-3.2190479712218045,9.037628452008962,-2.032090641756356
1686426583975589400,9.48358935546875,-3.2720474477425214,9.003172055655718,-2.09928274815008
1686426583985534200,9.4935341796875,-3.3219118411079047,8.971175327414274,-2.1571528994470834
1686426583995479300,9.503479248046874,-3.3624478496357795,8.945469808271527,-2.20065608721748
1686426584005424400,9.51342431640625,-3.389334979778528,8.92752031008303,-2.2320795456156133
1686426584015369200,9.523369140625,-3.401224447275698,8.91778860514164,-2.2527989469088614
1686426584025314300,9.533314208984375,-3.400676165743172,8.915542872041463,-2.2624949960149823
1686426584035259100,9.543259033203125,-3.3928535092934964,8.918974015533923,-2.26071351942569
1686426584045204200,9.553204345703126,-3.380384780603647,8.927612080019712,-2.2452434169627726
1686426584055149300,9.5631494140625,-3.3625022101715207,8.941070112007855,-2.2183822980441152
1686426584065094100,9.57309423828125,-3.3400621225655076,8.957855242592096,-2.1843094941809773
1686426584075039500,9.58303955078125,-3.3156548265397547,8.975215542715787,-2.149956850463152
1686426584084984300,9.592984375,-3.2883003711462018,8.990321926432847,-2.1287492272615434
1686426584094929200,9.60292919921875,-3.2655908189490437,9.000640491351485,-2.120087635769695
1686426584104874500,9.61287451171875,-3.2598435074687,9.002878625667094,-2.119429464121908
1686426584114819300,9.6228193359375,-3.2742002418622373,8.995693098077178,-2.1277923649281263
1686426584124764200,9.63276416015625,-3.316282895310223,8.975241261678933,-2.148886590883136
1686426584134708200,9.642708251953126,-3.3867397025883195,8.942281825885177,-2.1762314016655084
1686426584144653300,9.6526533203125,-3.467758820413053,8.906097582826018,-2.196919384907186
1686426584154598100,9.66259814453125,-3.5392078535988927,8.875447593018412,-2.2069947887197134
1686426584164543500,9.67254345703125,-3.5927561961740255,8.854051169246434,-2.206413773961365
1686426584174488300,9.68248828125,-3.6274788422480224,8.84253374993205,-2.1957630544789133
1686426584184433200,9.69243310546875,-3.647477966442704,8.83901025198102,-2.1767358440563083
1686426584194378500,9.70237841796875,-3.657321315065026,8.840958463439344,-2.152169850337505
1686426584204323300,9.7123232421875,-3.660301792180538,8.846008148044348,-2.126196327908337
1686426584214268200,9.72226806640625,-3.661321782878041,8.851870318076013,-2.0998820292174813
1686426584224213200,9.732213134765624,-3.667625266936421,8.85566211157441,-2.072721050569415
1686426584234158300,9.742158447265625,-3.68705155967921,8.854557365202902,-2.042752028763294
1686426584244103200,9.752103271484375,-3.7228231302842496,8.84695331993997,-2.0105688380390405
1686426584254048300,9.76204833984375,-3.771627785463631,8.833199519875645,-1.9798526511274277
1686426584263993300,9.771993408203125,-3.8299291677847505,8.814329984232783,-1.9518232190817593
1686426584273938200,9.781938232421876,-3.8943034402787684,8.792502183306217,-1.9226795421838758
1686426584283883300,9.79188330078125,-3.9577129593938585,8.771968513843417,-1.8866567732967434
1686426584293828400,9.801828369140624,-4.010540294218063,8.757567063525318,-1.8414552571758627
1686426584303773200,9.811773193359375,-4.047708287617564,8.7516511174798,-1.787465746704489
1686426584313718300,9.82171826171875,-4.070341267447174,8.753530355355142,-1.7258119852155447
1686426584323663400,9.831663330078126,-4.082543454155326,8.761236107426882,-1.6564952878832817
1686426584333607700,9.841607666015625,-4.089084838622808,8.771890187910198,-1.5823109845146537
1686426584343552500,9.851552490234376,-4.093444495137035,8.782860494735836,-1.5084645347982644
1686426584353497600,9.86149755859375,-4.097871371668577,8.792697413617372,-1.4374704057730734
1686426584363442700,9.871442626953124,-4.105732606562972,8.800009197935461,-1.368643976175785
1686426584373387500,9.881387451171875,-4.120777030959725,8.803336881053447,-1.3003200892731546
1686426584383332600,9.89133251953125,-4.146248741346597,8.801425494474172,-1.230407033482939
1686426584393277700,9.901277587890625,-4.1844080838710065,8.793445017114282,-1.1560468620907514
1686426584403222500,9.911222412109375,-4.235753655704856,8.779393110886216,-1.072868520405516
1686426584413167400,9.92116748046875,-4.298656978863478,8.759564374822377,-0.9807947784725576
1686426584423112700,9.93111279296875,-4.369192404335737,8.734943143785,-0.8839177279110998
1686426584433057500,9.9410576171875,-4.442288327945769,8.707405733039975,-0.7858368545178324
1686426584443002400,9.95100244140625,-4.51269895799458,8.679265680226683,-0.6901212489511818
1686426584452947700,9.96094775390625,-4.576176281648874,8.65271494243145,-0.5996039792126044
1686426584462892500,9.970892578125,-4.629752681274712,8.629524620980025,-0.5167885890882462
1686426584472837600,9.980837646484375,-4.673491577497124,8.610084007450938,-0.44192317158766087
1686426584482782700,9.99078271484375,-4.708649984639883,8.594064600542188,-0.375592577394098
1686426584492727600,10.0007275390625,-4.735564587311447,8.581517838180064,-0.31996077960841357
1686426584502672600,10.010672607421874,-4.751912495522201,8.574018422335385,-0.2755308689145371
1686426584512617500,10.020617431640625,-4.758808100254833,8.571244865968822,-0.2405803871677257
1686426584522562600,10.0305625,-4.7629587901934975,8.569745567321776,-0.20994506520628928
1686426584532507600,10.040507568359375,-4.770501168397069,8.566263570424914,-0.1783916602855548
1686426584542452500,10.050452392578125,-4.783035363538563,8.559911571049689,-0.14444286639457568
1686426584552396500,10.060396484375,-4.79882709917128,8.551610191172362,-0.10775635463539511
1686426584562341400,10.07034130859375,-4.816103812664747,8.542308694341779,-0.06705249699363484
1686426584572286700,10.08028662109375,-4.833627486656606,8.532639533242582,-0.022576050594158004
1686426584582231600,10.0902314453125,-4.852038464877009,8.52218243663609,0.022897523933753834
1686426584592176600,10.1001767578125,-4.872552552856504,8.510254098433256,0.06461721897099633
1686426584602121500,10.11012158203125,-4.8942725094944235,8.49747352731526,0.09710674939779564
1686426584612066600,10.120066650390624,-4.914302905610204,8.485649818530678,0.11728513914952055
1686426584622011600,10.13001171875,-4.928793203255534,8.477150870254635,0.12372308150883764
1686426584631956500,10.13995654296875,-4.936493110108375,8.472773970344662,0.11633754696794785
1686426584641901600,10.149901611328126,-4.938445413219928,8.471873222112656,0.09753514914400875
1686426584651846700,10.1598466796875,-4.93682102688849,8.47309604190588,0.06959713997514919
1686426584661791500,10.16979150390625,-4.936002111721039,8.473757136163115,0.041478052318072875
1686426584671736600,10.179736572265625,-4.939734868508577,8.471652857360244,0.02266802374352701
1686426584681681700,10.189681640625,-4.946297880285978,8.467841190117596,0.013807526987470918
1686426584691626500,10.19962646484375,-4.9524260077774525,8.464259239977597,0.013636473277991171
1686426584701571600,10.209571533203125,-4.956036014968157,8.462138594561814,0.0172815437905665
1686426584711516700,10.2195166015625,-4.955924371287226,8.462206983622908,0.01596459656514926
1686426584721461500,10.22946142578125,-4.949432086658478,8.466020988953114,0.0018636213227466213
1686426584731406300,10.23940625,-4.935192548903823,8.47430658673942,-0.019817753445520066
1686426584741351700,10.2493515625,-4.912677350234985,8.487298754781484,-0.04193563249299768
1686426584751296500,10.259296630859374,-4.8824067151337855,8.504607032456994,-0.06443026329784188
1686426584761241600,10.26924169921875,-4.847839551882445,8.524075118514896,-0.09478915663780645
1686426584771186700,10.279186767578125,-4.812141923296451,8.543714469486474,-0.13643689840040168
1686426584781130500,10.289130615234376,-4.77598164563477,8.56302298106849,-0.18712080058827996
1686426584791075600,10.29907568359375,-4.738816867105663,8.582225109666586,-0.2437742878382094
1686426584801020700,10.309020751953126,-4.6997325186908245,8.601738788431883,-0.3049589705106802
1686426584810965500,10.318965576171875,-4.6590091708973045,8.621331962174176,-0.36965715946312994
1686426584820910300,10.328910400390624,-4.618316802763939,8.640150644412635,-0.43512467055395243
1686426584830855700,10.338855712890625,-4.579399335348606,8.65739462468028,-0.4990182468589395
1686426584840800500,10.348800537109375,-4.543512613931298,8.67263077225685,-0.558891737334989
1686426584850745600,10.35874560546875,-4.51006130296737,8.686316767781973,-0.6145281016979366
1686426584860690700,10.368690673828125,-4.476584857562184,8.699547420755028,-0.6696656131606549
1686426584870635500,10.378635498046876,-4.439526754277944,8.713601080548763,-0.7308592828571796
1686426584880580600,10.38858056640625,-4.397360514199733,8.72858062301576,-0.8034163503501563
1686426584890525700,10.398525634765624,-4.349155286218226,8.74456437408924,-0.8876028461646288
1686426584900470500,10.408470458984375,-4.294084556381404,8.761830566188692,-0.9805930453553795
1686426584910415600,10.41841552734375,-4.2309108918488025,8.780942678415775,-1.0792718846417964
1686426584920360400,10.4283603515625,-4.160117692223191,8.801386916029452,-1.1829559848695992
1686426584930305500,10.438305419921875,-4.086031004010141,8.820140716338157,-1.2960948727935553
1686426584940250600,10.448250732421876,-4.011872711865604,8.835018551996349,-1.4204573116518555
1686426584950195500,10.458195556640625,-3.9405537348002193,8.845329518130422,-1.5500180498056113
1686426584960140500,10.468140625,-3.873668356268108,8.851649953323601,-1.6773087972007692
1686426584970085600,10.478085693359375,-3.814624046625197,8.85391088399291,-1.7964656302399933
1686426584980030500,10.488030517578125,-3.76615578379333,8.852508615979552,-1.902506668857485
1686426584989975600,10.4979755859375,-3.7289632404744624,8.848384229525923,-1.9928132549874484
1686426584999920600,10.507920654296875,-3.703021282227337,8.842208171239495,-2.0672186537608503
1686426585009864400,10.517864501953126,-3.690124683514237,8.83279912238121,-2.129560835905373
1686426585019809500,10.5278095703125,-3.692566523708403,8.818373122143745,-2.184405794162303
1686426585029754600,10.537754638671874,-3.7094898937195535,8.799130077013373,-2.232795146539062
1686426585039699500,10.547699462890625,-3.739074007861316,8.775701270630956,-2.27525627791062
1686426585049644500,10.55764453125,-3.776955994749069,8.749871248325706,-2.3118673680797217
1686426585059589600,10.567589599609375,-3.8150633148252964,8.726750484979153,-2.3365574265696107
1686426585069534500,10.577534423828125,-3.8409488667100664,8.712365985795856,-2.3478021664224564
1686426585079479600,10.5874794921875,-3.8504172445401545,8.70859231247604,-2.346296584165096
1686426585089424600,10.597424560546875,-3.8467841487348076,8.713806247732043,-2.3328550649203357
1686426585099369500,10.607369384765626,-3.8346848378792404,8.72423820989728,-2.3137110962502656
1686426585109314600,10.617314453125,-3.8195927749484775,8.73492093195319,-2.2983162509806454
1686426585119259600,10.627259765625,-3.804676945367455,8.741365870308876,-2.29855005973652
1686426585129204500,10.63720458984375,-3.7945103561401363,8.73909792537689,-2.323840129946172
1686426585139149600,10.647149658203125,-3.7914252496063705,8.726672159045934,-2.3750069842122494
1686426585149094700,10.6570947265625,-3.7958512493550773,8.70508401209414,-2.44610428135097
1686426585159039500,10.66703955078125,-3.807389419196546,8.677785670801997,-2.5239248953953384
1686426585168984600,10.676984619140624,-3.82717928455472,8.64840760062635,-2.593859140104055
1686426585178929700,10.6869296875,-3.8553658068582415,8.620031400969625,-2.646051976417005
1686426585188874500,10.69687451171875,-3.886322086136043,8.596099321240187,-2.6784271825820207
1686426585198819600,10.706819580078125,-3.911396321637928,8.580352301532029,-2.692384396263957
1686426585208764700,10.7167646484375,-3.925054260112345,8.57510914018154,-2.6892072275325654
1686426585218709500,10.72670947265625,-3.9280540264502166,8.579808696174622,-2.669765152698755
1686426585228654600,10.736654541015625,-3.9197064693436023,8.595355809396505,-2.631758662648499
1686426585238599400,10.746599365234376,-3.897332724972069,8.62246242750883,-2.5757193800404665
1686426585248543500,10.75654345703125,-3.859214006718993,8.659388428846,-2.508351478688419
1686426585258488600,10.766488525390624,-3.8082436979383227,8.702164909777045,-2.437207273668051
1686426585268433700,10.77643359375,-3.745368724091351,8.746193436595798,-2.3762809496708215
1686426585278378500,10.78637841796875,-3.671952482485771,8.787432624956965,-2.338415475526452
1686426585288323600,10.796323486328125,-3.6058579620704054,8.820702441874145,-2.3159002768576142
1686426585298268700,10.8062685546875,-3.5656571768462655,8.841128559309244,-2.300202210857719
1686426585308213500,10.816213623046876,-3.5654449954003096,8.842558299851417,-2.2950246620893475
1686426585318158600,10.82615869140625,-3.612529987180233,8.820488506862521,-2.3062930750787256
1686426585328103400,10.836103515625,-3.6889506712988016,8.783846583163738,-2.325097436530888
1686426585338049300,10.84604931640625,-3.7665570580705996,8.746958575749396,-2.339690902289748
1686426585347994000,10.855994140625,-3.828989841108024,8.717734819352627,-2.34740834479928
1686426585357939200,10.865939208984376,-3.8697096817702055,8.699774215248226,-2.34726893632859
1686426585367884000,10.875884033203125,-3.8875466594949364,8.694877675378322,-2.3359086072720587
1686426585377829000,10.8858291015625,-3.887028773100674,8.701245456844568,-2.3129425960958003
1686426585387774200,10.895774169921875,-3.8724101729005573,8.71664702411592,-2.27923292645663
1686426585397719000,10.905718994140624,-3.8481732650056477,8.738342723095416,-2.236813003878295
1686426585407664000,10.9156640625,-3.819795019522309,8.762706179979443,-2.189640626075864
1686426585417609200,10.925609130859375,-3.7932813988670704,8.786151352974771,-2.1412508353076873
1686426585427554000,10.935553955078126,-3.7726387160718438,8.806292223727702,-2.09446731069237
1686426585437499100,10.9454990234375,-3.760659524464607,8.821414974057674,-2.0519414435215295
1686426585447444200,10.9554443359375,-3.7582793513298034,8.831146094477177,-2.0140937972947954
1686426585457389000,10.96538916015625,-3.767136319263279,8.83567204746902,-1.9773580578327177
1686426585467334100,10.975334228515624,-3.787313722634315,8.836727694001793,-1.933621499697864
1686426585477279200,10.985279296875,-3.813875858606398,8.83774242400229,-1.8759088770501315
1686426585487224000,10.99522412109375,-3.8378234281659123,8.842565898635982,-1.8029202132068574
1686426585497168100,11.005168212890625,-3.8516353881582615,8.853581213647127,-1.71737689595595
1686426585507113200,11.01511328125,-3.85324165431112,8.870474480780958,-1.624068497661501
1686426585517058000,11.02505810546875,-3.8458164727464315,8.890854420986772,-1.5273475144445896
1686426585527003100,11.035003173828125,-3.83530033942908,8.911245467108488,-1.4319799916632472
1686426585536948200,11.0449482421875,-3.827923088659346,8.928312921765446,-1.34260849442631
1686426585546893000,11.05489306640625,-3.8290576456472274,8.939371491396427,-1.2634661302588879
1686426585556838100,11.064838134765624,-3.843976105576753,8.942470041933655,-1.1943478050429372
1686426585566783200,11.074783203125,-3.8767248212292786,8.936649372956156,-1.1303550061471759
1686426585576728000,11.08472802734375,-3.928987507908046,8.921732374331354,-1.0658930553697048
1686426585586673200,11.094673095703126,-3.998930812706053,8.898346238046884,-0.9991889516886323
1686426585596618200,11.1046181640625,-4.079477929104864,8.869193208798766,-0.9304055575154722
1686426585606563000,11.11456298828125,-4.159660596105456,8.83880566931963,-0.8620416308633982
1686426585616508200,11.124508056640625,-4.2300367393627765,8.811599682486056,-0.7955375797990709
1686426585626453200,11.134453369140624,-4.287423637187481,8.78941883033812,-0.7310920686997473
1686426585636398000,11.144398193359375,-4.333305975179374,8.77173879674077,-0.6704037181768566
1686426585646343200,11.15434326171875,-4.372645175138116,8.75629631293714,-0.6145117350850254
1686426585656288300,11.164288330078126,-4.408768627920747,8.741591495758295,-0.5636714093595743
1686426585666233000,11.174233154296875,-4.445303876374662,8.725871364057063,-0.5184846889490261
1686426585676178200,11.18417822265625,-4.485445624887943,8.707592195522786,-0.4785462809881195
1686426585686123000,11.194123046875,-4.5281545935407275,8.687306947863101,-0.443752067515254
1686426585696068000,11.204068115234374,-4.568900445427,8.667357800289988,-0.41525037831533695
1686426585706013200,11.21401318359375,-4.601985845687985,8.65086726873815,-0.39319720766767857
1686426585715958000,11.2239580078125,-4.627485320864618,8.63816560807526,-0.37265203043017536
1686426585725903000,11.233903076171876,-4.650146357744932,8.62703572677374,-0.34755635028146203
1686426585735848200,11.24384814453125,-4.673969131880998,8.615345873501896,-0.31657508269287643
1686426585745793000,11.25379296875,-4.699044828687608,8.602916015517712,-0.28143874125145374
1686426585755738400,11.26373828125,-4.723184998209774,8.59087252650261,-0.2425233013964258
1686426585765682200,11.27368212890625,-4.744747718459368,8.580086344072223,-0.19973613467458634
1686426585775627300,11.283627197265625,-4.763434298750758,8.57069132373929,-0.1527521281842608
1686426585785572000,11.293572021484374,-4.779222819513082,8.562643626362085,-0.10274659104882738
1686426585795517200,11.30351708984375,-4.792489128321409,8.55567612543702,-0.05335018965452909
1686426585805462000,11.3134619140625,-4.804017945812642,8.549370887812971,-0.007155356213939376
1686426585815407000,11.323406982421876,-4.815717151434719,8.542713768011332,0.03620848930113716
1686426585825352200,11.333352294921875,-4.827991234335303,8.53551713450551,0.0763399150665151
1686426585835297000,11.343297119140624,-4.839133975118399,8.52883897191584,0.10981988130277022
1686426585845242400,11.353242431640625,-4.84569523333013,8.524826229143143,0.13029831344699486
1686426585855187200,11.363187255859375,-4.843414721177518,8.526076521465182,0.1331451359791681
1686426585865132000,11.373132080078125,-4.834593116818368,8.531144326248764,0.12914828489534555
1686426585875077000,11.3830771484375,-4.82550789308697,8.536237849995493,0.13233521696892567
1686426585885022200,11.393022216796876,-4.821046529763937,8.53850345683992,0.14782512011085636
1686426585894967000,11.402967041015625,-4.826098844717443,8.535128427448868,0.17531082806810735
1686426585904912100,11.412912109375,-4.84049240399003,8.526295717173815,0.20563741287393494
1686426585914857200,11.422857177734375,-4.8548058837637305,8.517858143696188,0.21756054517868906
1686426585924802000,11.432802001953124,-4.860583298121393,8.514790572819113,0.2084896787662059
1686426585934747100,11.4427470703125,-4.855636489368975,8.518012457475066,0.19144664616445078
1686426585944692200,11.452692138671875,-4.83947562816292,8.52766349839568,0.1697388366220519
1686426585954637000,11.462636962890626,-4.813004093083739,8.543132285684347,0.1423238010145258
1686426585964582100,11.47258203125,-4.778125964187085,8.563186062675713,0.10826865153908728
1686426585974527200,11.48252734375,-4.734771975629031,8.587650057324767,0.06781358102662488
1686426585984472000,11.49247216796875,-4.682211767308414,8.616650526359678,0.024684537497977724
1686426585994417200,11.502417236328125,-4.6214659144446255,8.649400118795036,-0.017630795619654235
1686426586004362000,11.512362060546875,-4.556171604496241,8.68378578799963,-0.05947284638644196
1686426586014307300,11.522307373046875,-4.489243555866182,8.718141646587847,-0.10527636525477282
1686426586024252200,11.532252197265626,-4.424623784178495,8.750386212110518,-0.15440500082466752
1686426586034197000,11.542197021484375,-4.365823220163583,8.778876978057623,-0.2032040482471697
1686426586044142300,11.552142333984374,-4.31407666631341,8.803216469544171,-0.2500220961865969
1686426586054087200,11.562087158203125,-4.26850529396683,8.823967581149935,-0.29636799656962975
1686426586064031200,11.57203125,-4.225730858862399,8.84272313502431,-0.34618319876473397
1686426586073976000,11.58197607421875,-4.181465600678324,8.861289888328313,-0.4040825030909851
1686426586083921200,11.591921142578125,-4.13342228526026,8.880356407848,-0.473785240598768
1686426586093866000,11.601865966796876,-4.081154630145431,8.899653813514114,-0.557429921154119
1686426586103811300,11.611811279296875,-4.0248549430355425,8.918639669013023,-0.6548354891017079
1686426586113756200,11.621756103515626,-3.9640529760703442,8.937401652628182,-0.7612688149724155
1686426586123701000,11.631700927734375,-3.8985777565971014,8.955939764359593,-0.8732872474990785
1686426586133646300,11.641646240234374,-3.8283112111940976,8.97400090622902,-0.9908153833579272
1686426586143591200,11.651591064453125,-3.7544896036580204,8.990811171254515,-1.1133257646087555
1686426586153536000,11.661535888671875,-3.677486151215434,9.006209815916419,-1.2388232719115913
1686426586163481300,11.6714814453125,-3.595107143214345,9.021216830912232,-1.3650048890210686
1686426586173426200,11.68142626953125,-3.506251632675528,9.03660670774579,-1.48873619036898
1686426586183371000,11.69137109375,-3.4138238166078922,9.051441288784146,-1.6086024868518114
1686426586193316000,11.701316162109375,-3.324503611166775,9.063783468484878,-1.7221749438874423
1686426586203261200,11.71126123046875,-3.245033476349711,9.072232732400298,-1.8261255860969423
1686426586213206000,11.7212060546875,-3.181752552050352,9.075674397286772,-1.9180647418648002
1686426586223151000,11.731151123046875,-3.1400030760794877,9.073409959486126,-1.9959962689377366
1686426586233096200,11.74109619140625,-3.121875883236527,9.065828710576891,-2.057918033713102
1686426586243041000,11.751041015625,-3.1256781981289383,9.054348700663446,-2.102210179904103
1686426586252986000,11.760986083984376,-3.145425393389165,9.040677318185567,-2.131391996855289
1686426586262931200,11.77093115234375,-3.1684669540196655,9.02789674706757,-2.151343190255016
1686426586272876300,11.780876220703124,-3.184755533258617,9.01879807933271,-2.1654145318359137
1686426586282821000,11.790821044921875,-3.1868536745816467,9.015127281865476,-2.1775722948804495
1686426586292766200,11.80076611328125,-3.1736747517958284,9.016242549630999,-2.192158892507106
1686426586302711300,11.810711181640626,-3.1482860435172912,9.020092795318364,-2.2128296323530376
1686426586312656100,11.82065625,-3.1180402505964038,9.023985126581788,-2.2396230928629635
1686426586322601000,11.83060107421875,-3.09233853084594,9.024809302446245,-2.2717069148659705
1686426586332545800,11.8405458984375,-3.076440996751189,9.020421881142259,-2.310386189611256
1686426586342490600,11.85049072265625,-3.0720725724086164,9.010342970198392,-2.355092177300155
1686426586352435700,11.860435791015625,-3.076796970582008,8.995232494828105,-2.406135551317036
1686426586362380800,11.870380859375,-3.0875986428424715,8.9766259940356,-2.461160688446462
1686426586372325600,11.88032568359375,-3.1037104042097923,8.956255406180023,-2.51453192088902
1686426586382269700,11.890269775390625,-3.1244547938138245,8.93591638250649,-2.560776662452519
1686426586392214500,11.900214599609376,-3.1478266093119975,8.917322741195559,-2.596716867622733
1686426586402159600,11.91015966796875,-3.17246859087646,8.900951452109217,-2.622761409461498
1686426586412104700,11.920104736328126,-3.196542124903202,8.886704315569997,-2.6417814594909546
1686426586422049800,11.9300498046875,-3.2198966970056295,8.874419419014453,-2.6546801040306685
1686426586431994600,11.93999462890625,-3.2434923843875527,8.863842495420574,-2.661289293037355
1686426586441939700,11.949939697265625,-3.2681936949238177,8.854986404269933,-2.6605492883250115
1686426586451884800,11.959884765625,-3.2951343088194727,8.847838286080956,-2.651079449190199
1686426586461829600,11.96982958984375,-3.3214401319429276,8.842790939563512,-2.6350430911466476
1686426586471774500,11.9797744140625,-3.342611222526431,8.840305552488564,-2.6165517411664125
1686426586481719800,11.9897197265625,-3.359861924795806,8.840048362857102,-2.5952345201104876
1686426586491664600,11.99966455078125,-3.3757194191411135,8.842806721654533,-2.565088388171792
1686426586501609500,12.009609375,-3.392513317553699,8.848995054900646,-2.5212127138271927
1686426586511554800,12.019554931640625,-3.41251302627027,8.856725941413641,-2.466481006686389
1686426586521499600,12.029499755859375,-3.4342636703073977,8.864069289913774,-2.409252952685207
1686426586531444500,12.039444580078126,-3.4482463106915353,8.869927368292212,-2.367359392068535
1686426586541389800,12.049389892578125,-3.4486639515817163,8.873792811548709,-2.352216621863842
1686426586551334700,12.059334716796876,-3.4530279920101163,8.871873826184869,-2.3530514652527867
1686426586561279500,12.069279541015625,-3.479104974813759,8.861212731438874,-2.3548094148360192
1686426586571224600,12.079224609375,-3.5210166556090114,8.845214367318153,-2.3526614430218933
1686426586581169700,12.089169677734375,-3.570971942128241,8.828578289815782,-2.3398196432359515
1686426586591114800,12.09911474609375,-3.6181630246311425,8.815984765702485,-2.314668835366517
1686426586601059600,12.1090595703125,-3.6529783174246546,8.80969004947245,-2.283744850923121
1686426586611004700,12.119004638671875,-3.672332713975012,8.810628207105397,-2.2488170376658436
1686426586620949800,12.12894970703125,-3.678829090256989,8.818312916389107,-2.2077022063367067
1686426586630894600,12.13889453125,-3.6785531959250566,8.830440576556324,-2.1591592708334324
1686426586640839700,12.148839599609374,-3.6748441122740503,8.845374526315927,-2.103632029400766
1686426586650784800,12.15878466796875,-3.6674420193240045,8.862392881134152,-2.044077286017686
1686426586660729600,12.1687294921875,-3.6558152944162488,8.880985353401302,-1.983309805843979
1686426586670674700,12.1786748046875,-3.6389331331983206,8.901050820830465,-1.9234948040895163
1686426586680619800,12.188619873046875,-3.617005379028618,8.92241100424528,-1.8649997988924383
1686426586690564600,12.198564697265626,-3.593237842211127,8.944179183939099,-1.8057379009760914
1686426586700508700,12.2085087890625,-3.5734418393731113,8.964661999997496,-1.7423381726026534
1686426586710453800,12.218453857421874,-3.5615503260493275,8.983098404920101,-1.6702403201192617
1686426586720398600,12.228398681640625,-3.55655704780668,9.000399083811045,-1.585588983272016
1686426586730343700,12.23834375,-3.5537770616993307,9.018443859067558,-1.4861787609711288
1686426586740288800,12.248288818359375,-3.5483141201183197,9.03852627763152,-1.3729099630571902
1686426586750233600,12.258233642578125,-3.5375887279644607,9.060942692101001,-1.2470640076428652
1686426586760178700,12.2681787109375,-3.521585687668621,9.084913934797049,-1.110474978287518
1686426586770123800,12.278123779296875,-3.5026007089525457,9.108750737458466,-0.9658341599017382
1686426586780068600,12.288068603515624,-3.4838434015125035,9.130429485303162,-0.8175898371312766
1686426586790013400,12.298013427734375,-3.4679908756032582,9.14843217498362,-0.6705263216432183
1686426586799958800,12.307958740234374,-3.458048742781579,9.161414990675448,-0.5298640880322083
1686426586809903600,12.317903564453125,-3.4559503091976045,9.168826143714785,-0.39925062595512717
1686426586819848400,12.327848388671875,-3.462407814773917,9.170787214654684,-0.28069195973845196
1686426586829793800,12.337793701171876,-3.4741885611996053,9.168961168271302,-0.17483879010956732
1686426586839738600,12.347738525390625,-3.486359475986659,9.165660957682132,-0.07967640711204148
1686426586849683700,12.35768359375,-3.495388585616648,9.162564745232462,0.006654109285579761
1686426586859628800,12.36762890625,-3.502443764825165,9.159467363739013,0.08616144001609645
1686426586869573600,12.37757373046875,-3.511599715705216,9.154936150050164,0.16183615547241642
1686426586879518700,12.387518798828125,-3.5264161765649913,9.14761209077239,0.23655980814844368
1686426586889463600,12.397463623046875,-3.546702301007509,9.13757935705781,0.30968784392978993
1686426586899408600,12.40740869140625,-3.5712650798559187,9.125331285381316,0.3804881308833137
1686426586909353700,12.417353759765625,-3.599596855849027,9.110992378905415,0.4506718203084543
1686426586919298600,12.427298583984374,-3.630056876042485,9.09520502718687,0.5199316363543272
1686426586929243600,12.43724365234375,-3.660137833790481,9.079063455203174,0.5868360849130898
1686426586939188700,12.447188720703124,-3.6877915643915533,9.06372326273024,0.6476927046749741
1686426586949133600,12.457133544921875,-3.7125492812901735,9.04971753373146,0.6999707350533455
1686426586959078700,12.46707861328125,-3.7339331378415226,9.037349050545691,0.7446225083369761
1686426586969023700,12.477023681640626,-3.75148749923259,9.026816550615429,0.783136582583189
1686426586978968600,12.486968505859375,-3.7648976004257797,9.018186084914207,0.81747176370956
1686426586988913700,12.49691357421875,-3.7755490505605933,9.010679070284962,0.8504545803789049
1686426586998858800,12.506858642578125,-3.784298466466367,9.00352101522386,0.8866128122139721
1686426587008802600,12.516802490234374,-3.7895401665121313,8.9971427123636,0.9279970350690185
1686426587018747600,12.52674755859375,-3.788944538706541,8.992280659285187,0.9763038967940956
1686426587028692700,12.536692626953124,-3.781210437323153,8.98921542649567,1.0328773593440652
1686426587038637600,12.546637451171875,-3.7680999035984275,8.987263707906008,1.0958622233062982
1686426587048582700,12.556582763671875,-3.754905783243477,8.984694149678946,1.160326512171328
1686426587058527700,12.56652783203125,-3.7465623177900906,8.980247691664099,1.2201640910837799
1686426587068472600,12.57647265625,-3.7454946885585785,8.97351399949491,1.271893036212027
1686426587078417700,12.586417724609374,-3.7514252476513383,8.964975303730368,1.3139344808667897
1686426587088362800,12.59636279296875,-3.762977738279104,8.955603079751134,1.3444551452063023
1686426587098307600,12.6063076171875,-3.7784599695712324,8.946617809262872,1.3607596526667476
1686426587108252700,12.616252685546876,-3.796915079194307,8.938210630923509,1.364632402446866
1686426587118197800,12.62619775390625,-3.815940682181716,8.930444673097133,1.362402889829129
1686426587128142600,12.636142578125,-3.8333117959603666,8.923352669009565,1.360105864933133
1686426587138087700,12.646087646484375,-3.849144448125362,8.916588581702113,1.3597542750164866
1686426587148032800,12.65603271484375,-3.8675586412161587,8.90861278051734,1.3597854008071124
1686426587157977600,12.6659775390625,-3.892477978417277,8.898084372240305,1.3576086412899195
1686426587167922700,12.675922607421874,-3.922994697234034,8.885327766519785,1.35331342831403
1686426587177867800,12.68586767578125,-3.957648369725048,8.871130314341187,1.34552248217687
1686426587187812600,12.6958125,-3.9958638263508677,8.855899427461624,1.3328528240874409
1686426587197757700,12.7057578125,-4.036389898006618,8.840067067557573,1.3157377308964728
1686426587207702500,12.71570263671875,-4.077363421168923,8.824586589831114,1.2931179028093813
1686426587217647600,12.725647705078124,-4.117537610647082,8.81006472800374,1.2645233842268586
1686426587227592700,12.7355927734375,-4.156428774577379,8.7965611033082,1.2308487859010695
1686426587237537500,12.74553759765625,-4.192824906821548,8.784413569396733,1.1936056083735078
1686426587247482600,12.755482666015626,-4.22660705717504,8.773643753579258,1.1529740305166691
1686426587257427700,12.765427734375,-4.256665510830283,8.76511908634007,1.1062868789479137
1686426587267372500,12.77537255859375,-4.282299718302488,8.759507091677188,1.0503947497256099
1686426587277318000,12.78531787109375,-4.303699941466748,8.756492127770185,0.9861096898850052
