time,seconds_elapsed,z,y,x
1686426574592588300,0.10058837890625,0.08692184835672379,0.5810940265655518,-0.6380720734596252
1686426574602533000,0.110533203125,0.1744793951511383,0.6257621645927429,-0.6790956854820251
1686426574612478200,0.120478271484375,0.2649514973163605,0.7476124167442322,-0.752996027469635
1686426574622422300,0.13042236328125,0.3769321143627167,0.9580668807029724,-0.8094576597213745
1686426574632367000,0.1403671875,0.49567312002182007,1.2407302856445312,-0.8266246914863586
1686426574642312200,0.150312255859375,0.5642250180244446,1.4818874597549438,-0.8032791614532471
1686426574652257300,0.16025732421875,0.5496431589126587,1.534099817276001,-0.7272323369979858
1686426574662202000,0.1702021484375,0.46698901057243347,1.376878023147583,-0.6208829879760742
1686426574672146200,0.180146240234375,0.3562001883983612,1.1879380941390991,-0.5226355195045471
1686426574682091300,0.19009130859375,0.22933518886566162,1.0908808708190918,-0.4419720768928528
1686426574692036000,0.2000361328125,0.06748449802398682,1.134344458580017,-0.3836190402507782
1686426574701981200,0.209981201171875,-0.10141956806182861,1.234386920928955,-0.35888946056365967
1686426574711926300,0.21992626953125,-0.23321354389190674,1.2965171337127686,-0.35900449752807617
1686426574721871000,0.22987109375,-0.32307446002960205,1.3044793605804443,-0.36648958921432495
1686426574731815200,0.239815185546875,-0.38011085987091064,1.3579117059707642,-0.3596692383289337
1686426574741760300,0.24976025390625,-0.45491477847099304,1.4504259824752808,-0.3408483862876892
1686426574751705000,0.259705078125,-0.5756441354751587,1.4704585075378418,-0.32458606362342834
1686426574761650200,0.269650146484375,-0.6992984414100647,1.443926215171814,-0.3139142394065857
1686426574771595300,0.27959521484375,-0.7865766286849976,1.4180312156677246,-0.3342576026916504
1686426574781540000,0.2895400390625,-0.8316620588302612,1.4762338399887085,-0.44221124053001404
1686426574791484200,0.299484130859375,-0.8404744863510132,1.601127028465271,-0.6292367577552795
1686426574801429200,0.30942919921875,-0.8523212671279907,1.7449332475662231,-0.7668836116790771
1686426574811374000,0.3193740234375,-0.9229746460914612,2.0077829360961914,-0.8365010023117065
1686426574821319200,0.329319091796875,-1.060537338256836,2.4092965126037598,-0.8511214852333069
1686426574831264300,0.33926416015625,-1.260418176651001,2.906129837036133,-0.7765830755233765
1686426574841209000,0.349208984375,-1.4768953323364258,3.400782823562622,-0.6146583557128906
1686426574851153200,0.359153076171875,-1.589754343032837,3.883654832839966,-0.3348144590854645
1686426574861098200,0.36909814453125,-1.4777179956436157,4.176266193389893,0.04524364322423935
1686426574871043300,0.379043212890625,-1.2013729810714722,4.196022033691406,0.453126460313797
1686426574880988200,0.38898828125,-1.119558572769165,4.2501373291015625,0.8898319005966187
1686426574890933200,0.398933349609375,-1.2670066356658936,4.54337739944458,1.3484593629837036
1686426574900877300,0.408877197265625,-1.4685953855514526,5.003096580505371,1.8161871433258057
1686426574910822100,0.418822265625,-1.6588795185089111,5.35392427444458,2.276204824447632
1686426574920767200,0.428767333984375,-1.741148829460144,5.585631847381592,2.7523181438446045
1686426574930712300,0.43871240234375,-1.7115042209625244,5.462880611419678,3.1579806804656982
1686426574940657200,0.4486572265625,-1.582348346710205,5.069945335388184,3.4607651233673096
1686426574950602200,0.458602294921875,-1.4066779613494873,4.429041862487793,3.4522218704223633
1686426574960546300,0.46854638671875,-1.2840795516967773,3.9782917499542236,3.2251009941101074
1686426574970491100,0.4784912109375,-1.2382159233093262,3.832379102706909,2.8891148567199707
1686426574980436000,0.48843603515625,-1.3229364156723022,3.9696450233459473,2.623059034347534
1686426574990381300,0.49838134765625,-1.5619418621063232,4.129828929901123,2.4310994148254395
1686426575000326100,0.508326171875,-1.8022212982177734,4.17746114730835,2.251133680343628
1686426575010271200,0.518271240234375,-2.0945677757263184,4.10575008392334,2.0682315826416016
1686426575020215300,0.52821533203125,-2.5209922790527344,4.123802185058594,1.9905421733856201
1686426575030160100,0.53816015625,-2.982649326324463,4.230156898498535,2.0411059856414795
1686426575040105200,0.548105224609375,-3.368201732635498,4.322066783905029,2.2066869735717773
1686426575050050300,0.55805029296875,-3.6465771198272705,4.256061553955078,2.5232815742492676
1686426575059995100,0.5679951171875,-3.808330774307251,3.9396727085113525,2.9738972187042236
1686426575069940000,0.57793994140625,-3.909574508666992,3.847454786300659,3.5695223808288574
1686426575079884300,0.58788427734375,-3.919542074203491,4.0088210105896,4.249089241027832
1686426575089829000,0.5978291015625,-3.7691473960876465,4.085906982421875,4.895934104919434
1686426575099774200,0.607774169921875,-3.49743914604187,3.8977527618408203,5.432438373565674
1686426575109719300,0.61771923828125,-3.2683444023132324,3.6233036518096924,5.915170669555664
1686426575119664000,0.6276640625,-3.113508701324463,3.1406333446502686,6.1931304931640625
1686426575129609200,0.637609130859375,-3.0485455989837646,2.4472172260284424,6.185140132904053
1686426575139553300,0.64755322265625,-2.997157096862793,1.3930960893630981,6.087533473968506
1686426575149498000,0.657498046875,-3.0810201168060303,0.6485641598701477,6.128351211547852
1686426575159443200,0.667443115234375,-3.1449759006500244,0.15038737654685974,6.256840229034424
1686426575169388300,0.67738818359375,-3.116142749786377,-0.24684706330299377,6.329579830169678
1686426575179333000,0.6873330078125,-3.1541740894317627,-0.2790375053882599,6.2797770500183105
1686426575189278200,0.6972783203125,-3.1782286167144775,-0.2809661626815796,6.106141090393066
1686426575199222000,0.707221923828125,-3.1518001556396484,-0.4819578528404236,5.807411193847656
1686426575209167400,0.71716748046875,-3.2002334594726562,-0.7721332311630249,5.419128894805908
1686426575219112200,0.7271123046875,-3.3837969303131104,-1.1964503526687622,5.01016902923584
1686426575229057000,0.73705712890625,-3.660139560699463,-1.6040533781051636,4.563394546508789
1686426575239002000,0.747002197265625,-3.8556082248687744,-2.2024765014648438,4.016425132751465
1686426575248947200,0.756947265625,-3.8722658157348633,-2.6503615379333496,3.3223798274993896
1686426575258892300,0.766892333984375,-3.6832175254821777,-2.9767026901245117,2.676264524459839
1686426575268836400,0.77683642578125,-3.28450870513916,-3.002897024154663,2.1810004711151123
1686426575278781200,0.78678125,-2.7225120067596436,-2.7567155361175537,1.9240190982818604
1686426575288726000,0.79672607421875,-2.100651979446411,-2.3184213638305664,1.8833129405975342
1686426575298671400,0.80667138671875,-1.4372944831848145,-1.9454625844955444,2.010740041732788
1686426575308616200,0.8166162109375,-0.7728147506713867,-1.5980859994888306,2.2672278881073
1686426575318560000,0.82656005859375,-0.09332568943500519,-1.310605525970459,2.4382152557373047
1686426575328505000,0.836505126953125,0.5899232029914856,-1.2066407203674316,2.3542325496673584
1686426575338450200,0.8464501953125,1.18935227394104,-1.303837537765503,1.949226975440979
1686426575348395000,0.85639501953125,1.6261154413223267,-1.5391288995742798,1.3111804723739624
1686426575358340400,0.86634033203125,1.8998801708221436,-1.8983951807022095,0.5839294791221619
1686426575368285200,0.87628515625,2.0627732276916504,-2.189093828201294,-0.09902378171682358
1686426575378230000,0.88622998046875,2.2100276947021484,-2.2788496017456055,-0.6341995596885681
1686426575388174000,0.896174072265625,2.3741724491119385,-2.183164596557617,-1.015332818031311
1686426575398119200,0.906119140625,2.525012493133545,-2.028888463973999,-1.2552043199539185
1686426575408064000,0.91606396484375,2.602139711380005,-1.8766515254974365,-1.3662713766098022
1686426575418009000,0.926009033203125,2.589782953262329,-1.710037350654602,-1.3784105777740479
1686426575427954200,0.9359541015625,2.513209104537964,-1.5143918991088867,-1.2928475141525269
1686426575437899000,0.94589892578125,2.3925704956054688,-1.265036940574646,-1.1188796758651733
1686426575447843000,0.955843017578125,2.236158609390259,-1.0433127880096436,-0.9029176235198975
1686426575457788200,0.9657880859375,2.0297188758850098,-0.8692160844802856,-0.6969143748283386
1686426575467733200,0.975733154296875,1.7658209800720215,-0.6447752714157104,-0.48814037442207336
1686426575477678000,0.985677978515625,1.5061498880386353,-0.4340587556362152,-0.37199193239212036
1686426575487623200,0.995623046875,1.2474478483200073,-0.16717274487018585,-0.6579696536064148
1686426575497568300,1.005568359375,1.051118016242981,0.0302609670907259,-1.205710768699646
1686426575507513000,1.01551318359375,0.8633919954299927,0.10563268512487411,-1.5637447834014893
1686426575517457200,1.02545703125,0.6295111179351807,0.09749779105186462,-1.652660608291626
1686426575527402200,1.03540234375,0.39348018169403076,-0.10223954916000366,-1.7377570867538452
1686426575537347000,1.04534716796875,0.10673390328884125,-0.19700440764427185,-1.6238081455230713
1686426575547292200,1.055292236328125,-0.12126117944717407,-0.4764181971549988,-1.4551492929458618
1686426575557237200,1.0652373046875,-0.26920589804649353,-0.681950569152832,-1.2685576677322388
1686426575567182000,1.07518212890625,-0.3730792999267578,-0.9276671409606934,-1.2429084777832031
1686426575577126100,1.085126220703125,-0.43898826837539673,-0.9769521355628967,-1.219174861907959
1686426575587071200,1.0950712890625,-0.40018415451049805,-0.8324998617172241,-1.0644718408584595
1686426575597016000,1.10501611328125,-0.2335861176252365,-0.4316251575946808,-0.9417814016342163
1686426575606961200,1.114961181640625,-0.032464999705553055,-0.003620034782215953,-0.7960081696510315
1686426575616906200,1.12490625,0.1548694670200348,0.285607248544693,-0.6166583895683289
1686426575626851000,1.13485107421875,0.24591442942619324,0.5819329023361206,-0.4951900243759155
1686426575636795100,1.144795166015625,0.23257093131542206,0.7592786550521851,-0.29749879240989685
1686426575646740200,1.154740234375,0.07930147647857666,0.8226941227912903,-0.0518094003200531
1686426575656685000,1.16468505859375,-0.13381558656692505,0.8152292966842651,0.1232801228761673
1686426575666630100,1.174630126953125,-0.317848801612854,0.8041481375694275,0.252021849155426
1686426575676575200,1.1845751953125,-0.43321481347084045,0.7886799573898315,0.2662316858768463
1686426575686520000,1.19452001953125,-0.480135440826416,0.7695110440254211,0.23194295167922974
1686426575696465200,1.204465087890625,-0.4775428771972656,0.7141562104225159,0.09993725270032883
1686426575706409200,1.2144091796875,-0.29940640926361084,0.5195443630218506,-0.1197114884853363
1686426575716354000,1.22435400390625,-0.08769256621599197,0.31655532121658325,-0.23964828252792358
1686426575726299100,1.234299072265625,0.06467779725790024,0.13908065855503082,-0.2498852014541626
1686426575736244200,1.244244140625,0.07749878615140915,-0.034574221819639206,-0.1383485496044159
1686426575746189000,1.25418896484375,0.007957791909575462,-0.09569723159074783,0.013155749067664146
1686426575756134100,1.264134033203125,0.010846256278455257,-0.14790184795856476,0.1915838122367859
1686426575766079200,1.274079345703125,0.20609138906002045,0.11354200541973114,0.2786113917827606
1686426575776023000,1.28402294921875,0.22674579918384552,0.27989131212234497,0.3963662385940552
1686426575785968000,1.293968017578125,0.24779009819030762,0.605587899684906,0.47400033473968506
1686426575795913200,1.303913330078125,0.22336703538894653,0.820770263671875,0.4333104193210602
1686426575805858000,1.313858154296875,0.2638348340988159,0.9816457033157349,0.4377989172935486
1686426575815803100,1.32380322265625,0.16161473095417023,0.763985812664032,0.4227834641933441
1686426575825748200,1.333748291015625,0.16267172992229462,0.3708454370498657,0.3048858642578125
1686426575835692300,1.3436923828125,0.04243747144937515,0.008420116268098354,0.24079076945781708
1686426575845637000,1.35363720703125,-0.2568182051181793,-0.14473187923431396,0.13040301203727722
1686426575855582200,1.363582275390625,-0.5541060566902161,-0.20201434195041656,0.0251583494246006
1686426575865527000,1.373527099609375,-0.8382467031478882,0.023842481896281242,-0.07502817362546921
1686426575875472100,1.38347216796875,-1.1036731004714966,0.4355703890323639,-0.197891503572464
1686426575885417200,1.393417236328125,-1.349988579750061,0.8485736846923828,-0.2777900695800781
1686426575895362000,1.403362060546875,-1.4586769342422485,1.040730595588684,-0.1946701556444168
1686426575905306000,1.41330615234375,-1.4202382564544678,1.0581215620040894,0.14203250408172607
1686426575915251200,1.423251220703125,-1.303665280342102,1.0250210762023926,0.5449360013008118
1686426575925196300,1.4331962890625,-1.161460518836975,1.0767152309417725,0.8260840773582458
1686426575935141000,1.44314111328125,-1.0271670818328857,1.107532262802124,0.9654358625411987
1686426575945086200,1.453086181640625,-0.8896843194961548,1.0597681999206543,0.92545485496521
1686426575955031000,1.463031005859375,-0.7799229621887207,0.9846073985099792,0.7525877356529236
1686426575964976000,1.47297607421875,-0.7652425765991211,0.9269773960113525,0.5501643419265747
1686426575974920000,1.482919921875,-0.9004824161529541,0.908273458480835,0.39153313636779785
1686426575984865300,1.492865234375,-1.200499176979065,0.7582088708877563,0.3476855456829071
1686426575994810000,1.50281005859375,-1.624940276145935,0.52601557970047,0.41799670457839966
1686426576004755200,1.512755126953125,-2.0415403842926025,0.044494498521089554,0.605873167514801
1686426576014700300,1.5227001953125,-2.2847652435302734,-0.6389335989952087,0.9548532366752625
1686426576024645000,1.53264501953125,-2.2946362495422363,-1.055692195892334,1.186597228050232
1686426576034589000,1.5425888671875,-2.147095203399658,-0.9775667786598206,1.2516721487045288
1686426576044534300,1.5525341796875,-1.9143118858337402,-0.5939310193061829,1.2232921123504639
1686426576054479000,1.56247900390625,-1.6026275157928467,-0.2123253047466278,1.161197304725647
1686426576064424000,1.572423828125,-1.2579654455184937,-0.04163266345858574,1.1199684143066406
1686426576074369300,1.582369384765625,-0.9337306618690491,-0.0409650094807148,1.1631039381027222
1686426576084314000,1.592314208984375,-0.6764559745788574,-0.1278325319290161,1.2838281393051147
1686426576094259200,1.60225927734375,-0.5674328207969666,-0.17119412124156952,1.425614595413208
1686426576104203300,1.612203369140625,-0.5528131127357483,-0.1878596544265747,1.562280297279358
1686426576114148000,1.622148193359375,-0.5766603946685791,-0.22731171548366547,1.664398193359375
1686426576124093000,1.632093017578125,-0.5977201461791992,-0.2262571007013321,1.7531464099884033
1686426576134038300,1.642038330078125,-0.5895493030548096,-0.23528975248336792,1.7893930673599243
1686426576143983000,1.651983154296875,-0.547532856464386,-0.1900397092103958,1.7492635250091553
1686426576153928000,1.661927978515625,-0.5035800337791443,0.06498512625694275,1.6680536270141602
1686426576163873300,1.671873291015625,-0.5740646123886108,0.5785017013549805,1.5951589345932007
1686426576173817000,1.681817138671875,-0.6480328440666199,1.1094380617141724,1.4591991901397705
1686426576183762200,1.69176220703125,-0.6157371997833252,1.375844120979309,1.401175856590271
1686426576193707300,1.701707275390625,-0.5692418813705444,1.5042372941970825,1.3566832542419434
1686426576203652000,1.711652099609375,-0.5889372825622559,1.4675034284591675,1.2785780429840088
1686426576213597200,1.72159716796875,-0.6843218803405762,1.1116830110549927,1.1521804332733154
1686426576223542300,1.731542236328125,-0.789095401763916,0.5892254710197449,0.9292703866958618
1686426576233487000,1.741487060546875,-1.043127179145813,0.12595686316490173,0.6447076201438904
1686426576243431200,1.75143115234375,-1.4308831691741943,-0.2250533550977707,0.34331050515174866
1686426576253376300,1.761376220703125,-1.905525803565979,-0.7338468432426453,0.08757805079221725
1686426576263321000,1.771321044921875,-2.481085777282715,-1.276483178138733,-0.14837536215782166
1686426576273266200,1.78126611328125,-3.1331427097320557,-1.5844814777374268,-0.3397112190723419
1686426576283211300,1.791211181640625,-3.4357144832611084,-1.4730380773544312,-0.29122865200042725
1686426576293156000,1.801156005859375,-3.3509225845336914,-0.6922996640205383,-0.14340829849243164
1686426576303101200,1.81110107421875,-3.0671753883361816,0.2616518437862396,0.004780640359967947
1686426576313045200,1.821045166015625,-2.8052799701690674,0.8765422105789185,0.1499205231666565
1686426576322990000,1.830989990234375,-2.7614128589630127,0.8764590620994568,0.29188111424446106
1686426576332935200,1.84093505859375,-2.9877727031707764,0.5526248216629028,0.3172208368778229
1686426576342880000,1.8508798828125,-3.4833602905273438,-0.11786804348230362,0.3777954876422882
1686426576352825000,1.8608251953125,-4.113468170166016,-1.1727792024612427,0.5247894525527954
1686426576362770200,1.870770263671875,-4.643238067626953,-2.4297778606414795,0.5968575477600098
1686426576372715000,1.880715087890625,-5.092068195343018,-3.4986777305603027,0.5568480491638184
1686426576382659000,1.8906591796875,-5.5367045402526855,-4.433032035827637,0.43306034803390503
1686426576392604200,1.900604248046875,-5.767658233642578,-4.823358535766602,0.30476415157318115
1686426576402549000,1.910549072265625,-5.155150890350342,-3.6668877601623535,0.3550496995449066
1686426576412494000,1.920494140625,-4.251522064208984,-1.9843343496322632,0.3295459449291229
1686426576422439200,1.930439208984375,-3.807232141494751,-0.902070164680481,-0.05661347880959511
1686426576432384000,1.940384033203125,-3.650515556335449,-0.48524072766304016,-0.9100631475448608
1686426576442329000,1.9503291015625,-3.3109304904937744,-0.2741340696811676,-1.9338704347610474
1686426576452273200,1.960273193359375,-2.8449060916900635,-0.1851043403148651,-2.7120471000671387
1686426576462218000,1.970218017578125,-2.271354913711548,-0.27523744106292725,-3.0709681510925293
1686426576472163000,1.9801630859375,-1.7328156232833862,-0.34615927934646606,-3.1144864559173584
1686426576482108200,1.990108154296875,-1.2807862758636475,-0.44347837567329407,-2.8667147159576416
1686426576492053000,2.000052978515625,-0.7023203372955322,-0.8217601776123047,-2.309743881225586
1686426576501998000,2.009998046875,-0.0450577549636364,-1.216543197631836,-1.502799153327942
1686426576511943200,2.019943115234375,0.1508006900548935,-0.9618075489997864,-0.7823328375816345
1686426576521887000,2.029886962890625,0.04039749130606651,-0.547156035900116,-0.27441397309303284
1686426576531832000,2.03983203125,-0.15354189276695251,-0.1908399909734726,-0.029098497703671455
1686426576541777200,2.049777099609375,-0.2912430167198181,0.16495566070079803,0.018639730289578438
1686426576551722000,2.059721923828125,-0.3236449062824249,0.5026727318763733,-0.028316060081124306
1686426576561667000,2.0696669921875,-0.4033043086528778,0.6665231585502625,-0.08136622607707977
1686426576571612200,2.079612060546875,-0.3890417516231537,0.5777259469032288,-0.1137010008096695
1686426576581557000,2.089556884765625,-0.2787991464138031,0.42711111903190613,-0.19624966382980347
1686426576591501000,2.0995009765625,-0.14424052834510803,0.3197516202926636,-0.2972697615623474
1686426576601446100,2.109446044921875,0.009678193368017673,0.21955606341362,-0.363831490278244
1686426576611391000,2.119390869140625,0.13330373167991638,0.24259985983371735,-0.3579525351524353
1686426576621336000,2.129336181640625,0.14464692771434784,0.38713040947914124,-0.26460370421409607
1686426576631281200,2.13928125,0.0744747668504715,0.6904228925704956,-0.08190019428730011
1686426576641226000,2.14922607421875,-0.10507369041442871,1.0292528867721558,0.1402319371700287
1686426576651171000,2.159171142578125,-0.2564115524291992,1.3363984823226929,0.3878404200077057
1686426576661115100,2.169115234375,-0.413972944021225,1.489255428314209,0.6288767457008362
1686426576671060000,2.17906005859375,-0.6744900345802307,1.4675178527832031,0.8272106051445007
1686426576681005000,2.189005126953125,-0.9240961074829102,1.431069016456604,0.9616370797157288
1686426576690950100,2.1989501953125,-1.0753897428512573,1.376762866973877,1.0545138120651245
1686426576700895000,2.20889501953125,-1.1574069261550903,1.2860028743743896,1.09998619556427
1686426576710840000,2.218840087890625,-1.1576346158981323,1.1068947315216064,1.0527536869049072
1686426576720785200,2.22878515625,-1.1039372682571411,0.7727947235107422,0.9176517724990845
1686426576730729200,2.238729248046875,-1.0405519008636475,0.3735775947570801,0.6636062264442444
1686426576740674000,2.248674072265625,-0.999564528465271,0.013546435162425041,0.4842231273651123
1686426576750619100,2.258619140625,-0.9256300926208496,-0.22514177858829498,0.306047260761261
1686426576760564000,2.26856396484375,-0.7978798747062683,-0.3423674702644348,0.18100866675376892
1686426576770509000,2.278509033203125,-0.6621526479721069,-0.37011095881462097,0.10542576014995575
1686426576780454100,2.2884541015625,-0.5792236924171448,-0.2287980318069458,0.10352399200201035
1686426576790399000,2.29839892578125,-0.5297115445137024,0.04177434369921684,0.13025440275669098
1686426576800343000,2.308343017578125,-0.4794888496398926,0.24858877062797546,0.17296405136585236
1686426576810287900,2.318287841796875,-0.40273386240005493,0.3094902038574219,0.17074723541736603
1686426576820233200,2.328233154296875,-0.35535651445388794,0.32690462470054626,0.1194520965218544
1686426576830178000,2.338177978515625,-0.30321553349494934,0.2944987416267395,0.050519365817308426
1686426576840123100,2.348123046875,-0.2018692046403885,0.266181081533432,-0.015631157904863358
1686426576850068000,2.35806787109375,-0.07897710800170898,0.2605849802494049,-0.04123958200216293
1686426576860013000,2.368012939453125,0.08281765133142471,0.25888296961784363,-0.03772128000855446
1686426576869956900,2.377956787109375,0.323527991771698,0.24166534841060638,-0.05711282044649124
1686426576879902200,2.387902099609375,0.48881763219833374,0.15319354832172394,-0.12083400785923004
1686426576889847000,2.397846923828125,0.5634242296218872,0.05730403587222099,-0.19863426685333252
1686426576899792000,2.4077919921875,0.549705982208252,-0.10652431100606918,-0.2483280450105667
1686426576909737200,2.4177373046875,0.5350831151008606,-0.3427022099494934,-0.2460891306400299
1686426576919682000,2.42768212890625,0.4539310038089752,-0.36276620626449585,-0.22030360996723175
1686426576929627100,2.437627197265625,0.30897170305252075,-0.33470794558525085,-0.10257191210985184
1686426576939571200,2.4475712890625,0.16697460412979126,-0.28054696321487427,0.08011214435100555
1686426576949516000,2.45751611328125,0.039567649364471436,-0.1940525621175766,0.28982117772102356
1686426576959460900,2.4674609375,-0.08920018374919891,-0.20137998461723328,0.42667967081069946
1686426576969406200,2.47740625,-0.11841479688882828,-0.1660667359828949,0.41637325286865234
1686426576979351000,2.48735107421875,0.032096948474645615,-0.05079979822039604,0.2815379500389099
1686426576989295900,2.4972958984375,0.2397550642490387,0.0899815559387207,0.09687221795320511
1686426576999241200,2.5072412109375,0.4045030176639557,0.2426222264766693,-0.05896185338497162
1686426577009186000,2.51718603515625,0.5083196759223938,0.4074074625968933,-0.17088918387889862
1686426577019130000,2.527130126953125,0.5598976612091064,0.5250925421714783,-0.26137807965278625
1686426577029075200,2.5370751953125,0.5571836233139038,0.606326162815094,-0.3475494384765625
1686426577039020000,2.54702001953125,0.5342689752578735,0.6815969347953796,-0.4224841296672821
1686426577048964900,2.55696484375,0.5151512026786804,0.7887929081916809,-0.47127431631088257
1686426577058910200,2.56691015625,0.5249705910682678,0.9138381481170654,-0.5001616477966309
1686426577068855000,2.57685498046875,0.5576004385948181,0.9938378930091858,-0.5085071921348572
1686426577078800000,2.5867998046875,0.5875053405761719,1.0192159414291382,-0.45500266551971436
1686426577088744200,2.596744140625,0.6165931820869446,1.0462723970413208,-0.35754427313804626
1686426577098689000,2.60668896484375,0.6347018480300903,1.1737650632858276,-0.21545825898647308
1686426577108634000,2.616634033203125,0.5782100558280945,1.3798977136611938,-0.022895729169249535
1686426577118579200,2.6265791015625,0.5227939486503601,1.6187571287155151,0.15494483709335327
1686426577128524000,2.63652392578125,0.49284377694129944,1.9345017671585083,0.2984852194786072
1686426577138468900,2.64646875,0.4557448923587799,2.2401576042175293,0.39292412996292114
1686426577148414200,2.656414306640625,0.39665359258651733,2.4420313835144043,0.4294871985912323
1686426577158359000,2.666359130859375,0.33523499965667725,2.463376998901367,0.41107863187789917
1686426577168303000,2.67630322265625,0.2790486812591553,2.313519239425659,0.3161633014678955
1686426577178248200,2.686248291015625,0.22335292398929596,2.098296642303467,0.18765591084957123
1686426577188193000,2.696193115234375,0.1641220897436142,1.9752277135849,0.15471526980400085
1686426577198138000,2.70613818359375,0.1083560362458229,1.8211995363235474,0.19484777748584747
1686426577208083200,2.716083251953125,0.0756625384092331,1.4841312170028687,0.28277498483657837
1686426577218028000,2.726028076171875,0.054614242166280746,1.1915267705917358,0.4170251786708832
1686426577227972900,2.735972900390625,0.052197422832250595,1.0970407724380493,0.5578584671020508
1686426577237917200,2.745917236328125,0.04369048774242401,1.1811801195144653,0.6447033286094666
1686426577247862000,2.755862060546875,0.032886043190956116,1.3193942308425903,0.6559796929359436
1686426577257807000,2.76580712890625,0.03419099375605583,1.3541591167449951,0.6148146986961365
1686426577267752200,2.775752197265625,0.054909054189920425,1.2720791101455688,0.5670471787452698
1686426577277697000,2.785697021484375,0.03453081101179123,1.0819059610366821,0.5662152171134949
1686426577287642000,2.79564208984375,-0.052747368812561035,0.9054960608482361,0.6206744313240051
1686426577297587200,2.805587158203125,-0.1662539541721344,0.8271024823188782,0.7132326364517212
1686426577307532000,2.815531982421875,-0.2568083703517914,0.8733437061309814,0.7957962155342102
1686426577317476000,2.82547607421875,-0.26673662662506104,0.9251374006271362,0.8116201758384705
1686426577327420200,2.835420166015625,-0.24112366139888763,0.9276069402694702,0.7664021253585815
1686426577337365200,2.845365234375,-0.20551906526088715,0.9219362735748291,0.6891992092132568
1686426577347310300,2.855310302734375,-0.1627308577299118,0.9474334120750427,0.6011226177215576
1686426577357255200,2.865255126953125,-0.1233815923333168,0.9316824078559875,0.49919116497039795
1686426577367200300,2.8752001953125,-0.08045489341020584,0.8579815626144409,0.3969385623931885
1686426577377145300,2.885145263671875,-0.0320785753428936,0.7907732129096985,0.2928720712661743
1686426577387089200,2.895089111328125,-0.01016608439385891,0.7591210007667542,0.1846926212310791
1686426577397034200,2.9050341796875,0.016380837187170982,0.7518468499183655,0.06391479820013046
1686426577406979000,2.91497900390625,0.025970879942178726,0.6774804592132568,-0.043710462749004364
1686426577416924200,2.924924072265625,0.04080655053257942,0.5617802739143372,-0.07320257276296616
1686426577426869200,2.934869140625,0.030766701325774193,0.40722474455833435,-0.09677421301603317
1686426577436814300,2.944814453125,0.057853445410728455,0.3539796471595764,-0.16563796997070312
1686426577446759200,2.95475927734375,0.02478470839560032,0.39113739132881165,-0.17891941964626312
1686426577456704300,2.964704345703125,-0.011355185881257057,0.4554103910923004,-0.09004440158605576
1686426577466648000,2.97464794921875,-0.0329694002866745,0.4579015076160431,0.07342495024204254
1686426577476593200,2.98459326171875,-0.06947468221187592,0.29432058334350586,0.18755151331424713
1686426577486538200,2.994538330078125,-0.10794990509748459,0.04803943261504173,0.17548580467700958
1686426577496483000,3.004483154296875,-0.15013597905635834,-0.17722856998443604,0.09103403240442276
1686426577506428200,3.01442822265625,-0.1777433604001999,-0.3436204791069031,-0.013510748744010925
1686426577516373200,3.024373291015625,-0.19930803775787354,-0.4574538469314575,-0.08970858156681061
1686426577526318000,3.034318115234375,-0.2732935845851898,-0.5556198358535767,-0.09617234021425247
1686426577536263200,3.04426318359375,-0.27904602885246277,-0.5623131394386292,-0.024459537118673325
1686426577546207200,3.054207275390625,-0.22174784541130066,-0.41099604964256287,0.1257757693529129
1686426577556152000,3.064152099609375,-0.08828885108232498,-0.11019095033407211,0.3236720860004425
1686426577566097200,3.07409716796875,0.011052917689085007,0.17289401590824127,0.45410704612731934
1686426577576042200,3.084042236328125,0.050521764904260635,0.27092576026916504,0.37684714794158936
1686426577585987000,3.093987060546875,-0.014572285115718842,0.18908044695854187,0.1518678218126297
1686426577595932200,3.10393212890625,-0.2057848572731018,0.054903194308280945,-0.1328240931034088
1686426577605877200,3.113877197265625,-0.5181110501289368,-0.21617624163627625,-0.36627253890037537
1686426577615822000,3.123822021484375,-0.6602168083190918,-0.6573137044906616,-0.6063588857650757
1686426577625766400,3.133766357421875,-0.6892876029014587,-1.163804531097412,-0.9227467179298401
1686426577635711200,3.143711181640625,-0.7593410015106201,-1.438375473022461,-1.177685260772705
1686426577645656000,3.153656005859375,-0.8930351138114929,-1.3807456493377686,-1.2978771924972534
1686426577655601200,3.16360107421875,-0.8958128094673157,-1.285797119140625,-1.3954991102218628
1686426577665546200,3.173546142578125,-0.7372106313705444,-1.4478362798690796,-1.566819667816162
1686426577675491000,3.183490966796875,-0.5549545884132385,-1.5020228624343872,-1.6477552652359009
1686426577685436200,3.193436279296875,-0.4895406663417816,-1.2192894220352173,-1.4946177005767822
1686426577695381200,3.20338134765625,-0.49277055263519287,-0.7639999389648438,-1.2611896991729736
1686426577705325000,3.213324951171875,-0.5124387741088867,-0.3333641290664673,-1.071813702583313
1686426577715270400,3.2232705078125,-0.4004313051700592,0.006902380846440792,-0.98104327917099
1686426577725215200,3.23321533203125,-0.3923366367816925,0.25367167592048645,-0.9218028783798218
1686426577735160000,3.24316015625,-0.23085744678974152,0.33457106351852417,-0.9967932105064392
1686426577745105200,3.253105224609375,-0.24482493102550507,0.24036040902137756,-1.0760462284088135
1686426577755050200,3.26305029296875,-0.22722622752189636,0.2134568840265274,-1.1857678890228271
1686426577764995000,3.2729951171875,-0.09219144284725189,0.33167433738708496,-1.3672653436660767
1686426577774940200,3.282940185546875,-0.18640050292015076,0.6168245673179626,-1.4358166456222534
1686426577784884200,3.29288427734375,-0.28847014904022217,0.9355999231338501,-1.4146064519882202
1686426577794829000,3.3028291015625,-0.37909460067749023,1.1049857139587402,-1.3495206832885742
1686426577804774400,3.3127744140625,-0.4728860557079315,1.1811840534210205,-1.2659080028533936
1686426577814719200,3.32271923828125,-0.5182501077651978,1.2203030586242676,-1.1578015089035034
1686426577824664000,3.3326640625,-0.4900176525115967,1.2142773866653442,-1.050907015800476
1686426577834609200,3.342609130859375,-0.38462063670158386,1.1586148738861084,-0.961752712726593
1686426577844554200,3.35255419921875,-0.22340671718120575,1.0837619304656982,-0.8838869333267212
1686426577854499000,3.3624990234375,-0.05865425989031792,1.0561779737472534,-0.7824476361274719
1686426577864444200,3.372444091796875,0.08428878337144852,1.013313889503479,-0.6645644307136536
1686426577874388200,3.38238818359375,0.17634467780590057,0.9616456031799316,-0.5447897911071777
1686426577884333000,3.3923330078125,0.15354162454605103,0.9824289083480835,-0.42984485626220703
1686426577894278400,3.4022783203125,0.08700254559516907,1.012710690498352,-0.35700419545173645
1686426577904223200,3.41222314453125,0.004568119999021292,1.0830096006393433,-0.3190789222717285
1686426577914168000,3.42216796875,-0.07862317562103271,1.1870779991149902,-0.28760674595832825
1686426577924113200,3.432113037109375,-0.14344318211078644,1.2655876874923706,-0.29017165303230286
1686426577934058200,3.442058349609375,-0.19005835056304932,1.2723076343536377,-0.3538355827331543
1686426577944003000,3.452003173828125,-0.2902587354183197,1.245771884918213,-0.39256325364112854
1686426577953947400,3.461947509765625,-0.42250359058380127,1.3006609678268433,-0.34617552161216736
1686426577963892200,3.471892333984375,-0.5050663948059082,1.4821192026138306,-0.226224884390831
1686426577973837000,3.481837158203125,-0.5162441730499268,1.6607214212417603,-0.08857833594083786
1686426577983782400,3.491782470703125,-0.48465484380722046,1.7174744606018066,0.006629406940191984
1686426577993727200,3.501727294921875,-0.41585418581962585,1.6095002889633179,0.032938241958618164
1686426578003672000,3.511672119140625,-0.3634900748729706,1.498847246170044,-0.01161324605345726
1686426578013617200,3.5216171875,-0.3709796667098999,1.4150950908660889,-0.11255983263254166
1686426578023562200,3.531562255859375,-0.42525994777679443,1.4288828372955322,-0.2811051607131958
1686426578033506000,3.541506103515625,-0.511579155921936,1.4380865097045898,-0.5050903558731079
1686426578043451400,3.551451416015625,-0.6266878843307495,1.2672673463821411,-0.7049943804740906
1686426578053396200,3.561396240234375,-0.7469237446784973,0.8626031875610352,-0.8169635534286499
1686426578063341000,3.571341064453125,-0.8333734273910522,0.40446704626083374,-0.8509004712104797
1686426578073286400,3.581286376953125,-0.7846876382827759,0.10082514584064484,-0.804029107093811
1686426578083231200,3.591231201171875,-0.6422697901725769,0.01145878341048956,-0.6988374590873718
1686426578093176000,3.601176025390625,-0.4590349495410919,0.14564375579357147,-0.549109697341919
1686426578103121400,3.611121337890625,-0.305522084236145,0.5285913944244385,-0.3839702904224396
1686426578113065200,3.621065185546875,-0.1841762363910675,1.0103806257247925,-0.18212266266345978
1686426578123010000,3.631010009765625,-0.10801275074481964,1.3651368618011475,-0.011383947916328907
1686426578132955100,3.640955078125,-0.05817435681819916,1.5742483139038086,0.036192890256643295
1686426578142900200,3.650900146484375,0.003238936420530081,1.6930913925170898,-0.07417995482683182
1686426578152845000,3.660844970703125,0.062432751059532166,1.6843899488449097,-0.298533171415329
1686426578162790400,3.670790283203125,0.09955641627311707,1.5806663036346436,-0.5510287880897522
1686426578172735200,3.6807353515625,0.10537728667259216,1.4377381801605225,-0.7459551692008972
1686426578182680000,3.69068017578125,0.113505519926548,1.3220072984695435,-0.8269895315170288
1686426578192624000,3.7006240234375,0.08461741358041763,1.2050210237503052,-0.7494670748710632
1686426578202569200,3.7105693359375,0.013638047501444817,1.0553406476974487,-0.5163168907165527
1686426578212514000,3.72051416015625,-0.10130424797534943,0.9859618544578552,-0.24197401106357574
1686426578222459100,3.730459228515625,-0.2610209584236145,1.0998780727386475,-0.011512845754623413
1686426578232404200,3.740404296875,-0.39699262380599976,1.3463293313980103,0.1493183821439743
1686426578242349000,3.75034912109375,-0.4049008786678314,1.6089820861816406,0.21074073016643524
1686426578252294400,3.76029443359375,-0.2950926423072815,1.7738037109375,0.1306927651166916
1686426578262239200,3.7702392578125,-0.1420373022556305,1.8058900833129883,-0.06398937106132507
1686426578272184000,3.78018408203125,-0.017104685306549072,1.67844820022583,-0.30415430665016174
1686426578282128100,3.790128173828125,0.04685352370142937,1.4720956087112427,-0.5008846521377563
1686426578292073200,3.8000732421875,0.01709429919719696,1.2564789056777954,-0.6047452688217163
1686426578302018000,3.81001806640625,-0.03201891854405403,0.9667895436286926,-0.6106308698654175
1686426578311963100,3.819963134765625,-0.021198496222496033,0.590048611164093,-0.5070594549179077
1686426578321908200,3.829908203125,0.015895875170826912,0.12045717239379883,-0.2890544533729553
1686426578331853300,3.839853271484375,0.04848577827215195,-0.44985637068748474,-0.008882706984877586
1686426578341798400,3.84979833984375,-0.002272741636261344,-1.1874079704284668,0.3082267940044403
1686426578351743500,3.859743408203125,-0.11210576444864273,-1.6785489320755005,0.5215569138526917
1686426578361688300,3.869688232421875,-0.12356694787740707,-1.5390015840530396,0.4633764326572418
1686426578371632400,3.87963232421875,-0.06089850515127182,-0.9537554979324341,0.14884300529956818
1686426578381577500,3.889577392578125,0.0013190637109801173,-0.13861966133117676,-0.28131982684135437
1686426578391522300,3.899522216796875,0.05439480021595955,0.651231586933136,-0.578384280204773
1686426578401467400,3.90946728515625,0.13362383842468262,1.2338840961456299,-0.6026504635810852
1686426578411412500,3.91941259765625,0.23215466737747192,1.6088308095932007,-0.36608263850212097
1686426578421357300,3.929357421875,0.3107599914073944,1.7996760606765747,0.08416574448347092
1686426578431302400,3.939302490234375,0.35040274262428284,1.7952789068222046,0.6846629977226257
1686426578441247500,3.94924755859375,0.41789576411247253,1.7112377882003784,1.2958872318267822
1686426578451191600,3.959191650390625,0.536024272441864,1.7472895383834839,1.7182166576385498
1686426578461136400,3.969136474609375,0.6135116219520569,1.8739900588989258,1.8307759761810303
1686426578471081500,3.97908154296875,0.5042453408241272,1.9808831214904785,1.6255536079406738
1686426578481026300,3.9890263671875,0.2578533887863159,2.03310489654541,1.2515426874160767
1686426578490971400,3.998971435546875,0.04334188252687454,1.9585323333740234,0.930682361125946
1686426578500916500,4.00891650390625,-0.09482371062040329,1.723059892654419,0.723191499710083
1686426578510861300,4.018861328125,-0.20151233673095703,1.41194748878479,0.5950306057929993
1686426578520806400,4.028806396484375,-0.28378352522850037,1.0719125270843506,0.517941951751709
1686426578530751500,4.03875146484375,-0.28244447708129883,0.6866984963417053,0.4743651747703552
1686426578540695600,4.048695556640625,-0.2172612100839615,0.3337010145187378,0.4585324227809906
1686426578550640400,4.058640380859375,-0.14504560828208923,0.12768232822418213,0.45263805985450745
1686426578560585500,4.06858544921875,-0.06017811968922615,0.13363049924373627,0.4450605511665344
1686426578570530300,4.0785302734375,0.029941653832793236,0.34852734208106995,0.45476245880126953
1686426578580475400,4.088475341796875,0.1168866753578186,0.6618655920028687,0.4904903471469879
1686426578590420500,4.09842041015625,0.20474542677402496,0.9651128053665161,0.5124497413635254
1686426578600365300,4.108365234375,0.30135825276374817,1.1932733058929443,0.4988284409046173
1686426578610310400,4.118310302734375,0.4182571768760681,1.2638752460479736,0.4240466058254242
1686426578620254500,4.12825439453125,0.5701169967651367,1.1609901189804077,0.2741559147834778
1686426578630199600,4.138199462890625,0.67977374792099,0.9602336287498474,0.08960817754268646
1686426578640144400,4.148144287109375,0.7028475999832153,0.7016358971595764,-0.07220575213432312
1686426578650089500,4.15808935546875,0.7097060680389404,0.4672505557537079,-0.16634370386600494
1686426578660034300,4.168034423828125,0.7067995071411133,0.2869825065135956,-0.17572176456451416
1686426578669979400,4.1779794921875,0.6843317151069641,0.12753719091415405,-0.14792661368846893
1686426578679924500,4.187924560546875,0.6457904577255249,-0.016569921746850014,-0.12302445620298386
1686426578689869300,4.197869384765625,0.6099286079406738,-0.06992928683757782,-0.09231528639793396
1686426578699814400,4.207814453125,0.5820154547691345,-0.05633065104484558,-0.05865532532334328
1686426578709758200,4.21775830078125,0.5428252220153809,-0.0454777367413044,-0.03131291642785072
1686426578719703600,4.22770361328125,0.4848215579986572,-0.09855587035417557,-0.02207680605351925
1686426578729648400,4.2376484375,0.44895195960998535,-0.22317077219486237,-0.005820604972541332
1686426578739593500,4.247593505859375,0.42603811621665955,-0.4135921001434326,0.009098157286643982
1686426578749538300,4.257538330078125,0.4188041687011719,-0.6031431555747986,0.0200477447360754
1686426578759483400,4.2674833984375,0.40228167176246643,-0.7237148284912109,0.03665255382657051
1686426578769428500,4.277428466796875,0.36894872784614563,-0.6860774159431458,0.0721045508980751
1686426578779373300,4.287373291015625,0.3074052333831787,-0.5475611090660095,0.12637737393379211
1686426578789318400,4.297318359375,0.22123491764068604,-0.4649706184864044,0.1590474396944046
1686426578799262200,4.30726220703125,0.14949148893356323,-0.46749502420425415,0.175400048494339
1686426578809207600,4.31720751953125,0.11688720434904099,-0.5403889417648315,0.17009316384792328
1686426578819152400,4.32715234375,0.11743288487195969,-0.6197671294212341,0.15721598267555237
1686426578829097500,4.337097412109375,0.14070385694503784,-0.6583179831504822,0.14258164167404175
1686426578839042300,4.347042236328125,0.1910615712404251,-0.5589474439620972,0.16785691678524017
1686426578848987400,4.3569873046875,0.24195536971092224,-0.34489133954048157,0.2272683084011078
1686426578858932500,4.366932373046875,0.28849464654922485,-0.06427831947803497,0.30755993723869324
1686426578868877300,4.376877197265625,0.34115201234817505,0.20136773586273193,0.40970414876937866
1686426578878822400,4.386822509765625,0.35389310121536255,0.3589714765548706,0.5142207145690918
1686426578888766200,4.39676611328125,0.21042461693286896,0.33800601959228516,0.5408493876457214
1686426578898711600,4.406711669921875,-0.06827998906373978,0.25571033358573914,0.4309127628803253
1686426578908656400,4.416656494140625,-0.3274513781070709,0.37084490060806274,0.24177587032318115
1686426578918601500,4.4266015625,-0.4800363779067993,0.5870933532714844,0.14313505589962006
1686426578928546300,4.43654638671875,-0.5143658518791199,0.6290213465690613,0.14880625903606415
1686426578938491400,4.446491455078125,-0.4983040690422058,0.5240709781646729,0.1932898312807083
1686426578948436500,4.4564365234375,-0.4812332093715668,0.3748529553413391,0.22748854756355286
1686426578958381300,4.46638134765625,-0.4872695207595825,0.2251092791557312,0.23723651468753815
1686426578968325400,4.476325439453125,-0.5109149217605591,0.11039654910564423,0.2625032663345337
1686426578978270200,4.486270263671875,-0.5502839088439941,0.03169454634189606,0.3150641918182373
1686426578988215600,4.496215576171875,-0.6095206141471863,-0.028484905138611794,0.36955726146698
1686426578998160400,4.506160400390625,-0.6852625012397766,-0.10700953751802444,0.4046958088874817
1686426579008105500,4.51610546875,-0.8112334609031677,-0.2433607280254364,0.392526775598526
1686426579018050600,4.526050537109375,-0.9822052121162415,-0.39013633131980896,0.3485103249549866
1686426579027995400,4.535995361328125,-1.1462056636810303,-0.513988196849823,0.28567302227020264
1686426579037940500,4.5459404296875,-1.3086941242218018,-0.6155390739440918,0.17895829677581787
1686426579047885300,4.55588525390625,-1.4557690620422363,-0.6639111638069153,0.0318191833794117
1686426579057829400,4.565829345703125,-1.5635613203048706,-0.5658660531044006,-0.16047489643096924
1686426579067774200,4.575774169921875,-1.609946370124817,-0.3959505259990692,-0.40009361505508423
1686426579077719600,4.585719482421875,-1.5692421197891235,-0.24296258389949799,-0.6464216113090515
1686426579087664400,4.595664306640625,-1.4407448768615723,-0.20862777531147003,-0.8436809182167053
1686426579097609500,4.605609375,-1.2656837701797485,-0.3949614465236664,-0.9359330534934998
1686426579107554600,4.615554443359375,-1.0511499643325806,-0.655951738357544,-0.9165183305740356
1686426579117499400,4.62549951171875,-0.8356637358665466,-0.8245626091957092,-0.8113716840744019
1686426579127444500,4.635444580078125,-0.672376275062561,-0.8628162741661072,-0.6109395623207092
1686426579137389300,4.645389404296875,-0.5548784136772156,-0.778329610824585,-0.33389967679977417
1686426579147333400,4.65533349609375,-0.42340850830078125,-0.5723916292190552,-0.06172488257288933
1686426579157278200,4.6652783203125,-0.29052531719207764,-0.28889599442481995,0.16282859444618225
1686426579167223600,4.6752236328125,-0.1781012862920761,0.0828661173582077,0.29087844491004944
1686426579177168400,4.68516845703125,-0.07494348287582397,0.48711052536964417,0.34924399852752686
1686426579187113200,4.69511328125,0.002329733222723007,0.8413892388343811,0.3605709671974182
1686426579197058600,4.70505859375,0.06115070730447769,1.1059913635253906,0.33352789282798767
1686426579207003400,4.71500341796875,0.05638258159160614,1.2666372060775757,0.28560778498649597
1686426579216948500,4.724948486328125,0.020240290090441704,1.2603732347488403,0.1875866800546646
1686426579226893300,4.734893310546875,-0.06157601252198219,1.147503137588501,0.1141848936676979
1686426579236837400,4.74483740234375,-0.1899278610944748,0.9374366998672485,0.08124372363090515
1686426579246782200,4.7547822265625,-0.3810650706291199,0.6805822849273682,0.04060974344611168
1686426579256727600,4.7647275390625,-0.6100811958312988,0.306528776884079,-0.022058431059122086
1686426579266672400,4.77467236328125,-0.7847334146499634,-0.14912477135658264,-0.05059367045760155
1686426579276617200,4.7846171875,-0.8548834919929504,-0.4507288336753845,-0.007328220177441835
1686426579286562600,4.7945625,-0.8193356394767761,-0.4023383855819702,0.05055825039744377
1686426579296507400,4.80450732421875,-0.6724383234977722,-0.19491329789161682,0.03839825466275215
1686426579306452500,4.814452392578125,-0.4745979309082031,0.09266974776983261,-0.0403016172349453
1686426579316397300,4.824397216796875,-0.296443909406662,0.2960074245929718,-0.18563270568847656
1686426579326342400,4.83434228515625,-0.1782459020614624,0.35540977120399475,-0.3642493188381195
1686426579336287200,4.844287353515625,-0.07027895748615265,0.3301598131656647,-0.5134156346321106
1686426579346232000,4.854232177734375,0.05216653272509575,0.29092344641685486,-0.6280367374420166
1686426579356177400,4.864177490234375,0.20067451894283295,0.2835017442703247,-0.6790677309036255
1686426579366122200,4.874122314453125,0.3717072308063507,0.28443118929862976,-0.6729642748832703
1686426579376067000,4.884067138671875,0.5019643306732178,0.23569481074810028,-0.6308722496032715
1686426579386012400,4.894012451171875,0.5241274237632751,0.08797352761030197,-0.6184158325195312
1686426579395957200,4.903957275390625,0.4637247920036316,-0.1858191341161728,-0.6322360634803772
1686426579405902300,4.91390234375,0.3562451899051666,-0.4568024277687073,-0.5419761538505554
1686426579415846400,4.923846435546875,0.16704358160495758,-0.5443956851959229,-0.21389684081077576
1686426579425791200,4.933791259765625,-0.038892537355422974,-0.23987384140491486,0.2999350428581238
1686426579435736000,4.943736083984375,-0.18579889833927155,0.18897657096385956,0.754793643951416
1686426579445681400,4.953681396484375,-0.19563688337802887,0.31740617752075195,0.9139620065689087
1686426579455626200,4.963626220703125,-0.07049094140529633,0.17500217258930206,0.7350979447364807
1686426579465571000,4.973571044921875,0.09042390435934067,0.008058193139731884,0.42780619859695435
1686426579475516400,4.983516357421875,0.23084333539009094,-0.058639079332351685,0.17297443747520447
1686426579485461200,4.993461181640625,0.32928627729415894,-0.024094684049487114,0.0014567491598427296
1686426579495405300,5.0034052734375,0.38265231251716614,0.057429470121860504,-0.08476655185222626
1686426579505350400,5.013350341796875,0.4052361845970154,0.1728689819574356,-0.11263679713010788
1686426579515295200,5.023295166015625,0.40539491176605225,0.2916792631149292,-0.07886259257793427
1686426579525240000,5.033239990234375,0.3826238214969635,0.42613720893859863,-0.0018578211311250925
1686426579535185400,5.043185302734375,0.31959477066993713,0.5652298331260681,0.1016017273068428
1686426579545130200,5.053130126953125,0.1841418743133545,0.711540699005127,0.21136043965816498
1686426579555075000,5.063074951171875,0.02117133140563965,0.869411051273346,0.291770339012146
1686426579565020400,5.0730205078125,-0.1364433318376541,1.0199832916259766,0.3289200961589813
1686426579574965200,5.08296533203125,-0.25534868240356445,1.110451102256775,0.3293240964412689
1686426579584910300,5.092910400390625,-0.32107123732566833,1.1333494186401367,0.2719244658946991
1686426579594854400,5.1028544921875,-0.2976173162460327,1.0504779815673828,0.21012793481349945
1686426579604799200,5.11279931640625,-0.20106306672096252,1.0008846521377563,0.17825256288051605
1686426579614744000,5.122744140625,-0.08429144322872162,1.043805718421936,0.12282498925924301
1686426579624689400,5.132689453125,-0.025178324431180954,1.0298845767974854,0.05991073697805405
1686426579634634200,5.14263427734375,-0.025901105254888535,0.9977096319198608,0.02636422961950302
1686426579644579000,5.1525791015625,0.0013273194199427962,1.0035320520401,0.029626602306962013
1686426579654524400,5.1625244140625,0.07491472363471985,1.0066218376159668,0.09282421320676804
1686426579664469200,5.17246923828125,0.16840685904026031,1.0166831016540527,0.2354133129119873
1686426579674414000,5.1824140625,0.2314995378255844,1.0371211767196655,0.4041629135608673
1686426579684358400,5.1923583984375,0.26935744285583496,1.0722078084945679,0.5507768392562866
1686426579694303200,5.20230322265625,0.3018341660499573,1.1014219522476196,0.6357975006103516
1686426579704248000,5.212248046875,0.329054594039917,1.1302112340927124,0.6655178070068359
1686426579714193400,5.222193359375,0.33545470237731934,1.1710877418518066,0.6621092557907104
1686426579724138200,5.23213818359375,0.32022833824157715,1.1977524757385254,0.6470887660980225
1686426579734083000,5.2420830078125,0.29777470231056213,1.1845107078552246,0.6202800273895264
1686426579744028400,5.2520283203125,0.2692996561527252,1.126956820487976,0.6090990304946899
1686426579753973200,5.26197314453125,0.24637489020824432,1.0174018144607544,0.6000035405158997
1686426579763918000,5.27191796875,0.24498125910758972,0.8881927132606506,0.5749663710594177
1686426579773862400,5.2818623046875,0.30753543972969055,0.7218924164772034,0.5059486627578735
1686426579783807200,5.29180712890625,0.3808176517486572,0.5963965654373169,0.42004522681236267
1686426579793752300,5.30175244140625,0.4448520243167877,0.5640681385993958,0.36713406443595886
1686426579803697400,5.311697509765625,0.48794278502464294,0.5299165844917297,0.31996041536331177
1686426579813642200,5.321642333984375,0.5013256669044495,0.5253159999847412,0.29199618101119995
1686426579823587000,5.331587158203125,0.48806047439575195,0.5629573464393616,0.2860277593135834
1686426579833532400,5.341532470703125,0.4544023871421814,0.6064020395278931,0.29561859369277954
1686426579843477200,5.351477294921875,0.44523951411247253,0.5950460433959961,0.29326677322387695
1686426579853422000,5.361422119140625,0.46661698818206787,0.49359560012817383,0.2457091063261032
1686426579863366400,5.371366455078125,0.49425047636032104,0.30274656414985657,0.1720878779888153
1686426579873311200,5.381311279296875,0.48071014881134033,0.09158371388912201,0.051791027188301086
1686426579883256300,5.39125634765625,0.3920689821243286,-0.08896183222532272,-0.0836176648736
1686426579893201400,5.401201416015625,0.24209599196910858,-0.21436582505702972,-0.19887422025203705
1686426579903146200,5.411146240234375,0.08369516581296921,-0.26875290274620056,-0.2538706362247467
1686426579913091000,5.421091064453125,-0.03235527500510216,-0.24011459946632385,-0.2452925741672516
1686426579923036400,5.431036376953125,-0.06809835880994797,-0.14792874455451965,-0.1700659990310669
1686426579932981200,5.440981201171875,-0.06593640893697739,-0.0331004299223423,-0.08434896916151047
1686426579942926000,5.450926025390625,-0.10960399359464645,0.0006356965750455856,-0.05136944726109505
1686426579952870400,5.460870361328125,-0.17247909307479858,0.023958329111337662,-0.04821280390024185
1686426579962815200,5.470815185546875,-0.23954254388809204,0.06120903044939041,-0.09687887877225876
1686426579972760300,5.48076025390625,-0.28597182035446167,0.1594700813293457,-0.18935900926589966
1686426579982705400,5.490705322265625,-0.30195531249046326,0.24175749719142914,-0.319787859916687
1686426579992650200,5.500650146484375,-0.3124082386493683,0.24370773136615753,-0.46941331028938293
1686426580002595000,5.510594970703125,-0.3093908727169037,0.1332981288433075,-0.5922742486000061
1686426580012540400,5.52054052734375,-0.3003494441509247,-0.0659308135509491,-0.6527064442634583
1686426580022485200,5.5304853515625,-0.29650092124938965,-0.2781977951526642,-0.6546247005462646
1686426580032430000,5.54043017578125,-0.3120225965976715,-0.4730924665927887,-0.6267166137695312
1686426580042375400,5.55037548828125,-0.32840025424957275,-0.6182863712310791,-0.5992652773857117
1686426580052319200,5.5603193359375,-0.34643039107322693,-0.7043975591659546,-0.563139796257019
1686426580062264300,5.570264404296875,-0.3502695858478546,-0.7706618309020996,-0.521909236907959
1686426580072209400,5.58020947265625,-0.37411126494407654,-0.8460455536842346,-0.4821922183036804
1686426580082154200,5.590154296875,-0.4249398410320282,-0.9100447297096252,-0.4363996982574463
1686426580092099000,5.60009912109375,-0.49205681681632996,-0.9629426002502441,-0.3835274279117584
1686426580102044400,5.61004443359375,-0.5778052806854248,-0.9653663039207458,-0.34103134274482727
1686426580111989200,5.6199892578125,-0.6787992715835571,-0.8607789278030396,-0.32805269956588745
1686426580121934000,5.62993408203125,-0.7624302506446838,-0.6218613982200623,-0.4091174602508545
1686426580131879400,5.63987939453125,-0.7918874621391296,-0.3181785047054291,-0.5638998746871948
1686426580141823200,5.6498232421875,-0.7506164908409119,-0.27800846099853516,-0.6756657958030701
1686426580151768300,5.659768310546875,-0.7275433540344238,-0.5967033505439758,-0.7295159697532654
1686426580161713400,5.66971337890625,-0.7272672057151794,-0.980219304561615,-0.7308222651481628
1686426580171658200,5.679658203125,-0.7340867519378662,-1.1957955360412598,-0.6672821640968323
1686426580181603000,5.68960302734375,-0.7007370591163635,-1.248080849647522,-0.5377116799354553
1686426580191548400,5.69954833984375,-0.6318954229354858,-1.1706111431121826,-0.38349467515945435
1686426580201493200,5.7094931640625,-0.56135493516922,-0.9713318347930908,-0.25416409969329834
1686426580211438000,5.71943798828125,-0.4966135025024414,-0.6374169588088989,-0.17274168133735657
1686426580221383400,5.729383544921875,-0.46053725481033325,-0.2441847026348114,-0.12212883681058884
1686426580231328300,5.739328369140625,-0.44584566354751587,0.10508833825588226,-0.07368434220552444
1686426580241272300,5.749272216796875,-0.4217997193336487,0.43494534492492676,-0.01588468998670578
1686426580251217400,5.759217529296875,-0.35918959975242615,0.7174865007400513,0.03555905818939209
1686426580261162200,5.769162353515625,-0.26740559935569763,0.9422197341918945,0.09753374755382538
1686426580271107000,5.779107177734375,-0.13597887754440308,1.145796775817871,0.1529219001531601
1686426580281052400,5.789052490234375,-0.019267171621322632,1.267511010169983,0.13581082224845886
1686426580290997200,5.798997314453125,0.020626714453101158,1.201839566230774,0.001961151836439967
1686426580300942000,5.808942138671875,0.006705040577799082,0.9430237412452698,-0.22590556740760803
1686426580310887400,5.818887451171875,-0.05818980187177658,0.5794998407363892,-0.4241688549518585
1686426580320832300,5.828832275390625,-0.181747168302536,0.18435093760490417,-0.46492239832878113
1686426580330776000,5.838776123046875,-0.3391474485397339,-0.18642553687095642,-0.32405608892440796
1686426580340721000,5.848720947265625,-0.5073044896125793,-0.4310890734195709,-0.0504772886633873
1686426580350665700,5.858665771484375,-0.6308543682098389,-0.43177512288093567,0.23801389336585999
1686426580360611000,5.868611083984375,-0.6386356353759766,-0.2705569267272949,0.4727124273777008
1686426580370556000,5.878555908203125,-0.5847028493881226,-0.1568189114332199,0.5564294457435608
1686426580380500700,5.888500732421875,-0.4790227711200714,-0.15532541275024414,0.4494984447956085
1686426580390445800,5.89844580078125,-0.33705711364746094,-0.22173026204109192,0.22942572832107544
1686426580400391000,5.908390869140625,-0.1879909485578537,-0.22586162388324738,-0.010943993926048279
1686426580410336000,5.9183359375,-0.039745546877384186,-0.17241810262203217,-0.18289151787757874
1686426580420280800,5.92828076171875,0.09939450025558472,-0.10647397488355637,-0.2793954312801361
1686426580430225000,5.938224853515625,0.23748712241649628,-0.018702048808336258,-0.33915382623672485
1686426580440169700,5.948169677734375,0.40522870421409607,0.01804691180586815,-0.3455049395561218
1686426580450115000,5.958114990234375,0.5997323989868164,-0.017679661512374878,-0.34206119179725647
1686426580460060000,5.968059814453125,0.7301857471466064,-0.14098428189754486,-0.3672243356704712
1686426580470004700,5.978004638671875,0.7205576300621033,-0.3401367962360382,-0.3952418565750122
1686426580479949800,5.98794970703125,0.6066550612449646,-0.6111600399017334,-0.38898956775665283
1686426580489895000,5.99789501953125,0.40802982449531555,-0.8088411688804626,-0.33588239550590515
1686426580499839700,6.00783984375,0.2497408539056778,-0.8922052979469299,-0.14925579726696014
1686426580509784800,6.017784912109375,0.1175529956817627,-0.8521468043327332,0.12806129455566406
1686426580519729000,6.02772900390625,-0.06290413439273834,-0.6264023780822754,0.43769371509552
1686426580529673700,6.037673828125,-0.15704022347927094,-0.32676559686660767,0.6730918288230896
1686426580539619000,6.047619140625,-0.06918759644031525,-0.22580383718013763,0.6967953443527222
1686426580549564000,6.05756396484375,0.12113761156797409,-0.2842780649662018,0.564039945602417
1686426580559508700,6.0675087890625,0.2887050211429596,-0.3732265830039978,0.43318524956703186
1686426580569454000,6.0774541015625,0.4011428952217102,-0.4135766625404358,0.32072874903678894
1686426580579399000,6.08739892578125,0.45885705947875977,-0.38841113448143005,0.2149466574192047
1686426580589343700,6.09734375,0.4972659647464752,-0.3367026448249817,0.11698148399591446
1686426580599288800,6.107288818359375,0.5113303661346436,-0.28041303157806396,0.05016037076711655
1686426580609234000,6.11723388671875,0.5139384269714355,-0.258672297000885,0.0007792409160174429
1686426580619177700,6.127177734375,0.5068392157554626,-0.302081823348999,-0.03398752957582474
1686426580629123000,6.137123046875,0.48344311118125916,-0.34178078174591064,-0.03614495322108269
1686426580639068000,6.14706787109375,0.4367285966873169,-0.33812159299850464,0.0001656486128922552
1686426580649012700,6.1570126953125,0.3592369854450226,-0.2828817665576935,0.07601433992385864
1686426580658958000,6.1669580078125,0.27303341031074524,-0.1574157178401947,0.173663929104805
1686426580668903000,6.17690283203125,0.22137020528316498,0.03189614787697792,0.27863481640815735
1686426580678847700,6.18684765625,0.22588878870010376,0.24422332644462585,0.3899829089641571
1686426580688792800,6.196792724609375,0.2879345715045929,0.45837607979774475,0.44822973012924194
1686426580698738000,6.206738037109375,0.34557417035102844,0.698914647102356,0.4514042139053345
1686426580708683000,6.21668310546875,0.378739595413208,0.9935992956161499,0.40072211623191833
1686426580718627000,6.226626953125,0.39731886982917786,1.2550495862960815,0.3076675534248352
1686426580728572000,6.236572021484375,0.40100201964378357,1.3922779560089111,0.2133394479751587
1686426580738516700,6.246516845703125,0.36829519271850586,1.368008017539978,0.12749165296554565
1686426580748462000,6.256462158203125,0.30829498171806335,1.2435252666473389,0.0921698734164238
1686426580758407000,6.266406982421875,0.2382865995168686,1.0726733207702637,0.10137562453746796
1686426580768351700,6.276351806640625,0.18888044357299805,0.8889948725700378,0.16296547651290894
1686426580778296800,6.286296875,0.17327430844306946,0.7417702674865723,0.24471308290958405
1686426580788242000,6.296241943359375,0.18350431323051453,0.6931082010269165,0.36058056354522705
1686426580798187000,6.30618701171875,0.1739925742149353,0.7135365009307861,0.48792973160743713
1686426580808131800,6.3161318359375,0.14764244854450226,0.7655525207519531,0.5880914926528931
1686426580818076000,6.326075927734375,0.13752776384353638,0.7978750467300415,0.6422519087791443
1686426580828020700,6.336020751953125,0.15576936304569244,0.8136295080184937,0.6354084014892578
1686426580837966000,6.345966064453125,0.1932341754436493,0.8455603122711182,0.5807400941848755
1686426580847911000,6.355910888671875,0.217110738158226,0.889353334903717,0.49843350052833557
1686426580857855700,6.365855712890625,0.22696177661418915,0.9285065531730652,0.4282866418361664
1686426580867800800,6.37580078125,0.24049915373325348,0.9117326736450195,0.38600149750709534
1686426580877746000,6.385745849609375,0.265653520822525,0.8455142378807068,0.3798147141933441
1686426580887690800,6.395690673828125,0.30221259593963623,0.7619351744651794,0.40563273429870605
1686426580897635800,6.4056357421875,0.357446551322937,0.6833796501159668,0.44283628463745117
1686426580907581000,6.415580810546875,0.39150598645210266,0.6439228057861328,0.48323988914489746
1686426580917524700,6.425524658203125,0.4169093370437622,0.6093555092811584,0.5002995729446411
1686426580927470000,6.435469970703125,0.4252426326274872,0.5605109930038452,0.45842137932777405
1686426580937415000,6.445414794921875,0.4302789568901062,0.5111405253410339,0.3994342088699341
1686426580947359700,6.45535986328125,0.4203389585018158,0.43852490186691284,0.33071720600128174
1686426580957304800,6.465304931640625,0.38811737298965454,0.35179638862609863,0.2605876326560974
1686426580967250000,6.47525,0.3687537908554077,0.2880248725414276,0.19983720779418945
1686426580977194800,6.48519482421875,0.3462167978286743,0.29182732105255127,0.15322071313858032
1686426580987139800,6.495139892578125,0.3258177936077118,0.33124104142189026,0.1379980891942978
1686426580997085000,6.5050849609375,0.31032511591911316,0.3540611267089844,0.13431227207183838
1686426581007030000,6.515030029296875,0.31475502252578735,0.3589720129966736,0.1514025777578354
1686426581016974800,6.524974853515625,0.3043433725833893,0.2996644675731659,0.15253867208957672
1686426581026919000,6.5349189453125,0.24526195228099823,0.14417341351509094,0.09269371628761292
1686426581036863700,6.54486376953125,0.1621026247739792,-0.004125502891838551,0.019053585827350616
1686426581046808800,6.554808837890625,0.08758417516946793,-0.029562951996922493,0.004992628004401922
1686426581056754000,6.56475390625,0.02550589293241501,0.0772111639380455,0.06704747676849365
1686426581066698800,6.57469873046875,-0.00433109886944294,0.21587955951690674,0.14662006497383118
1686426581076643800,6.584643798828125,-0.05753067135810852,0.2686801850795746,0.1649300903081894
1686426581086589000,6.5945888671875,-0.1265755146741867,0.24480602145195007,0.1479812115430832
1686426581096534000,6.604533935546875,-0.18642526865005493,0.26466628909111023,0.19753757119178772
1686426581106478800,6.614478759765625,-0.32267525792121887,0.22451113164424896,0.25369992852211
1686426581116424000,6.624423828125,-0.43890732526779175,0.14916391670703888,0.22293587028980255
1686426581126369000,6.634369140625,-0.4934038519859314,0.0863383486866951,0.10153114795684814
1686426581136313000,6.64431298828125,-0.4892120361328125,-0.05843614414334297,-0.0833422914147377
1686426581146258000,6.6542578125,-0.4762541651725769,-0.2542503774166107,-0.2560000717639923
1686426581156202800,6.66420263671875,-0.4718780517578125,-0.42908504605293274,-0.38674479722976685
1686426581166147800,6.67414794921875,-0.44388529658317566,-0.5790814757347107,-0.469938725233078
1686426581176093000,6.684093017578125,-0.41642916202545166,-0.6963817477226257,-0.5192636847496033
1686426581186038000,6.6940380859375,-0.42299121618270874,-0.7598384618759155,-0.5450462698936462
1686426581195982800,6.70398291015625,-0.44805341958999634,-0.7553643584251404,-0.5513135194778442
1686426581205928000,6.713927978515625,-0.4730442464351654,-0.7258959412574768,-0.5383223295211792
1686426581215873000,6.723873046875,-0.4444988965988159,-0.6999077796936035,-0.506881058216095
1686426581225817900,6.73381787109375,-0.38967132568359375,-0.6862806081771851,-0.4503194987773895
1686426581235762000,6.743761962890625,-0.34007155895233154,-0.6948248744010925,-0.38854721188545227
1686426581245706800,6.753706787109375,-0.318294882774353,-0.7757726907730103,-0.3334307074546814
1686426581255651800,6.76365185546875,-0.3492725193500519,-0.9420002698898315,-0.29603058099746704
1686426581265597000,6.773596923828125,-0.42590177059173584,-1.1243066787719727,-0.29383376240730286
1686426581275541800,6.783541748046875,-0.5144580006599426,-1.2170915603637695,-0.35556554794311523
1686426581285486800,6.79348681640625,-0.6173308491706848,-1.1314125061035156,-0.49507153034210205
1686426581295432000,6.803431884765625,-0.7011234760284424,-1.014151930809021,-0.6482592225074768
1686426581305377000,6.813376953125,-0.7573984861373901,-1.1454447507858276,-0.699730396270752
1686426581315321900,6.82332177734375,-0.7777961492538452,-1.4980450868606567,-0.6550419926643372
1686426581325267000,6.833266845703125,-0.7659469842910767,-1.7351956367492676,-0.5982535481452942
1686426581335211000,6.8432109375,-0.7394437193870544,-1.7616817951202393,-0.5597471594810486
1686426581345155300,6.8531552734375,-0.6970605850219727,-1.6232075691223145,-0.5069130063056946
1686426581355100200,6.86310009765625,-0.6375125646591187,-1.4425803422927856,-0.4291881024837494
1686426581365045000,6.873044921875,-0.5748643279075623,-1.2431221008300781,-0.3107253909111023
1686426581374990300,6.882990234375,-0.5187329053878784,-1.0487232208251953,-0.1546018272638321
1686426581384935200,6.89293505859375,-0.47806137800216675,-0.9117031097412109,0.03014352172613144
1686426581394880000,6.9028798828125,-0.419614315032959,-0.7646260261535645,0.20659445226192474
1686426581404825000,6.9128251953125,-0.32270267605781555,-0.5176186561584473,0.3241825997829437
1686426581414770200,6.922770263671875,-0.1808488816022873,-0.22848936915397644,0.39788132905960083
1686426581424715000,6.932715087890625,0.03804139047861099,0.039388950914144516,0.47653645277023315
1686426581434660000,6.94266015625,0.2402661293745041,0.2913660705089569,0.5122984647750854
1686426581444605200,6.952605224609375,0.3295893371105194,0.44849228858947754,0.46104246377944946
1686426581454549000,6.962549072265625,0.36444374918937683,0.44559958577156067,0.27309703826904297
1686426581464494300,6.972494384765625,0.37427398562431335,0.36336275935173035,0.003176884725689888
1686426581474439200,6.982439208984375,0.29978299140930176,0.17721952497959137,-0.25775855779647827
1686426581484384000,6.992384033203125,0.12519094347953796,-0.08236491680145264,-0.4214279353618622
1686426581494329000,7.0023291015625,-0.10875124484300613,-0.3139568567276001,-0.44610798358917236
1686426581504274200,7.012274169921875,-0.3323212265968323,-0.46441322565078735,-0.27618205547332764
1686426581514219000,7.022218994140625,-0.46991822123527527,-0.4845712184906006,0.00561154680326581
1686426581524164000,7.0321640625,-0.5145916938781738,-0.35927215218544006,0.2626793086528778
1686426581534109200,7.042109130859375,-0.4746597111225128,-0.3169076442718506,0.42086732387542725
1686426581544054300,7.05205419921875,-0.3586180806159973,-0.4252634048461914,0.44591596722602844
1686426581553999000,7.0619990234375,-0.24406751990318298,-0.49552690982818604,0.33164823055267334
1686426581563944200,7.071944091796875,-0.11432018131017685,-0.4461705684661865,0.1705341935157776
1686426581573888000,7.081887939453125,0.02610989660024643,-0.34752121567726135,0.024042485281825066
1686426581583833300,7.091833251953125,0.17878200113773346,-0.25310468673706055,-0.11378275603055954
1686426581593778200,7.101778076171875,0.32503560185432434,-0.1893952339887619,-0.21285846829414368
1686426581603723000,7.111722900390625,0.4558732509613037,-0.13352051377296448,-0.2901220917701721
1686426581613668000,7.121668212890625,0.5661147832870483,-0.14412468671798706,-0.3532957434654236
1686426581623613200,7.13161328125,0.6052749752998352,-0.18541140854358673,-0.3894502818584442
1686426581633558000,7.14155810546875,0.562841534614563,-0.33149537444114685,-0.4290626645088196
1686426581643503000,7.151503173828125,0.4465857446193695,-0.5198889970779419,-0.4006483554840088
1686426581653448200,7.1614482421875,0.3512515127658844,-0.6009162068367004,-0.24560922384262085
1686426581663393300,7.171393310546875,0.2390192449092865,-0.5320532321929932,0.01392566878348589
1686426581673338000,7.181338134765625,0.07421271502971649,-0.3480897843837738,0.3586311340332031
1686426581683283200,7.191283203125,-0.04807351902127266,-0.17064045369625092,0.5852048993110657
1686426581693227000,7.20122705078125,-0.009341835975646973,-0.10452640801668167,0.5805763006210327
1686426581703172000,7.211172119140625,0.1229671984910965,-0.12802107632160187,0.45976945757865906
1686426581713117200,7.2211171875,0.22375905513763428,-0.18456505239009857,0.3267240524291992
1686426581723062000,7.23106201171875,0.29982081055641174,-0.22856447100639343,0.20129716396331787
1686426581733007000,7.241007080078125,0.3611353039741516,-0.17429164052009583,0.09359093755483627
1686426581742952200,7.2509521484375,0.4076750874519348,-0.0270135086029768,0.021163076162338257
1686426581752897300,7.260897216796875,0.43113088607788086,0.10934779793024063,0.009798568673431873
1686426581762842000,7.270842041015625,0.4255443811416626,0.20707541704177856,0.03906884044408798
1686426581772787200,7.280787109375,0.39401522278785706,0.2579362094402313,0.08556923270225525
1686426581782732300,7.290732177734375,0.3449685871601105,0.2748643159866333,0.13787317276000977
1686426581792677000,7.300677001953125,0.27135854959487915,0.2713731825351715,0.18677201867103577
1686426581802622000,7.3106220703125,0.18953637778759003,0.3059641718864441,0.21963222324848175
1686426581812566000,7.32056591796875,0.11991042643785477,0.41814425587654114,0.2329413741827011
1686426581822511000,7.330510986328125,0.09638805687427521,0.6158748865127563,0.21497568488121033
1686426581832456200,7.340456298828125,0.13828197121620178,0.835710883140564,0.16003067791461945
1686426581842401300,7.3504013671875,0.2197083979845047,1.0100802183151245,0.05475432425737381
1686426581852346000,7.36034619140625,0.29620370268821716,1.1446497440338135,-0.06861981004476547
1686426581862291200,7.370291259765625,0.3400566279888153,1.2684040069580078,-0.1659570187330246
1686426581872236300,7.380236328125,0.36146366596221924,1.3793333768844604,-0.202000230550766
1686426581882181000,7.39018115234375,0.3673708140850067,1.4111450910568237,-0.17281252145767212
1686426581892126200,7.400126220703125,0.3415125906467438,1.3292728662490845,-0.08875463902950287
1686426581902071300,7.4100712890625,0.28752127289772034,1.186883568763733,0.006999319884926081
1686426581912016100,7.42001611328125,0.23685701191425323,1.083118200302124,0.10274768620729446
1686426581921961000,7.4299609375,0.21381081640720367,1.0277884006500244,0.19925345480442047
1686426581931905300,7.4399052734375,0.22401019930839539,0.9789329767227173,0.3023870289325714
1686426581941850000,7.44985009765625,0.22158804535865784,0.9396247267723083,0.43061262369155884
1686426581951795200,7.459795166015625,0.217333123087883,0.9391224980354309,0.5610633492469788
1686426581961740300,7.469740234375,0.21406328678131104,0.969759464263916,0.6663119792938232
1686426581971685000,7.47968505859375,0.20605675876140594,0.9983093738555908,0.7015634179115295
1686426581981630200,7.489630126953125,0.18139083683490753,1.0215121507644653,0.6595965623855591
1686426581991575300,7.4995751953125,0.17151716351509094,1.030125617980957,0.5822138786315918
1686426582001520000,7.50952001953125,0.17545117437839508,0.9575928449630737,0.4769580364227295
1686426582011465000,7.51946484375,0.17255179584026337,0.8396150469779968,0.37590330839157104
1686426582021410300,7.529410400390625,0.1704188734292984,0.675076425075531,0.31368735432624817
1686426582031355100,7.539355224609375,0.18179988861083984,0.5439831614494324,0.28921210765838623
1686426582041300000,7.549300048828125,0.23727913200855255,0.4554130733013153,0.306868314743042
1686426582051245300,7.559245361328125,0.29882025718688965,0.41475537419319153,0.34783467650413513
1686426582061190100,7.569190185546875,0.35043391585350037,0.37572407722473145,0.3920162320137024
1686426582071134200,7.57913427734375,0.37019509077072144,0.32299643754959106,0.4166102707386017
1686426582081079300,7.589079345703125,0.36497610807418823,0.2694426476955414,0.4116400182247162
1686426582091024100,7.599024169921875,0.35769128799438477,0.22896075248718262,0.3686371445655823
1686426582100969000,7.608968994140625,0.3613148033618927,0.23010483384132385,0.30464431643486023
1686426582110914300,7.618914306640625,0.36209189891815186,0.233492910861969,0.24026958644390106
1686426582120859100,7.628859130859375,0.3618282377719879,0.20915988087654114,0.22055473923683167
1686426582130804000,7.638803955078125,0.35954752564430237,0.17986643314361572,0.20759500563144684
1686426582140749300,7.648749267578125,0.3470229506492615,0.14679689705371857,0.19588854908943176
1686426582150694100,7.658694091796875,0.31882885098457336,0.07458821684122086,0.17807599902153015
1686426582160639000,7.668638916015625,0.2550855576992035,-0.09169689565896988,0.12029498815536499
1686426582170584300,7.678584228515625,0.14902862906455994,-0.34055837988853455,0.005209941882640123
1686426582180529200,7.688529052734375,0.06503812223672867,-0.5523992776870728,-0.1327417939901352
1686426582190473000,7.698472900390625,0.06518007069826126,-0.5754329562187195,-0.2063121646642685
1686426582200418300,7.708418212890625,0.07881572097539902,-0.3797747492790222,-0.1746746003627777
1686426582210363100,7.718363037109375,0.030964041128754616,-0.02226216159760952,-0.08853226155042648
1686426582220308000,7.728307861328125,-0.018612565472722054,0.29550114274024963,-0.013312609866261482
1686426582230253300,7.73825341796875,-0.010931210592389107,0.22593966126441956,0.009729326702654362
1686426582240198100,7.7481982421875,-0.025682194158434868,-0.16012442111968994,-0.04605484381318092
1686426582250143000,7.75814306640625,-0.08474205434322357,-0.3459598124027252,-0.14500485360622406
1686426582260088300,7.76808837890625,-0.1416141241788864,-0.16817036271095276,-0.2367592751979828
1686426582270033200,7.778033203125,-0.19246159493923187,0.04073065146803856,-0.3462980389595032
1686426582279978000,7.78797802734375,-0.23504367470741272,0.05679696798324585,-0.49521002173423767
1686426582289923000,7.797923095703125,-0.2541254758834839,-0.13020780682563782,-0.6317949891090393
1686426582299868200,7.8078681640625,-0.24610377848148346,-0.3821699917316437,-0.7052695155143738
1686426582309813200,7.817813232421875,-0.22857725620269775,-0.5741444826126099,-0.7033429741859436
1686426582319757300,7.82775732421875,-0.2217283993959427,-0.6251981258392334,-0.6662656664848328
1686426582329702700,7.83770263671875,-0.24910995364189148,-0.587364673614502,-0.6300418376922607
1686426582339647500,7.8476474609375,-0.2875281870365143,-0.49353328347206116,-0.5594012141227722
1686426582349592300,7.85759228515625,-0.30424004793167114,-0.39783018827438354,-0.4736863374710083
1686426582359537700,7.86753759765625,-0.2825017273426056,-0.3248891532421112,-0.37601545453071594
1686426582369482500,7.877482421875,-0.232200488448143,-0.2964119613170624,-0.2841632664203644
1686426582379427300,7.88742724609375,-0.18905647099018097,-0.32234901189804077,-0.21591365337371826
1686426582389372700,7.89737255859375,-0.198728546500206,-0.3579022288322449,-0.18081745505332947
1686426582399317500,7.9073173828125,-0.26472488045692444,-0.3979441821575165,-0.16085785627365112
1686426582409262300,7.917262451171875,-0.37162336707115173,-0.43445903062820435,-0.16188077628612518
1686426582419207700,7.927207763671875,-0.4815810024738312,-0.4398764371871948,-0.21016894280910492
1686426582429152500,7.937152587890625,-0.586459219455719,-0.3529455363750458,-0.3624444901943207
1686426582439097600,7.94709765625,-0.6950371265411377,-0.3266335129737854,-0.5178412795066833
1686426582449042400,7.95704248046875,-0.7964974045753479,-0.5260480642318726,-0.5799344778060913
1686426582458986500,7.966986572265625,-0.8499928712844849,-0.832050621509552,-0.6032006740570068
1686426582468931300,7.976931396484375,-0.8668200373649597,-1.0883487462997437,-0.5961547493934631
1686426582478876700,7.986876708984375,-0.881217896938324,-1.2402855157852173,-0.5878488421440125
1686426582488821500,7.996821533203125,-0.8602390885353088,-1.2652380466461182,-0.5729687213897705
1686426582498766300,8.006766357421874,-0.8428459763526917,-1.1514917612075806,-0.563965380191803
1686426582508711700,8.016711669921875,-0.8559585809707642,-0.9334837794303894,-0.5256403684616089
1686426582518656500,8.026656494140624,-0.8737480044364929,-0.6604453325271606,-0.4457250237464905
1686426582528601300,8.036601318359375,-0.8521484136581421,-0.36986592411994934,-0.33615216612815857
1686426582538546700,8.046546630859375,-0.7877300381660461,-0.12496670335531235,-0.21826256811618805
1686426582548491500,8.056491455078126,-0.6800938248634338,0.04192135110497475,-0.08050922304391861
1686426582558436600,8.0664365234375,-0.5619922280311584,0.16912057995796204,0.04447212815284729
1686426582568381400,8.07638134765625,-0.43985408544540405,0.30613914132118225,0.12001748383045197
1686426582578326500,8.086326416015625,-0.3153260052204132,0.44450581073760986,0.1570199728012085
1686426582588270300,8.096270263671874,-0.1735379695892334,0.5765288472175598,0.14722193777561188
1686426582598215700,8.106215576171875,-0.05402328819036484,0.5802069306373596,0.08249114453792572
1686426582608160500,8.116160400390624,-0.006332730874419212,0.4472256898880005,-0.04749668017029762
1686426582618105300,8.126105224609375,-0.011407117359340191,0.28692683577537537,-0.19849418103694916
1686426582628050700,8.13605078125,-0.09718593955039978,0.1273888498544693,-0.2829584777355194
1686426582637995500,8.14599560546875,-0.23307080566883087,-0.026561569422483444,-0.24268880486488342
1686426582647940600,8.155940673828125,-0.38292261958122253,-0.18158283829689026,-0.07428701221942902
1686426582657885400,8.165885498046874,-0.5086051821708679,-0.2906198501586914,0.19038139283657074
1686426582667830500,8.17583056640625,-0.5586898922920227,-0.3091253638267517,0.44890856742858887
1686426582677775600,8.185775634765625,-0.5394387245178223,-0.26793718338012695,0.5998852849006653
1686426582687720400,8.195720458984376,-0.48639386892318726,-0.2036588490009308,0.6082587838172913
1686426582697665500,8.20566552734375,-0.4099057614803314,-0.152518168091774,0.496202290058136
1686426582707610600,8.215610595703126,-0.3274252712726593,-0.06432173401117325,0.31169769167900085
1686426582717555500,8.225555419921875,-0.23507483303546906,0.039686691015958786,0.1170901358127594
1686426582727500500,8.23550048828125,-0.13728594779968262,0.09153923392295837,-0.04513019323348999
1686426582737444600,8.245444580078125,-0.031022896990180016,0.0941786989569664,-0.14895965158939362
1686426582747389400,8.255389404296874,0.09147585183382034,0.1278679519891739,-0.1938520222902298
1686426582757334500,8.26533447265625,0.18117085099220276,0.17091742157936096,-0.20336590707302094
1686426582767279600,8.275279541015625,0.24941329658031464,0.1899198740720749,-0.22516946494579315
1686426582777224400,8.285224365234376,0.3253650367259979,0.18601833283901215,-0.2716735899448395
1686426582787169500,8.29516943359375,0.3953268229961395,0.15980111062526703,-0.33102479577064514
1686426582797114600,8.305114501953126,0.44635218381881714,0.12331900745630264,-0.40943437814712524
1686426582807059500,8.3150595703125,0.4438821077346802,0.06804722547531128,-0.4537784159183502
1686426582817004500,8.325004638671874,0.37072721123695374,-0.0842195376753807,-0.46213141083717346
1686426582826949600,8.33494970703125,0.21062621474266052,-0.332269549369812,-0.39548739790916443
1686426582836894500,8.34489453125,0.100662961602211,-0.47920095920562744,-0.18678931891918182
1686426582846839600,8.354839599609376,0.0012516856659203768,-0.43142756819725037,0.11870986968278885
1686426582856784600,8.36478466796875,-0.2102310061454773,-0.24742257595062256,0.4030441343784332
1686426582866729500,8.3747294921875,-0.29339271783828735,-0.022221682593226433,0.5921066999435425
1686426582876673500,8.384673583984375,-0.1487700343132019,0.07240602374076843,0.5731058716773987
1686426582886618600,8.39461865234375,0.06375554203987122,0.032406941056251526,0.39058318734169006
1686426582896563500,8.4045634765625,0.23326760530471802,0.006803844124078751,0.2301730215549469
1686426582906508500,8.414508544921874,0.3494535982608795,0.05552371218800545,0.12930525839328766
1686426582916453600,8.42445361328125,0.4151436686515808,0.17269055545330048,0.05398121103644371
1686426582926398500,8.4343984375,0.46203234791755676,0.2996319830417633,0.020839767530560493
1686426582936343600,8.444343505859376,0.5017533898353577,0.38917145133018494,0.02574451081454754
1686426582946288600,8.45428857421875,0.5261841416358948,0.42650923132896423,0.06491748243570328
1686426582956233500,8.4642333984375,0.5130747556686401,0.4583103060722351,0.10037320852279663
1686426582966178300,8.47417822265625,0.44929951429367065,0.5475046634674072,0.08881428837776184
1686426582976123600,8.48412353515625,0.3337896764278412,0.627704381942749,0.07452429831027985
1686426582986068500,8.494068359375,0.18467611074447632,0.6998805999755859,0.11184344440698624
1686426582996013600,8.504013671875,0.046544067561626434,0.7913801670074463,0.17016613483428955
1686426583005958700,8.513958740234376,-0.03485491871833801,0.9403970837593079,0.1681559830904007
1686426583015902500,8.52390234375,-0.030970698222517967,1.1410939693450928,0.06468818336725235
1686426583025847600,8.53384765625,0.03419205918908119,1.3504149913787842,-0.1290714293718338
1686426583035792600,8.543792724609375,0.1371099203824997,1.4174219369888306,-0.3096846342086792
1686426583045737500,8.553737548828124,0.24878904223442078,1.389378547668457,-0.4342885911464691
1686426583055682300,8.563682373046875,0.3200094401836395,1.362930417060852,-0.5350245237350464
1686426583065627600,8.573627685546874,0.3761020004749298,1.2883118391036987,-0.5952417850494385
1686426583075572500,8.583572509765625,0.429292768239975,1.0986084938049316,-0.6065034866333008
1686426583085517600,8.593517578125,0.47057604789733887,0.9004328846931458,-0.5811033248901367
1686426583095462700,8.603462646484376,0.5012122392654419,0.765326976776123,-0.5016646981239319
1686426583105407500,8.613407470703125,0.507994532585144,0.7137641906738281,-0.35728275775909424
1686426583115352600,8.6233525390625,0.48629745841026306,0.7024542689323425,-0.1739150732755661
1686426583125297700,8.633297607421875,0.43073487281799316,0.6958451271057129,0.006966562941670418
1686426583135242500,8.643242431640624,0.36540406942367554,0.7178604006767273,0.15419356524944305
1686426583145187600,8.6531875,0.32376769185066223,0.7478830218315125,0.24649979174137115
1686426583155132400,8.66313232421875,0.30802467465400696,0.7523027658462524,0.30421847105026245
1686426583165076500,8.673076416015626,0.2998133599758148,0.7539139986038208,0.3286828100681305
1686426583175021300,8.683021240234375,0.2984601855278015,0.7434243559837341,0.3326927423477173
1686426583184966700,8.692966552734376,0.3018922209739685,0.7034982442855835,0.30876556038856506
1686426583194911500,8.702911376953125,0.3216504752635956,0.6161702275276184,0.2660023868083954
1686426583204856600,8.712856689453124,0.3173049986362457,0.48254507780075073,0.188715860247612
1686426583214801700,8.7228017578125,0.28860169649124146,0.3404608964920044,0.1344640702009201
1686426583224746500,8.73274658203125,0.2796867787837982,0.21975579857826233,0.10546064376831055
1686426583234691600,8.742691650390626,0.2776350677013397,0.15097033977508545,0.09655769914388657
1686426583244636400,8.752636474609375,0.2870192527770996,0.11836285889148712,0.10650727152824402
1686426583254581500,8.76258154296875,0.29218152165412903,0.1445092409849167,0.14914128184318542
1686426583264526600,8.772526611328125,0.3108721375465393,0.20535768568515778,0.22659479081630707
1686426583274471400,8.782471435546874,0.3254164457321167,0.2484484314918518,0.3378659188747406
1686426583284416500,8.79241650390625,0.33414947986602783,0.2284928262233734,0.44035953283309937
1686426583294361600,8.802361572265625,0.33562567830085754,0.12776994705200195,0.48087233304977417
1686426583304306400,8.812306396484376,0.3357066214084625,0.01961764320731163,0.4684457778930664
1686426583314251500,8.82225146484375,0.3239663541316986,-0.05379744991660118,0.40533843636512756
1686426583324195600,8.832195556640626,0.29356449842453003,-0.06017545610666275,0.3384832441806793
1686426583334140400,8.842140380859375,0.24970437586307526,0.000984570593573153,0.30284109711647034
1686426583344085200,8.852085205078126,0.1957647055387497,0.07484334707260132,0.2856290936470032
1686426583354030300,8.8620302734375,0.13940982520580292,0.10159746557474136,0.2688208222389221
1686426583363975200,8.87197509765625,0.07984662801027298,0.07040945440530777,0.24089011549949646
1686426583373920300,8.881920166015625,0.034937743097543716,0.04464203491806984,0.1947449892759323
1686426583383865300,8.891865234375,0.025726934894919395,0.042214564979076385,0.1423635333776474
1686426583393810200,8.90181005859375,0.016895892098546028,0.006538859568536282,0.08688110113143921
1686426583403755300,8.91175537109375,0.010211092419922352,-0.07546146959066391,0.019400862976908684
1686426583413700400,8.921700439453126,-0.020422451198101044,-0.18500714004039764,-0.06034936010837555
1686426583423645200,8.931645263671875,-0.06958014518022537,-0.3080978989601135,-0.15420208871364594
1686426583433590300,8.94159033203125,-0.09673745930194855,-0.4431561231613159,-0.26379063725471497
1686426583443535400,8.951535400390625,-0.03604002669453621,-0.49656981229782104,-0.33739322423934937
1686426583453480200,8.961480224609375,0.07751955837011337,-0.41781482100486755,-0.321580171585083
1686426583463425300,8.97142529296875,0.1610621213912964,-0.1787732094526291,-0.22179071605205536
1686426583473370400,8.981370361328125,0.21423585712909698,0.16131725907325745,-0.0720619410276413
1686426583483315200,8.991315185546876,0.25495293736457825,0.3782287836074829,0.025736521929502487
1686426583493259300,9.00125927734375,0.28455182909965515,0.4037597179412842,0.029500899836421013
1686426583503204400,9.011204345703124,0.25712233781814575,0.33598947525024414,-0.0422971248626709
1686426583513149200,9.021149169921875,0.14302507042884827,0.2551310956478119,-0.15660639107227325
1686426583523094300,9.03109423828125,-0.008359395898878574,0.23729324340820312,-0.31612628698349
1686426583533039400,9.041039306640625,-0.17469218373298645,0.25567224621772766,-0.4960230588912964
1686426583542984200,9.050984130859375,-0.31004974246025085,0.25188469886779785,-0.6591965556144714
1686426583552929300,9.06092919921875,-0.3398502469062805,0.038114629685878754,-0.7433441877365112
1686426583562874400,9.070874267578125,-0.30164453387260437,-0.3605451285839081,-0.7329501509666443
1686426583572819200,9.080819091796876,-0.23011469841003418,-0.7725459933280945,-0.6522278785705566
1686426583582764300,9.090764404296875,-0.16283471882343292,-1.0539321899414062,-0.5383007526397705
1686426583592709400,9.10070947265625,-0.1466277837753296,-1.1488362550735474,-0.41583290696144104
1686426583602654200,9.110654296875,-0.17544399201869965,-1.0648475885391235,-0.30903160572052
1686426583612599300,9.120599365234375,-0.22219738364219666,-0.8894923329353333,-0.19997809827327728
1686426583622544400,9.13054443359375,-0.27711760997772217,-0.7083606123924255,-0.09550335258245468
1686426583632489200,9.1404892578125,-0.30868086218833923,-0.5370293855667114,-0.014416756108403206
1686426583642434300,9.150434326171874,-0.31122899055480957,-0.39476194977760315,0.046178147196769714
1686426583652379400,9.16037939453125,-0.30368372797966003,-0.35923007130622864,0.08478546142578125
1686426583662323200,9.1703232421875,-0.2806476354598999,-0.4512457549571991,0.0873389020562172
1686426583672268300,9.180268310546875,-0.25709012150764465,-0.6669902801513672,0.06559765338897705
1686426583682213400,9.19021337890625,-0.23366974294185638,-0.9569973349571228,0.037088245153427124
1686426583692158200,9.200158203125,-0.22207701206207275,-1.2524417638778687,0.012851882725954056
1686426583702103300,9.210103271484375,-0.24679486453533173,-1.4541774988174438,0.004513791762292385
1686426583712048400,9.22004833984375,-0.32138416171073914,-1.535004734992981,0.0034815503749996424
1686426583721993200,9.2299931640625,-0.4227869510650635,-1.5213392972946167,-0.008009989745914936
1686426583731938300,9.239938232421874,-0.5268904566764832,-1.4232864379882812,-0.036186765879392624
1686426583741883400,9.24988330078125,-0.6033654808998108,-1.2948787212371826,-0.03935779258608818
1686426583751828200,9.259828125,-0.6270266175270081,-1.2271915674209595,-0.021691713482141495
1686426583761773300,9.269773193359375,-0.6122117042541504,-1.2226399183273315,0.0037800907157361507
1686426583771718100,9.27971826171875,-0.5830762386322021,-1.2698665857315063,0.012583968229591846
1686426583781663200,9.289663330078126,-0.528769314289093,-1.364048957824707,0.025583922863006592
1686426583791608300,9.2996083984375,-0.500752329826355,-1.4288228750228882,0.08245199918746948
1686426583801553200,9.30955322265625,-0.5227950215339661,-1.4008842706680298,0.09578804671764374
1686426583811498200,9.319498291015625,-0.5463474988937378,-1.2456337213516235,0.07103955745697021
1686426583821443300,9.329443359375,-0.544907808303833,-1.0184199810028076,0.04679813235998154
1686426583831388200,9.33938818359375,-0.5118995308876038,-0.7513179779052734,0.02997148036956787
1686426583841332200,9.349332275390625,-0.43997952342033386,-0.49501773715019226,0.043298203498125076
1686426583851277300,9.35927734375,-0.35849690437316895,-0.26311710476875305,0.0657728910446167
1686426583861222100,9.36922216796875,-0.27761536836624146,-0.021083714440464973,0.09841099381446838
1686426583871167200,9.379167236328126,-0.18343161046504974,0.24324087798595428,0.07620395720005035
1686426583881112300,9.3891123046875,-0.08397506177425385,0.45326414704322815,-0.013251356780529022
1686426583891057200,9.39905712890625,0.027125626802444458,0.5267479419708252,-0.13937786221504211
1686426583901002200,9.409002197265625,0.10336979478597641,0.5177579522132874,-0.26175862550735474
1686426583910947300,9.418947265625,0.11577586829662323,0.38569149374961853,-0.32658183574676514
1686426583920892200,9.42889208984375,0.024922659620642662,0.249855637550354,-0.31089821457862854
1686426583930837500,9.43883740234375,-0.1437843292951584,0.09980329126119614,-0.15793929994106293
1686426583940782300,9.4487822265625,-0.35696426033973694,-0.03315741941332817,0.09601521492004395
1686426583950727200,9.45872705078125,-0.547978937625885,-0.13566061854362488,0.36920255422592163
1686426583960672300,9.46867236328125,-0.6415102481842041,-0.2753599286079407,0.5890076160430908
1686426583970617300,9.478617431640625,-0.5991438627243042,-0.41183096170425415,0.6939614415168762
1686426583980562200,9.488562255859375,-0.4970976412296295,-0.3990214169025421,0.658417820930481
1686426583990507300,9.49850732421875,-0.36154434084892273,-0.3085272014141083,0.5356999039649963
1686426584000452400,9.508452392578125,-0.26401248574256897,-0.21630513668060303,0.358305960893631
1686426584010397200,9.518397216796876,-0.1628349870443344,-0.1664837896823883,0.17576757073402405
1686426584020342300,9.52834228515625,-0.04936222359538078,-0.14157497882843018,0.027066770941019058
1686426584030286300,9.538286376953126,0.05656793713569641,-0.08465602993965149,-0.06664613634347916
1686426584040231200,9.548231201171875,0.18633019924163818,-0.0033846113365143538,-0.13604837656021118
1686426584050176300,9.55817626953125,0.3177665174007416,-0.008775648660957813,-0.19457800686359406
1686426584060121300,9.568121337890625,0.42527300119400024,-0.08037926256656647,-0.2301916629076004
1686426584070066200,9.578066162109375,0.4560687243938446,-0.12716834247112274,-0.23572944104671478
1686426584080011300,9.58801123046875,0.359732061624527,-0.31833961606025696,-0.23142710328102112
1686426584089956400,9.597956298828125,0.30348265171051025,-0.558286726474762,-0.1301255077123642
1686426584099901200,9.607901123046876,0.2553606629371643,-0.6629025936126709,0.09557872265577316
1686426584109846300,9.61784619140625,0.13507845997810364,-0.6000682711601257,0.2956470847129822
1686426584119791400,9.627791259765624,-0.05053640902042389,-0.49731042981147766,0.5891354084014893
1686426584129736200,9.637736083984375,-0.19727365672588348,-0.3012069761753082,0.8796743154525757
1686426584139681300,9.647681396484375,-0.15254773199558258,-0.1948339343070984,0.9787442088127136
1686426584149626400,9.65762646484375,-0.01883707009255886,-0.22196142375469208,0.8702161312103271
1686426584159571200,9.6675712890625,0.10910625010728836,-0.2384069710969925,0.6684384942054749
1686426584169516300,9.677516357421876,0.1938333809375763,-0.15968047082424164,0.4311985373497009
1686426584179461000,9.687461181640625,0.23312433063983917,-0.021581724286079407,0.23025503754615784
1686426584189406500,9.697406494140624,0.24361585080623627,0.10968894511461258,0.08360861241817474
1686426584199351300,9.707351318359375,0.2323373705148697,0.16849979758262634,-0.00797297153621912
1686426584209296100,9.717296142578125,0.23004677891731262,0.18633206188678741,-0.035824574530124664
1686426584219241500,9.727241455078126,0.22219285368919373,0.22061599791049957,0.016038620844483376
1686426584229185300,9.737185302734375,0.22811280190944672,0.28680965304374695,0.15353763103485107
1686426584239130400,9.74713037109375,0.2265591025352478,0.3575112521648407,0.33105170726776123
1686426584249075200,9.7570751953125,0.1814611405134201,0.41209009289741516,0.4671306908130646
1686426584259020300,9.767020263671874,0.13511228561401367,0.43617865443229675,0.5704917311668396
1686426584268965000,9.776965087890625,0.12157569825649261,0.48751693964004517,0.6350501775741577
1686426584278910200,9.78691015625,0.15420182049274445,0.589360237121582,0.6086183190345764
1686426584288855300,9.796855224609375,0.21570219099521637,0.6834259629249573,0.4675823748111725
1686426584298800000,9.806800048828125,0.27450132369995117,0.767872154712677,0.268425315618515
1686426584308745500,9.816745361328126,0.30975571274757385,0.8698094487190247,0.0843777284026146
1686426584318690300,9.826690185546875,0.3498179316520691,0.9774776101112366,-0.049671415239572525
1686426584328635100,9.83663525390625,0.3842083811759949,1.0275365114212036,-0.1160789355635643
1686426584338580700,9.846580810546875,0.38983964920043945,0.9972222447395325,-0.12511451542377472
1686426584348525600,9.856525634765624,0.3662030100822449,0.9691541194915771,-0.11323148012161255
1686426584358470700,9.866470703125,0.34654223918914795,0.9561424851417542,-0.06503599137067795
1686426584368415500,9.87641552734375,0.34096983075141907,0.9520869851112366,0.025724004954099655
1686426584378360600,9.886360595703126,0.3550989627838135,0.9539371132850647,0.1516113579273224
1686426584388305700,9.8963056640625,0.3879746198654175,0.9778696298599243,0.3046019673347473
1686426584398250500,9.90625048828125,0.4530452489852905,1.0542155504226685,0.45704343914985657
1686426584408195600,9.916195556640625,0.5103205442428589,1.141072392463684,0.5921823382377625
1686426584418140700,9.926140625,0.5359609127044678,1.1827958822250366,0.6905984282493591
1686426584428085500,9.93608544921875,0.5432568788528442,1.1820491552352905,0.7353312373161316
1686426584438030600,9.946030517578125,0.5236821174621582,1.1484549045562744,0.7216876149177551
1686426584447974700,9.955974609375,0.48331525921821594,1.098351001739502,0.659466564655304
1686426584457919500,9.96591943359375,0.4296003580093384,1.0120136737823486,0.5587053894996643
1686426584467864600,9.975864501953126,0.38375458121299744,0.9190568923950195,0.4587057828903198
1686426584477809700,9.9858095703125,0.32032155990600586,0.8517580032348633,0.37107235193252563
1686426584487754500,9.99575439453125,0.25992530584335327,0.7218974828720093,0.2870994210243225
1686426584497699600,10.005699462890625,0.24831020832061768,0.5012327432632446,0.17265139520168304
1686426584507644700,10.015644775390625,0.25124767422676086,0.29002490639686584,0.06917320936918259
1686426584517589500,10.025589599609376,0.24732990562915802,0.2051217257976532,0.039689354598522186
1686426584527534600,10.03553466796875,0.2500084936618805,0.2283301055431366,0.08363897353410721
1686426584537479700,10.045479736328126,0.25448793172836304,0.26927274465560913,0.144184872508049
1686426584547424500,10.055424560546875,0.271782785654068,0.29069629311561584,0.1835373342037201
1686426584557369300,10.065369384765624,0.31262901425361633,0.3061620593070984,0.20478270947933197
1686426584567314700,10.075314697265625,0.34817636013031006,0.32256418466567993,0.20646661520004272
1686426584577259500,10.085259521484375,0.3554140329360962,0.33273428678512573,0.2175312638282776
1686426584587204400,10.095204345703126,0.33662277460098267,0.2898930609226227,0.24696318805217743
1686426584597149700,10.105149658203125,0.2970106303691864,0.16566646099090576,0.2630193829536438
1686426584607094500,10.115094482421876,0.24445661902427673,0.0044200485572218895,0.2431335598230362
1686426584617039600,10.12503955078125,0.18280044198036194,-0.17251238226890564,0.17316831648349762
1686426584626984700,10.134984619140624,0.11638147383928299,-0.3466029465198517,0.08933068066835403
1686426584636929500,10.144929443359375,0.056414540857076645,-0.47150707244873047,0.019305255264043808
1686426584646874600,10.15487451171875,0.006187854800373316,-0.5832335948944092,-0.023851269856095314
1686426584656819500,10.1648193359375,0.015731824561953545,-0.6050233244895935,-0.013073457404971123
1686426584666763500,10.174763427734375,0.07494854182004929,-0.5041009783744812,0.05055931210517883
1686426584676708400,10.184708251953126,0.0703737661242485,-0.29143184423446655,0.082740418612957
1686426584686653700,10.19465380859375,0.04114477336406708,-0.05494340881705284,0.07687108218669891
1686426584696598500,10.2045986328125,0.041664887219667435,0.021322332322597504,0.04552966728806496
1686426584706543600,10.214543701171875,0.05182884261012077,-0.09217067062854767,0.003480751533061266
1686426584716488700,10.22448876953125,-0.010878213681280613,-0.26875901222229004,-0.07382761687040329
1686426584726433500,10.23443359375,-0.08299075812101364,-0.2973845303058624,-0.1665104180574417
1686426584736378600,10.244378662109375,-0.15153439342975616,-0.18171121180057526,-0.26398369669914246
1686426584746323700,10.25432373046875,-0.17064045369625092,-0.14143195748329163,-0.3572305738925934
1686426584756268500,10.2642685546875,-0.18069495260715485,-0.2954998314380646,-0.40523138642311096
1686426584766213600,10.274213623046874,-0.19283975660800934,-0.5216027498245239,-0.4126799702644348
1686426584776158500,10.284158447265625,-0.18810759484767914,-0.7219427227973938,-0.4100831151008606
1686426584786103600,10.294103515625,-0.18536639213562012,-0.8527470827102661,-0.4115566611289978
1686426584796048600,10.304048583984375,-0.1985463798046112,-0.9293244481086731,-0.42681604623794556
1686426584805993500,10.313993408203125,-0.2285972237586975,-0.962066113948822,-0.4357735812664032
1686426584815938600,10.3239384765625,-0.25397127866744995,-0.9351540803909302,-0.4276309609413147
1686426584825883600,10.333883544921875,-0.26287317276000977,-0.8912377953529358,-0.40354081988334656
1686426584835828500,10.343828369140626,-0.24877946078777313,-0.834590494632721,-0.3629528880119324
1686426584845773600,10.353773681640625,-0.21091783046722412,-0.8146604299545288,-0.3301299810409546
1686426584855718700,10.36371875,-0.18173597753047943,-0.8613813519477844,-0.3177236318588257
1686426584865663500,10.37366357421875,-0.19196997582912445,-0.9851053953170776,-0.345526784658432
1686426584875608600,10.383608642578125,-0.2430611252784729,-1.1596732139587402,-0.38123205304145813
1686426584885552600,10.393552734375,-0.31053656339645386,-1.3078951835632324,-0.42559152841567993
1686426584895497500,10.40349755859375,-0.381615549325943,-1.3820538520812988,-0.4834555983543396
1686426584905442600,10.413442626953126,-0.45715850591659546,-1.3729021549224854,-0.5609581470489502
1686426584915387600,10.4233876953125,-0.5409841537475586,-1.3265482187271118,-0.6420564651489258
1686426584925332500,10.43333251953125,-0.6250369548797607,-1.406470537185669,-0.6484916806221008
1686426584935277600,10.443277587890625,-0.6674656867980957,-1.629809856414795,-0.5944181084632874
1686426584945222700,10.45322265625,-0.6423789262771606,-1.8439385890960693,-0.4975900650024414
1686426584955167500,10.46316748046875,-0.5918481349945068,-1.9301222562789917,-0.41003918647766113
1686426584965112600,10.473112548828125,-0.5570999979972839,-1.8314752578735352,-0.31116825342178345
1686426584975057700,10.4830576171875,-0.5179176926612854,-1.5926579236984253,-0.21377140283584595
1686426584985002500,10.49300244140625,-0.4612930417060852,-1.3186359405517578,-0.12885358929634094
1686426584994947600,10.502947509765624,-0.3684488534927368,-1.1108686923980713,-0.038725558668375015
1686426585004892700,10.512892578125,-0.28218188881874084,-0.9940112829208374,0.08858286589384079
1686426585014837500,10.52283740234375,-0.22393110394477844,-0.941731333732605,0.26225849986076355
1686426585024782600,10.532782470703125,-0.181338369846344,-0.8669430613517761,0.41494500637054443
1686426585034727700,10.542727783203125,-0.14449939131736755,-0.7818081974983215,0.5451712012290955
1686426585044672500,10.552672607421876,-0.11160349100828171,-0.7201046347618103,0.6283795237541199
1686426585054617600,10.56261767578125,0.003510579001158476,-0.6548465490341187,0.6248611807823181
1686426585064562400,10.5725625,0.14805445075035095,-0.6160693168640137,0.4689059555530548
1686426585074507500,10.582507568359375,0.26306092739105225,-0.5379622578620911,0.2524580955505371
1686426585084452600,10.59245263671875,0.3283997178077698,-0.36410924792289734,0.05422835052013397
1686426585094397400,10.6023974609375,0.32315781712532043,-0.2018985003232956,-0.08837193995714188
1686426585104342500,10.612342529296875,0.26626551151275635,-0.16644996404647827,-0.12980380654335022
1686426585114287600,10.62228759765625,0.12015916407108307,-0.24512986838817596,-0.11052011698484421
1686426585124231700,10.632231689453125,-0.09774253517389297,-0.4230457842350006,-0.006930876523256302
1686426585134176500,10.642176513671876,-0.3171555995941162,-0.6111014485359192,0.1266689896583557
1686426585144121600,10.65212158203125,-0.4777340888977051,-0.7968830466270447,0.274030476808548
1686426585154066700,10.662066650390624,-0.510101854801178,-0.9018126726150513,0.3917246162891388
1686426585164011500,10.672011474609375,-0.43520259857177734,-0.8580300211906433,0.4836673438549042
1686426585173956600,10.68195654296875,-0.3020581305027008,-0.6760937571525574,0.5395593643188477
1686426585183901400,10.6919013671875,-0.1585393100976944,-0.4691847860813141,0.5153006315231323
1686426585193846500,10.701846435546875,0.0020152139477431774,-0.3437086343765259,0.4090668559074402
1686426585203791600,10.71179150390625,0.1630547046661377,-0.2527715265750885,0.2404767870903015
1686426585213736400,10.721736328125,0.2974947988986969,-0.1429784595966339,0.08255372941493988
1686426585223681500,10.731681640625,0.44426241517066956,0.022219818085432053,-0.09904109686613083
1686426585233626600,10.741626708984375,0.5929203033447266,0.17761287093162537,-0.3070009648799896
1686426585243571500,10.751571533203125,0.6858870387077332,0.2483443021774292,-0.5161429643630981
1686426585253516800,10.761516845703126,0.7345086336135864,0.24374182522296906,-0.6569951772689819
1686426585263461600,10.771461669921875,0.6918846964836121,0.07455066591501236,-0.7388242483139038
1686426585273406500,10.781406494140626,0.5749173760414124,-0.33603447675704956,-0.7636768817901611
1686426585283351600,10.7913515625,0.5051132440567017,-0.6017590761184692,-0.607221245765686
1686426585293296600,10.801296630859374,0.41801267862319946,-0.5660247802734375,-0.31761470437049866
1686426585303241500,10.811241455078125,0.2165357619524002,-0.3586263358592987,0.08538094162940979
1686426585313186600,10.8211865234375,-0.06619659811258316,-0.15603354573249817,0.5943922400474548
1686426585323131600,10.831131591796876,-0.19093959033489227,-0.06184419244527817,0.9130740761756897
1686426585333077200,10.8410771484375,-0.10711846500635147,-0.12638670206069946,0.9370955228805542
1686426585343022000,10.85102197265625,0.060146693140268326,-0.32550644874572754,0.8113756775856018
1686426585352967200,10.86096728515625,0.19980978965759277,-0.44271349906921387,0.5929482579231262
1686426585362912300,10.870912353515624,0.3086150884628296,-0.38176068663597107,0.3081921935081482
1686426585372856000,10.88085595703125,0.3788386583328247,-0.23616379499435425,0.05602065846323967
1686426585382801200,10.89080126953125,0.4283958375453949,-0.07166726142168045,-0.15296317636966705
1686426585392746200,10.900746337890626,0.4823538661003113,0.03544906899333,-0.2908185124397278
1686426585402691000,10.910691162109375,0.5262566208839417,0.05853095278143883,-0.34397682547569275
1686426585412636200,10.92063623046875,0.5514042973518372,0.03038746677339077,-0.31005293130874634
1686426585422581200,10.930581298828125,0.5430571436882019,0.002153964713215828,-0.23538748919963837
1686426585432526000,10.940526123046874,0.47795113921165466,0.03292812407016754,-0.14164714515209198
1686426585442471200,10.95047119140625,0.3872726261615753,0.1153297871351242,-0.053105562925338745
1686426585452416300,10.960416259765625,0.3097013831138611,0.2564863860607147,0.043654803186655045
1686426585462361000,10.970361083984375,0.2927602231502533,0.48528388142585754,0.12664209306240082
1686426585472306200,10.98030615234375,0.33702144026756287,0.7581952810287476,0.14651034772396088
1686426585482251300,10.990251220703126,0.4062657654285431,0.998451828956604,0.07062143832445145
1686426585492196000,11.000196044921875,0.4627860188484192,1.196003794670105,-0.07719731330871582
1686426585502141200,11.01014111328125,0.4861659109592438,1.3367388248443604,-0.23424606025218964
1686426585512086300,11.020086181640625,0.4848119616508484,1.4289220571517944,-0.3400912582874298
1686426585522031000,11.030031005859374,0.45195814967155457,1.4699815511703491,-0.36529383063316345
1686426585531976200,11.03997607421875,0.4301345944404602,1.3698850870132446,-0.29808762669563293
1686426585541921000,11.049921142578125,0.3845388889312744,1.1966596841812134,-0.16431917250156403
1686426585551866000,11.0598662109375,0.3360435366630554,1.03724205493927,0.02263021096587181
1686426585561811200,11.069811279296875,0.31206947565078735,0.948917031288147,0.24431467056274414
1686426585571756000,11.079756103515624,0.31857025623321533,0.9484792351722717,0.47405651211738586
1686426585581701000,11.089701171875,0.31404581665992737,1.001436710357666,0.6809202432632446
1686426585591646200,11.099646240234375,0.2874445617198944,1.1016128063201904,0.8035510778427124
1686426585601591000,11.109591064453125,0.23019538819789886,1.194136142730713,0.8005808591842651
1686426585611536400,11.119536376953125,0.1814528852701187,1.2271637916564941,0.6913046836853027
1686426585621480200,11.129480224609376,0.15342950820922852,1.2224892377853394,0.5500785708427429
1686426585631425000,11.139425048828125,0.14061570167541504,1.1469273567199707,0.4286770522594452
1686426585641370000,11.1493701171875,0.13669979572296143,1.0366191864013672,0.36982518434524536
1686426585651315200,11.159315185546875,0.15041880309581757,0.8777877688407898,0.3536968231201172
1686426585661260000,11.169260009765624,0.14591991901397705,0.7476963400840759,0.3719850182533264
1686426585671205000,11.179205078125,0.13076867163181305,0.6561922430992126,0.42720672488212585
1686426585681150200,11.189150146484375,0.11908617615699768,0.5606662631034851,0.468852162361145
1686426585691095000,11.199094970703126,0.1033112108707428,0.447517067193985,0.4583984613418579
1686426585701040400,11.209040283203125,0.10107202082872391,0.29582101106643677,0.37070003151893616
1686426585710985200,11.218985107421876,0.10780049860477448,0.24682310223579407,0.2828945517539978
1686426585720930000,11.228929931640625,0.126460462808609,0.3189936876296997,0.24998506903648376
1686426585730875100,11.238875244140624,0.15122227370738983,0.4054047465324402,0.26520851254463196
1686426585740820200,11.2488203125,0.18072237074375153,0.4327804446220398,0.28213873505592346
1686426585750765000,11.25876513671875,0.21724922955036163,0.44539985060691833,0.2715654671192169
1686426585760710100,11.268710205078126,0.24503637850284576,0.4771529734134674,0.24421267211437225
1686426585770655200,11.2786552734375,0.2573782801628113,0.5445767641067505,0.21055138111114502
1686426585780600000,11.28860009765625,0.27006423473358154,0.5845140814781189,0.1779007613658905
1686426585790545200,11.298545166015625,0.27737516164779663,0.5552715063095093,0.15453098714351654
1686426585800490200,11.308490234375,0.28735241293907166,0.4661639630794525,0.13511547446250916
1686426585810435000,11.31843505859375,0.3094513416290283,0.3656184673309326,0.14130252599716187
1686426585820380200,11.328380126953125,0.3169795572757721,0.28873884677886963,0.1495348960161209
1686426585830325200,11.3383251953125,0.29305291175842285,0.1975804567337036,0.13630324602127075
1686426585840270000,11.34827001953125,0.22531913220882416,0.04867086559534073,0.08421634137630463
1686426585850215200,11.358215087890626,0.11483310908079147,-0.1539940983057022,-0.03009451925754547
1686426585860160000,11.368159912109375,0.08937009423971176,-0.2539933919906616,-0.11145302653312683
1686426585870105300,11.378105224609374,0.11942386627197266,-0.14047935605049133,-0.10881702601909637
1686426585880050200,11.38805029296875,0.12235387414693832,0.1164962500333786,-0.04789189249277115
1686426585889995000,11.3979951171875,0.11050307750701904,0.3975217938423157,0.0682176724076271
1686426585899940400,11.4079404296875,0.12740829586982727,0.4541475176811218,0.19102029502391815
1686426585909884200,11.41788427734375,0.045528870075941086,0.17862273752689362,0.18395332992076874
1686426585919829200,11.427829345703126,-0.07856404781341553,-0.0632130578160286,0.07006856799125671
1686426585929774000,11.437774169921875,-0.1346193253993988,-0.10779038071632385,-0.057549845427274704
1686426585939719200,11.44771923828125,-0.16524727642536163,-0.1484864056110382,-0.19053958356380463
1686426585949664000,11.4576640625,-0.18501779437065125,-0.23394592106342316,-0.3161047101020813
1686426585959609000,11.467609130859374,-0.20350252091884613,-0.33915889263153076,-0.41317319869995117
1686426585969554200,11.47755419921875,-0.2084171175956726,-0.47635403275489807,-0.5109591484069824
1686426585979499000,11.4874990234375,-0.17453132569789886,-0.5964977741241455,-0.6148921847343445
1686426585989444400,11.4974443359375,-0.12033386528491974,-0.6799388527870178,-0.7087044715881348
1686426585999389200,11.50738916015625,-0.07419859617948532,-0.7563268542289734,-0.7542093396186829
1686426586009334000,11.517333984375,-0.08546429872512817,-0.8416689038276672,-0.7664415240287781
1686426586019279400,11.527279296875,-0.11434201896190643,-0.8781967759132385,-0.7308228015899658
1686426586029224200,11.53722412109375,-0.11467225104570389,-0.8808200359344482,-0.6544411778450012
1686426586039169000,11.5471689453125,-0.08425096422433853,-0.9007852077484131,-0.566054105758667
1686426586049114000,11.557114013671875,-0.037571877241134644,-0.9898855090141296,-0.484918475151062
1686426586059059200,11.56705908203125,-0.0031696942169219255,-1.1518312692642212,-0.43931370973587036
1686426586069004000,11.577004150390625,0.0021760689560323954,-1.3719143867492676,-0.44133585691452026
1686426586078949000,11.58694921875,-0.03217737749218941,-1.6030235290527344,-0.46302491426467896
1686426586088894200,11.596894287109375,-0.12347213923931122,-1.765800952911377,-0.4878178834915161
1686426586098839000,11.606839111328124,-0.26431021094322205,-1.8292465209960938,-0.5093654990196228
1686426586108784000,11.6167841796875,-0.4046476185321808,-1.7630815505981445,-0.5436446666717529
1686426586118729200,11.626729248046875,-0.5590060353279114,-1.5770504474639893,-0.5887604355812073
1686426586128674300,11.63667431640625,-0.727817952632904,-1.3542613983154297,-0.6457201242446899
1686426586138619100,11.646619140625,-0.847667396068573,-1.228203535079956,-0.6812403202056885
1686426586148564200,11.656564208984374,-0.8679737448692322,-1.2786824703216553,-0.6892814636230469
1686426586158509300,11.66650927734375,-0.8132606744766235,-1.459909439086914,-0.7041651010513306
1686426586168454100,11.6764541015625,-0.7024508118629456,-1.6965131759643555,-0.7209717631340027
1686426586178399000,11.68639892578125,-0.6054337024688721,-1.8849364519119263,-0.7082487940788269
1686426586188344300,11.69634423828125,-0.531015157699585,-1.9505542516708374,-0.6357439756393433
1686426586198289200,11.7062890625,-0.4717710018157959,-1.862122654914856,-0.5197504758834839
1686426586208234000,11.71623388671875,-0.42732948064804077,-1.652303695678711,-0.36184263229370117
1686426586218178000,11.726177978515626,-0.37412992119789124,-1.3917341232299805,-0.16118623316287994
1686426586228123100,11.736123046875,-0.2953767776489258,-1.1193902492523193,0.05235481634736061
1686426586238068200,11.746068115234374,-0.19680307805538177,-0.8337166905403137,0.23709218204021454
1686426586248013300,11.756013427734375,-0.107901431620121,-0.5896217226982117,0.3695673942565918
1686426586257958100,11.765958251953125,-0.045768555253744125,-0.4782744348049164,0.37692224979400635
1686426586267903000,11.775903076171875,0.013247095979750156,-0.4548015892505646,0.29924556612968445
1686426586277848300,11.785848388671875,0.05841350927948952,-0.5188924074172974,0.15143319964408875
1686426586287793200,11.795793212890626,0.06277097016572952,-0.605816662311554,0.0007677893154323101
1686426586297738000,11.805738037109375,0.0416257418692112,-0.7563185691833496,-0.10203635692596436
1686426586307683300,11.815683349609374,0.028261732310056686,-0.9212795495986938,-0.11610636860132217
1686426586317628200,11.825628173828125,-0.002161954063922167,-1.0053131580352783,-0.03674549609422684
1686426586327573000,11.835572998046874,-0.07637146860361099,-1.0030617713928223,0.0770159512758255
1686426586337517800,11.845517822265625,-0.17159679532051086,-0.9352720975875854,0.1966419517993927
1686426586347462700,11.855462646484375,-0.26668494939804077,-0.87254798412323,0.2871699929237366
1686426586357407500,11.865407470703126,-0.3261951506137848,-0.835336446762085,0.34910500049591064
1686426586367352800,11.875352783203125,-0.33107513189315796,-0.7682420611381531,0.39581817388534546
1686426586377297700,11.885297607421874,-0.2756808400154114,-0.6876649260520935,0.43104299902915955
1686426586387242500,11.895242431640625,-0.18468275666236877,-0.6052749752998352,0.4401707351207733
1686426586397187600,11.9051875,-0.09040233492851257,-0.549847424030304,0.44332602620124817
1686426586407132700,11.915132568359375,-0.010510431602597237,-0.5579719543457031,0.4392242431640625
1686426586417077500,11.925077392578125,0.07603910565376282,-0.5975515842437744,0.44214147329330444
1686426586427022600,11.935022705078126,0.15369874238967896,-0.6105794906616211,0.4514537453651428
1686426586436967700,11.9449677734375,0.220433309674263,-0.5607740879058838,0.44898152351379395
1686426586446912800,11.954912841796874,0.2914494276046753,-0.468252956867218,0.45162656903266907
1686426586456857600,11.964857666015625,0.3501300513744354,-0.42244020104408264,0.43198922276496887
1686426586466802700,11.974802734375,0.39234140515327454,-0.4636382460594177,0.37870150804519653
1686426586476747800,11.984747802734375,0.4283580183982849,-0.4836353659629822,0.34068673849105835
1686426586486692600,11.994692626953125,0.5302113890647888,-0.48601996898651123,0.3212224841117859
1686426586496637700,12.0046376953125,0.6880412697792053,-0.46271491050720215,0.32621780037879944
1686426586506582800,12.014582763671875,0.8114286661148071,-0.45885786414146423,0.36197471618652344
1686426586516527600,12.024527587890624,0.8470644354820251,-0.45702001452445984,0.3836911916732788
1686426586526472400,12.034472412109375,0.6901464462280273,-0.5072541236877441,0.30502328276634216
1686426586536416800,12.044416748046874,0.45702508091926575,-0.7285178303718567,0.19153881072998047
1686426586546361600,12.054361572265625,0.34220555424690247,-0.9187154769897461,0.28196483850479126
1686426586556306700,12.064306640625,0.2853949964046478,-0.7615061402320862,0.509717583656311
1686426586566251800,12.074251708984375,0.22298993170261383,-0.49941566586494446,0.6154320240020752
1686426586576196600,12.084196533203125,0.30259209871292114,-0.3811129927635193,0.6807060837745667
1686426586586141700,12.0941416015625,0.4852692186832428,-0.45466071367263794,0.6681628823280334
1686426586596086800,12.104086669921875,0.6263208985328674,-0.6443779468536377,0.5699614882469177
1686426586606031600,12.114031494140624,0.7359011769294739,-0.7999193072319031,0.4258700907230377
1686426586615976400,12.1239765625,0.8221058249473572,-0.8283831477165222,0.2821368873119354
1686426586625921800,12.133921875,0.8691409826278687,-0.7408549189567566,0.18125954270362854
1686426586635866600,12.14386669921875,0.897056519985199,-0.6126276850700378,0.10861862450838089
1686426586645811500,12.1538115234375,0.9104140996932983,-0.5413716435432434,0.04475735127925873
1686426586655756800,12.1637568359375,0.9187471866607666,-0.535722553730011,-0.0070677632465958595
1686426586665701600,12.17370166015625,0.9222963452339172,-0.5810942649841309,-0.06030408665537834
1686426586675646500,12.183646484375,0.9146648049354553,-0.6118793487548828,-0.11644458770751953
1686426586685591800,12.193591796875,0.907895028591156,-0.585712194442749,-0.14880278706550598
1686426586695536600,12.20353662109375,0.9059277772903442,-0.4760160744190216,-0.1286700963973999
1686426586705481700,12.213481689453126,0.9272935390472412,-0.28958120942115784,-0.07570008933544159
1686426586715426600,12.223426513671875,0.9738476872444153,-0.058399926871061325,-0.03922010585665703
1686426586725371600,12.23337158203125,1.0457096099853516,0.18164809048175812,-0.055757805705070496
1686426586735316700,12.243316650390625,1.1142621040344238,0.39322346448898315,-0.11923717707395554
1686426586745261600,12.253261474609374,1.1740695238113403,0.5954705476760864,-0.20208492875099182
1686426586755206700,12.26320654296875,1.2361652851104736,0.7360537648200989,-0.27236974239349365
1686426586765151700,12.27315185546875,1.3146857023239136,0.7641549110412598,-0.296700656414032
1686426586775096600,12.2830966796875,1.367329716682434,0.7211923003196716,-0.27577805519104004
1686426586785041700,12.293041748046875,1.3784977197647095,0.6546907424926758,-0.22784382104873657
1686426586794986800,12.30298681640625,1.3312196731567383,0.5893639326095581,-0.14528769254684448
1686426586804931600,12.312931640625,1.2459361553192139,0.5160548090934753,-0.047982171177864075
1686426586814876700,12.322876708984374,1.1404379606246948,0.4457758665084839,0.058890216052532196
1686426586824821800,12.33282177734375,1.0229969024658203,0.3791579604148865,0.12465431541204453
1686426586834766600,12.3427666015625,0.9109824299812317,0.3657692074775696,0.1321077048778534
1686426586844711400,12.35271142578125,0.8055161833763123,0.38548219203948975,0.09883177280426025
1686426586854656800,12.36265673828125,0.7283313870429993,0.39205965399742126,0.07931666076183319
1686426586864600600,12.3726005859375,0.6828987002372742,0.3984059691429138,0.10472055524587631
1686426586874545700,12.382545654296875,0.6418614983558655,0.48180073499679565,0.17785973846912384
1686426586884490800,12.39249072265625,0.6381335854530334,0.45318347215652466,0.24023310840129852
1686426586894435600,12.402435546875,0.6402556300163269,0.37531450390815735,0.28791433572769165
1686426586904380700,12.412380615234374,0.6589992046356201,0.31664371490478516,0.3326359987258911
1686426586914325800,12.42232568359375,0.6758551597595215,0.24999678134918213,0.35414397716522217
