time,seconds_elapsed,z,y,x
1686343531558252500,0.18325244140625,0.21686068981364368,-0.053283846420049664,0.0059706171085126694
1686343531568272400,0.1932724609375,0.1629847227193415,-0.04843699091076851,0.07755233676331118
1686343531578291500,0.20329150390625,0.10124854364395142,-0.06286942088901996,0.1438978910639882
1686343531588311600,0.2133115234375,0.06515899313092231,-0.05579144532680511,0.18443243828713893
1686343531598331400,0.223331298828125,0.09516936986073851,-0.03877133694291115,0.12774022646201774
1686343531608350500,0.2333505859375,0.059372080292552705,-0.00944470469355583,0.03448765000803396
1686343531618370600,0.24337060546875,-0.044108021795749665,-0.020744681864976883,-0.027775603415071962
1686343531628390700,0.253390625,-0.1351994746930897,-0.005924129351973533,-0.11270986712323501
1686343531638409500,0.263409423828125,-0.2398490589521825,0.0237894563883543,-0.19081510679526253
1686343531648429300,0.27342919921875,-0.2824998676769435,-0.006314005452394485,-0.2022021777282469
1686343531658449400,0.283449462890625,-0.2694421601179987,-0.005017535901069641,-0.20050587693806737
1686343531668468500,0.293468505859375,-0.15420622684955596,0.0061813189834356306,-0.13220686874836682
1686343531678488600,0.303488525390625,-0.04439538736976683,-0.02127718130648136,-0.034585831419192255
1686343531688508400,0.31350830078125,-0.034003903345391155,-0.0019587328523397443,0.11367023658799007
1686343531698527500,0.323527587890625,-0.06633906976096332,0.025139117431640625,0.19346361201005055
1686343531708547300,0.33354736328125,-0.026929507979750633,-0.002932546320557594,0.16567074693292377
1686343531718567400,0.3435673828125,-0.02346387769579887,-0.022990999487042425,0.13628332440704105
1686343531728586500,0.35358642578125,-0.06287935776114463,-0.029461656805872916,0.10371288793087005
1686343531738606300,0.3636064453125,-0.09068915570676327,-0.041786885371804236,0.0786836606144905
1686343531748626400,0.37362646484375,-0.0972850468404591,-0.019213819035887716,-0.0010007380077615379
1686343531758645500,0.3836455078125,-0.05278408020436764,-0.027253917628526685,-0.10273352150470018
1686343531768665600,0.39366552734375,-0.002749006447196007,-0.04700432775914669,-0.10402823749035596
1686343531778684400,0.403684326171875,0.10723638588190078,-0.04300093733668327,-0.08317863394618034
1686343531788704500,0.41370458984375,0.10203662528172135,0.006802081230282783,-0.008604125683568418
1686343531798724400,0.423724365234375,0.04460837253332138,0.013214870882034302,0.04211772476136684
1686343531808743400,0.433743408203125,0.044539398950338364,0.01976619222164154,-0.06526069993972777
1686343531818763500,0.443763427734375,0.10478358590230345,-0.020499182671308517,-0.04083327444139868
1686343531828783600,0.45378369140625,0.13889876760244368,-0.030225042393803594,0.028869828392565248
1686343531838802700,0.463802734375,0.13968085789084433,-0.025032149925827977,0.06472410884499549
1686343531848822300,0.473822265625,0.1448767460335046,-0.01426233410835266,0.0583212743316777
1686343531858842400,0.48384228515625,0.19867153765037654,-0.027671850779652594,-0.0035792832588776944
1686343531868861400,0.493861328125,0.23740122740864752,-0.04121113131046295,-0.044622985580563546
1686343531878881500,0.503881591796875,0.09063318773582577,0.009352350234985351,0.04157766306791454
1686343531888901400,0.5139013671875,-0.033180238937586544,0.05367839869558811,0.11925506924930959
1686343531898920400,0.52392041015625,0.059126288837939495,0.08480769645273685,0.11398355858717113
1686343531908940500,0.5339404296875,0.08868965245261788,0.04802841010987759,0.07742407074114308
1686343531918960600,0.543960693359375,0.09796068107970059,0.010467033478617667,-0.057807150797080244
1686343531928979500,0.5539794921875,0.035981998485326766,0.04535071533322334,-0.11921791557669639
1686343531938999300,0.563999267578125,-0.024207974061369895,0.02756663683950901,-0.09293371976315974
1686343531949019400,0.574019287109375,0.08824526968598365,0.009990063616633415,-0.039403205105662344
1686343531959038500,0.58403857421875,0.3662748600810766,-0.0674514879822731,0.15909984411001205
1686343531969058600,0.59405859375,0.6473837117910385,-0.08034078017175197,0.32052228594869375
1686343531979078700,0.60407861328125,0.45890002535171803,-0.014297989943623543,0.35253918019533154
1686343531989097500,0.614097412109375,-0.032223522734642025,0.01690612661540508,0.20695026730448007
1686343531999117300,0.624117431640625,-0.2808259431153536,0.0028366847306489943,-0.08367898468375205
1686343532009137400,0.634137451171875,-0.3413215475451201,0.006753565913438796,-0.2965840322067961
1686343532019156500,0.644156494140625,-0.3477016770362854,0.04737783724665642,-0.1696323440402746
1686343532029176600,0.654176513671875,-0.15603928749561308,0.022862989193201063,-0.03027764936387539
1686343532039195600,0.664195556640625,0.17213292868435381,0.057390697216987606,0.040380817966163156
1686343532049215500,0.674215576171875,0.4828611850451678,0.010021043276786804,0.1405137650510296
1686343532059235600,0.684235595703125,0.7650964835017919,-0.07370528768002986,0.10682663603723049
1686343532069254400,0.69425439453125,0.9036007718939334,-0.0686409900277853,0.13886020742403343
1686343532079274500,0.7042744140625,0.8461631667952985,-0.09935761533081532,0.13215948594268412
1686343532089294300,0.71429443359375,0.33691607912778854,-0.10538052888214587,0.06699030021131039
1686343532099313400,0.7243134765625,-0.34191374128460883,0.028438158977031707,-0.16146072802245615
1686343532109333500,0.73433349609375,-0.7963730077099055,0.10589081649184226,-0.13589459908409043
1686343532119353600,0.744353515625,-1.4417097969084978,0.18364684086740016,0.0034519305521622298
1686343532129372400,0.754372314453125,-1.506016557124257,0.03180325149595737,-0.3389879169657826
1686343532139392300,0.764392333984375,-1.139469894364476,0.0028431144714355467,-0.38645226345211264
1686343532149412400,0.774412353515625,-0.505427894705534,-0.1578594886600971,-0.15367431192994116
1686343532159431400,0.784431396484375,0.17600670137777924,-0.1942670190811157,0.019618052455224095
1686343532169451500,0.794451416015625,0.8411841362737119,-0.20624387260079383,0.2004293045705184
1686343532179471600,0.8044716796875,1.1648736540816724,-0.22428046455085277,0.4304313616385683
1686343532189490400,0.814490478515625,1.0954701552487909,-0.12314239554405211,0.4653013802940026
1686343532199510500,0.824510498046875,0.9169710525333881,-0.125339613327384,0.2952905217975378
1686343532209530400,0.8345302734375,0.5881823118902743,-0.03379647113978863,-0.028909247087500988
1686343532219549400,0.844549560546875,-0.1592933208554983,0.09981763405799865,-0.2718672683730721
1686343532229569500,0.854569580078125,-0.9425479768604039,-0.005078326177597046,-0.6480453905701636
1686343532239589400,0.86458935546875,-1.4802322736568747,-0.09826982009410858,-0.8170823990657925
1686343532249608400,0.8746083984375,-1.3661720331043004,-0.08069733852446079,-0.6401303796619177
1686343532259628500,0.884628662109375,-0.9056348350048065,-0.0491430933535099,-0.3848275848597288
1686343532269648600,0.894648681640625,-0.3769967451035976,-0.06464286030232906,-0.08370236555933952
1686343532279667500,0.90466748046875,0.07659048772752285,-0.07109890457391739,0.10076748212873936
1686343532289687300,0.914687255859375,0.4164652705304324,-0.12435235585570335,0.22496168828066437
1686343532299707400,0.924707275390625,0.5837713635802269,-0.12768529967069625,0.31620442274957894
1686343532309726500,0.9347265625,0.5863263087600469,-0.09938216525018215,0.36289895390719173
1686343532319746600,0.94474658203125,0.5796238885119557,-0.04312427145540714,0.38845373946763573
1686343532329766400,0.954766357421875,0.47695057276189323,0.05219429761767387,0.4104126924932003
1686343532339785500,0.964785400390625,0.3183428960829973,0.09810849205255508,0.3067623484045267
1686343532349805300,0.974805419921875,0.04049918364882469,0.19018179559409618,0.19772358927577732
1686343532359825400,0.984825439453125,-0.17122224358022212,0.21186229700446127,0.022365268804132938
1686343532369844500,0.994844482421875,-0.35298677783235904,0.20261808331906794,-0.09591067148102447
1686343532379864600,1.004864501953125,-0.4832353521198034,0.17081483182311058,-0.15557313128858805
1686343532389884400,1.014884521484375,-0.45849765509590507,0.13994155465364455,-0.1987011838699691
1686343532399903500,1.024903564453125,-0.258625071092695,0.03621872985064983,-0.16219894263651222
1686343532409923600,1.034923583984375,-0.08150982395112515,-0.0193190329760313,-0.05133768078833818
1686343532419942400,1.0449423828125,0.07500935601592064,-0.06902911256253719,0.052853053787350654
1686343532429962500,1.05496240234375,0.20850611844435332,-0.11132336293458937,0.11530428579691797
1686343532439982300,1.064982421875,0.18397782638743518,-0.11866437334716319,0.1409197703023441
1686343532450001400,1.07500146484375,0.05389525631666183,-0.11646247938871383,0.05346124881356954
1686343532460021500,1.085021484375,-0.06925371509864926,-0.0967746131002903,-0.03554978108052164
1686343532470041600,1.09504150390625,-0.1952092683672905,-0.0752636230379343,-0.014918752190470695
1686343532480060400,1.105060302734375,-0.2644505623757839,-0.011413374418020247,-0.057469899933040136
1686343532490080300,1.115080322265625,-0.29939094285368917,0.0293055894613266,-0.07346475692242384
1686343532500100400,1.125100341796875,-0.2818282520256936,0.025262451550364492,-0.09481788954194635
1686343532510119400,1.135119384765625,-0.20580708861872551,-0.009509586623311042,-0.08858688619788735
1686343532520139500,1.145139404296875,-0.1421048701673746,-0.04447393249869346,-0.049560149721801276
1686343532530159400,1.155159423828125,-0.14858604888021945,-0.04441372674405575,-0.03742605981379747
1686343532540178400,1.165178466796875,-0.10503624548912048,-0.059353521722555154,-0.022969956699013708
1686343532550199000,1.175198974609375,-0.007844283759593963,-0.12589549364447594,0.01538081674426794
1686343532560219100,1.18521923828125,-0.006899842516332864,-0.14189035063385963,0.14478106710668653
1686343532570238000,1.195238037109375,-0.10329919256344437,-0.13396014215648175,0.07736611174251884
1686343532580257800,1.2052578125,-0.2128508696503937,-0.08733867623507977,-0.037750213734246786
1686343532590278000,1.21527783203125,-0.2780022639967501,-0.0541582911670208,-0.09389237219486385
1686343532600297000,1.225296875,-0.23489421302378177,-0.008393734335899353,-0.15283990693241356
1686343532610317000,1.235317138671875,-0.12008651510477066,-0.010219780719280242,-0.08729922100752592
1686343532620337000,1.2453369140625,-0.08158698084056377,0.0009270517170429229,-0.07742810759544372
1686343532630356000,1.25535595703125,-0.03566124209836125,0.0024339491486549377,-0.11446637366805225
1686343532640375800,1.265375732421875,0.0468424151957035,0.03366904536783695,-0.10015256510078907
1686343532650396000,1.27539599609375,0.02015606832206249,0.02318213814496994,-0.05610562584251165
1686343532660415000,1.2854150390625,-0.04184709112644195,0.0400151995241642,-0.11167144571989775
1686343532670435000,1.29543505859375,-0.07443067934513091,0.08879530478417873,-0.1820019962698221
1686343532680455000,1.305454833984375,-0.12517945432960986,0.09069032475054263,-0.17320932574421166
1686343532690474000,1.315473876953125,-0.23238537200801074,0.08652969793975353,-0.1651577924421057
1686343532700494000,1.325494140625,-0.20774083316028116,0.11204875459969044,-0.15228607244193554
1686343532710514200,1.33551416015625,-0.07787702040672302,0.11179857923090457,-0.12474077065140009
1686343532720533000,1.345532958984375,0.10190145459473132,0.11641104146242141,-0.009485328964889048
1686343532730552800,1.355552734375,0.3375999697387218,0.11230828231871127,0.10922171448022126
1686343532740573000,1.365572998046875,0.5643921248495578,0.09079027799367904,0.1851762423917651
1686343532750592000,1.375592041015625,0.6779875243693589,0.03461713987290859,0.21087240918427705
1686343532760612000,1.385612060546875,0.6931243032246828,-0.014085808497667312,0.23091537252068517
1686343532770632000,1.3956318359375,0.6215315507192164,-0.06502806022763252,0.17250733322100714
1686343532780650800,1.405650634765625,0.4987129803020507,-0.10960253049135207,0.0656324741278775
1686343532790670800,1.4156708984375,0.3732733406662941,-0.07934826200306415,0.017246026094257832
1686343532800691000,1.42569091796875,0.3186164523273706,-0.08733516910374164,0.004587035529315471
1686343532810710000,1.4357099609375,0.3044803018819541,-0.10436930601298808,0.01486640094872564
1686343532820729900,1.445729736328125,0.2882539742242545,-0.08031447668671607,0.11073120572771876
1686343532830750000,1.45575,0.19938918440043926,-0.1092921493679285,0.22086188827902078
1686343532840769000,1.46576904296875,0.17447919954955576,-0.09580547580718994,0.15578209786415098
1686343532850789000,1.4757890625,0.20743571273386477,-0.021657705056667326,0.05817658689767122
1686343532860809000,1.48580908203125,0.18451712089590727,0.0023480244308710096,-0.027348646707274018
1686343532870828000,1.495828125,0.1485107186216861,-0.017919103050231932,-0.004878985946904868
1686343532880848000,1.505847900390625,0.12028941726572812,-0.00750935271680355,0.021001323507167397
1686343532890868000,1.515867919921875,0.07655950806736946,-0.009930442383885383,0.05380290185809135
1686343532900887000,1.525886962890625,0.04054075776822865,-0.03766892865896225,0.07010788424257189
1686343532910907100,1.5359072265625,0.001364274090528488,-0.05489595779180526,0.06281272226572036
1686343532920927000,1.545927001953125,-0.0851711960028857,-0.07842121028602123,0.039128808611072596
1686343532930945800,1.55594580078125,-0.20538002231307326,-0.11800035648047923,-0.054056620890833434
1686343532940966000,1.5659658203125,-0.29102577702514826,-0.10491641850173472,-0.05470595164503902
1686343532950986000,1.575986083984375,-0.276937557374686,-0.06762450646162033,0.004968216866627335
1686343532961005000,1.586005126953125,-0.23622867649793625,-0.04543371744155884,0.009459025479853153
1686343532971025000,1.59602490234375,-0.22129129267223177,-0.03348492097258567,-0.030577253364957868
1686343532981045000,1.606044921875,-0.1989034467101097,-0.016095979276299476,-0.06231412509381771
1686343532991064000,1.61606396484375,-0.09958784389011562,-0.009259411254525184,-0.016254640436731277
1686343533001084000,1.626083984375,0.0020903233427554367,0.003972995284199714,0.06447104739937931
1686343533011103700,1.636103759765625,0.07645261362679302,-0.0033370354682207104,0.07440733500216155
1686343533021122800,1.646122802734375,0.16811901686787603,-0.03601823884248733,0.1067605850636959
1686343533031143000,1.656142822265625,0.18039229605086146,-0.022356208714842795,0.0804226497689262
1686343533041163000,1.6661630859375,0.08090718188285827,-0.029607202756404875,-0.030602351273596284
1686343533051182000,1.67618212890625,0.04981112880818545,-0.040498599126935,-0.08845661088172346
1686343533061202200,1.6862021484375,0.06557692628204823,0.0028209026396274566,-0.0629284575998783
1686343533071222000,1.696221923828125,0.023925723053887484,0.005434300008416175,0.027268274947442113
1686343533081240800,1.70624072265625,-0.022077464838698505,0.019070026651024818,-0.05067223914954811
1686343533091261000,1.716260986328125,-0.0843705471444875,-0.005363572859764099,-0.09594199820104986
1686343533101281000,1.726281005859375,-0.07660108218677342,0.004850947162508964,-0.10609514342490584
1686343533111300000,1.736300048828125,-0.02520275725238025,0.041837154254317284,-0.1001595428308472
1686343533121320000,1.74631982421875,0.020136340708285568,0.07869710461795329,-0.03597724924497306
1686343533131340000,1.756340087890625,0.12529935438223183,0.0436532637655735,-0.03978456910606473
1686343533141358800,1.76635888671875,0.17426592212505637,-0.023919220247864723,-0.10423892109896987
1686343533151379000,1.77637890625,0.12387494760230183,-0.09204992266595363,0.18454881294211373
1686343533161398800,1.786398681640625,0.1671580628812313,-0.02785246804356575,0.01447276198863983
1686343533171417900,1.79641796875,0.19979308902621268,0.021185411369800566,-0.05510492436736822
1686343533181438000,1.80643798828125,0.15273498525321483,0.012452654337882995,-0.014507248780131338
1686343533191458000,1.8164580078125,0.011420900137349962,0.030250761356949804,0.033936427599750456
1686343533201477000,1.82647705078125,-0.1437649123340845,-0.05011632229983806,0.10420622440576553
1686343533211497000,1.8364970703125,-0.2027723970979452,-0.03758534202873707,0.007894260381162166
1686343533221515800,1.846515869140625,-0.24761282482147215,-0.00005377601385116577,-0.12674275812357663
1686343533231535900,1.856535888671875,-0.2939922986805439,-0.0235322667568922,-0.24960282959491012
1686343533241556000,1.866555908203125,-0.30084691381566225,-0.0037438627034425734,-0.20842879715813323
1686343533251576000,1.876576171875,-0.07964687962345779,-0.08025719354152679,-0.04010810197200626
1686343533261595100,1.88659521484375,0.11456395229101181,-0.071987377846241,0.16400456728637217
1686343533271615000,1.896614990234375,0.14658983356170355,-0.024166473007202146,0.1515857786854729
1686343533281633800,1.9066337890625,0.14028167332820593,-0.07025193235576152,-0.05413465456310659
1686343533291654000,1.91665380859375,0.041114758263900875,-0.09506079491972923,0.08015462821619584
1686343533301674000,1.926674072265625,-0.11883271565139293,-0.10708791732192038,0.22125264116227625
1686343533311693800,1.93669384765625,-0.31475575831122693,-0.11439444094300269,0.18396010806765406
1686343533321713000,1.946712890625,-0.30324652230329807,-0.10836802026033401,-0.024830818667449055
1686343533331733000,1.95673291015625,-0.12014489422850311,-0.07660042459964751,-0.08798599769528954
1686343533341752000,1.966751953125,0.060466451400518414,-0.08871288719773292,0.06226560977697372
1686343533351772200,1.976772216796875,0.1802911006987095,-0.05966273380219936,0.1384837570607662
1686343533361791700,1.986791748046875,0.05275719219744205,0.009568623334169387,0.10312573569267988
1686343533371810800,1.996810791015625,-0.0998888726633042,0.02832768433988094,-0.12822945301737634
1686343533381831000,2.006830810546875,0.03114507984817028,0.0885264247149229,-0.2772057067915797
1686343533391851000,2.01685107421875,0.26790450222194195,0.05940788225829601,-0.04626052365452051
1686343533401870000,2.0268701171875,0.41585809841752047,0.036170214533805846,0.12327332844734191
1686343533411890000,2.036889892578125,0.3786789991021156,0.002010170778632164,0.19640958406776188
1686343533421910000,2.046909912109375,0.2979126869946718,-0.018170447462797164,0.12199088742136954
1686343533431930000,2.05693017578125,0.2153646791022271,-0.01628185723721981,0.010556721056066453
1686343533441949000,2.066948974609375,0.1111602082621306,-0.03630699265599251,-0.008841222375072538
1686343533451969000,2.076968994140625,0.0726152274210006,-0.030269466057419776,0.04129504673425108
1686343533461988900,2.08698876953125,0.07562836469709873,-0.011461889734864235,0.04582213223725557
1686343533472008000,2.097008056640625,0.13479133228361606,0.01806172639131546,-0.009356441888213158
1686343533482028000,2.107028076171875,0.20498371647186575,0.042480128332972523,-0.08718461818452924
1686343533492048100,2.117048095703125,0.16485387759208678,0.005591536396741867,-0.14919161355793475
1686343533502067000,2.12706689453125,0.13687756397314368,-0.007781155395507812,-0.18474336739983407
1686343533512086800,2.137086669921875,0.07530402811355888,0.022084406036138534,-0.07344104725327343
1686343533522107000,2.14710693359375,0.05259184556789696,-0.1382312436044216,0.335166057122685
1686343533532126000,2.1571259765625,0.04295300654172897,-0.00646715018749237,0.2503805359691381
1686343533542146000,2.16714599609375,0.2118313904095441,0.009752747729420662,-0.04432308931853622
1686343533552164900,2.177164794921875,0.19459383988268672,-0.0567506457477808,0.08228961268458515
1686343533562184700,2.187184814453125,0.11185469333231449,0.011104162338376045,0.09112257868796586
1686343533572204500,2.19720458984375,-0.06634988341592252,0.04449439076483249,-0.03247230986393988
1686343533582224600,2.207224609375,-0.17449198596589266,0.017850129467248916,-0.1775125393634662
1686343533592243700,2.21724365234375,-0.1347316379856318,0.007967617878317833,-0.16684238452818242
1686343533602263800,2.227263916015625,-0.15663491530120371,0.009247720816731453,-0.029603695625066755
1686343533612283600,2.23728369140625,-0.16279584908373654,-0.012310030996799469,-0.05836133234743029
1686343533622302700,2.247302734375,-0.11299217292964457,-0.04322773182988167,-0.049970776349306106
1686343533632322800,2.25732275390625,-0.09841836171932518,-0.0753419489711523,-0.040420601987279946
1686343533642343000,2.267343017578125,-0.10129581685177981,-0.08678922565877437,0.004579765538312495
1686343533652361700,2.27736181640625,-0.09262275411784648,-0.0777817433387041,0.00008621697872877121
1686343533662381600,2.287381591796875,-0.12218253753595053,-0.07857143241167068,-0.02398611147161573
1686343533672400600,2.297400634765625,-0.13656879028491675,-0.04976444012224674,-0.050108979243598875
1686343533682420700,2.307420654296875,-0.14138232804648576,-0.017733809611201284,-0.02908255782779306
1686343533692440800,2.31744091796875,-0.12912249286696315,-0.004936287358403206,-0.03695632341019809
1686343533702460700,2.327460693359375,-0.04652567739672959,-0.0035328503012657165,-0.032587131882645184
1686343533712479500,2.3374794921875,0.05181318934559822,0.00982990461885929,0.03853402105569839
1686343533722499600,2.34749951171875,0.10805413200557232,0.009502572360634804,0.08152472925931215
1686343533732519700,2.357519775390625,0.1369405462067574,-0.00830196439921856,0.04787639788594097
1686343533742538800,2.367538818359375,0.12911737830042838,-0.003679565295577049,-0.0030538346126675604
1686343533752558600,2.37755859375,0.10951960144825279,0.002183189257979393,-0.016785386312566698
1686343533762577700,2.38757763671875,0.021369024308398366,0.026274843463301657,-0.03767473734524101
1686343533772597800,2.39759765625,-0.07958681999929249,-0.00047229368686676023,-0.08763243501726538
1686343533782617900,2.407617919921875,-0.1961457454998046,0.0014215572357177734,-0.10489219737593083
1686343533792636700,2.41763671875,-0.25990999633669853,-0.003444587495923042,-0.12229717689156532
1686343533802656800,2.42765673828125,-0.22865729139558968,0.0063303720653057095,-0.07638060783650726
1686343533812676600,2.437676513671875,-0.1975263131380081,-0.011158522874116897,-0.04835895723849535
1686343533822695700,2.44769580078125,-0.21950966995246707,-0.01386193661391735,-0.1022010585958138
1686343533832715800,2.4577158203125,-0.2523345926463604,-0.051021746706962585,-0.1497211903899908
1686343533842735900,2.46773583984375,-0.1395731597326696,-0.07052256599068642,-0.05143200800828635
1686343533852754700,2.477754638671875,-0.0754945091843605,-0.10373393071889876,0.1475520296573639
1686343533862774500,2.4877744140625,-0.016498787923529743,-0.10312485890984535,0.10580543976332991
1686343533872794600,2.497794677734375,0.05540514942295849,-0.10112813213467597,0.0633692236373201
1686343533882813700,2.507813720703125,0.12196166132688521,-0.09458850123286247,0.08581891932189464
1686343533892833800,2.517833740234375,0.16795710430443286,-0.05667758051156997,0.1312447457179427
1686343533902853600,2.527853515625,0.1276443831384182,-0.006723170775175094,0.11987842531204224
1686343533912872700,2.537872802734375,0.03322020562179386,0.027020693394541738,-0.0030669498225674033
1686343533922892800,2.547892822265625,0.07977035987265407,0.03671031275987625,-0.02575078305657953
1686343533932912600,2.55791259765625,0.23318572860546408,0.033866613766551014,0.060184748382307585
1686343533942931700,2.567931640625,0.34166005878448485,0.037462007910013195,0.14220862280279398
1686343533952951600,2.57795166015625,0.3332441126167774,0.010813654959201812,0.1359919402450323
1686343533962971600,2.5879716796875,0.23301607112698255,0.013508300870656966,-0.00025751842502504585
1686343533972990700,2.59799072265625,0.04820376667678356,0.017242226701974867,-0.1514987214565277
1686343533983010800,2.6080107421875,-0.02104468772485852,0.026105916637182234,-0.178132497892715
1686343533993031000,2.618031005859375,0.03902509250827133,0.0007902735948562622,-0.04478281578477472
1686343534003049700,2.6280498046875,0.0509773230433464,-0.01734510255455971,0.02288052484989166
1686343534013069600,2.638069580078125,0.026855346764996645,-0.04227729923725128,0.024442696132697162
1686343534023089700,2.648089599609375,-0.022901421507447957,-0.06100011988580226,-0.0006774243375286459
1686343534033108700,2.658108642578125,-0.03961246394217014,-0.0637654929459095,0.020410335344076155
1686343534043128800,2.66812890625,-0.051553077104687685,-0.07384674197733401,0.024417232897877693
1686343534053148700,2.678148681640625,-0.12091770523190498,-0.0419803621172905,0.011268705250322818
1686343534063167700,2.688167724609375,-0.19108020573854445,-0.017594693401455877,-0.01826338644325733
1686343534073187600,2.6981875,-0.21348368766121564,-0.010960954475402832,-0.06511190258618443
1686343534083207700,2.708207763671875,-0.1770293224237859,-0.002112462109327316,-0.1034033470576629
1686343534093226800,2.718226806640625,-0.1090039070110768,-0.0015144962161779403,-0.08513060826417058
1686343534103246600,2.72824658203125,-0.019022680377960205,-0.017503507986664772,-0.012444763292372226
1686343534113266700,2.7382666015625,0.05038067232444882,-0.028237667968869208,0.05808748384211212
1686343534123285800,2.74828564453125,0.12650865710675716,-0.041249709755182266,0.1273670275017619
1686343534133305900,2.758305908203125,0.19535371833927928,-0.04179156154692173,0.15728201756570487
1686343534143324700,2.76832470703125,0.28851240596473215,-0.008975333616137504,0.18394231668263672
1686343534153344500,2.778344482421875,0.43033436753749843,0.0313140066742897,0.28686522327959535
1686343534163364600,2.788364501953125,0.5445347472131252,0.06053367141783237,0.3503437159776687
1686343534173383700,2.7983837890625,0.6548429417558014,0.09056348350048064,0.3925433103362098
1686343534183403800,2.80840380859375,0.635919337838143,0.13913491444587706,0.3527244371017441
1686343534193424000,2.818423828125,0.6098660281710326,0.10620938092172146,0.16359331960435955
1686343534203442700,2.828442626953125,0.44860549889579415,0.11307225242853164,0.09511201365031302
1686343534213462500,2.838462646484375,0.2288414888560772,0.10412146873176097,0.047048751422762866
1686343534223482600,2.848482666015625,0.06992759577222168,0.04154723139703274,-0.013666669770143925
1686343534233501700,2.858501708984375,-0.15726561442017553,-0.05029986217319965,-0.17282792521119117
1686343534243521800,2.868521728515625,-0.39788536548390985,-0.13679974949657916,-0.43904761615134774
1686343534253541600,2.878541748046875,-0.5911217263430356,-0.18112930508852004,-0.487352139788866
1686343534263560700,2.888560791015625,-0.6458749877285211,-0.1733323676019907,-0.3822509758373722
1686343534273580800,2.898580810546875,-0.5448286155931651,-0.14632102655768395,-0.2024315477710217
1686343534283601000,2.908600830078125,-0.3646146717838943,-0.12287643808424473,-0.04841178340427577
1686343534293619700,2.91861962890625,-0.18504443270564078,-0.10445289264321327,-0.04249386459738016
1686343534303639600,2.9286396484375,-0.09808145791515707,-0.08302432016730309,-0.016106427605077623
1686343534313659600,2.93865966796875,-0.0810099846702069,-0.026752397847175598,0.06204352799151092
1686343534323678700,2.9486787109375,-0.0821300016760826,-0.031653613892197605,-0.003906359788775444
1686343534333698800,2.95869873046875,-0.16654796815887093,-0.027927286845445633,-0.03244396055229008
1686343534343718000,2.9687177734375,-0.22538053474724293,-0.016705051085352897,-0.01719020425379276
1686343534353737500,2.978737548828125,-0.21936229737102983,-0.021089549779891966,-0.016529694518446922
1686343534363757600,2.988757568359375,-0.21545644903890787,-0.0300461786955595,-0.05333758590128272
1686343534373776600,2.998776611328125,-0.18025486034154892,-0.03640110068023204,-0.08431640580445528
1686343534383796700,3.008796630859375,-0.13044775012135504,-0.018312486281991003,-0.09265110342949628
1686343534393816800,3.01881689453125,-0.1258615913748741,-0.005451835665106773,-0.06445669008046388
1686343534403835600,3.028835693359375,-0.03031681233048439,-0.009420154774188994,-0.09362491689771413
1686343534413855700,3.038855712890625,0.0847229407787323,0.015842296776175498,-0.08185732221454381
1686343534423875800,3.048875732421875,0.057846039769053455,0.026791560813784598,-0.057305649282038205
1686343534433894700,3.058894775390625,-0.039132571470737454,-0.017132921108603476,-0.029893910743296146
1686343534443914800,3.068914794921875,-0.02424830607175827,-0.04406885882914066,-0.020633330444991587
1686343534453934600,3.0789345703125,0.058415948611497875,-0.04572013316750526,-0.01625350792557001
1686343534463953700,3.08895361328125,0.08393135200962423,-0.03887947349250316,0.031070187981054185
1686343534473973800,3.098973876953125,0.09326923532783984,-0.04103694378733635,0.0691851799070835
1686343534483992800,3.108992919921875,0.0996241573125124,-0.03555822011530399,0.05528787971884012
1686343534494012700,3.1190126953125,0.012848960179090499,-0.0328694194227457,0.09530044889450073
1686343534504032500,3.129032470703125,-0.030116905844211575,-0.016647183418273925,0.10292495242357254
1686343534514051600,3.139051513671875,0.0789888541061431,-0.027861820393800734,0.024974611052311954
1686343534524071700,3.14907177734375,0.17423253131210803,-0.04301145873069763,-0.012127075645327567
1686343534534091800,3.159091796875,0.15440204168260097,-0.005817161846160888,0.009284253434836864
1686343534544110800,3.16911083984375,0.06520867749154567,-0.010845219141244887,-0.022913842597603797
1686343534554130400,3.17913037109375,-0.03781966224126518,-0.030144378373026845,-0.06980210622902959
1686343534564150500,3.189150634765625,-0.09695800684317946,-0.022932547298073768,-0.055828489401564
1686343534574169300,3.19916943359375,-0.09022204965166747,-0.03386076854765415,0.009101626876927912
1686343534584189400,3.209189453125,-0.04206329116038978,-0.03932838630378246,0.02960694702807814
1686343534594208500,3.21920849609375,0.012081482937932014,-0.03313479236066341,0.03978109850734472
1686343534604228600,3.229228515625,0.05746303180083632,-0.056218730828166,0.039404008823260665
1686343534614248400,3.23924853515625,0.06223638368248939,-0.04819733693599701,0.04323386930972337
1686343534624267300,3.249267333984375,0.027115970462560653,-0.013103227201104163,0.046885377554595466
1686343534634287400,3.259287353515625,-0.0460289068557322,0.011516250270605087,-0.041630306570604445
1686343534644307500,3.269307373046875,-0.1031651178549975,0.03401800493597984,-0.07978983175810427
1686343534654326500,3.279326416015625,-0.06209953249506652,0.04633621923923492,-0.058669010057114064
1686343534664346400,3.289346435546875,0.02354454171657562,0.028749124622344968,-0.02999386398643255
1686343534674365400,3.299365478515625,0.0729858142990619,-0.012456161469221114,-0.018409772644005715
1686343534684385500,3.309385498046875,0.03866561154611409,-0.027453239592909812,-0.005620433697663248
1686343534694405600,3.319405517578125,-0.017468436673283575,-0.046693362113833424,-0.007428104174137115
1686343534704424400,3.329424560546875,-0.06071560385599732,-0.06248129835426807,-0.026862361027672886
1686343534714444300,3.3394443359375,-0.10465805982649326,-0.056689270949363706,-0.02443856794685125
1686343534724464400,3.34946435546875,-0.12407777669802307,-0.053958384680747984,0.009884192089363931
1686343534734483500,3.3594833984375,-0.11682020678520202,-0.03860591724812984,-0.004750701658427715
1686343534744503600,3.369503662109375,-0.07782843202464282,-0.029509587600827215,-0.013305435242317616
1686343534754522600,3.379522705078125,-0.04177753302156925,-0.02976210105717182,0.005900456215441227
1686343534764542500,3.38954248046875,0.0010077157378196716,-0.04400222333371639,-0.004979249717295169
1686343534774562300,3.399562255859375,0.03427994380779564,-0.04192717062532902,-0.00024049422498792408
1686343534784581400,3.409581298828125,0.05075345115959644,-0.029957915890216825,0.004722936868667602
1686343534794601500,3.4196015625,0.063334188856557,0.0057446811318397515,0.011590228822268544
1686343534804621600,3.42962158203125,0.033839141237735744,-0.0028150574207305907,0.015299275940656661
1686343534814640600,3.439640625,0.026509675132483243,0.004127893584966659,-0.00977298679985106
1686343534824660500,3.449660400390625,0.04118541234731674,0.017421090400218962,-0.0209007492095232
1686343534834679300,3.45967919921875,0.00970547452159226,0.015548866787552833,0.0002773921692743897
1686343534844699400,3.469699462890625,0.013350041569024324,-0.015533084696531295,0.009666896076872945
1686343534854719500,3.479719482421875,0.1406769562561065,-0.03725567168295383,0.014766520770825445
1686343534864738600,3.489738525390625,0.1469984874278307,-0.030914778223633765,0.053850540392100806
1686343534874758400,3.49975830078125,0.08687405439801514,-0.021667641928792,0.042203393750824034
1686343534884778500,3.509778564453125,0.05465579236038029,-0.02614975577890873,-0.00697535543795675
1686343534894797600,3.519797607421875,0.011962824994325638,-0.023988778352737425,-0.00985650036484003
1686343534904817400,3.5298173828125,-0.04161963904611766,-0.022058687072992324,-0.014438238664530216
1686343534914836500,3.53983642578125,-0.04052366050295531,-0.04498305106461048,-0.034667372222803534
1686343534924856300,3.549856201171875,-0.07503792452327906,-0.028149405163526535,-0.004299414226971566
1686343534934876400,3.55987646484375,-0.14354155190698803,-0.021819033098220825,0.028477650737203656
1686343534944895500,3.5698955078125,-0.195465215889737,-0.019984218886494636,0.018249686711467802
1686343534954915600,3.57991552734375,-0.18615458590462802,-0.03234276520013809,-0.01720489036627114
1686343534964934400,3.589934326171875,-0.12010478141382336,-0.03698620709180832,-0.03568133503831923
1686343534974954200,3.599954345703125,-0.016383490980789065,-0.018718144473433493,-0.02656239170040935
1686343534984974300,3.609974365234375,0.04952478614747524,-0.014298574465513228,-0.03592120820879936
1686343534994993400,3.619993408203125,0.08496968208141624,-0.028689503389596936,-0.03437394223418087
1686343535005013500,3.630013427734375,0.06463409247398376,-0.028773090019822117,-0.03615267887711525
1686343535015033600,3.64003369140625,0.021820859729126094,-0.012038228318095206,-0.03263791222181171
1686343535025052700,3.650052734375,-0.02153378641605377,-0.006932429611682891,-0.0292313551813364
1686343535035072500,3.660072509765625,-0.07057751104831696,-0.0006155015498399734,-0.009277239172160626
1686343535045091300,3.67009130859375,-0.09172200588583945,-0.009154197314381598,0.031019407641887663
1686343535055111400,3.680111328125,-0.05211480264067649,-0.0031038112342357633,0.011266367162764072
1686343535065131500,3.690131591796875,-0.042633711459487675,-0.018993454283475875,0.012962138229981063
1686343535075150600,3.700150634765625,-0.04491809606961906,-0.01833528263568878,0.013480572613514959
1686343535085170400,3.71017041015625,0.004553425520658493,-0.02756663683950901,0.02892681927680969
1686343535095189500,3.720189453125,0.03657645724713802,-0.03758534202873707,0.029368717825412748
1686343535105209300,3.730209228515625,0.06764613377153873,-0.03887479731738567,-0.015104045629501342
1686343535115229400,3.7402294921875,0.05037351193130016,-0.042920273315906525,-0.04778875613510608
1686343535125248500,3.75024853515625,0.011946458381414412,-0.025119828209280968,-0.06200462075322866
1686343535135268400,3.760268310546875,0.005095934899523854,-0.029294483545422554,-0.05180526176746934
1686343535145287400,3.770287353515625,-0.01405190622806549,-0.022727380114793777,-0.009595803602039814
1686343535155307500,3.7803076171875,-0.03421674237847328,-0.002235211706161499,0.015147007988393305
1686343535165327600,3.79032763671875,-0.07666530652940273,-0.014230769926309585,0.029923721359670162
1686343535175346400,3.800346435546875,-0.0941162075459957,-0.02159925286769867,0.027280513374507424
1686343535185366300,3.8103662109375,-0.10173135872483254,-0.01891512835025787,0.016999650117754936
1686343535195385300,3.82038525390625,-0.11618775410056113,-0.019775544571876524,-0.011720540671050548
1686343535205405400,3.830405517578125,-0.08033303525671362,-0.04014554790556431,-0.06189845696501434
1686343535215425500,3.840425537109375,-0.014134323814511298,-0.045987844192981714,-0.08535831607282161
1686343535225444600,3.850444580078125,0.02508651046156883,0.012062193715572357,-0.026694530180096626
1686343535235464400,3.86046435546875,0.058341129809617996,0.03663607847988605,0.03510141625851392
1686343535245483500,3.8704833984375,0.08040573516674339,0.016066753181815146,0.03759999160859734
1686343535255503400,3.88050341796875,0.10816519116461276,-0.006872223857045173,0.05037614227980375
1686343535265523500,3.8905234375,0.14048691357672213,-0.01711830806136131,0.042130584242939945
1686343535275542500,3.90054248046875,0.10754676700532435,-0.023845570489764212,0.03125935387760401
1686343535285562600,3.910562744140625,0.048753801774978636,-0.031997897285223,-0.010872983931005
1686343535295581400,3.92058154296875,-0.006421995871514081,-0.046321606191992756,-0.03908544439338148
1686343535305601300,3.930601318359375,-0.041538463568687435,-0.08185644543170928,-0.0366579980507493
1686343535315621400,3.940621337890625,-0.08827697999849915,-0.07597498617768288,-0.03293170753661543
1686343535325640400,3.950640380859375,-0.10932663615942001,-0.05289338579773903,0.01528144802302122
1686343535335660500,3.96066064453125,-0.10302307903580367,-0.04706628707945346,0.014671828224696218
1686343535345679600,3.9706796875,-0.0942781201094389,-0.03353811246454715,-0.003215747176110744
1686343535355699500,3.980699462890625,-0.0834415957313031,-0.017474866414070128,-0.028650011629424987
1686343535365719600,3.990719482421875,-0.04062646329030394,-0.014030863440036774,-0.017205073029361664
1686343535375738400,4.00073828125,0.042332901882007716,-0.013759060761332511,0.022081519959308207
1686343535385758500,4.010758544921875,0.09011354777589439,0.0054512511432170865,0.051326026883162554
1686343535395777500,4.020777587890625,0.06265848155207931,-0.008279168045520782,0.03608491087052971
1686343535405797400,4.03079736328125,0.027498905365541577,-0.01918108581006527,0.0013315773973241447
1686343535415816400,4.04081640625,0.02589081258177757,-0.016585808619856833,-0.011456044515967368
1686343535425836500,4.05083642578125,0.044943303576111794,-0.010033902758359909,0.004774959316849708
1686343535435856400,4.0608564453125,0.10307707424536347,-0.020264789393544196,0.01538669849578291
1686343535445875500,4.07087548828125,0.15230309664197264,-0.015098200410604477,0.026592567642964422
1686343535455895300,4.080895263671875,0.15377952587008475,-0.013424129718542099,0.02152063467353582
1686343535465914400,4.090914306640625,0.13015548917651176,-0.014675591084361075,0.0029576807618141173
1686343535475934500,4.1009345703125,0.08337510636635125,-0.008667290580272675,0.023257870262302457
1686343535485954600,4.11095458984375,0.011121697995066642,0.00719955611526966,0.02127192060947418
1686343535495973400,4.120973388671875,-0.03569675180315971,0.011425064855813979,0.007199848376214504
1686343535505993500,4.130993408203125,-0.04786993161253631,0.00041501054167747495,0.006518040124513209
1686343535516012500,4.141012451171875,-0.06717968530356884,-0.01270166066288948,0.015176234082877636
1686343535526032400,4.151032470703125,-0.15293774128369986,-0.014407295536994933,-0.008326185525022447
1686343535536052500,4.161052490234375,-0.2990828267525881,-0.011505728876590729,-0.0552533563947305
1686343535546071600,4.171071533203125,-0.46014147678017614,-0.03025836014151573,-0.17496902889311314
1686343535556092000,4.181091796875,-0.5585112501174211,-0.026065000104904174,-0.23889614214152097
1686343535566111000,4.191111083984375,-0.5228175670541823,0.058690089377760886,-0.3089838603788987
1686343535576130800,4.201130859375,-0.4420863262601197,-0.002215337961912155,-0.2075985386127606
1686343535586150000,4.21114990234375,-0.4107112370483577,-0.11369126110970973,-0.11537669344600289
1686343535596170000,4.221169921875,-0.3260404648482799,-0.08470014442503451,-0.10019085128456354
1686343535606190000,4.231190185546875,-0.1491628989201039,-0.07299567810595035,-0.05387096212562173
1686343535616209200,4.241209228515625,0.21381116604991257,-0.1255868660867214,0.11714289940092712
1686343535626229000,4.25122900390625,0.46401926806159316,-0.14525310506522654,0.37264326260183006
1686343535636247800,4.261247802734375,0.5261481727816164,-0.12260814253687857,0.41827074904982
1686343535646268000,4.271267822265625,0.493755723220855,-0.12480126866698264,0.21429599042478947
1686343535656288000,4.2812880859375,0.2891932278357446,-0.06306757380962372,-0.07111618450228124
1686343535666307000,4.29130712890625,0.11712868821248411,-0.013462123641371726,-0.15755177441779522
1686343535676327000,4.301326904296875,0.0072474869102239605,0.010696750581264495,-0.227877612259984
1686343535686346000,4.311345947265625,0.04032974536605179,0.08859130664467811,-0.1750613468190655
1686343535696366000,4.321365966796875,0.17654015066735446,0.12453472668528556,-0.04928809131477028
1686343535706386000,4.331385986328125,0.35409050129055974,0.07002163073122501,0.0654296267658472
1686343535716405000,4.341405029296875,0.28307467189021407,0.006644260320067406,0.2475678531685844
1686343535726424800,4.3514248046875,0.4023118766892701,0.04128244298100471,-0.04553334189113229
1686343535736444000,4.36144384765625,0.38516434253342446,0.056471244284510606,0.05083912014905363
1686343535746464000,4.371464111328125,0.3330436946738511,0.07406593768596649,0.10826079702619462
1686343535756484000,4.381484130859375,0.1855325084835291,0.10124737460017204,0.09161533064097166
1686343535766503000,4.3915029296875,0.046486441364884376,0.02252981171607971,0.10130436548441647
1686343535776522800,4.401522705078125,-0.08667933554351329,-0.049939796689152716,-0.022288696436583995
1686343535786541800,4.411541748046875,-0.14954057312607763,-0.08443009531199931,-0.2507949619889259
1686343535796562000,4.42156201171875,-0.18786884247660635,-0.09958674791157245,-0.3280243321418762
1686343535806581000,4.4315810546875,-0.3040705520372838,-0.10542787515521049,-0.108405100867711
1686343535816601000,4.44160107421875,-0.3778660022187978,-0.09260580298304558,0.07436809897031635
1686343535826621000,4.451620849609375,-0.42226621189415453,-0.07815174569487571,0.12433365115523337
1686343535836640000,4.461639892578125,-0.37678631722331046,-0.06717150199711322,0.0700870971828699
1686343535846659800,4.471659912109375,-0.2551180858850479,-0.055091188102960584,0.03496522265821695
1686343535856679000,4.481678955078125,-0.14339315641224384,-0.04188274696171283,0.09611118075549602
1686343535866699000,4.491698974609375,-0.03919686887860298,-0.03359071943461895,0.13269786713570356
1686343535876719000,4.501718994140625,0.033632220488786696,0.02020049198567867,0.05600625712126493
1686343535886738200,4.51173828125,0.026507410110160706,-0.008260463345050812,-0.006810301069356501
1686343535896757800,4.5217578125,0.03507138644643128,-0.02898176433444023,-0.048415053073596205
1686343535906776800,4.53177685546875,0.03992043391279876,-0.030536592561006545,-0.05086922302637249
1686343535916797000,4.541796875,0.06447108393199741,-0.019181670331954954,-0.057157436450384555
1686343535926817000,4.551817138671875,0.07199154256470501,-0.01424012227654457,-0.008511186703108251
1686343535936836000,4.561836181640625,0.06554485064335167,-0.002236380749940872,0.025556484327185897
1686343535946856000,4.57185595703125,0.06022036768496036,-0.00649111558496952,0.043968613325059414
1686343535956874800,4.581874755859375,0.07301204471886158,-0.004137830457091331,0.032816227930784224
1686343535966894800,4.591894775390625,0.0650981297891587,0.004783727145195007,0.02247073847260326
1686343535976914000,4.601913818359375,-0.041936522975564,0.010303951871395111,-0.05899024136811495
1686343535986934000,4.61193408203125,-0.0854810656696558,0.01231821430325508,-0.08398527415394783
1686343535996953900,4.621953857421875,-0.01632452733516693,-0.002854220387339592,0.01734714838117361
1686343536006973000,4.631972900390625,0.0699392131447792,-0.011949965512752533,0.0781739575266838
1686343536016993000,4.641992919921875,0.05588730691671371,-0.02621463770866394,0.05114478856474161
1686343536027011800,4.65201171875,0.07060724859945476,-0.06441080511212348,0.013282638888619839
1686343536037032000,4.662031982421875,0.13862404231429099,-0.07982230925559997,-0.016942659233510494
1686343536047052000,4.672052001953125,0.04780687631368637,-0.06057867960333824,0.002598199799656868
1686343536057070800,4.68207080078125,-0.03024484307281673,-0.060490416797995564,0.04003394075725227
1686343536067091000,4.692091064453125,-0.006658215780183672,-0.0469862075805664,0.06287528437422588
1686343536077110000,4.702110107421875,0.03391220647394657,-0.0385252532273531,0.17107143693268298
1686343536087130000,4.712130126953125,0.028958383458852766,-0.0311965177744627,0.16788257776349783
1686343536097149000,4.72214892578125,-0.08629406255297362,-0.026600422155857086,0.08618632786218076
1686343536107169000,4.7321689453125,-0.06519581800997257,-0.004943886142969131,-0.03653670975863933
1686343536117188900,4.74218896484375,-0.0017436287969350814,-0.009496727141737937,-0.029912323182821273
1686343536127208000,4.7522080078125,0.11756897932589054,-0.0003524666994810104,0.033553894555568696
1686343536137228000,4.76222802734375,0.16372341225743292,0.02319032145142555,0.05244125811606645
1686343536147247000,4.7722470703125,0.15231997471153735,0.03442541669309139,-0.012232874107360838
1686343536157267000,4.782266845703125,0.09396656994223594,0.03180909671485424,-0.06784311764836311
1686343536167286800,4.792286865234375,0.03541501225233078,0.009044891721010207,-0.09226385767757891
1686343536177305900,4.802305908203125,0.08182195864021778,0.006140986973047256,-0.06341594885587692
1686343536187326000,4.812325927734375,0.1424187584221363,-0.02995733136832714,0.031116146014630794
1686343536197345000,4.822344970703125,0.10594342346191406,-0.04566518810987472,0.09982289475500583
1686343536207365000,4.832365234375,0.05050736744403839,-0.06124912621080875,0.10533113678246736
1686343536217384000,4.842384033203125,0.00724390671364963,-0.051805006039142606,0.04375434951987117
1686343536227403800,4.85240380859375,-0.02205291491933167,-0.04952186353802681,-0.0024886384779587386
1686343536237423900,4.862423828125,-0.17381934740133584,-0.023203765454888343,-0.10511519247684627
1686343536247443000,4.87244287109375,-0.1795757189709693,-0.026349077743291854,-0.18309187386576084
1686343536257463000,4.882463134765625,-0.02840140716321766,-0.032271453529596324,-0.11526453830841928
1686343536267482000,4.892482177734375,0.048014381584525104,-0.044425417181849475,0.04342880735993385
1686343536277502000,4.902501953125,0.03585815290994942,-0.04723112225234508,0.08786096480982378
1686343536287521800,4.912521728515625,-0.013486089038848877,-0.03217559193968773,0.0661851213082671
1686343536297540900,4.922540771484375,-0.029987141984701156,-0.032496494457125664,0.060174482716619966
1686343536307561000,4.93256103515625,-0.011740122154355048,-0.033303719186782835,0.05019669405966997
1686343536317580000,4.942580078125,0.00003967442326247692,0.0041501054167747495,0.028290238406322894
1686343536327600000,4.95260009765625,-0.02192249347269535,0.05395721563696861,0.029414602793753145
1686343536337620000,4.962619873046875,-0.0011965163081884384,0.056952305799722665,-0.01514730024933815
1686343536347638800,4.972638671875,0.09712824884355067,0.059414896520972246,-0.0711921358153224
1686343536357659000,4.982658935546875,0.2040584183204919,0.04942541742622852,-0.0354813189541921
1686343536367678000,4.992677978515625,0.268708219820261,0.016075521010160444,0.06933043359667063
1686343536377698000,5.002697998046875,0.21411511743254957,-0.004490297156572342,0.11441756609026342
1686343536387717000,5.012717041015625,0.0755593911141157,-0.028513562300801275,0.0559270544052124
1686343536397737000,5.022737060546875,-0.05931435875594616,-0.06137830554842948,-0.026952012072503567
1686343536407757000,5.032757080078125,-0.14637187996208667,-0.08017243786752223,-0.048155543620884415
1686343536417775900,5.04277587890625,-0.1809656389594078,-0.06680734485983848,-0.04686754963696003
1686343536427796000,5.0527958984375,-0.1860707800786942,-0.06633855830430985,-0.08990615210290998
1686343536437815000,5.06281494140625,-0.17592932529263197,-0.07176759761571884,-0.06846939632054418
1686343536447835000,5.0728349609375,-0.15014964493513105,-0.06470774223208427,-0.05467237816900015
1686343536457855000,5.08285498046875,-0.10594751511514186,-0.04494505714178085,0.0009846271231770515
1686343536467874000,5.0928740234375,-0.0782568865697831,-0.06058510934412479,0.023214031120575962
1686343536477894100,5.10289404296875,-0.06939319663457572,-0.04349368928968906,0.029177031178213655
1686343536487913000,5.112912841796875,-0.04443286983594298,-0.03629764030575752,0.03928578927107155
1686343536497932800,5.122932861328125,0.004393851044774055,-0.014577975928783416,0.039619770465791224
1686343536507953000,5.132952880859375,0.05564231917969882,0.011891513323783874,0.025802513243816792
1686343536517972000,5.142971923828125,0.07028466558158397,0.028304303464293478,0.008124269744753837
1686343536527992000,5.152991943359375,0.042331732838228345,0.028268647629022595,-0.06675382457431406
1686343536538011100,5.16301123046875,0.05864332762658596,0.018868951120972633,-0.07325637486875057
1686343536548031000,5.173031005859375,0.07199724165312946,0.02508651046156883,-0.029969058338738978
1686343536558050300,5.18305029296875,0.058287426861003036,0.02250584631860256,0.002802234471775591
1686343536568069400,5.1930693359375,0.06410276207625866,-0.002949497455358505,0.0012549684971570967
1686343536578089500,5.20308935546875,0.07438391759395599,-0.009863222366571426,0.008772212259471416
1686343536588108500,5.213108642578125,0.08291742572672664,-0.024339491486549375,0.018371559525467453
1686343536598128600,5.223128662109375,0.033630539988353844,-0.027194880917668342,-0.003416786173544824
1686343536608147500,5.2331474609375,-0.02805054789893329,-0.03368599650263786,-0.02647266759034246
1686343536618167300,5.243167236328125,-0.044234205458685755,-0.03542319555878639,-0.008107574338279664
1686343536628187400,5.2531875,-0.0615782120347023,-0.015640636724233627,0.043719607000052924
1686343536638206500,5.26320654296875,-0.08067870688922703,-0.009635258829593658,0.0618239669566974
1686343536648226600,5.2732265625,-0.10334873079359531,-0.022029460978507994,0.003856383167207241
1686343536658245600,5.28324560546875,-0.15324994903802872,-0.031070261046290397,-0.064068567545712
1686343536668265500,5.293265380859375,-0.18119827867150307,-0.030972645890712736,-0.049041678805649275
1686343536678285600,5.30328564453125,-0.15001878509707747,-0.031183073770999905,0.037070049450360236
1686343536688304400,5.313304443359375,-0.059050666318461294,-0.0397100790977478,0.06225658622030168
1686343536698324500,5.323324462890625,0.04377257929630577,-0.05217910004854202,0.03021543431524187
1686343536708343600,5.333343505859375,0.12371990317106246,-0.062417585468292236,0.011366320405900477
1686343536718363600,5.34336376953125,0.1399573367446661,-0.04214870442152023,0.01857669017612934
1686343536728383500,5.353383544921875,0.1288818890441209,-0.0136550158649683,0.030582514061965046
1686343536738402600,5.363402587890625,0.11892572769708931,0.0032499417066574094,0.024775873609818515
1686343536748422400,5.37342236328125,0.04123516977317631,-0.002511106038093567,-0.06082005061116069
1686343536758441500,5.38344140625,-0.036968598369881506,-0.002081482449173927,-0.08670180310364813
1686343536768461600,5.393461669921875,-0.0482709136288613,0.005021627554297447,-0.049248855282925066
1686343536778481400,5.4034814453125,-0.03447261683568358,-0.007176175239682197,-0.02126044936738908
1686343536788500500,5.41350048828125,0.0068132602114230395,-0.020699673679471016,0.005080700797773897
1686343536798520600,5.4235205078125,0.07282097912617028,-0.020999533408880233,0.010759623217023909
1686343536808539400,5.433539306640625,0.05634498755633831,-0.024522446838021277,0.009008943624794482
1686343536818559500,5.4435595703125,-0.012584098697826266,-0.010992518657445906,0.004853906304575503
1686343536828579300,5.453579345703125,-0.03453472228646278,0.0017313538372516631,0.0015735329270362853
1686343536838598400,5.463598388671875,-0.02576104872226715,-0.017292495584487914,-0.015732991182804107
1686343536848618500,5.473618408203125,-0.03999532577991485,-0.030024551385641095,-0.026261691720783707
1686343536858637600,5.483637451171875,-0.07018588138222694,-0.015949848803877828,-0.03434679849892854
1686343536868657700,5.49365771484375,-0.09016001726612448,-0.02408347089886665,0.009272051540389657
1686343536878676500,5.503676513671875,-0.07653430056087672,-0.02701017200052738,-0.018130078919790685
1686343536888696300,5.5136962890625,-0.029871406650543213,-0.04204465952515602,0.010025427190959453
1686343536898716400,5.52371630859375,0.028141221857070922,-0.0347737917393446,0.0335600320354104
1686343536908735500,5.533735595703125,0.044239539220929144,-0.020752865171432495,0.00611468348801136
1686343536918755600,5.543755615234375,-0.003059899027273059,-0.013041267880797385,-0.02301288252528757
1686343536928774700,5.553774658203125,-0.042916766184568404,-0.01097322943508625,-0.03250467776358128
1686343536938794500,5.56379443359375,-0.012491159717366099,0.003271569016575813,-0.005072152165137231
1686343536948814300,5.573814453125,0.02850603658147156,0.015935820278525352,0.00813658123705536
1686343536958833400,5.58383349609375,0.07069565753526985,-0.009424830949306488,-0.0201075164726004
1686343536968853500,5.593853515625,0.10638006131350994,-0.026197686573863028,0.003767828100919723
1686343536978872600,5.60387255859375,0.10859247666597366,-0.021750059515237806,0.05099953487515449
1686343536988892700,5.613892578125,0.08534253398180007,0.0022819734573364257,0.04311988754123449
1686343536998912500,5.62391259765625,0.044327875091508026,-0.006755904000997543,0.04877809596601873
1686343537008931300,5.633931396484375,0.03872347921319306,-0.013716975185275078,0.029298903992213306
1686343537018951400,5.643951416015625,0.03504442537426948,-0.014395605099201202,-0.008209317679703235
1686343537028970500,5.653970458984375,-0.016893267133831977,-0.023563246417045592,-0.022126199351251125
1686343537038990600,5.663990478515625,-0.05295066894292831,-0.017719196563959122,-0.013793255291879176
1686343537049010400,5.674010498046875,-0.04505786986649036,-0.015144962161779402,-0.0013879472270607947
1686343537059029500,5.684029541015625,-0.014375731354951857,-0.024117957690358162,0.02161561948060989
1686343537069049600,5.694049560546875,-0.024576222851872442,-0.02941957122981548,-0.01310293494015932
1686343537079068400,5.704068359375,-0.012335092372819781,-0.03586100245416164,0.005920366492308676
1686343537089088500,5.714088623046875,-0.012397563149780034,-0.04898293435573577,0.014599091782048344
1686343537099107600,5.724107666015625,-0.02346731176190078,-0.04778407995998859,0.004330759213306009
1686343537109127400,5.73412744140625,-0.07624145509414375,-0.03761339907944202,-0.009284509163163602
1686343537119147500,5.7441474609375,-0.12564181114435194,-0.030486323678493497,-0.03170125242620706
1686343537129166600,5.75416650390625,-0.11345102261304854,-0.017985738545656202,-0.03334901963323354
1686343537139186400,5.7641865234375,-0.0764746793281287,-0.0064233110457658765,-0.02194525329377502
1686343537149205500,5.77420556640625,-0.018732172998785972,-0.0014338321954011917,-0.026780747158825394
1686343537159225300,5.784225341796875,0.03835406137891113,-0.017703414472937582,0.003434394895471632
1686343537169245400,5.794245361328125,0.06612929946780205,-0.014431260934472083,0.018419161526858806
1686343537179264500,5.804264404296875,0.08554127142429352,-0.024983050087094307,0.0046671150282025335
1686343537189284600,5.81428466796875,0.09660568627417088,-0.0214104522973299,0.0028258710756897923
1686343537199303400,5.824303466796875,0.08718677360899746,-0.007307692664861679,0.02655367867099121
1686343537209323500,5.834323486328125,0.05687865604162216,-0.016857611298561094,0.007794891659915447
1686343537219343400,5.84434326171875,0.042316973660513756,-0.0099514851719141,-0.017372903876937924
1686343537229362400,5.854362548828125,0.03151632431335747,-0.009170563927292824,0.021648663233686236
1686343537239382500,5.864382568359375,0.01885207305140793,0.001228080490231514,0.03894729629801586
1686343537249401600,5.874401611328125,0.01356273447163403,0.013775427374243735,0.027976112689543513
1686343537259421700,5.884421630859375,0.006067410280182957,0.010042086064815521,0.021103596571553498
1686343537269441500,5.894441650390625,0.06382051106877625,-0.023795886129140853,0.01883187051359564
1686343537279460400,5.90446044921875,0.07470489317663014,-0.01907762543559074,0.012669840752519666
1686343537289480400,5.91448046875,0.020033391790464518,-0.016349661776423455,-0.03240994868483394
1686343537299499500,5.92449951171875,-0.0021966332614421842,-0.03545709782838821,-0.053525546221435065
1686343537309519600,5.93451953125,-0.009978957700729369,-0.0383767846673727,0.0014785481199622154
1686343537319539500,5.94453955078125,0.008474325291439891,-0.009250058904290199,0.024205014919303356
1686343537329558500,5.95455859375,0.0022106617867946625,0.004604863446950912,0.020002631326019763
1686343537339578400,5.964578369140625,-0.007588263171911239,-0.010142623829841614,0.007227320905029773
1686343537349597400,5.974597412109375,-0.0011146832436323166,0.0033411271214485168,0.02141191360205412
1686343537359617500,5.984617431640625,-0.03965973714999854,-0.007597031000256538,0.0033130883370526133
1686343537369637400,5.994637451171875,-0.06607778847627341,-0.04444470640420913,0.0037675723725929854
1686343537379656400,6.004656494140625,-0.11761449896804987,-0.08155775474607944,0.01041999773280695
1686343537389676500,6.014676513671875,-0.14092187092788516,-0.08777472956478595,-0.011331285625137388
1686343537399695400,6.0246953125,-0.10995857738740741,-0.0949789618551731,-0.015315971347130834
1686343537409715500,6.034715576171875,-0.06204641406834125,-0.08946458234786987,-0.016921324184536932
1686343537419735600,6.044735595703125,-0.04480367590971291,-0.07230243514478206,-0.025114019523002205
1686343537429754400,6.05475439453125,-0.05532499685883522,-0.04361526984274387,-0.02505436175763607
1686343537439774500,6.0647744140625,-0.055125674894452095,-0.023024317234754562,-0.009676467622816562
1686343537449793500,6.07479345703125,-0.022646716094017028,0.0009223755419254302,-0.007606383350491523
1686343537459813600,6.084813720703125,0.042376083436608314,0.01780979745686054,0.029461949066817757
1686343537469832400,6.09483251953125,0.1331464146208018,0.036411622074246405,0.05808010425325483
1686343537479852500,6.1048525390625,0.17619177562110125,0.023673721054196357,0.03837528683003038
1686343537489872400,6.114872314453125,0.212571979643777,0.01339139649271965,0.007132372630573809
1686343537499891500,6.124891357421875,0.2092904006898403,0.02235211706161499,0.008943477173149585
1686343537509911600,6.13491162109375,0.2232768404662609,0.030370003822445868,0.018204057471454142
1686343537519931600,6.144931640625,0.18240590089559555,0.037788755646347996,0.03755845402181148
1686343537529950500,6.154950439453125,0.20424298110716044,0.027822072905302045,0.027314379111491142
1686343537539970300,6.16497021484375,0.2447534168023616,0.03189034525752067,0.045122496067918835
1686343537549989400,6.1749892578125,0.296164308957383,0.026114684465527532,0.09289393574204295
1686343537560009700,6.185009765625,0.35024734293110665,0.007533902636170387,0.09594872020278125
1686343537570028800,6.19502880859375,0.30784495600946243,0.012470189994573593,0.07005907666478306
1686343537580049000,6.205048828125,0.1658511450011283,-0.0028010288953781125,0.011664170841313899
1686343537590068700,6.21506884765625,0.04456343741305172,-0.017112462842464447,0.004955905374325812
1686343537600087800,6.225087890625,-0.00630114597082138,-0.00909925225675106,0.07054331651777028
1686343537610108000,6.23510791015625,-0.019535890597105025,0.0042144028246402735,0.1110939380928874
1686343537620126700,6.245126708984375,-0.05215688821673393,0.010019289711117743,0.08942892651259898
1686343537630146800,6.255146728515625,-0.08877250843048096,-0.021557167291641234,0.005728314518928528
1686343537640166700,6.265166748046875,-0.0819908854663372,-0.08126257119178772,-0.02419511457979679
1686343537650185700,6.275185791015625,-0.05458338471129536,-0.0872585967361927,-0.05396748130265623
1686343537660205800,6.285205810546875,-0.09919628728926182,-0.06311141295135021,-0.013388473883271216
1686343537670225000,6.295224853515625,-0.09067973029129206,-0.061678165277838704,0.03473875695858151
1686343537680245000,6.305244873046875,0.03201075676679611,-0.05283844074010849,0.008516483932733535
1686343537690264800,6.315264892578125,0.05179156203567981,-0.010433131209015846,0.023369185149669645
1686343537700283600,6.32528369140625,-0.003115501672029495,-0.029895956569910048,0.021492577622830866
1686343537710303700,6.3353037109375,-0.006018237376213074,-0.008632803788781165,-0.00916939488351345
1686343537720322800,6.34532275390625,-0.043648587590456006,-0.001689268261194229,0.014805354943871498
1686343537730343000,6.355343017578125,-0.12956556045934556,0.007791092267632484,-0.001333550158701837
1686343537740363000,6.365363037109375,-0.18548150894865392,0.014641104292869567,-0.03685289956834167
1686343537750381800,6.3753818359375,-0.11851627011336385,-0.028275661891698837,-0.10643844043724238
1686343537760401700,6.385401611328125,-0.11315452388450503,-0.08114215968251227,-0.12134057028647512
1686343537770420700,6.395420654296875,-0.1569452233593911,-0.0754074154227972,-0.09616521249767393
1686343537780440800,6.40544091796875,-0.21438436282798648,-0.044326632982492446,-0.05405888591315597
1686343537790461000,6.4154609375,-0.31686814735531804,-0.014200374788045882,-0.011837445048987864
1686343537800480000,6.42547998046875,-0.21720614225044846,-0.03168576259613037,-0.11420392333958297
1686343537810499800,6.435499755859375,-0.1334819301854819,-0.04012684320509433,-0.04660506277587265
1686343537820518700,6.4455185546875,-0.11618643892630934,0.03185761203169823,0.05933781269676983
1686343537830538800,6.455538818359375,0.039094139156490564,0.005295183798670769,0.048920463578775525
1686343537840558800,6.465558837890625,0.13078918397016823,-0.028313071292638776,0.03818451349828392
1686343537850578000,6.475577880859375,0.24037885497994718,-0.026573534148931502,0.017344554565288127
1686343537860597800,6.48559765625,0.16134506575353444,-0.024509002834558487,0.02468293462935835
1686343537870616800,6.495616943359375,0.06709609867334365,-0.025534254229068756,-0.007291326051950454
1686343537880637000,6.505636962890625,-0.04476202872507274,-0.03780862939059734,-0.07268263010140508
1686343537890657000,6.515656982421875,-0.1621313207603991,-0.013846739044785498,-0.08106010742224752
1686343537900675800,6.52567578125,-0.16536606489792466,0.0025771570116281508,-0.07302556178756058
1686343537910695700,6.53569580078125,-0.09987900885641575,0.005171849679946899,-0.042268823669850825
1686343537920714800,6.54571484375,-0.09639635437242686,0.0020481647014617918,0.01771075752917677
1686343537930734800,6.55573486328125,-0.018208441385626793,-0.036433249384164805,0.026314883212745187
1686343537940755000,6.5657548828125,0.07331307349205017,-0.04485387172698974,0.033330899454653264
1686343537950773800,6.575773681640625,0.0239724117398262,-0.00551554855108261,0.056768181404471395
1686343537960793900,6.5857939453125,-0.017712328431755305,-0.01733458116054535,0.02799297249279916
1686343537970812700,6.595812744140625,-0.017131167542934415,-0.030976153022050857,0.005770107834041118
1686343537980832800,6.605832763671875,-0.04429156166911125,-0.02371580663025379,-0.003771335232257843
1686343537990852900,6.615852783203125,-0.06805076904967426,-0.015817162334918974,-0.04182261427231133
1686343538000872000,6.625871826171875,-0.11415376405492424,-0.01182370878458023,-0.027837343539670108
1686343538010892000,6.63589208984375,-0.04088730618357658,-0.030653496938943862,-0.0844327256605029
1686343538020910800,6.645910888671875,0.01343757372200489,0.0030389293044805524,-0.07383329797387123
1686343538030930700,6.6559306640625,-0.019186346507072446,0.0352875864803791,0.04895867669731378
1686343538040950800,6.66595068359375,0.04139350214004516,-0.02281915005147457,0.040056116056442256
1686343538050969900,6.675969970703125,0.027795331028848885,-0.04263268854618072,0.005648856074549257
1686343538060990000,6.685989990234375,-0.06872033887431026,-0.034866146197915074,-0.013287607324682175
1686343538071009000,6.696009033203125,-0.04248071285486221,-0.06256897663772105,-0.07230915714651345
1686343538081028900,6.70602880859375,-0.041904228141158816,-0.03939969797432422,-0.051460101591609415
1686343538091048700,6.716048583984375,-0.08101356486678123,-0.011335048484802246,-0.04984218153357506
1686343538101067800,6.72606787109375,-0.06043780982792377,-0.022722119417786596,-0.02712210794240236
1686343538111087900,6.736087890625,-0.05541019092425704,-0.023912205985188482,0.0037918300310149787
1686343538121107000,6.74610693359375,-0.05704509864971041,-0.0005307458758354186,0.004391878283396363
1686343538131126800,6.756126708984375,-0.07440671394765376,-0.008986439532041549,-0.006589315262436867
1686343538141147000,6.76614697265625,-0.07970189774632454,-0.01574234353303909,-0.007260346391797065
1686343538151165700,6.776165771484375,-0.062248658642172806,-0.03631751405000686,0.017285189060866832
1686343538161185800,6.786185791015625,-0.034006314498186106,-0.02314940491914749,0.04222264644056559
1686343538171204900,6.796204833984375,0.01895940588340163,-0.021282442003488538,0.07803096885941922
1686343538181224700,6.806224609375,0.04299991442337632,-0.036167291924357414,0.04184040565732866
1686343538191244800,6.816244873046875,-0.07222250177636742,-0.021391747596859932,-0.08039959768690168
1686343538201263900,6.826263916015625,-0.2360601880632341,-0.015513795474171638,-0.16023728717472405
1686343538211284000,6.836283935546875,-0.3365371628127992,-0.014145429730415344,-0.1631157286878675
1686343538221302800,6.846302734375,-0.23405352441594005,0.015948679760098457,-0.1843187122469768
1686343538231323000,6.856322998046875,0.12642448595464229,0.11516367174983023,-0.06327391003668308
1686343538241342700,6.8663427734375,-0.058923898133635515,-0.12340952204763889,0.3263561066687107
1686343538251361800,6.87636181640625,-0.22415479234457014,-0.10088555555045604,-0.1816279022604227
1686343538261382000,6.8863818359375,-0.2830073788076639,-0.08050152369141578,-0.09209609989523887
1686343538271401000,6.89640087890625,-0.2744143225073814,-0.02879354828596115,0.31647125699222084
1686343538281421000,6.906421142578125,-0.18069668582491574,-0.10616846438944338,0.30047672879640014
1686343538291440600,6.916440673828125,-0.1663904395096004,-0.08196399745941162,0.08447809917218983
1686343538301459700,6.926459716796875,-0.19144070961400866,-0.14017828601896762,-0.24088139767460523
1686343538311479800,6.936479736328125,-0.42788105610124766,-0.12522972321212292,-0.4482858750199899
1686343538321500000,6.9465,-0.8068721898924559,-0.046184828069806096,-0.47678511653449385
1686343538331519000,6.95651904296875,-0.900973272934556,0.02763502590060234,-0.4064446656450629
1686343538341538800,6.966538818359375,-0.6353623615425079,0.04168342499732971,-0.32823530801143497
1686343538351557600,6.9765576171875,-0.15750979843959212,0.02902735704183578,-0.08576039406768977
1686343538361577700,6.98657763671875,0.18014380118250845,-0.009712415719032287,0.22907471309006214
1686343538371597800,6.996597900390625,0.45582186001539227,-0.05195815077424049,0.2818406731158495
1686343538381617000,7.006616943359375,0.5103098215281963,-0.09101648796498775,0.3753431326776743
1686343538391636700,7.01663671875,0.49274318517744536,-0.08146773837506771,0.27816373816877604
1686343538401655800,7.02665576171875,0.6103484779257327,-0.01920680477321148,0.14032825241629032
1686343538411676000,7.036676025390625,0.5665457226868719,0.002492401337623596,0.21109518508948386
1686343538421696000,7.046696044921875,0.3433985730148852,0.07026537635922432,0.1133096048483625
1686343538431714800,7.05671484375,0.16433197260983287,0.12221183669567108,-0.09958495781328529
1686343538441735000,7.06673486328125,0.19154490064084528,0.11697452056407928,-0.0854047855630517
1686343538451753700,7.076753662109375,0.28101825081706044,0.09255553410053252,0.038595395854115484
1686343538461773800,7.08677392578125,0.260434166341275,0.060689154240489006,0.05870525041427463
1686343538471794000,7.0967939453125,0.26312778933942316,-0.0194148945659399,-0.043728667089343067
1686343538481812700,7.106812744140625,0.22643866549804806,-0.05065642052590847,-0.0895390723561868
1686343538491832800,7.116832763671875,0.12976035237908362,-0.06511398494541645,-0.015324410381913183
1686343538501852000,7.126851806640625,0.04046725414060056,-0.0995364790290594,0.028779592825844882
1686343538511871700,7.136871826171875,-0.14489939625672996,-0.09842471839487552,-0.06705105395521968
1686343538521891800,7.146891845703125,-0.2759106254797429,-0.07129939558207989,-0.16500961614307016
1686343538531911000,7.156910888671875,-0.30819618059992787,-0.03333703693449497,-0.1679971440538764
1686343538541931000,7.166930908203125,-0.313680018838495,-0.041433834150433536,-0.04551463719066232
1686343538551949800,7.17694970703125,-0.22032149779200552,-0.04795183774232864,0.07785451631397008
1686343538561969700,7.1869697265625,-0.06565050297491253,-0.0448819287776947,0.13247695439402013
1686343538571989800,7.19698974609375,0.05319909074604511,-0.04995148712694645,0.12312690571397543
1686343538582008800,7.2070087890625,0.05460369684696197,-0.03348550549447536,0.14303046057969332
1686343538592029000,7.21702880859375,0.014956234656646847,0.015488076511025428,0.11156363796386867
1686343538602048000,7.227048095703125,0.026791560813784598,0.05168050287663936,0.020206921726465224
1686343538612067800,7.23706787109375,0.024374562799930572,0.030102292796969413,-0.022316461226344106
1686343538622088000,7.247087890625,0.02867722842991352,0.0229658650457859,-0.06488514462560414
1686343538632106800,7.257106689453125,0.0666116761572659,0.022225275811553,-0.13270659843143076
1686343538642126800,7.267126953125,0.12592355069518088,0.022201894935965538,-0.06658990271687507
1686343538652146000,7.27714599609375,0.20330606558322906,0.00931494083404541,0.04452741625159978
1686343538662165800,7.287165771484375,0.2501103407256305,-0.0001695113480091095,0.10527907780166715
1686343538672185900,7.297185791015625,0.2495499303638935,0.00696516283750534,0.10256810180991888
1686343538682205000,7.307204833984375,0.22330504364743828,-0.021500468668341634,0.08253511187825352
1686343538692225000,7.31722509765625,0.12442702852711081,-0.034191607937216754,0.003838810977898538
1686343538702244900,7.327244873046875,-0.05087386266887187,-0.016700374910235405,0.008931786735355853
1686343538712264000,7.337263916015625,-0.18368541931211949,-0.010011690926551818,0.011803835040330887
1686343538722283800,7.34728369140625,-0.22523966497182846,-0.010526070189476013,-0.010955986039340495
1686343538732302800,7.357302734375,-0.217770205873996,-0.012519874355196952,0.000622479279898107
1686343538742323000,7.367322998046875,-0.1766166499696672,-0.03239654121398926,-0.003994878322444856
1686343538752343000,7.377343017578125,-0.20614333483576774,-0.05805588312745094,-0.07761807720959187
1686343538762361900,7.38736181640625,-0.17203575192019344,-0.0470867453455925,-0.137810643572174
1686343538772381700,7.397381591796875,-0.03649930035769939,-0.04523264191150665,-0.030059622699022293
1686343538782400800,7.40740087890625,0.07941504362896085,-0.03744681034088135,0.10908935680482536
1686343538792420900,7.4174208984375,0.09671499186754226,-0.021942367216944692,0.08767097692936658
1686343538802441000,7.42744091796875,0.051414545416831964,-0.024943887120485304,0.019364333422482012
1686343538812460000,7.4374599609375,-0.017899667697399854,-0.02154898398518562,0.04529697585199028
1686343538822480000,7.44747998046875,-0.12308277431130409,-0.027400048100948333,-0.011401391719281673
1686343538832498700,7.457498779296875,-0.09900880189314484,-0.023701193583011627,-0.21808223096523432
1686343538842518800,7.467518798828125,-0.014547726920992135,-0.042103696236014364,-0.13743808393273502
1686343538852539000,7.477538818359375,0.12575637743473053,-0.0173234752446413,-0.03091623952835798
1686343538862558000,7.487557861328125,0.14077625191211698,-0.021413374906778335,0.04997866739481687
1686343538872577800,7.497577880859375,0.09805720025673507,-0.004622983625531196,-0.0003790259128436446
1686343538882596900,7.507596923828125,-0.04067921639084816,0.021807342660427092,0.012022153966128825
1686343538892617000,7.517616943359375,-0.15305632616207002,0.027503508475422857,-0.05962411882486194
1686343538902636800,7.52763671875,-0.1958027042157948,-0.01870002429485321,-0.045094439017213876
1686343538912656000,7.53765576171875,-0.414601960876584,0.03463993622660637,0.027299218074977396
1686343538922676000,7.547676025390625,-0.6166944128863513,0.05600362677276134,-0.27445520250704136
1686343538932695800,7.55769580078125,-0.603850713404268,-0.017622165930271147,-0.3830584928279742
1686343538942715000,7.56771484375,-0.3598829670868814,-0.05802373442351818,-0.010974946468137204
1686343538952735000,7.57773486328125,-0.00897226487621665,-0.09370470413565635,0.21847386063132435
1686343538962753800,7.58775390625,0.1532693843908608,-0.1255436114668846,0.22036829607579855
1686343538972774000,7.59777392578125,0.1109001690864563,-0.17280220624804496,0.10540887819379567
1686343538982793700,7.607793701171875,0.034893034204840655,-0.1368418350726366,0.025084172374010085
1686343538992812800,7.617812744140625,-0.1483292976401746,-0.03666062839925289,0.045096484843827785
1686343539002833000,7.6278330078125,-0.26780864063203336,0.002257423537969589,-0.02038052472770214
1686343539012852000,7.63785205078125,-0.07942468824014068,0.00933539910018444,-0.18994444317426531
1686343539022872000,7.6478720703125,0.2351625085711479,0.049068859073519704,-0.08153262030482292
1686343539032892000,7.657891845703125,0.4608393959164619,0.10630231990218161,0.17330810994356868
1686343539042910700,7.66791064453125,0.7628894749768078,0.02119184111058712,0.32418669020775703
1686343539052930800,7.677930908203125,0.7019014839202166,-0.06920446912944317,0.37885406340807676
1686343539062951000,7.687950927734375,0.5615257756330072,-0.008118424525856972,-0.04136599307861179
1686343539072970000,7.697969970703125,0.2640637550152838,0.03090367230772972,0.016427439720369873
1686343539082989800,7.70798974609375,0.07911459937766194,0.03747194478213787,0.009316438671387732
1686343539093008600,7.718008544921875,-0.017500585377216337,0.0412263288795948,-0.05808277113437652
1686343539103028700,7.72802880859375,-0.1026594333551824,0.04868073653876781,-0.060457939300499856
1686343539113048800,7.738048828125,-0.12669146632775663,0.029872575694322584,-0.07219338527973741
1686343539123068000,7.74806787109375,-0.08186988943517208,0.0009060089290142059,-0.08489303664863108
1686343539133088000,7.758087890625,-0.037950083687901495,-0.032410569739341734,-0.01319616618156433
1686343539143106800,7.76810693359375,-0.05973799099549651,-0.04854395841658115,0.08165189930293709
1686343539153127000,7.778126953125,-0.09210428320169449,-0.0723702396839857,0.0704550537124276
1686343539163147000,7.78814697265625,-0.15628069503605366,-0.0879728824853897,0.005417056612670421
1686343539173165800,7.798165771484375,-0.23933131868839264,-0.10257131668031215,-0.011219897672533988
1686343539183186000,7.80818603515625,-0.2668340965114534,-0.07393325121700764,-0.04696103660669178
1686343539193205800,7.818205810546875,-0.24803601866960523,-0.047286651831865305,-0.05823094743341207
1686343539203224800,7.828224853515625,-0.21725524208918212,-0.02972586070001125,-0.07886197632346302
1686343539213245000,7.838244873046875,-0.14567162273824213,-0.010125088173151015,-0.08689999255686998
1686343539223264000,7.848263916015625,-0.047181437891721724,-0.005826514196395874,-0.0355035673186183
1686343539233283800,7.858283935546875,0.008622866916656494,0.008225976553559302,0.014482698860764502
1686343539243303700,7.8683037109375,0.010049830979853867,-0.003623451194167137,0.022185272594727575
1686343539253322800,7.87832275390625,0.009777882170677184,-0.032528643161058426,0.0257850141197443
1686343539263342800,7.8883427734375,-0.01907484895661473,-0.025106384205818174,0.008545381233654916
1686343539273362000,7.89836181640625,-0.010747603985667228,-0.02321077971756458,-0.018681904116272924
1686343539283382000,7.908382080078125,-0.010780337211489677,-0.032038813817501066,-0.008305471530556678
1686343539293401900,7.91840185546875,0.017446809363365172,-0.027928455889225004,-0.006295885273814201
1686343539303420700,7.928420654296875,0.04961714060604572,-0.009120879566669463,0.01566226403415203
1686343539313440800,7.938440673828125,0.06703647744059563,-0.010361819538474083,0.021311960358917713
1686343539323460900,7.9484609375,0.06766600751578808,-0.01689092904627323,-0.004743395134806633
1686343539333480000,7.95847998046875,0.04481397810801863,-0.011474164694547652,0.023861023787222803
1686343539343499800,7.968499755859375,0.0516625288285315,0.004980711022019386,0.03954732628408819
1686343539353518800,7.978518798828125,0.032946722442656756,0.00196457807123661,-0.004173742020688951
1686343539363539000,7.9885390625,0.010943564949184656,0.00031330373287200925,-0.00713872930612415
1686343539373558800,7.998558837890625,-0.005569909086823463,-0.010973813956975937,0.004533259515464305
1686343539383577900,8.008577880859375,0.0013188275136053562,-0.01934358289539814,-0.016270714788697658
1686343539393598000,8.018597900390626,-0.00965147931203246,-0.05255377857983112,-0.017138437533937394
1686343539403617000,8.028616943359374,-0.041467590289562935,-0.04342296214103698,0.002913001369871199
1686343539413636900,8.038636962890624,-0.04903554132580757,-0.057409401917457574,0.005514671768248081
1686343539423657000,8.048656982421875,-0.057887686953693625,-0.05405658435821533,-0.018920425579883157
1686343539433675800,8.05867578125,-0.10290157154798507,-0.033600071784853934,-0.0432610495775938
1686343539443695900,8.06869580078125,-0.16177578532099723,-0.016640753677487373,-0.04498538915216922
1686343539453715700,8.0787158203125,-0.19545812856182454,0.0019499650239944457,-0.07249821344520896
1686343539463734800,8.08873486328125,-0.21038521018922327,0.007744330516457557,-0.08489595925807952
1686343539473755000,8.0987548828125,-0.1657842903099954,0.017611644536256788,-0.07121664920207113
1686343539483774000,8.10877392578125,-0.1351939217351377,0.014680267259478567,-0.05924768672790378
1686343539493794000,8.1187939453125,-0.18563699177131054,0.005174772289395332,-0.145783522147499
1686343539503814000,8.12881396484375,-0.2830317825965583,0.00976326912343502,-0.24370759754385798
1686343539513832700,8.138832763671875,-0.23479952047765254,-0.019340660285949707,-0.13806903878003357
1686343539523852800,8.148852783203125,-0.017177198641747236,-0.05061316590607166,0.11845485878232866
1686343539533873000,8.158872802734376,0.20685776671543715,-0.04147241259515285,0.2679629909435287
1686343539543892000,8.16889208984375,0.33038828479424115,-0.07028583462536335,0.23633188114408402
1686343539553911800,8.178911865234374,0.35369711805880066,-0.07364625096917152,0.2401405892446637
1686343539563930400,8.188930419921874,0.27962255867496133,-0.04081950164437294,0.24712858496848492
1686343539573950200,8.1989501953125,0.1542613180376589,0.001499298647046089,0.1954328845227137
1686343539583970300,8.20897021484375,0.09254618175029754,0.02645779881477356,0.10437310540527105
1686343539593989400,8.2189892578125,0.0890982332535088,0.009800678524374962,-0.050269430502317844
1686343539604009500,8.229009521484375,0.09976108156517148,-0.029716508349776266,-0.155423749413155
1686343539614028500,8.239028564453125,0.14551131760999558,-0.03983049060702323,-0.12867317819688467
1686343539624048400,8.24904833984375,0.2014430481903255,-0.03530862926840782,0.018111666480265555
1686343539634068500,8.259068359375,0.1711801580041647,-0.008138298270106314,0.13477993410676717
1686343539644087300,8.26908740234375,0.09697057406380773,-0.0016904373049736023,0.1302198231169954
1686343539654107400,8.279107421875,0.03060468936115503,-0.01787526390850544,0.060605932936444874
1686343539664127200,8.289127197265625,0.026554244926571845,-0.009488543835282325,0.08690642229765654
1686343539674146300,8.299146240234375,0.06787775057032704,0.027058687317371367,0.14917268966175615
1686343539684166400,8.30916650390625,0.048573330641537904,0.02513502577841282,0.14217475706581026
1686343539694185200,8.319185302734375,0.05960004382953048,0.02367138296663761,0.10688472290001809
1686343539704205300,8.329205322265626,0.12694544108882547,0.035790275305509565,0.16794285658337174
1686343539714225400,8.339225341796874,0.1789829407095909,0.04492693696320057,0.26471564305275674
1686343539724244500,8.349244384765624,0.18890797626599667,0.06018471184968948,0.20128471582345664
1686343539734264300,8.359264404296875,0.08861585656404494,0.06692308019399643,0.09389525827169418
1686343539744283400,8.369283447265625,-0.08859072212278843,0.03081833211183548,-0.12726093677878378
1686343539754303500,8.379303466796875,-0.2579414727427065,-0.032799861317873,-0.3818632551614195
1686343539764323600,8.389323486328125,-0.3613701369047165,-0.0962251625239849,-0.4956631642773747
1686343539774342400,8.39934228515625,-0.33680618901252746,-0.10657412258088587,-0.37196167354583737
1686343539784362200,8.4093623046875,-0.30430560290217396,-0.08642389947772025,-0.23330577478855846
1686343539794382300,8.41938232421875,-0.3130541420251131,-0.07788286562561988,-0.144288059425354
1686343539804401400,8.4294013671875,-0.3246387813568115,-0.086504563498497,-0.12056728435903787
1686343539814421500,8.43942138671875,-0.2611089968629181,-0.09704115508198738,-0.031744287850335236
1686343539824440600,8.449440673828125,-0.14811010193154214,-0.07593699225485324,0.0875374502101913
1686343539834460200,8.459460205078125,-0.07883329821825028,-0.05327507859170436,0.11190583899766206
1686343539844480300,8.469480224609375,-0.11654299727901815,-0.035734161204099654,0.07621993738207966
1686343539854499300,8.479499267578126,-0.18229937178120015,-0.03052373307943344,0.0113307011032477
1686343539864519400,8.48951953125,-0.24378055318221448,-0.026203531792759895,-0.031425321561656894
1686343539874539300,8.499539306640624,-0.2023106248050928,-0.030196400821208953,-0.06846241859048605
1686343539884558300,8.509558349609375,-0.13141630289256573,-0.046720250120759005,-0.09128770612180233
1686343539894578400,8.519578369140625,-0.08227598601803184,-0.0439537080168724,-0.05457297291513532
1686343539904597200,8.52959716796875,-0.025331279002875087,-0.040619595158100125,-0.053863071080110965
1686343539914617300,8.539617431640625,0.009371639457345008,-0.0351484702706337,-0.04236731560826301
1686343539924637400,8.549637451171876,0.01250292322039604,-0.0230225636690855,-0.013328268128633499
1686343539934656300,8.55965625,0.010729483807086944,-0.010358312407135964,-0.0035647067442536352
1686343539944676400,8.56967626953125,0.06164309396445751,0.0031190088033676146,-0.007311492057144642
1686343539954695400,8.5796953125,0.10393310655280948,0.013180384090542792,0.007354381350800395
1686343539964715500,8.589715576171875,0.13044658107757567,-0.002592354580760002,0.004678220944106579
1686343539974735400,8.5997353515625,0.21512465980127451,-0.012443886509537696,0.02240855995658785
1686343539984754400,8.60975439453125,0.23096154974997044,-0.027981062859296798,0.054469841334223744
1686343539994774300,8.619774169921875,0.18685411247611045,-0.008412439036369323,0.0007204232290387153
1686343540004794400,8.62979443359375,0.09075243020132183,-0.018355156379938124,0.04492492766920477
1686343540014813400,8.6398134765625,-0.00752002024129033,-0.006154430976510048,0.04804499591849744
1686343540024833500,8.64983349609375,-0.06866846255660057,-0.003493687334656715,-0.0120145551815629
1686343540034852400,8.659852294921874,-0.10382043995857237,0.005497428372502326,-0.007710135985910892
1686343540044872200,8.6698720703125,-0.11366145049333572,0.019859131202101706,0.03544248478114605
1686343540054892300,8.679892333984375,-0.0946386239849031,0.013333528825640678,0.01760963524226099
1686343540064911400,8.689911376953125,-0.08052008226141333,0.008819266271591186,0.001138685173727572
1686343540074931500,8.699931396484375,-0.06309665377363562,0.01144903025329113,0.002195208489336073
1686343540084951300,8.709951416015626,-0.042578181879967446,-0.006923077261447906,-0.01905566933210939
1686343540094970400,8.719970458984376,-0.046695700201392173,-0.01433773743212223,-0.040619595158100125
1686343540104990500,8.729990478515624,-0.061734863901138304,-0.0379933383077383,-0.06059416943341493
1686343540115009300,8.74000927734375,-0.06893675810396671,-0.03787234227657318,-0.06338759954422712
1686343540125029400,8.750029296875,-0.04770692307054996,-0.03644610886573791,-0.04516980580836534
1686343540135049200,8.76004931640625,0.021733692902326584,-0.03680091365277767,-0.030210721607506274
1686343540145068300,8.770068359375,0.04599325102046132,-0.03536474336981773,0.0142916332680732
1686343540155088400,8.78008837890625,0.03571034193709492,-0.03629004152119159,0.029024799758568403
1686343540165107500,8.790107421875,0.019110504791885613,-0.033413609302043915,0.019576587933674453
1686343540175127300,8.800127197265626,-0.03264554753899574,-0.02349485735595226,0.039644904907047744
1686343540185147400,8.8101474609375,-0.09272957549318671,-0.014877835658192633,0.033459238542057575
1686343540195166500,8.82016650390625,-0.12313698871657251,-0.030735330003499983,-0.012560462093912064
1686343540205186300,8.830186279296875,-0.0912450360238552,-0.033332360759377476,-0.030339024162292477
1686343540215206400,8.840206298828125,-0.0775859285056591,-0.04540975204408169,0.005715162776410579
1686343540225225500,8.8502255859375,-0.12175181796848773,-0.039863808354735374,-0.004323123896121979
1686343540235245600,8.86024560546875,-0.06899228768348693,-0.029627076500654218,-0.05825929674506187
1686343540245264400,8.870264404296876,0.005212181690335273,-0.050182373273372646,0.0025818331867456436
1686343540255284200,8.8802841796875,0.06441314319968224,-0.055304538592696184,0.0027834932386875152
1686343540265304300,8.89030419921875,0.07429696996286511,-0.04544014718234539,-0.005420819472335279
1686343540275323400,8.900323486328125,0.056616351843625304,-0.04925765964388847,-0.019116715336963533
1686343540285343500,8.910343505859375,-0.0005171557419002056,-0.039296822121739385,-0.03507799885030836
1686343540295362600,8.920362548828125,-0.07198503975868224,-0.015799626678228377,-0.027654022862017152
1686343540305382400,8.93038232421875,-0.09616481063887476,0.017003741770982742,-0.01143755901120603
1686343540315402200,8.94040234375,-0.08200257590413093,0.02218377475738525,-0.021185119108855722
1686343540325421300,8.95042138671875,-0.014546996268630027,0.015909516793489457,-0.03282119636684656
1686343540335441400,8.96044140625,0.06288534911051392,0.008371522504091263,0.005344904691912233
1686343540345461200,8.970461181640625,0.10825973758026956,-0.010759878945350645,0.023912132919952273
1686343540355480300,8.980480224609375,0.10508008463084698,-0.02602992879152298,0.011175181747972964
1686343540365500400,8.99050048828125,0.03741583068072796,-0.013992284995317458,0.011120528951287269
1686343540375519200,9.000519287109375,-0.025212182667851447,-0.028416531667113304,-0.01372428170889616
1686343540385539300,9.010539306640625,-0.04103007565513253,-0.02538110949397087,-0.03580934533216059
1686343540395559400,9.020559326171876,-0.01820142712295055,-0.023240005812048912,-0.000817161601781845
1686343540405578500,9.03057861328125,-0.0024694588534533977,-0.015464695635437965,0.03134473060611635
1686343540415598300,9.040598388671874,0.006822393365949392,-0.017918518528342246,0.011794994146749376
1686343540425618400,9.050618408203125,0.02681669525504112,-0.021079028385877607,-0.01872691230177879
1686343540435637500,9.060637451171875,0.031967356016486884,-0.03178805392682552,-0.003544029282405972
1686343540445657600,9.07065771484375,0.043135961893200875,-0.013506547304987907,-0.00030161329507827757
1686343540455676400,9.080676513671875,0.02524623106792569,-0.018476736932992933,-0.005471088354848325
1686343540465696300,9.0906962890625,-0.0325460326872766,-0.0229746328741312,-0.0028366481980308888
1686343540475716400,9.10071630859375,-0.05858429091572761,-0.02073825212419033,0.013382044142484664
1686343540485735400,9.1107353515625,-0.031361937469244004,-0.009430091646313667,0.02574409758746624
1686343540495755500,9.120755615234375,0.020810148316621778,-0.021905542337894438,0.03312690131515264
1686343540505774300,9.1307744140625,-0.009708908587694168,-0.010147300004959106,0.03680149817466736
1686343540515794200,9.140794189453125,-0.02701382526233792,-0.030685061120986935,0.031807854605838654
1686343540525814300,9.150814208984375,-0.031108254969120022,-0.03636778293251991,-0.0015188801303505897
1686343540535833300,9.160833251953125,-0.04555179086327552,-0.021302315747737884,-0.049345630188286305
1686343540545853400,9.170853515625,-0.030060207220911978,-0.011237433329224587,-0.09155366358160973
1686343540555873500,9.18087353515625,-0.005782236663252115,-0.03164250797629356,-0.049670697424188254
1686343540565892600,9.190892578125,0.024860738881677388,-0.016369535520672798,-0.007060220709815621
1686343540575912400,9.200912353515625,0.05885784716010093,-0.004547580301761627,0.011169044268131256
1686343540585931500,9.210931640625,0.05983049158453941,-0.01038110876083374,0.04916998136043548
1686343540595951600,9.22095166015625,0.029869214693456887,-0.012270868030190467,0.05299659044388681
1686343540605971500,9.230971435546875,-0.060747168038040394,-0.013212532794475554,0.017223448936268686
1686343540615990500,9.240990478515625,-0.12178572023808955,-0.028429975670576094,-0.006328326238691806
1686343540626010600,9.2510107421875,-0.13227832654938101,-0.05667816503345966,-0.047279601036570966
1686343540636029400,9.261029541015626,-0.13445640124082564,-0.07145312483906746,-0.07230389644950627
1686343540646049500,9.271049560546874,-0.1028800903685391,-0.06893909619152545,-0.052589799741283055
1686343540656069600,9.281069580078125,-0.04700140514969826,-0.06212064834833145,-0.031901158912479875
1686343540666088700,9.291088623046875,-0.0035888182722032067,-0.051045712104439735,-0.026497802031598985
1686343540676108500,9.301108642578125,0.005494067371636629,-0.04686813415884972,-0.01876658672504127
1686343540686128600,9.311128662109375,-0.00023351649492979047,-0.026387071666121482,-0.02159359031189233
1686343540696147700,9.321147705078126,-0.03627878947481513,-0.006852350112795829,0.0006599982786923646
1686343540706167800,9.331167724609376,-0.08122209305092692,0.000720130968093872,0.001123779865540564
1686343540716186600,9.3411865234375,-0.08479995153769851,-0.0007265607088804244,0.013016462233103812
1686343540726206500,9.35120654296875,-0.03294014657139778,0.009747487032413482,0.01860416270494461
1686343540736226600,9.3612265625,0.0512432805031538,0.02196165643930435,0.0311290054962039
1686343540746245600,9.37124560546875,0.15643676238059998,0.031788638448715205,0.06771598413735627
1686343540756265700,9.381265625,0.21391937566474079,0.014580314016342162,0.06796765734348446
1686343540766284500,9.391284423828125,0.23444179308116433,-0.002771218279004097,0.029545243436098097
1686343540776304400,9.401304443359376,0.21096505590379236,0.0038753801286220547,-0.013165186521410941
1686343540786324500,9.411324462890626,0.14353519523143768,0.008988193097710609,-0.04654167868345976
1686343540796343600,9.421343505859374,0.08543912622407078,-0.0037689971446990965,-0.05933123682551086
1686343540806363600,9.43136376953125,-0.0021589315995573996,0.00022854805886745453,-0.04318345429673791
1686343540816383500,9.441383544921875,-0.05679083162769675,-0.004426584270596504,-0.023143486635014414
1686343540826402600,9.451402587890625,-0.09893310630843043,-0.02139876185953617,0.0035884529460221528
1686343540836422700,9.461422607421875,-0.12072174426838755,-0.026131051078438758,0.023605989580228925
1686343540846441500,9.47144140625,-0.12274594357237219,-0.04288052582740783,0.038632001537457106
1686343540856461600,9.481461669921876,-0.11671250862702727,-0.03143909435868263,0.00922178265787661
1686343540866481700,9.491481689453124,-0.10093173277974128,-0.02732172216773033,0.004809153847396374
1686343540876500500,9.50150048828125,-0.1110264258146286,-0.0359586176097393,-0.009363163889944553
1686343540886520600,9.5115205078125,-0.1512158128619194,-0.02762099737524986,-0.04003039709329605
1686343540896539600,9.52153955078125,-0.18064532096385955,-0.04420505242943763,-0.06039660103470087
1686343540906559500,9.5315595703125,-0.14095628465414045,-0.04910743751823902,-0.04935732062608003
1686343540916579600,9.54157958984375,-0.07249941902160643,-0.05381576133966445,-0.0035322657793760296
1686343540926598700,9.5515986328125,-0.011979629998654127,-0.05343874472081661,-0.004655351525172591
1686343540936618500,9.561618408203126,0.041066316012293096,-0.04751636893451214,-0.012677914461120963
1686343540946637600,9.571637451171876,0.05331365703642368,-0.0316711495488882,0.006639876405894756
1686343540956657700,9.58165771484375,0.04399652424529195,-0.029022096344828604,0.0029162527728825807
1686343540966677800,9.591677734375,0.05505027157068252,-0.02309504438340664,-0.02817307830005884
1686343540976696600,9.601696533203125,0.033089199653267856,-0.014186930784583092,-0.02648468682169914
1686343540986716400,9.61171630859375,0.024889088193327188,-0.008461538875102996,-0.041885304244980215
1686343540996736500,9.621736572265625,0.012219576234370469,-0.008137129226326941,0.0023068521702662107
1686343541006755600,9.631755615234376,0.03908011063113809,-0.0013543372184038162,0.010791187399066983
1686343541016775700,9.641775634765626,0.054306759727001185,0.0036386487632989882,0.02677139480859041
1686343541026794800,9.651794677734374,0.032495325413346286,-0.0006657704323530197,0.011814648695290088
1686343541036814600,9.661814697265624,0.005361380902677774,-0.0028910452663898465,0.012977043538168071
1686343541046834400,9.67183447265625,-0.010099223079532385,-0.011276011773943901,-0.0109729006415233
1686343541056853500,9.681853515625,-0.005991933891177177,0.002148117944598198,-0.017412322571873664
1686343541066873600,9.69187353515625,0.033532997898012395,0.003036591216921806,0.006025616965070367
1686343541076892700,9.701892578125,0.04808978490829467,0.01680909598171711,0.019003975677490233
1686343541086912500,9.71191259765625,0.031013562422990797,-0.02078793648481369,-0.016555998003482817
1686343541096932600,9.7219326171875,-0.014306757771968841,-0.02791208927631378,-0.03759118724763393
1686343541106951400,9.731951416015624,-0.04099266625419259,-0.031123452538251876,-0.026218510166183113
1686343541116971500,9.741971435546875,-0.0744562521778047,-0.0427513464897871,0.0013160875672474503
1686343541126991600,9.75199169921875,-0.09788286660313605,-0.04841945525407791,0.005130933147668838
1686343541137010700,9.7620107421875,-0.1076611871652305,-0.054123804375529286,-0.000466411935351789
1686343541147030500,9.772030517578125,-0.09888342194780707,-0.03797288004159927,0.0001625336179509759
1686343541157049600,9.782049560546875,-0.07092354800701141,-0.02803016269803047,0.013325053258240223
1686343541167069700,9.792069580078126,-0.059999564541131256,-0.01215221008658409,-0.007689458524063229
1686343541177089800,9.80208984375,-0.012308277431130409,-0.0017629180192947386,-0.019667992544174194
1686343541187108600,9.812108642578124,0.0596751548923552,-0.007732640078663825,-0.00850355138592422
1686343541197128400,9.82212841796875,0.089624741345644,-0.018962474623322487,0.010666939964890479
1686343541207147500,9.8321474609375,0.08828194843456148,-0.019032617250084875,0.000624780834838748
1686343541217167600,9.842167724609375,0.05953764611780643,-0.014748656320571898,-0.007814473143219947
1686343541227187700,9.852187744140625,-0.014085808497667312,-0.022403554987907408,0.002542377959191799
1686343541237206800,9.862206787109375,-0.07834449178799986,-0.01412029528915882,-0.004261712565086782
1686343541247226400,9.872226318359376,-0.060064300340414045,-0.015741759011149405,0.000879120922088623
1686343541257246500,9.88224658203125,-0.011413228287547827,-0.025116905599832533,-0.002430990006588399
1686343541267265500,9.892265625,0.014956746113300322,-0.029385084438323973,-0.005738835912942886
1686343541277285600,9.90228564453125,0.02247545118033886,-0.025489830565452575,0.013101765896379947
1686343541287304700,9.9123046875,0.037554508499056095,-0.02933773816525936,0.013731624765135347
1686343541297324500,9.922324462890625,0.022848960667848587,-0.024345336705446242,0.0010629530563950537
1686343541307344600,9.9323447265625,-0.03797565652057528,-0.023891163197159764,-0.01676697387304157
1686343541317363500,9.942363525390626,-0.07998612151518464,-0.013164601999521255,-0.02476772683598101
1686343541327383600,9.952383544921876,-0.08911503825783729,-0.0027799861073493958,-0.03759557116180658
1686343541337402600,9.962402587890624,-0.06964344506859779,-0.01045125138759613,-0.024706278972327706
1686343541347422700,9.972422607421874,-0.05374678775668144,-0.02824409770965576,-0.0065597969070076935
1686343541357442600,9.982442626953125,-0.03289396934211254,-0.028638065463304517,-0.00725099404156208
1686343541367461600,9.992461669921875,-0.010745850419998168,-0.04671791203320026,-0.015252806450426577
1686343541377481700,10.002481689453125,-0.013353402569890021,-0.051039866885542864,-0.024345921227335927
1686343541387500500,10.01250048828125,-0.02040200590714812,-0.036568858462572094,-0.035099333899281916
1686343541397520600,10.022520751953126,-0.031066753914952276,-0.026150340300798415,-0.03726239368468523
1686343541407540500,10.03254052734375,-0.022706921848654745,-0.024158289700746533,-0.02402823358029127
1686343541417559600,10.0425595703125,-0.010481062003970145,-0.007969371443986892,0.014065057970583439
1686343541427579600,10.05257958984375,-0.007040712291747331,0.0037099604338407515,0.014147402491793035
1686343541437599700,10.062599853515625,-0.0016764087796211243,0.0051531449794769285,0.029823768116533755
1686343541447618600,10.07261865234375,0.00490998387336731,0.018200842601060866,0.04485065685659647
1686343541457638400,10.082638427734375,0.02463993573784828,0.0012403554499149322,0.04236731560826301
1686343541467657500,10.092657470703125,0.07508943551480769,-0.010409750333428383,0.03186228820681572
1686343541477677600,10.102677490234376,0.11041750013604759,-0.03097147684693336,0.006781659496761858
1686343541487697700,10.11269775390625,0.10809095688462257,-0.02191723277568817,-0.020097031611204148
1686343541497716700,10.122716796875,0.061520344367623325,-0.030192893689870832,-0.018448387621343133
1686343541507736600,10.132736572265625,0.05546645115613937,-0.01810264292359352,0.0009825812965631483
1686343541517756700,10.142756591796875,0.06172258894145488,0.011555413237214087,0.019934242264926433
1686343541527775500,10.152775390625,0.04886719902157783,0.016265490624308584,0.05269494061619043
1686343541537795600,10.162795654296875,-0.006051555123925209,0.009883680632710456,0.043888241565227505
1686343541547814700,10.172814697265625,-0.04946399587094784,0.010512626186013221,0.03246960645020008
1686343541557834800,10.182834716796876,-0.07805822219252585,-0.02644844646453857,0.010953940212726592
1686343541567854600,10.1928544921875,-0.12685615537017583,-0.04203063099980354,-0.029940270635671912
1686343541577873400,10.202873291015624,-0.1324706342510879,-0.05529810885190963,-0.048295500080846245
1686343541587893500,10.2128935546875,-0.08312880345508455,-0.08910217877626418,-0.05709076442234218
1686343541597912600,10.22291259765625,-0.050790422169119116,-0.08204466148018837,-0.08317286179251969
1686343541607932700,10.2329326171875,-0.027511253390461204,-0.06516016217470169,-0.09400200658179819
1686343541617952500,10.242952392578125,-0.03867591374441981,-0.08340659748315811,-0.06350326181314886
1686343541627971600,10.2529716796875,-0.04742445286735892,-0.042055765441060065,-0.025322291978821156
1686343541637991700,10.26299169921875,0.05129486455991864,0.01949906571805477,0.005574658327177167
1686343541648010500,10.273010498046874,0.07999386643022298,-0.03611877660751343,-0.06051803545728326
1686343541658030600,10.283030517578124,-0.10492445567771792,-0.07903846540153026,0.008015913999453186
1686343541668050400,10.293050537109375,-0.11612155699655413,0.01504091726541519,0.01736680292971432
1686343541678069500,10.303069580078125,0.013563976580649614,0.02228898869752884,-0.007160904605314135
1686343541688089600,10.313089599609375,0.0327181743837893,0.022599369820952415,0.0030211744520813226
1686343541698109700,10.323109619140626,-0.01639817709326744,0.048154082316160196,-0.06508563563376665
1686343541708128800,10.333128662109376,0.0503846178472042,0.02863105120062828,-0.09385434173941612
1686343541718148400,10.3431484375,0.0703280663318932,-0.13653846821188925,-0.08083696619085967
1686343541728167400,10.35316748046875,0.08845102139115334,-0.2091822641402483,-0.08963906213194131
1686343541738187500,10.3631875,0.10390607241541147,-0.11582067435383796,-0.12839271728768945
1686343541748207600,10.37320751953125,0.08756327877119183,-0.1572720441609621,-0.18985555931441483
1686343541758226700,10.383226806640625,-0.019026625900715587,-0.25093583176434037,-0.2383784749429673
1686343541768246500,10.39324658203125,0.05191270419731736,-0.19199030632078645,-0.17742570133022964
1686343541778265600,10.403265625,0.20067863968908786,-0.09129413586258887,0.3288350640028715
1686343541788285400,10.413285400390626,0.4033265336245298,-0.27897476229071616,0.14735621482431888
1686343541798305500,10.423305419921874,0.3644290860839188,0.0856944161593914,0.05211604474969208
1686343541808324600,10.43332470703125,0.2104549144245684,0.20057927096784114,0.43400286344978956
1686343541818344700,10.4433447265625,0.09921265390217304,0.10182897388041019,0.38907968934625387
1686343541828364500,10.453364501953125,-0.06760740919634699,0.11913374442458152,0.21973500314094124
1686343541838383600,10.463383544921875,-0.12771554867848753,0.0796598121702671,0.1880156305361539
1686343541848403700,10.47340380859375,-0.08456453534662724,0.1037456211566925,0.1825143297061324
1686343541858422500,10.483422607421875,-0.13205182431712745,0.09667992055416107,0.11327208584956824
1686343541868442600,10.493442626953126,-0.23523221280649304,0.061407531642913814,0.090105437534675
1686343541878462500,10.50346240234375,-0.34229134242534637,0.26970716772973535,0.23850246664881705
1686343541888481500,10.5134814453125,-0.6940402490258216,0.17844927222430704,-0.02570230427235365
1686343541898501600,10.523501708984375,-1.1469373076356946,0.10306406863331793,-0.0052841509480029344
1686343541908520700,10.533520751953125,-1.2215000889278949,0.05323357753753662,0.14234562012068927
1686343541918540500,10.54354052734375,-1.015347401741892,0.2176034710049629,0.21097901136390865
1686343541928560400,10.553560302734375,-0.3323264132499695,0.5948690961778164,0.46893180921822786
1686343541938579500,10.563579345703126,-0.18418533165827392,0.17036708805561065,0.47318676324896514
1686343541948599600,10.573599609375,0.058124929775670166,-0.04532674993574619,0.18358992304839192
1686343541958619600,10.58361962890625,0.39080855896547434,0.05597615424394607,-0.051009690942987795
1686343541968638700,10.593638671875,0.4768204435762018,0.14720014747977256,0.01845584027543664
1686343541978658600,10.603658447265625,0.44937516809403893,0.1310644207149744,0.22011399252116678
1686343541988677400,10.613677490234375,0.448545147010684,0.04659457791447639,0.28627894782423974
1686343541998697500,10.623697509765625,0.5053893162608146,0.09520517182648182,0.2524754624217749
1686343542008717600,10.633717529296876,0.49047056407034395,0.23705928210318086,0.3902297361642122
1686343542018736600,10.643736572265626,0.21674305478334427,0.3534603866934776,0.620713147008419
1686343542028756700,10.6537568359375,-0.2814992392670363,0.38662031349539755,0.7713886424485593
1686343542038776600,10.663776611328124,-0.6781593007396907,0.22829437636733055,0.6872616217363625
1686343542048795600,10.673795654296875,-0.6083276396226137,0.05791092169880867,0.2677543531615287
1686343542058815500,10.6838154296875,-0.2615126822929829,-0.14113164122104643,-0.20636742591522633
1686343542068834600,10.69383447265625,0.09792392926588654,-0.28865210669636726,-0.5541748283483088
1686343542078854700,10.703854736328125,0.32650442909821864,-0.4086117805510759,-0.740768244061619
1686343542088874500,10.71387451171875,0.3910533275067806,-0.513256980895996,-0.8072928264573216
1686343542098893600,10.7238935546875,0.2429530163168907,-0.42779286636114117,-0.785602095913887
1686343542108913700,10.73391357421875,0.005955839664489031,-0.3140741327226162,-0.6195161923088133
1686343542118932500,10.743932373046874,-0.19670549827441572,-0.2915542578786611,-0.4397219352163374
1686343542128952600,10.75395263671875,-0.27932065311893817,-0.22016192331612108,-0.34530002272203564
1686343542138972400,10.763972412109375,-0.3094635701872408,-0.06392156029045581,-0.24246450214758514
1686343542148991500,10.773991455078125,-0.2641355050772428,0.010364742147922516,-0.05894698674827814
1686343542159011600,10.784011474609375,-0.23603921834044156,0.01784603781402111,0.06108297586366534
1686343542169031700,10.79403173828125,-0.2597919229149818,-0.019928104785084725,0.05162175842672586
1686343542179050800,10.80405078125,-0.1666436105530709,0.004071779483556747,-0.05450505877807736
1686343542189070300,10.8140703125,0.17530461752302945,0.030220950740575788,-0.07850669661238789
1686343542199089400,10.82408935546875,2.194852807766199,-0.16132161181271076,-0.2395519757017493
1686343542209109500,10.834109619140625,1.4855886861234902,-0.5101023162573576,-0.16556860173270105
1686343542219129600,10.844129638671875,0.9158310887180269,-0.2375672316253185,-0.19965470346882938
1686343542229148700,10.854148681640625,0.3494108921069652,-0.12156827809512614,-0.21813991596922278
1686343542239168800,10.864168701171875,-0.29470205438509584,-0.18250117796361445,-0.11860694407150149
1686343542249188600,10.874188720703126,-0.6945688029445707,-0.20338029986321926,-0.17380919133350253
1686343542259207400,10.88420751953125,-0.9168669345717877,-0.2705903803050518,-0.3531679796181619
1686343542269227500,10.8942275390625,-0.8264904250107705,-0.27797172272801396,-0.4766105271525681
1686343542279246600,10.90424658203125,-0.6019708910070359,-0.3152466836333275,-0.5168566128231584
1686343542289266700,10.9142666015625,-0.4481904883541167,-0.3759481128334999,-0.6046518006540834
1686343542299286500,10.92428662109375,-0.38141339250206946,-0.32556466403007506,-0.6882888458922505
1686343542309305600,10.9343056640625,-0.3935317003190517,-0.22729484393596647,-0.6753934162229299
1686343542319325700,10.94432568359375,-0.36923940897509455,-0.08571838155686855,-0.4398411776818335
1686343542329345500,10.954345458984376,-0.33506365619413553,0.023632804521918297,-0.14393990357480943
1686343542339364600,10.964364501953124,-0.23936653613224623,0.04292085783779621,0.06219006032273173
1686343542349384400,10.974384521484374,-0.09993161582648753,0.05323825371265411,0.1680038660556078
1686343542359403500,10.984403564453125,0.03037994069457054,0.05939385373294353,0.19490180985331534
1686343542369423600,10.994423583984375,0.13262217155098915,0.02686170344054699,0.15446195517629385
1686343542379443700,11.004443603515625,0.17450491851270197,-0.04112053041756153,0.05674889218211174
1686343542389462500,11.014462646484375,0.19083470654487608,-0.07675941455364227,-0.05371317774802446
1686343542399482400,11.024482421875,0.19188962242528795,-0.054341246518492696,-0.1133994385562837
1686343542409502500,11.03450244140625,0.12785013484358787,-0.043134208327531814,-0.0939095790579915
1686343542419521500,11.044521484375,0.08380874854326248,0.010289338824152946,-0.05923340247422457
1686343542429541600,11.054541748046875,0.052580666586756704,0.028388474616408345,-0.03703530693054199
1686343542439560700,11.064560791015625,-0.012077902741357683,0.019963760620355604,-0.06280300458930432
1686343542449580500,11.07458056640625,-0.14590133984088896,0.03218611333370208,-0.1232347500026226
1686343542459600600,11.0846005859375,-0.20488412855491042,0.011723171019554137,-0.17960275310836732
1686343542469619500,11.094619384765625,-0.21798647897318005,0.017216507738828657,-0.22354462455697358
1686343542479639600,11.1046396484375,-0.2403693564992398,0.12165361829102038,-0.16073818590156733
1686343542489659600,11.11465966796875,-0.2702455123901367,0.21840309695005417,0.07907236767113208
1686343542499678700,11.1246787109375,-0.3059082157932222,0.25457564957141876,0.359422583033517
1686343542509698600,11.134698486328125,-0.37531726758405565,0.3071148151040077,0.5280431196827441
1686343542519717600,11.144717529296875,-0.4468440421812236,0.33969898784458635,0.6427315751362591
1686343542529737500,11.154737548828125,0.6830880623787641,0.5764776994407177,0.31506314375996586
1686343542539757600,11.164757568359375,0.8148860580652951,0.1220844109237194,0.5701224851951002
1686343542549776600,11.174776611328125,-0.13637714017033575,-0.016951719322800634,0.44673955889344213
1686343542559796000,11.1847958984375,0.4823778585076332,0.2567243520379066,-0.11926701541543006
1686343542569816000,11.194816162109374,0.2001456287909299,0.008054711639881133,-0.3709611912664026
1686343542579835100,11.204835205078124,-0.013903437668085097,-0.10658932015001774,-0.45979368625581263
1686343542589855200,11.214855224609375,-0.18820552708506583,-0.07391162390708923,-0.301933320812881
1686343542599874000,11.2248740234375,-0.24419819407239554,-0.21735446467995642,-0.08771664270199835
1686343542609894100,11.23489404296875,-0.2471697572290897,-0.2907049475729465,-0.04434124602973461
1686343542619914000,11.2449140625,-0.29574074978306886,-0.1429015735030174,0.09545907352231442
1686343542629933000,11.25493310546875,-0.2944115470059216,-0.05513327367901802,0.31943091051541267
1686343542639953200,11.264953125,0.08236855967231094,-0.122415250313282,0.2880737588191405
1686343542649973200,11.27497314453125,0.38200609769821164,-0.17238427309691906,0.11834551665633916
1686343542659992000,11.284991943359374,0.46838506205566227,-0.15605857671797274,0.005647979291714728
1686343542670012000,11.295011962890625,0.48090135621428487,-0.002587678405642509,0.038949616119265555
1686343542680031000,11.305031005859375,0.40081542758643623,0.11891045706272124,0.2902648025900125
1686343542690051000,11.315051025390625,0.06977481636330485,0.052031800532341,0.3625768092807382
1686343542700071200,11.3250712890625,0.22596622568070887,0.030404490613937376,0.08009908037036657
1686343542710090200,11.33509033203125,0.2866185550421476,0.03388414942324161,-0.029998832422494886
1686343542720110000,11.345110107421876,0.09752170514054596,-0.00012450316250324248,-0.046819874570332466
1686343542730130200,11.355130126953124,-0.08522964819185436,0.05364683451354503,-0.14911120526548474
1686343542740149000,11.36514892578125,-0.17396715837419033,-0.005574000740051269,-0.11582184339761734
1686343542750169000,11.375169189453125,-0.12071911391988396,-0.03189268334507942,0.025455270708724855
1686343542760189200,11.385189208984375,0.02944412114918232,-0.06586158844232559,0.04862082304507494
1686343542770208000,11.3952080078125,0.08847557131052017,0.00917816271185875,0.0907069836243987
1686343542780228000,11.40522802734375,-0.0005645750802010297,0.040217444097995755,0.13008450629953294
1686343542790247000,11.415246826171876,-0.06384484179243445,0.06080196696519851,0.19187636108491568
1686343542800267000,11.42526708984375,-0.11181553036570549,0.08067571121454238,0.2484825933933258
1686343542810287000,11.435287109375,-0.14418101885430515,0.09140402597784995,0.24051705787423996
1686343542820306200,11.44530615234375,-0.04872216452769935,0.10662088433206081,0.19882223470006136
1686343542830326000,11.455325927734375,0.1056034509178251,0.09723404730558395,0.1262746291551739
1686343542840346000,11.46534619140625,0.19254852472543715,0.020946341916918753,0.08029314163774251
1686343542850365200,11.475365234375,0.14355740706324577,-0.054370472612977026,-0.13751871142089367
1686343542860385300,11.48538525390625,-0.0065641808211803435,-0.06664017159938812,-0.2593351190581918
1686343542870404000,11.495404052734376,-0.02027589530944824,-0.11219371602833271,-0.18757365892231465
1686343542880424000,11.505423828125,-0.006763064394146204,-0.0981856489419937,-0.062292534316517406
1686343542890444000,11.515444091796875,0.01714738802537322,-0.03029576954245567,0.045575135206244885
1686343542900463000,11.525463134765625,0.029492051944136618,-0.015111059892177581,0.1353363989457488
1686343542910483200,11.535483154296875,-0.0753986475944519,0.0225040927529335,0.14914017563164234
1686343542920503000,11.5455029296875,-0.2030477069079876,0.045053778213262556,0.045887890949845314
1686343542930521900,11.55552197265625,-0.26088629402294755,0.024495558831095693,0.02069525323268026
1686343542940542000,11.5655419921875,-0.17718202876746653,0.01638940926492214,0.0380959218993783
1686343542950562000,11.57556201171875,-0.10241700290143489,0.0032259763091802597,0.03739508015364408
1686343542960581000,11.5855810546875,-0.042481297376751895,-0.05335983426570892,-0.01455079566091299
1686343542970601000,11.59560107421875,-0.042958121108263726,-0.07235562663674354,-0.05231613389905542
1686343542980620000,11.6056201171875,-0.04778232639431953,-0.0716734895914793,-0.006645429363846779
1686343542990640000,11.61564013671875,0.010655249527096749,-0.07239128247201443,0.06881751563847065
1686343543000660200,11.62566015625,0.05203530766367912,-0.050643561044335365,0.04044073145985603
1686343543010679000,11.635678955078125,0.048306496398895976,-0.04103109856843948,-0.021615363752283154
1686343543020699100,11.64569921875,0.008650997032597661,-0.0407908600717783,-0.07615293656047434
1686343543030719000,11.655718994140624,-0.03526303656101227,0.006416881304979324,-0.010861585754156113
1686343543040738000,11.665738037109374,-0.08002221574187278,0.03557575577199459,0.13239479253590106
1686343543050758100,11.675758056640625,-0.0804483321994543,-0.0055406829923391335,0.12072422848641871
1686343543060778200,11.6857783203125,-0.056818961743637916,-0.026842998740077017,-0.016583141738735138
1686343543070797000,11.695797119140625,-0.14277626662291584,-0.0353401934504509,0.02255560374446213
1686343543080817000,11.70581689453125,-0.08034954800009728,-0.07622340798079967,-0.04244534928053617
1686343543090836000,11.7158359375,0.05045848680101335,-0.0241945300579071,0.0029250206012278795
1686343543100856000,11.72585595703125,-0.0029798195283859967,0.042265608799457545,0.06192954622302204
1686343543110876200,11.735876220703124,0.1347821260638535,0.024810616129636764,-0.08874353806432336
1686343543120895200,11.745895263671875,0.21587628188617528,-0.043890579652786255,-0.060236405504308636
1686343543130915000,11.7559150390625,0.17946524433381855,0.009755085816979408,-0.026315723462961613
1686343543140935200,11.76593505859375,0.12541815845631063,0.013218962535262106,0.024704598471894858
1686343543150954000,11.7759541015625,0.07834588002748787,-0.02264437800645828,0.03492112778816372
1686343543160974000,11.78597412109375,0.027576135320216414,-0.013152327039837836,0.012238463597930967
1686343543170994000,11.795993896484376,-0.06219890121631324,-0.005267126747965812,0.002717186536826193
1686343543181013000,11.806012939453124,-0.14974099106900393,-0.0315144976824522,-0.07379672882314771
1686343543191033000,11.816033203125,-0.2057340233825147,-0.03163841632306576,-0.11982578180935233
1686343543201053200,11.82605322265625,-0.21675635265633464,-0.04738543603122234,-0.01885605510678142
1686343543211072000,11.836072021484375,-0.1682914508253336,-0.03277297331094742,0.006857026287913322
1686343543221092000,11.846092041015625,-0.0555969456680119,-0.05060790520906448,-0.022922939219512044
1686343543231111200,11.856111083984375,0.06890175985582173,-0.04484393485486507,-0.033475532089732585
1686343543241131000,11.866131103515626,0.10618483100235461,-0.017708090648055074,0.009958499434590339
1686343543251151000,11.876151123046874,0.0875624019883573,-0.02374795533418655,0.04530771644171327
1686343543261170200,11.886170166015624,0.042634295981377364,-0.004251812225580215,0.08373155512120574
1686343543271190300,11.896190185546875,0.006302315014600753,-0.01988894181847572,0.054559565444290636
1686343543281210000,11.906210205078125,-0.06733385295197367,-0.028385552006959913,0.002986066606082022
1686343543291229000,11.91622900390625,-0.16096096180677413,-0.027108956199884415,0.008522913673520087
1686343543301249000,11.9262490234375,-0.16464622619077562,-0.009783142867684363,-0.015495346502028405
1686343543311269000,11.93626904296875,-0.07364676242582499,-0.008542787417769431,-0.031426490605436265
1686343543321288200,11.9462880859375,0.060184565719217056,-0.08699848449528216,0.08744473042543977
1686343543331308000,11.95630810546875,0.06525836185216903,-0.025406243935227394,0.07928659494370222
1686343543341328100,11.966328125,0.09922317529618739,-0.03197451640963554,-0.011243278548121452
1686343543351347000,11.976346923828125,0.10515322293229401,-0.046102410483360286,0.0056140770221129056
1686343543361367000,11.986366943359375,0.109157855463773,-0.020244331127405167,0.00999974476043135
1686343543371386000,11.99638623046875,0.03144260149002075,-0.010040332499146461,-0.03131985189318657
1686343543381406000,12.006406005859375,-0.04170556376390159,0.016557751569151877,-0.09239650761391967
1686343543391426000,12.016426025390626,-0.0728494745682925,0.01918576198518276,-0.04510459508504718
1686343543401445000,12.026445068359376,-0.09208901256732642,0.03400105380117893,-0.023027787833474575
1686343543411465200,12.03646533203125,-0.05180317940823734,0.007406476864218712,-0.04745291177686303
1686343543421485300,12.0464853515625,-0.020250614737719295,-0.035677462580800054,-0.0036804055457934737
1686343543431504100,12.056504150390625,-0.023180311514064668,-0.04066752595305442,0.017426387629844248
1686343543441524000,12.06652392578125,-0.005270633879303932,-0.03315057445168495,0.03214052062630653
1686343543451544000,12.0765439453125,0.01611760658621788,-0.05167816478908062,0.04587444694638252
1686343543461563100,12.086563232421875,0.04010039358958602,-0.07043021153211593,0.028000900070928036
1686343543471583200,12.096583251953126,0.018197919991612434,-0.041534956437349314,-0.07729892825782299
1686343543481603000,12.10660302734375,-0.0935369463533163,-0.026169629523158072,-0.11555705498158932
1686343543491622000,12.116621826171874,-0.19953531487286089,-0.0068862523823976516,-0.09039221858680248
1686343543501642000,12.12664208984375,-0.2142563525341451,0.0356710328400135,-0.034447007470391686
1686343543511661000,12.1366611328125,-0.11222118855714798,0.01697334663271904,0.02010463039577007
1686343543521681200,12.14668115234375,-0.0017054887436330317,-0.0094242464274168,0.033343210946954784
1686343543531701000,12.156700927734375,0.02873867629356682,-0.019522446593642235,0.048795923883654176
1686343543541720000,12.166719970703125,0.033396146710589526,-0.04724631982147694,0.03969696388784796
1686343543551740200,12.176740234375,0.015454758763313292,-0.07435235341191292,0.028768413844704625
1686343543561760500,12.186760498046874,-0.0324643457531929,-0.05499415746927261,0.03184066089689731
1686343543571779300,12.196779296875,-0.04887004856579005,-0.03515080835819244,0.00820497029814869
1686343543581799200,12.206799072265625,-0.04064757914356887,-0.026576456758379934,0.0026122648576274513
1686343543591819300,12.2168193359375,-0.005672784939408302,-0.009365794238448142,-0.035200784979760646
1686343543601838300,12.22683837890625,0.021538024199753997,-0.00011105915904045104,-0.055073031391762194
1686343543611858400,12.2368583984375,0.02410802081823349,-0.0018330606460571289,-0.028665245731174942
