time,seconds_elapsed,z,y,x
1686343531551990500,0.176990478515625,-0.1023712158203125,-0.998748779296875,-0.0271148681640625
1686343531562010600,0.1870107421875,-0.1064605712890625,-0.99639892578125,-0.0197906494140625
1686343531572030500,0.197030517578125,-0.1121978759765625,-0.9972076416015625,-0.01318359375
1686343531582049300,0.20704931640625,-0.11785888671875,-0.9981231689453125,-0.00592041015625
1686343531592069400,0.2170693359375,-0.11810302734375,-0.9971160888671875,-0.0051727294921875
1686343531602089500,0.22708935546875,-0.116180419921875,-0.9949493408203125,-0.013397216796875
1686343531612108500,0.237108642578125,-0.123138427734375,-0.992523193359375,-0.0216827392578125
1686343531622128400,0.24712841796875,-0.1339111328125,-0.9941864013671875,-0.0283050537109375
1686343531632148500,0.2571484375,-0.1439971923828125,-0.9911346435546875,-0.0381317138671875
1686343531642167600,0.26716748046875,-0.15325927734375,-0.98974609375,-0.0433502197265625
1686343531652187400,0.2771875,-0.15435791015625,-0.99334716796875,-0.0432891845703125
1686343531662206500,0.28720654296875,-0.14910888671875,-0.9911651611328125,-0.041900634765625
1686343531672226300,0.297226318359375,-0.133575439453125,-0.992584228515625,-0.0323333740234375
1686343531682246400,0.307246337890625,-0.1249237060546875,-0.994384765625,-0.020599365234375
1686343531692265500,0.317265380859375,-0.1261138916015625,-0.990753173828125,-0.0070037841796875
1686343531702285600,0.32728564453125,-0.125640869140625,-0.9908447265625,-0.0033111572265625
1686343531712305700,0.3373056640625,-0.120391845703125,-0.9937744140625,-0.0086517333984375
1686343531722324500,0.347324462890625,-0.121826171875,-0.9954071044921875,-0.010986328125
1686343531732344300,0.35734423828125,-0.1244659423828125,-0.9962615966796875,-0.0150299072265625
1686343531742364400,0.367364501953125,-0.12591552734375,-0.996978759765625,-0.0192718505859375
1686343531752383500,0.377383544921875,-0.1231231689453125,-0.9945526123046875,-0.03070068359375
1686343531762403600,0.387403564453125,-0.1170654296875,-0.99713134765625,-0.037994384765625
1686343531772423400,0.39742333984375,-0.108123779296875,-0.9982452392578125,-0.0364837646484375
1686343531782442500,0.4074423828125,-0.09735107421875,-0.9962310791015625,-0.033935546875
1686343531792462300,0.41746240234375,-0.1017303466796875,-0.9922943115234375,-0.0238037109375
1686343531802482400,0.427482421875,-0.10430908203125,-0.99200439453125,-0.0272216796875
1686343531812501500,0.43750146484375,-0.1009368896484375,-0.9930877685546875,-0.0344085693359375
1686343531822521300,0.447521240234375,-0.0927734375,-0.9972076416015625,-0.0292510986328125
1686343531832541400,0.45754150390625,-0.0915374755859375,-0.9968109130859375,-0.0223236083984375
1686343531842560500,0.467560546875,-0.089630126953125,-0.9965972900390625,-0.02130126953125
1686343531852580600,0.47758056640625,-0.0886077880859375,-0.995574951171875,-0.0234832763671875
1686343531862600400,0.487600341796875,-0.0796661376953125,-0.9981536865234375,-0.031341552734375
1686343531872619300,0.497619384765625,-0.082916259765625,-0.99725341796875,-0.0307464599609375
1686343531882639400,0.507639404296875,-0.1005706787109375,-0.9913482666015625,-0.0197906494140625
1686343531892658400,0.517658447265625,-0.1027679443359375,-0.987579345703125,-0.015411376953125
1686343531902678500,0.527678466796875,-0.0919647216796875,-0.98602294921875,-0.017333984375
1686343531912698600,0.53769873046875,-0.0897979736328125,-0.9924468994140625,-0.023345947265625
1686343531922717700,0.5477177734375,-0.08990478515625,-0.9922943115234375,-0.0384979248046875
1686343531932737300,0.5577373046875,-0.09832763671875,-0.9901885986328125,-0.03765869140625
1686343531942757400,0.56775732421875,-0.097625732421875,-0.9926605224609375,-0.035858154296875
1686343531952776400,0.5777763671875,-0.0792694091796875,-0.9964141845703125,-0.0236968994140625
1686343531962796500,0.587796630859375,-0.0463104248046875,-1.0035858154296875,-0.002960205078125
1686343531972816400,0.59781640625,-0.03021240234375,-1.0012664794921875,0.009857177734375
1686343531982835500,0.60783544921875,-0.070159912109375,-0.993804931640625,0.005096435546875
1686343531992855600,0.61785546875,-0.111480712890625,-0.9938812255859375,-0.0156097412109375
1686343532002875600,0.627875732421875,-0.127105712890625,-0.9951171875,-0.0473480224609375
1686343532012894500,0.63789453125,-0.1285400390625,-0.993377685546875,-0.055450439453125
1686343532022914300,0.647914306640625,-0.1225738525390625,-0.990142822265625,-0.037628173828125
1686343532032934400,0.657934326171875,-0.09228515625,-0.993621826171875,-0.0269775390625
1686343532042953500,0.667953369140625,-0.0578765869140625,-0.989105224609375,-0.018218994140625
1686343532052973600,0.6779736328125,-0.025115966796875,-0.99969482421875,-0.0110626220703125
1686343532062993400,0.687993408203125,-0.001556396484375,-1.003387451171875,-0.0162506103515625
1686343532073012200,0.69801220703125,0.0042724609375,-1.00341796875,-0.0097503662109375
1686343532083032300,0.7080322265625,-0.0225982666015625,-1.00634765625,-0.0169677734375
1686343532093052400,0.718052490234375,-0.096954345703125,-1.00091552734375,-0.0264892578125
1686343532103071500,0.728071533203125,-0.1473846435546875,-0.990936279296875,-0.0514984130859375
1686343532113091600,0.738091552734375,-0.217987060546875,-0.9750518798828125,-0.036285400390625
1686343532123111400,0.748111328125,-0.2625885009765625,-0.9824371337890625,-0.040863037109375
1686343532133130500,0.758130615234375,-0.2499542236328125,-0.991241455078125,-0.0755157470703125
1686343532143150600,0.768150634765625,-0.197021484375,-0.999053955078125,-0.062286376953125
1686343532153170400,0.77817041015625,-0.128875732421875,-1.0133819580078125,-0.039093017578125
1686343532163189500,0.788189453125,-0.056793212890625,-1.0142364501953125,-0.02252197265625
1686343532173209300,0.798209228515625,-0.00091552734375,-1.0161895751953125,-0.0018310546875
1686343532183229400,0.8082294921875,0.0104522705078125,-1.013519287109375,0.017608642578125
1686343532193248500,0.81824853515625,-0.011016845703125,-1.003692626953125,0.0087432861328125
1686343532203268600,0.8282685546875,-0.03863525390625,-1.00372314453125,-0.0151824951171875
1686343532213288400,0.838288330078125,-0.0975494384765625,-0.986175537109375,-0.051849365234375
1686343532223307300,0.848307373046875,-0.1894683837890625,-0.9819488525390625,-0.074432373046875
1686343532233327400,0.858327392578125,-0.268280029296875,-0.9930572509765625,-0.1186370849609375
1686343532243347500,0.868347412109375,-0.303955078125,-0.99932861328125,-0.112335205078125
1686343532253366500,0.878366455078125,-0.2728424072265625,-0.99383544921875,-0.09417724609375
1686343532263386400,0.888386474609375,-0.2218017578125,-0.9942626953125,-0.0594940185546875
1686343532273405400,0.898405517578125,-0.168182373046875,-0.9947357177734375,-0.03326416015625
1686343532283425500,0.908425537109375,-0.125946044921875,-0.9970703125,-0.0151519775390625
1686343532293445400,0.9184453125,-0.095672607421875,-1.0033111572265625,-0.002716064453125
1686343532303464400,0.92846435546875,-0.088958740234375,-0.9992218017578125,0.006561279296875
1686343532313484500,0.938484619140625,-0.090423583984375,-0.9976806640625,0.0096282958984375
1686343532323504400,0.94850439453125,-0.096282958984375,-0.9876708984375,0.0144500732421875
1686343532333523500,0.9585234375,-0.1110382080078125,-0.9810638427734375,0.0110321044921875
1686343532343543600,0.96854345703125,-0.1340179443359375,-0.9736785888671875,-0.0000152587890625
1686343532353563600,0.978563720703125,-0.163055419921875,-0.9660186767578125,-0.0127105712890625
1686343532363582500,0.98858251953125,-0.1828460693359375,-0.965118408203125,-0.0311737060546875
1686343532373602300,0.998602294921875,-0.199615478515625,-0.9677276611328125,-0.0386199951171875
1686343532383622400,1.008622314453125,-0.2069244384765625,-0.970794677734375,-0.0438232421875
1686343532393641500,1.018641357421875,-0.194000244140625,-0.9769744873046875,-0.04638671875
1686343532403661600,1.02866162109375,-0.1694793701171875,-0.9877777099609375,-0.0380859375
1686343532413681400,1.038681396484375,-0.151153564453125,-0.99176025390625,-0.0265655517578125
1686343532423700500,1.048700439453125,-0.131866455078125,-0.9981689453125,-0.0188751220703125
1686343532433720300,1.05872021484375,-0.1217498779296875,-1.000885009765625,-0.0138397216796875
1686343532443740400,1.068740478515625,-0.1286468505859375,-1.0016326904296875,-0.016845703125
1686343532453759500,1.078759521484375,-0.1399078369140625,-1.000640869140625,-0.0301666259765625
1686343532463779300,1.088779296875,-0.1529083251953125,-0.998565673828125,-0.0356597900390625
1686343532473799400,1.09879931640625,-0.1617889404296875,-0.995574951171875,-0.037139892578125
1686343532483818500,1.108818603515625,-0.166107177734375,-0.98858642578125,-0.0424041748046875
1686343532493838600,1.118838623046875,-0.1661529541015625,-0.9868316650390625,-0.0452880859375
1686343532503858700,1.128858642578125,-0.1600341796875,-0.9887542724609375,-0.048095703125
1686343532513877500,1.13887744140625,-0.149383544921875,-0.9928741455078125,-0.0461883544921875
1686343532523897300,1.1488974609375,-0.14501953125,-0.995849609375,-0.044464111328125
1686343532533917400,1.15891748046875,-0.14263916015625,-0.9948272705078125,-0.0436859130859375
1686343532543936500,1.1689365234375,-0.1344757080078125,-0.999664306640625,-0.0433502197265625
1686343532553956900,1.178956787109375,-0.1242218017578125,-1.0050506591796875,-0.0357666015625
1686343532563977000,1.18897705078125,-0.1285858154296875,-1.006103515625,-0.0275115966796875
1686343532573996000,1.19899609375,-0.137054443359375,-1.0031585693359375,-0.041351318359375
1686343532584016000,1.209015869140625,-0.1468353271484375,-0.999481201171875,-0.048553466796875
1686343532594036000,1.219035888671875,-0.1469879150390625,-0.995513916015625,-0.0563507080078125
1686343532604055000,1.229054931640625,-0.137359619140625,-0.9925384521484375,-0.05633544921875
1686343532614075000,1.239074951171875,-0.1248779296875,-0.993316650390625,-0.048675537109375
1686343532624095000,1.249094970703125,-0.121063232421875,-0.992034912109375,-0.050445556640625
1686343532634114000,1.259114013671875,-0.110748291015625,-0.9920196533203125,-0.05181884765625
1686343532644134100,1.269134033203125,-0.1024627685546875,-0.9893646240234375,-0.04718017578125
1686343532654153000,1.279153076171875,-0.1061859130859375,-0.9915618896484375,-0.044189453125
1686343532664172800,1.2891728515625,-0.107330322265625,-0.9883880615234375,-0.052032470703125
1686343532674193000,1.29919287109375,-0.10723876953125,-0.984283447265625,-0.05438232421875
1686343532684212000,1.3092119140625,-0.1117401123046875,-0.9864349365234375,-0.0517730712890625
1686343532694232000,1.319232177734375,-0.116455078125,-0.985015869140625,-0.049407958984375
1686343532704252000,1.329251953125,-0.1044158935546875,-0.9841461181640625,-0.0475006103515625
1686343532714271000,1.33927099609375,-0.085723876953125,-0.984619140625,-0.04010009765625
1686343532724290800,1.349290771484375,-0.062164306640625,-0.9841156005859375,-0.0260772705078125
1686343532734311000,1.359310791015625,-0.0340728759765625,-0.985687255859375,-0.014617919921875
1686343532744330000,1.369330078125,-0.0133514404296875,-0.9890289306640625,-0.009246826171875
1686343532754349800,1.379349853515625,-0.005462646484375,-0.9952392578125,-0.006195068359375
1686343532764370000,1.389369873046875,-0.007232666015625,-0.9997406005859375,-0.0065765380859375
1686343532774389000,1.399388916015625,-0.0178985595703125,-1.0055084228515625,-0.015960693359375
1686343532784409000,1.4094091796875,-0.03265380859375,-1.0072479248046875,-0.025390625
1686343532794429200,1.41942919921875,-0.0442352294921875,-1.003570556640625,-0.0283660888671875
1686343532804448000,1.429447998046875,-0.0489654541015625,-1.007171630859375,-0.0293426513671875
1686343532814467800,1.4394677734375,-0.0504608154296875,-1.005401611328125,-0.0255889892578125
1686343532824488000,1.449488037109375,-0.055816650390625,-1.00506591796875,-0.01287841796875
1686343532834507000,1.459507080078125,-0.065582275390625,-1.00762939453125,-0.00830078125
1686343532844527000,1.469527099609375,-0.0641021728515625,-1.0031280517578125,-0.01861572265625
1686343532854547000,1.479546875,-0.0632781982421875,-0.9962615966796875,-0.02825927734375
1686343532864565800,1.489565673828125,-0.0673828125,-0.9967803955078125,-0.0339202880859375
1686343532874585900,1.4995859375,-0.0706024169921875,-0.99755859375,-0.0297088623046875
1686343532884606000,1.50960595703125,-0.0751190185546875,-0.996063232421875,-0.028533935546875
1686343532894625000,1.519625,-0.0804443359375,-0.9979705810546875,-0.024322509765625
1686343532904644900,1.529644775390625,-0.0844268798828125,-1.000274658203125,-0.0253448486328125
1686343532914665000,1.5396650390625,-0.0912628173828125,-1.002227783203125,-0.0247344970703125
1686343532924684000,1.54968408203125,-0.1016998291015625,-1.0050201416015625,-0.0316162109375
1686343532934704000,1.5597041015625,-0.115081787109375,-1.0077362060546875,-0.038421630859375
1686343532944724000,1.569723876953125,-0.1190032958984375,-1.0048370361328125,-0.035247802734375
1686343532954742800,1.57974267578125,-0.115386962890625,-1.0011138916015625,-0.030426025390625
1686343532964763000,1.589762939453125,-0.11175537109375,-1.0000457763671875,-0.0317840576171875
1686343532974783000,1.599782958984375,-0.11004638671875,-0.9979705810546875,-0.0370025634765625
1686343532984802000,1.609802001953125,-0.10552978515625,-0.9971160888671875,-0.0369415283203125
1686343532994822100,1.619822265625,-0.0924072265625,-0.995819091796875,-0.030120849609375
1686343533004842000,1.629842041015625,-0.0843353271484375,-0.9952545166015625,-0.0234222412109375
1686343533014860800,1.63986083984375,-0.0752105712890625,-0.9975433349609375,-0.023712158203125
1686343533024881000,1.649880859375,-0.06854248046875,-0.99951171875,-0.02032470703125
1686343533034901000,1.65990087890625,-0.0721435546875,-0.997100830078125,-0.0281524658203125
1686343533044920000,1.669920166015625,-0.0828399658203125,-1.0000762939453125,-0.0386810302734375
1686343533054940000,1.67993994140625,-0.082916259765625,-0.9976043701171875,-0.0413818359375
1686343533064960000,1.6899599609375,-0.0839691162109375,-0.994903564453125,-0.034942626953125
1686343533074979000,1.69997900390625,-0.0887908935546875,-0.994354248046875,-0.031005859375
1686343533084999000,1.7099990234375,-0.0945892333984375,-0.9942474365234375,-0.04107666015625
1686343533095018800,1.720018798828125,-0.0987091064453125,-0.99615478515625,-0.042572021484375
1686343533105037800,1.730037841796875,-0.0953521728515625,-0.9937744140625,-0.043304443359375
1686343533115058000,1.740057861328125,-0.0893096923828125,-0.9896697998046875,-0.040679931640625
1686343533125078000,1.750078125,-0.082794189453125,-0.9876556396484375,-0.0333709716796875
1686343533135097000,1.76009716796875,-0.071563720703125,-0.99462890625,-0.0406646728515625
1686343533145117000,1.770116943359375,-0.0692291259765625,-1.0007171630859375,-0.0319976806640625
1686343533155137000,1.780136962890625,-0.07275390625,-1.0048980712890625,-0.01190185546875
1686343533165155800,1.79015576171875,-0.0652313232421875,-0.9945831298828125,-0.037445068359375
1686343533175176000,1.800176025390625,-0.06512451171875,-0.994903564453125,-0.0327606201171875
1686343533185196000,1.810196044921875,-0.073577880859375,-0.9931640625,-0.0320587158203125
1686343533195215000,1.820215087890625,-0.09100341796875,-0.9954833984375,-0.02276611328125
1686343533205235000,1.83023486328125,-0.1025238037109375,-1.002166748046875,-0.0225677490234375
1686343533215255000,1.840255126953125,-0.1065826416015625,-0.997589111328125,-0.034820556640625
1686343533225273900,1.85027392578125,-0.11041259765625,-0.9969024658203125,-0.0489654541015625
1686343533235294000,1.8602939453125,-0.11474609375,-0.9979248046875,-0.0566864013671875
1686343533245313800,1.870313720703125,-0.1061248779296875,-0.9979095458984375,-0.0457763671875
1686343533255332900,1.880332763671875,-0.078887939453125,-1.006561279296875,-0.025970458984375
1686343533265353000,1.89035302734375,-0.066864013671875,-1.0004425048828125,-0.0088348388671875
1686343533275373000,1.900373046875,-0.0653228759765625,-1.000152587890625,-0.0238800048828125
1686343533285392100,1.91039208984375,-0.0709228515625,-1.004547119140625,-0.03375244140625
1686343533295412000,1.920411865234375,-0.0835113525390625,-1.006500244140625,-0.014739990234375
1686343533305431800,1.930431884765625,-0.10455322265625,-1.00714111328125,-0.0069732666015625
1686343533315451000,1.940450927734375,-0.1189422607421875,-1.0079193115234375,-0.0194244384765625
1686343533325471000,1.950470947265625,-0.1092529296875,-1.0057830810546875,-0.0399627685546875
1686343533335490800,1.96049072265625,-0.0892333984375,-1.0036773681640625,-0.0354461669921875
1686343533345510000,1.970510009765625,-0.07122802734375,-1.0053558349609375,-0.0208892822265625
1686343533355530000,1.980530029296875,-0.0666046142578125,-0.9986419677734375,-0.017822265625
1686343533365550000,1.990550048828125,-0.0862274169921875,-0.9947357177734375,-0.027374267578125
1686343533375569000,2.00056884765625,-0.091064453125,-0.9901885986328125,-0.0557098388671875
1686343533385589000,2.010589111328125,-0.0700225830078125,-0.9874725341796875,-0.0529022216796875
1686343533395608800,2.02060888671875,-0.047149658203125,-0.991180419921875,-0.027557373046875
1686343533405628000,2.0306279296875,-0.0401153564453125,-0.9934844970703125,-0.0149688720703125
1686343533415648000,2.04064794921875,-0.0471343994140625,-0.997161865234375,-0.012176513671875
1686343533425668000,2.050668212890625,-0.0560455322265625,-0.9977874755859375,-0.0242919921875
1686343533435687200,2.060687255859375,-0.0654754638671875,-0.9984130859375,-0.0325164794921875
1686343533445706800,2.070706787109375,-0.0749969482421875,-0.9998779296875,-0.03125
1686343533455726800,2.080726806640625,-0.07672119140625,-0.998504638671875,-0.0266876220703125
1686343533465746000,2.090745849609375,-0.07513427734375,-0.996337890625,-0.02960205078125
1686343533475766000,2.10076611328125,-0.0671539306640625,-0.99285888671875,-0.0362701416015625
1686343533485785900,2.110785888671875,-0.0640716552734375,-0.992034912109375,-0.044281005859375
1686343533495805000,2.120804931640625,-0.0690155029296875,-0.9969329833984375,-0.049560546875
1686343533505825000,2.130824951171875,-0.073089599609375,-0.9946746826171875,-0.0495147705078125
1686343533515845000,2.14084521484375,-0.0774688720703125,-0.9994964599609375,-0.0262908935546875
1686343533525864000,2.150864013671875,-0.0819091796875,-1.00848388671875,0.0091552734375
1686343533535883800,2.1608837890625,-0.073211669921875,-0.9920654296875,-0.0227203369140625
1686343533545903900,2.17090380859375,-0.0608673095703125,-0.998992919921875,-0.034393310546875
1686343533555922700,2.180922607421875,-0.068084716796875,-0.9997100830078125,-0.0213165283203125
1686343533565942800,2.19094287109375,-0.0793304443359375,-0.992156982421875,-0.028472900390625
1686343533575963000,2.200962890625,-0.0999603271484375,-0.99212646484375,-0.0428924560546875
1686343533585981700,2.210981689453125,-0.1039276123046875,-0.99432373046875,-0.0557861328125
1686343533596001500,2.22100146484375,-0.1010894775390625,-0.9947052001953125,-0.0449371337890625
1686343533606021600,2.231021728515625,-0.1053619384765625,-0.995086669921875,-0.0371246337890625
1686343533616040700,2.241040771484375,-0.1034088134765625,-0.9974822998046875,-0.0403900146484375
1686343533626060800,2.251060791015625,-0.0992431640625,-1.00146484375,-0.0390167236328125
1686343533636080600,2.26108056640625,-0.099273681640625,-1.003753662109375,-0.036773681640625
1686343533646099700,2.271099609375,-0.0996856689453125,-1.003875732421875,-0.0331268310546875
1686343533656119800,2.281119873046875,-0.1004180908203125,-1.0035400390625,-0.0347137451171875
1686343533666139600,2.2911396484375,-0.1044921875,-1.0021209716796875,-0.0387115478515625
1686343533676158700,2.30115869140625,-0.1054229736328125,-0.9992828369140625,-0.0389556884765625
1686343533686178600,2.311178466796875,-0.106201171875,-0.99609375,-0.0375518798828125
1686343533696198700,2.32119873046875,-0.1025390625,-0.9954833984375,-0.03900146484375
1686343533706217700,2.3312177734375,-0.0919647216796875,-0.9953765869140625,-0.0359344482421875
1686343533716237800,2.34123779296875,-0.08392333984375,-0.993438720703125,-0.0283660888671875
1686343533726258000,2.3512578125,-0.0788726806640625,-0.995361328125,-0.0270233154296875
1686343533736276700,2.36127685546875,-0.0776519775390625,-0.9956512451171875,-0.0323638916015625
1686343533746296600,2.371296630859375,-0.079254150390625,-0.9958343505859375,-0.036865234375
1686343533756316700,2.381316650390625,-0.08343505859375,-0.9932708740234375,-0.037628173828125
1686343533766335700,2.391335693359375,-0.0951690673828125,-0.993438720703125,-0.04132080078125
1686343533776355800,2.40135595703125,-0.10491943359375,-0.9950714111328125,-0.0457763671875
1686343533786375700,2.411375732421875,-0.11724853515625,-0.99542236328125,-0.0470733642578125
1686343533796394800,2.421394775390625,-0.11871337890625,-0.99481201171875,-0.0472412109375
1686343533806414600,2.43141455078125,-0.11474609375,-0.994873046875,-0.040802001953125
1686343533816434700,2.4414345703125,-0.1127777099609375,-0.9965362548828125,-0.04217529296875
1686343533826453800,2.451453857421875,-0.1175079345703125,-0.9972381591796875,-0.047332763671875
1686343533836473600,2.4614736328125,-0.115478515625,-1.001556396484375,-0.0496368408203125
1686343533846493700,2.47149365234375,-0.1037750244140625,-1.0032958984375,-0.0308380126953125
1686343533856512800,2.4815126953125,-0.09893798828125,-1.0062713623046875,-0.0189361572265625
1686343533866532900,2.491532958984375,-0.09185791015625,-1.0052947998046875,-0.027069091796875
1686343533876552700,2.501552734375,-0.0849456787109375,-1.005157470703125,-0.0281219482421875
1686343533886571500,2.511571533203125,-0.0786895751953125,-1.0037841796875,-0.024627685546875
1686343533896591600,2.521591552734375,-0.076171875,-0.9987030029296875,-0.020843505859375
1686343533906611700,2.53161181640625,-0.08428955078125,-0.9942779541015625,-0.0279083251953125
1686343533916630800,2.541630859375,-0.090179443359375,-0.9915924072265625,-0.0390625
1686343533926651000,2.55165087890625,-0.0796356201171875,-0.991424560546875,-0.0360870361328125
1686343533936670700,2.561670654296875,-0.0635528564453125,-0.9911651611328125,-0.026092529296875
1686343533946689500,2.571689453125,-0.0576019287109375,-0.99212646484375,-0.020263671875
1686343533956709600,2.581709716796875,-0.0614471435546875,-0.99395751953125,-0.02655029296875
1686343533966729700,2.591729736328125,-0.07684326171875,-0.993743896484375,-0.0428466796875
1686343533976748800,2.601748779296875,-0.0936431884765625,-0.9924163818359375,-0.0555572509765625
1686343533986768600,2.6117685546875,-0.0943450927734375,-0.992950439453125,-0.050140380859375
1686343533996787700,2.62178759765625,-0.0891265869140625,-0.995819091796875,-0.0371246337890625
1686343534006807800,2.631807861328125,-0.0902862548828125,-0.9974212646484375,-0.0337066650390625
1686343534016828000,2.641827880859375,-0.093658447265625,-1.0001220703125,-0.034698486328125
1686343534026846700,2.6518466796875,-0.0987091064453125,-1.0009002685546875,-0.036529541015625
1686343534036866600,2.661866455078125,-0.099365234375,-1.002288818359375,-0.033538818359375
1686343534046886700,2.67188671875,-0.10284423828125,-1.001251220703125,-0.0349578857421875
1686343534056905700,2.68190576171875,-0.1114349365234375,-0.9980316162109375,-0.036468505859375
1686343534066925800,2.69192578125,-0.11700439453125,-0.995880126953125,-0.0415802001953125
1686343534076945700,2.701945556640625,-0.1172332763671875,-0.9955902099609375,-0.045654296875
1686343534086964500,2.711964599609375,-0.1121978759765625,-0.9947967529296875,-0.048126220703125
1686343534096984600,2.721984619140625,-0.1040191650390625,-0.9953460693359375,-0.0442352294921875
1686343534107004700,2.732004638671875,-0.0953826904296875,-0.9970550537109375,-0.0358734130859375
1686343534117023700,2.742023681640625,-0.0887298583984375,-0.998046875,-0.0292205810546875
1686343534127043800,2.7520439453125,-0.081451416015625,-0.99908447265625,-0.0231475830078125
1686343534137063700,2.762063720703125,-0.0748443603515625,-0.99774169921875,-0.022125244140625
1686343534147082800,2.772082763671875,-0.064239501953125,-0.993804931640625,-0.0171356201171875
1686343534157102800,2.782102783203125,-0.05145263671875,-0.9897613525390625,-0.0070037841796875
1686343534167122700,2.792122802734375,-0.0416259765625,-0.9870147705078125,-0.0047149658203125
1686343534177141800,2.802141845703125,-0.037139892578125,-0.98211669921875,-0.00103759765625
1686343534187161600,2.81216162109375,-0.0420989990234375,-0.9796600341796875,-0.0166473388671875
1686343534197181700,2.822181640625,-0.0524139404296875,-0.9821319580078125,-0.03387451171875
1686343534207200800,2.83220068359375,-0.076873779296875,-0.9809417724609375,-0.040435791015625
1686343534217220900,2.842220947265625,-0.0994873046875,-0.982818603515625,-0.0481414794921875
1686343534227240700,2.85224072265625,-0.1209259033203125,-0.99078369140625,-0.058258056640625
1686343534237259500,2.862259521484375,-0.1473541259765625,-0.9997406005859375,-0.0819091796875
1686343534247279600,2.872279541015625,-0.17279052734375,-1.0067901611328125,-0.10516357421875
1686343534257298700,2.882298583984375,-0.1887969970703125,-1.0096588134765625,-0.1020965576171875
1686343534267318800,2.89231884765625,-0.1880340576171875,-1.007171630859375,-0.088836669921875
1686343534277338600,2.902338623046875,-0.173309326171875,-1.0046539306640625,-0.0693817138671875
1686343534287357700,2.912357666015625,-0.152984619140625,-1.002197265625,-0.059295654296875
1686343534297377800,2.922377685546875,-0.1368865966796875,-1.0014495849609375,-0.0608978271484375
1686343534307397600,2.932397705078125,-0.130767822265625,-0.9968719482421875,-0.0538330078125
1686343534317416700,2.942416748046875,-0.1299285888671875,-0.9933929443359375,-0.050811767578125
1686343534327436800,2.952436767578125,-0.1326141357421875,-0.9946746826171875,-0.0591583251953125
1686343534337456600,2.96245654296875,-0.142333984375,-0.9932708740234375,-0.0586700439453125
1686343534347475700,2.972475830078125,-0.1452484130859375,-0.9925994873046875,-0.0577392578125
1686343534357495800,2.982495849609375,-0.14422607421875,-0.9933929443359375,-0.0588836669921875
1686343534367516000,2.992515869140625,-0.143035888671875,-0.994598388671875,-0.0628509521484375
1686343534377534700,3.00253466796875,-0.13775634765625,-0.9939727783203125,-0.065155029296875
1686343534387554600,3.012554443359375,-0.1340789794921875,-0.9925079345703125,-0.06463623046875
1686343534397573600,3.02257373046875,-0.131317138671875,-0.9914093017578125,-0.0623779296875
1686343534407593700,3.03259375,-0.117828369140625,-0.9921112060546875,-0.0655670166015625
1686343534417613800,3.04261376953125,-0.1103363037109375,-0.9882659912109375,-0.0622711181640625
1686343534427633000,3.0526328125,-0.118011474609375,-0.9898529052734375,-0.059722900390625
1686343534437652700,3.06265283203125,-0.1248321533203125,-0.9945831298828125,-0.0567169189453125
1686343534447672600,3.072672607421875,-0.1185302734375,-0.996063232421875,-0.0567474365234375
1686343534457691600,3.082691650390625,-0.111297607421875,-0.995880126953125,-0.0545806884765625
1686343534467711700,3.092711669921875,-0.1103973388671875,-0.9953155517578125,-0.048583984375
1686343534477731600,3.102731689453125,-0.108123779296875,-0.995880126953125,-0.04730224609375
1686343534487750700,3.112750732421875,-0.111175537109375,-0.9948883056640625,-0.04718017578125
1686343534497770800,3.122770751953125,-0.12078857421875,-0.994537353515625,-0.04254150390625
1686343534507790800,3.132790771484375,-0.1182403564453125,-0.99285888671875,-0.045318603515625
1686343534517809700,3.1428095703125,-0.1057281494140625,-0.9952850341796875,-0.0537567138671875
1686343534527829800,3.152829833984375,-0.10040283203125,-0.9949798583984375,-0.0543212890625
1686343534537848800,3.162848876953125,-0.1055908203125,-0.9915618896484375,-0.0530548095703125
1686343534547868700,3.17286865234375,-0.11627197265625,-0.9935302734375,-0.0579376220703125
1686343534557888500,3.182888427734375,-0.126220703125,-0.9944915771484375,-0.06097412109375
1686343534567907600,3.192907470703125,-0.1290435791015625,-0.9940185546875,-0.0566558837890625
1686343534577927400,3.202927490234375,-0.12664794921875,-0.9954071044921875,-0.0511627197265625
1686343534587947300,3.212947265625,-0.1208648681640625,-0.9951629638671875,-0.049591064453125
1686343534597966300,3.22296630859375,-0.115509033203125,-0.995452880859375,-0.0487823486328125
1686343534607986400,3.232986328125,-0.111968994140625,-0.9976043701171875,-0.0493621826171875
1686343534618005500,3.243005615234375,-0.1129608154296875,-0.9950714111328125,-0.04840087890625
1686343534628025600,3.253025634765625,-0.11883544921875,-0.9917755126953125,-0.0516510009765625
1686343534638045400,3.26304541015625,-0.125946044921875,-0.9894866943359375,-0.0602264404296875
1686343534648064300,3.273064208984375,-0.129119873046875,-0.9873809814453125,-0.061981201171875
1686343534658084400,3.28308447265625,-0.1215667724609375,-0.9867706298828125,-0.0585479736328125
1686343534668104400,3.2931044921875,-0.1136474609375,-0.9903411865234375,-0.056732177734375
1686343534678123500,3.30312353515625,-0.1118316650390625,-0.993560791015625,-0.0549468994140625
1686343534688143600,3.3131435546875,-0.1169281005859375,-0.9948883056640625,-0.0549163818359375
1686343534698163500,3.32316357421875,-0.122650146484375,-0.9969482421875,-0.0550537109375
1686343534708182500,3.3331826171875,-0.126800537109375,-0.99749755859375,-0.0577545166015625
1686343534718202400,3.343202392578125,-0.1310882568359375,-0.997161865234375,-0.05499267578125
1686343534728221400,3.353221435546875,-0.1322479248046875,-0.9964752197265625,-0.0534515380859375
1686343534738241500,3.363241455078125,-0.129669189453125,-0.994873046875,-0.05535888671875
1686343534748261400,3.373261474609375,-0.125457763671875,-0.9938812255859375,-0.0548553466796875
1686343534758280400,3.383280517578125,-0.121337890625,-0.9951934814453125,-0.0534820556640625
1686343534768300500,3.393300537109375,-0.1170501708984375,-0.9960784912109375,-0.0545654296875
1686343534778320600,3.403320556640625,-0.113983154296875,-0.9959564208984375,-0.0538787841796875
1686343534788339500,3.41333935546875,-0.11297607421875,-0.9928741455078125,-0.0535736083984375
1686343534798359300,3.423359375,-0.1125640869140625,-0.9907989501953125,-0.052490234375
1686343534808378400,3.43337841796875,-0.1160736083984375,-0.9918365478515625,-0.0531768798828125
1686343534818398500,3.4433984375,-0.1149139404296875,-0.990570068359375,-0.0560150146484375
1686343534828418600,3.45341845703125,-0.1142578125,-0.98944091796875,-0.055877685546875
1686343534838437600,3.463437744140625,-0.1189727783203125,-0.9908447265625,-0.052978515625
1686343534848457500,3.47345751953125,-0.1114654541015625,-0.9942626953125,-0.053253173828125
1686343534858476300,3.483476318359375,-0.101806640625,-0.995330810546875,-0.051361083984375
1686343534868496400,3.493496337890625,-0.1055908203125,-0.9944610595703125,-0.048065185546875
1686343534878516500,3.5035166015625,-0.110931396484375,-0.99371337890625,-0.05224609375
1686343534888535600,3.51353564453125,-0.1143798828125,-0.994354248046875,-0.0560302734375
1686343534898555400,3.523555419921875,-0.120361328125,-0.9935760498046875,-0.0548858642578125
1686343534908575500,3.533575439453125,-0.1235198974609375,-0.9944610595703125,-0.05712890625
1686343534918594300,3.54359423828125,-0.1237945556640625,-0.995880126953125,-0.0567779541015625
1686343534928614400,3.553614501953125,-0.1297149658203125,-0.9938812255859375,-0.05303955078125
1686343534938633500,3.563633544921875,-0.1366729736328125,-0.99334716796875,-0.050689697265625
1686343534948653600,3.573653564453125,-0.1395416259765625,-0.993621826171875,-0.05377197265625
1686343534958673400,3.58367333984375,-0.1365966796875,-0.9951629638671875,-0.0568695068359375
1686343534968692500,3.5936923828125,-0.1272125244140625,-0.99468994140625,-0.05755615234375
1686343534978712600,3.603712646484375,-0.1176300048828125,-0.992919921875,-0.05718994140625
1686343534988731400,3.6137314453125,-0.111480712890625,-0.9932403564453125,-0.057861328125
1686343534998751500,3.62375146484375,-0.1096343994140625,-0.9950714111328125,-0.0571746826171875
1686343535008771300,3.633771240234375,-0.1138153076171875,-0.9937591552734375,-0.0577545166015625
1686343535018790400,3.643790283203125,-0.1175384521484375,-0.9925079345703125,-0.057037353515625
1686343535028810500,3.653810546875,-0.123077392578125,-0.991455078125,-0.056549072265625
1686343535038829600,3.66382958984375,-0.1268463134765625,-0.9922637939453125,-0.052520751953125
1686343535048849400,3.673849365234375,-0.1268463134765625,-0.9919281005859375,-0.0509033203125
1686343535058869200,3.683869140625,-0.1221923828125,-0.99273681640625,-0.052337646484375
1686343535068888300,3.693888427734375,-0.1221160888671875,-0.9937286376953125,-0.0520782470703125
1686343535078908400,3.703908447265625,-0.119903564453125,-0.9936370849609375,-0.0515899658203125
1686343535088928500,3.713928466796875,-0.114959716796875,-0.9949188232421875,-0.049285888671875
1686343535098947600,3.723947509765625,-0.1115264892578125,-0.9955291748046875,-0.0517120361328125
1686343535108967400,3.733967529296875,-0.1092529296875,-0.996337890625,-0.0560760498046875
1686343535118986500,3.743986572265625,-0.1122283935546875,-0.9954376220703125,-0.0588531494140625
1686343535129006300,3.75400634765625,-0.1153411865234375,-0.9943084716796875,-0.059112548828125
1686343535139026400,3.7640263671875,-0.1158447265625,-0.995086669921875,-0.0561676025390625
1686343535149045500,3.77404541015625,-0.117431640625,-0.9930572509765625,-0.0518035888671875
1686343535159065600,3.784065673828125,-0.12078857421875,-0.9924163818359375,-0.0495758056640625
1686343535169084700,3.794084716796875,-0.1237335205078125,-0.9940643310546875,-0.0485076904296875
1686343535179104500,3.8041044921875,-0.1246795654296875,-0.9943084716796875,-0.048797607421875
1686343535189124400,3.814124267578125,-0.1253204345703125,-0.993988037109375,-0.050048828125
1686343535199143400,3.824143310546875,-0.124908447265625,-0.994659423828125,-0.0536651611328125
1686343535209163500,3.83416357421875,-0.118072509765625,-0.9974517822265625,-0.05810546875
1686343535219182600,3.8441826171875,-0.111541748046875,-0.9951019287109375,-0.05712890625
1686343535229202400,3.854202392578125,-0.10748291015625,-0.9902191162109375,-0.0488128662109375
1686343535239222500,3.864222412109375,-0.1036834716796875,-0.98883056640625,-0.0448760986328125
1686343535249241300,3.874241455078125,-0.101318359375,-0.9923095703125,-0.044097900390625
1686343535259261400,3.884261474609375,-0.096954345703125,-0.9937591552734375,-0.0431671142578125
1686343535269280500,3.894280517578125,-0.0954437255859375,-0.994903564453125,-0.0437774658203125
1686343535279300400,3.90430029296875,-0.100433349609375,-0.9961090087890625,-0.0457763671875
1686343535289320400,3.914320556640625,-0.1066741943359375,-0.996002197265625,-0.0500946044921875
1686343535299339500,3.924339599609375,-0.1106719970703125,-0.99945068359375,-0.0511932373046875
1686343535309359600,3.934359619140625,-0.115203857421875,-1.0014495849609375,-0.050994873046875
1686343535319378400,3.94437841796875,-0.1186065673828125,-0.999603271484375,-0.0484619140625
1686343535329398300,3.954398193359375,-0.1198272705078125,-0.9983978271484375,-0.043731689453125
1686343535339418400,3.96441845703125,-0.1175994873046875,-0.9973297119140625,-0.0458221435546875
1686343535349437400,3.9744375,-0.116973876953125,-0.99627685546875,-0.04681396484375
1686343535359457500,3.98445751953125,-0.1141510009765625,-0.994415283203125,-0.0488433837890625
1686343535369476600,3.9944765625,-0.1074981689453125,-0.994964599609375,-0.045654296875
1686343535379496400,4.004496337890625,-0.0988922119140625,-0.9940948486328125,-0.041259765625
1686343535389515500,4.014515625,-0.0973968505859375,-0.99285888671875,-0.039764404296875
1686343535399535400,4.024535400390625,-0.1009521484375,-0.9948272705078125,-0.0428924560546875
1686343535409555500,4.034555419921875,-0.104095458984375,-0.995513916015625,-0.0456085205078125
1686343535419574500,4.044574462890625,-0.1024932861328125,-0.9942779541015625,-0.0456695556640625
1686343535429594600,4.0545947265625,-0.099639892578125,-0.9950103759765625,-0.04364013671875
1686343535439613400,4.064613525390625,-0.093017578125,-0.9955902099609375,-0.0431060791015625
1686343535449633300,4.07463330078125,-0.089324951171875,-0.9947357177734375,-0.0417022705078125
1686343535459653400,4.0846533203125,-0.091156005859375,-0.9950103759765625,-0.0434722900390625
1686343535469672400,4.09467236328125,-0.093719482421875,-0.9944000244140625,-0.0441436767578125
1686343535479692500,4.104692626953125,-0.1003570556640625,-0.9937896728515625,-0.04168701171875
1686343535489711600,4.114711669921875,-0.1070556640625,-0.991943359375,-0.0432281494140625
1686343535499731500,4.1247314453125,-0.110687255859375,-0.992645263671875,-0.0442657470703125
1686343535509751600,4.13475146484375,-0.111602783203125,-0.99371337890625,-0.043487548828125
1686343535519770400,4.144770263671875,-0.1155548095703125,-0.9948883056640625,-0.043670654296875
1686343535529790500,4.15479052734375,-0.126800537109375,-0.99468994140625,-0.046783447265625
1686343535539809500,4.1648095703125,-0.1435546875,-0.994659423828125,-0.054534912109375
1686343535549830000,4.174829833984375,-0.15673828125,-0.9974822998046875,-0.0655975341796875
1686343535559850000,4.18485009765625,-0.1630401611328125,-0.993133544921875,-0.0716094970703125
1686343535569869000,4.194869140625,-0.1523590087890625,-0.98724365234375,-0.07379150390625
1686343535579889200,4.20488916015625,-0.14654541015625,-0.999908447265625,-0.0596160888671875
1686343535589908000,4.214907958984375,-0.139801025390625,-1.0053558349609375,-0.0533599853515625
1686343535599927800,4.224927734375,-0.1282806396484375,-1.0014190673828125,-0.051361083984375
1686343535609948000,4.234947998046875,-0.1006011962890625,-1.0033416748046875,-0.04241943359375
1686343535619967000,4.244967041015625,-0.062835693359375,-1.0089111328125,-0.0190582275390625
1686343535629987000,4.254987060546875,-0.0455322265625,-1.0080718994140625,0.0029296875
1686343535640006100,4.265006103515625,-0.04266357421875,-1.0075225830078125,-0.0041351318359375
1686343535650025700,4.275025634765625,-0.0519561767578125,-1.005340576171875,-0.0306549072265625
1686343535660044800,4.285044921875,-0.0746612548828125,-0.9985504150390625,-0.053375244140625
1686343535670065000,4.29506494140625,-0.0887908935546875,-0.9949493408203125,-0.0588531494140625
1686343535680085000,4.3050849609375,-0.095123291015625,-0.9912261962890625,-0.063446044921875
1686343535690104000,4.31510400390625,-0.085693359375,-0.9835052490234375,-0.049652099609375
1686343535700124000,4.3251240234375,-0.066802978515625,-0.98260498046875,-0.04254150390625
1686343535710143000,4.33514306640625,-0.0555572509765625,-0.9922943115234375,-0.0165863037109375
1686343535720162800,4.345162841796875,-0.0579986572265625,-0.9937286376953125,-0.0208740234375
1686343535730183000,4.355182861328125,-0.046112060546875,-0.9897003173828125,-0.040771484375
1686343535740202000,4.365201904296875,-0.0511932373046875,-0.990020751953125,-0.023345947265625
1686343535750222000,4.37522216796875,-0.059112548828125,-0.9858856201171875,-0.0251312255859375
1686343535760241200,4.3852412109375,-0.0758056640625,-0.987335205078125,-0.0229949951171875
1686343535770261000,4.395260986328125,-0.0887451171875,-0.9965362548828125,-0.027496337890625
1686343535780279800,4.40527978515625,-0.1011505126953125,-1.0022735595703125,-0.044342041015625
1686343535790300000,4.4152998046875,-0.1038970947265625,-1.0049285888671875,-0.0662994384765625
1686343535800320000,4.425320068359375,-0.1116180419921875,-1.005828857421875,-0.0605926513671875
1686343535810339000,4.435339111328125,-0.12255859375,-1.006256103515625,-0.0346832275390625
1686343535820359000,4.44535888671875,-0.1282501220703125,-1.0040740966796875,-0.0214385986328125
1686343535830378000,4.4553779296875,-0.1299591064453125,-1.0034942626953125,-0.0204010009765625
1686343535840398000,4.465398193359375,-0.1207733154296875,-1.0023651123046875,-0.0265045166015625
1686343535850418000,4.47541796875,-0.1068267822265625,-1.0004425048828125,-0.02587890625
1686343535860437000,4.48543701171875,-0.0962982177734375,-1.000457763671875,-0.0180511474609375
1686343535870456800,4.495456787109375,-0.0847320556640625,-0.9971466064453125,-0.0196685791015625
1686343535880476000,4.505475830078125,-0.0806732177734375,-0.9938507080078125,-0.02740478515625
1686343535890496000,4.51549609375,-0.08148193359375,-0.998260498046875,-0.0339813232421875
1686343535900514800,4.525514892578125,-0.0799560546875,-0.9991912841796875,-0.0348663330078125
1686343535910535000,4.535534912109375,-0.0789337158203125,-0.9985504150390625,-0.0364227294921875
1686343535920554800,4.5455546875,-0.0758514404296875,-0.9979095458984375,-0.0339202880859375
1686343535930573800,4.55557373046875,-0.0762786865234375,-0.997406005859375,-0.0294036865234375
1686343535940594000,4.565593994140625,-0.07586669921875,-0.996002197265625,-0.0255889892578125
1686343535950613000,4.575613037109375,-0.076263427734375,-0.997283935546875,-0.0252227783203125
1686343535960633000,4.585633056640625,-0.0733184814453125,-0.9961090087890625,-0.025360107421875
1686343535970653200,4.595653076171875,-0.0789947509765625,-0.9957427978515625,-0.028961181640625
1686343535980672000,4.605672119140625,-0.087890625,-0.9950408935546875,-0.036956787109375
1686343535990691800,4.61569189453125,-0.087860107421875,-0.99554443359375,-0.033966064453125
1686343536000711000,4.6257109375,-0.0771026611328125,-0.99725341796875,-0.0224456787109375
1686343536010731000,4.63573095703125,-0.0719757080078125,-0.998016357421875,-0.0202178955078125
1686343536020751000,4.645751220703125,-0.073760986328125,-1.000640869140625,-0.024566650390625
1686343536030770200,4.655770263671875,-0.0683746337890625,-1.0042266845703125,-0.0269317626953125
1686343536040789800,4.665789794921875,-0.0658721923828125,-1.003875732421875,-0.0303192138671875
1686343536050808800,4.675808837890625,-0.0789947509765625,-1.002899169921875,-0.0246124267578125
1686343536060829000,4.685828857421875,-0.0819549560546875,-1.001861572265625,-0.0250244140625
1686343536070848000,4.695847900390625,-0.0792694091796875,-1.00091552734375,-0.017059326171875
1686343536080868000,4.7058681640625,-0.0753631591796875,-0.9999847412109375,-0.010223388671875
1686343536090888000,4.715887939453125,-0.0821380615234375,-0.999603271484375,-0.0141754150390625
1686343536100906800,4.72590673828125,-0.0902099609375,-0.998321533203125,-0.026031494140625
1686343536110926800,4.7359267578125,-0.08477783203125,-0.9965972900390625,-0.035064697265625
1686343536120946000,4.74594580078125,-0.0762481689453125,-0.997467041015625,-0.030670166015625
1686343536130966000,4.755966064453125,-0.0647735595703125,-0.995635986328125,-0.0253753662109375
1686343536140985900,4.76598583984375,-0.0635986328125,-0.9931488037109375,-0.02655029296875
1686343536151005000,4.7760048828125,-0.0663299560546875,-0.9926605224609375,-0.0350799560546875
1686343536161025000,4.78602490234375,-0.0738372802734375,-0.9941253662109375,-0.0382232666015625
1686343536171043800,4.7960439453125,-0.076324462890625,-0.9951934814453125,-0.0398712158203125
1686343536181064000,4.80606396484375,-0.0688629150390625,-0.99658203125,-0.0329437255859375
1686343536191084000,4.816083984375,-0.0669403076171875,-1.0003662109375,-0.024017333984375
1686343536201102800,4.826102783203125,-0.0724945068359375,-1.0014801025390625,-0.018829345703125
1686343536211123000,4.836123046875,-0.0784759521484375,-1.002288818359375,-0.0219879150390625
1686343536221142000,4.84614208984375,-0.0812225341796875,-1.0012359619140625,-0.028228759765625
1686343536231162000,4.856162109375,-0.0893402099609375,-1.000457763671875,-0.0343780517578125
1686343536241181000,4.866180908203125,-0.1031036376953125,-0.998199462890625,-0.045867919921875
1686343536251201000,4.876200927734375,-0.0950927734375,-0.9991455078125,-0.0496063232421875
1686343536261220900,4.886220947265625,-0.080657958984375,-0.9997100830078125,-0.0361480712890625
1686343536271240000,4.896239990234375,-0.07684326171875,-1.0011138916015625,-0.0233154296875
1686343536281260000,4.906260009765625,-0.08026123046875,-1.000640869140625,-0.0227203369140625
1686343536291278800,4.91627880859375,-0.085174560546875,-0.9990386962890625,-0.0249176025390625
1686343536301299000,4.926298828125,-0.0849761962890625,-0.999847412109375,-0.02496337890625
1686343536311318800,4.93631884765625,-0.0828399658203125,-0.99853515625,-0.0273895263671875
1686343536321337900,4.946337890625,-0.0829010009765625,-0.9935455322265625,-0.028472900390625
1686343536331358000,4.95635791015625,-0.084869384765625,-0.9900054931640625,-0.029510498046875
1686343536341377000,4.966376953125,-0.078521728515625,-0.9905242919921875,-0.0361175537109375
1686343536351397000,4.976397216796875,-0.06787109375,-0.9899139404296875,-0.038818359375
1686343536361417000,4.9864169921875,-0.057464599609375,-0.992401123046875,-0.0315704345703125
1686343536371435800,4.996435791015625,-0.055572509765625,-0.9955596923828125,-0.0218353271484375
1686343536381456000,5.006455810546875,-0.0655364990234375,-0.997314453125,-0.0216827392578125
1686343536391475000,5.016474853515625,-0.0817108154296875,-1.0001373291015625,-0.0301361083984375
1686343536401495000,5.0264951171875,-0.09356689453125,-1.0032196044921875,-0.0371551513671875
1686343536411514000,5.03651416015625,-0.100677490234375,-1.0038909912109375,-0.036651611328125
1686343536421534000,5.046533935546875,-0.103057861328125,-1.002227783203125,-0.039459228515625
1686343536431553800,5.0565537109375,-0.10223388671875,-1.00323486328125,-0.04180908203125
1686343536441572900,5.06657275390625,-0.10101318359375,-1.003143310546875,-0.0393218994140625
1686343536451593000,5.076593017578125,-0.0972900390625,-1.00146484375,-0.0364837646484375
1686343536461612000,5.086612060546875,-0.0922698974609375,-1.0012054443359375,-0.0311279296875
1686343536471632100,5.096632080078125,-0.0909881591796875,-1.0018463134765625,-0.0305633544921875
1686343536481652000,5.10665185546875,-0.089599609375,-0.999969482421875,-0.0294342041015625
1686343536491670800,5.1166708984375,-0.0860748291015625,-0.999053955078125,-0.028564453125
1686343536501691000,5.12669091796875,-0.0804443359375,-0.996002197265625,-0.029693603515625
1686343536511710000,5.1367099609375,-0.0761871337890625,-0.994140625,-0.0308074951171875
1686343536521730000,5.14672998046875,-0.076568603515625,-0.992828369140625,-0.034912109375
1686343536531750000,5.15675,-0.0792236328125,-0.9934539794921875,-0.041839599609375
1686343536541769000,5.16676904296875,-0.0758056640625,-0.9940948486328125,-0.039093017578125
1686343536551788500,5.17678857421875,-0.0760498046875,-0.9929962158203125,-0.034759521484375
1686343536561807400,5.186807373046875,-0.0765838623046875,-0.994598388671875,-0.03277587890625
1686343536571827500,5.196827392578125,-0.0757598876953125,-0.996734619140625,-0.0327301025390625
1686343536581846500,5.206846435546875,-0.0741729736328125,-0.997528076171875,-0.0316925048828125
1686343536591866400,5.216866455078125,-0.0754241943359375,-0.99871826171875,-0.0318756103515625
1686343536601886500,5.226886474609375,-0.081878662109375,-0.999053955078125,-0.0341644287109375
1686343536611905500,5.236905517578125,-0.0868988037109375,-0.9997100830078125,-0.0359954833984375
1686343536621925600,5.246925537109375,-0.0875244140625,-0.999237060546875,-0.0318603515625
1686343536631944400,5.2569443359375,-0.0900421142578125,-0.9970855712890625,-0.0273590087890625
1686343536641964500,5.266964599609375,-0.09173583984375,-0.9975433349609375,-0.02862548828125
1686343536651984400,5.276984375,-0.094940185546875,-0.9984893798828125,-0.03594970703125
1686343536662003500,5.28700341796875,-0.1003570556640625,-0.999237060546875,-0.041290283203125
1686343536672023600,5.2970234375,-0.10107421875,-0.999053955078125,-0.0350341796875
1686343536682042600,5.307042724609375,-0.0948638916015625,-0.9995574951171875,-0.0281219482421875
1686343536692062700,5.317062744140625,-0.083892822265625,-1.00042724609375,-0.028411865234375
1686343536702082300,5.327082275390625,-0.0738525390625,-1.0020904541015625,-0.0317535400390625
1686343536712101400,5.337101318359375,-0.0679473876953125,-1.001983642578125,-0.03271484375
1686343536722121500,5.34712158203125,-0.0679779052734375,-0.999267578125,-0.031646728515625
1686343536732140500,5.357140625,-0.069061279296875,-0.9965362548828125,-0.030181884765625
1686343536742160600,5.36716064453125,-0.0724945068359375,-0.9958343505859375,-0.0347900390625
1686343536752180500,5.377180419921875,-0.0819091796875,-0.99639892578125,-0.04266357421875
1686343536762199300,5.38719921875,-0.0879364013671875,-0.9959716796875,-0.0420684814453125
1686343536772219400,5.397219482421875,-0.08697509765625,-0.9954833984375,-0.03814697265625
1686343536782238500,5.407238525390625,-0.08428955078125,-0.9978790283203125,-0.035064697265625
1686343536792258600,5.417258544921875,-0.0779876708984375,-0.9981536865234375,-0.0331878662109375
1686343536802278400,5.4272783203125,-0.073089599609375,-0.99853515625,-0.032562255859375
1686343536812297500,5.43729736328125,-0.077880859375,-0.9984588623046875,-0.0332489013671875
1686343536822317600,5.447317626953125,-0.0836639404296875,-0.99658203125,-0.0331573486328125
1686343536832336400,5.45733642578125,-0.0838775634765625,-0.99639892578125,-0.0342559814453125
1686343536842356500,5.4673564453125,-0.0831298828125,-0.99884033203125,-0.03558349609375
1686343536852375600,5.47737548828125,-0.0856475830078125,-0.9988555908203125,-0.03692626953125
1686343536862395600,5.487395751953125,-0.0881195068359375,-0.998260498046875,-0.035186767578125
1686343536872415500,5.49741552734375,-0.0889739990234375,-0.9987335205078125,-0.032257080078125
1686343536882434600,5.5074345703125,-0.08502197265625,-0.999786376953125,-0.034912109375
1686343536892454400,5.517454345703125,-0.0800628662109375,-1.000244140625,-0.0298919677734375
1686343536902473500,5.527473388671875,-0.0746307373046875,-0.9994354248046875,-0.030181884765625
1686343536912493600,5.53749365234375,-0.075439453125,-0.997833251953125,-0.03338623046875
1686343536922513400,5.547513427734375,-0.0815582275390625,-0.9978790283203125,-0.035888671875
1686343536932532500,5.557532470703125,-0.0818634033203125,-0.996795654296875,-0.035369873046875
1686343536942552600,5.567552490234375,-0.078155517578125,-0.99542236328125,-0.031646728515625
1686343536952571400,5.5775712890625,-0.0734405517578125,-0.995330810546875,-0.0328216552734375
1686343536962591500,5.587591552734375,-0.0685577392578125,-0.9983673095703125,-0.03466796875
1686343536972611300,5.597611328125,-0.066009521484375,-0.9990081787109375,-0.02923583984375
1686343536982630400,5.60763037109375,-0.0672760009765625,-0.997711181640625,-0.0270538330078125
1686343536992650500,5.617650390625,-0.0704803466796875,-0.9959564208984375,-0.027435302734375
1686343537002669600,5.627669677734375,-0.0737152099609375,-0.99798583984375,-0.0275115966796875
1686343537012689700,5.637689697265625,-0.0730438232421875,-0.9976806640625,-0.030242919921875
1686343537022709500,5.64770947265625,-0.075225830078125,-0.99847412109375,-0.0338134765625
1686343537032728300,5.657728271484375,-0.0807952880859375,-0.998931884765625,-0.0336761474609375
1686343537042748400,5.66774853515625,-0.0823974609375,-0.998199462890625,-0.0329132080078125
1686343537052767500,5.677767578125,-0.0802459716796875,-0.9983367919921875,-0.0303192138671875
1686343537062787600,5.68778759765625,-0.0777740478515625,-0.9993438720703125,-0.03021240234375
1686343537072807400,5.697807373046875,-0.079132080078125,-0.9997406005859375,-0.0326690673828125
1686343537082826500,5.707826416015625,-0.0773468017578125,-1.000823974609375,-0.030059814453125
1686343537092846300,5.717846435546875,-0.0783538818359375,-1.0018157958984375,-0.0302581787109375
1686343537102865400,5.727865478515625,-0.0808868408203125,-1.0011749267578125,-0.0313873291015625
1686343537112885500,5.737885498046875,-0.087249755859375,-1.000091552734375,-0.0337371826171875
1686343537122904600,5.747904541015625,-0.0901031494140625,-0.998992919921875,-0.0352935791015625
1686343537132924700,5.757924560546875,-0.087158203125,-0.9981536865234375,-0.0345306396484375
1686343537142944500,5.767944580078125,-0.082366943359375,-0.9969024658203125,-0.0339813232421875
1686343537152963300,5.77796337890625,-0.076202392578125,-0.9976043701171875,-0.0332183837890625
1686343537162983400,5.7879833984375,-0.0707550048828125,-0.998443603515625,-0.029998779296875
1686343537173002500,5.79800244140625,-0.06866455078125,-0.9983367919921875,-0.02984619140625
1686343537183022600,5.808022705078125,-0.0667266845703125,-0.99932861328125,-0.0311126708984375
1686343537193042400,5.81804248046875,-0.0665435791015625,-0.99810791015625,-0.029998779296875
1686343537203061500,5.8280615234375,-0.0687255859375,-0.9976043701171875,-0.0284271240234375
1686343537213081600,5.83808154296875,-0.07147216796875,-0.9985504150390625,-0.03204345703125
1686343537223100400,5.848100341796875,-0.072662353515625,-0.997161865234375,-0.03204345703125
1686343537233120500,5.85812060546875,-0.073974609375,-0.9976348876953125,-0.027801513671875
1686343537243140400,5.868140380859375,-0.0753021240234375,-0.9954071044921875,-0.0275726318359375
1686343537253159400,5.878159423828125,-0.07611083984375,-0.9951934814453125,-0.028656005859375
1686343537263179500,5.888179443359375,-0.074310302734375,-0.99639892578125,-0.0295867919921875
1686343537273198600,5.898198486328125,-0.068939208984375,-0.99993896484375,-0.0291290283203125
1686343537283218400,5.908218505859375,-0.07122802734375,-0.997711181640625,-0.031341552734375
1686343537293238500,5.918238525390625,-0.0764312744140625,-0.9990081787109375,-0.0362396240234375
1686343537303257300,5.92825732421875,-0.0779571533203125,-1.0006103515625,-0.03485107421875
1686343537313277400,5.93827734375,-0.0781097412109375,-0.9996490478515625,-0.0297393798828125
1686343537323296500,5.948296630859375,-0.0762481689453125,-0.9964599609375,-0.0286102294921875
1686343537333316600,5.958316650390625,-0.07843017578125,-0.9964141845703125,-0.0298919677734375
1686343537343336700,5.968336669921875,-0.07733154296875,-0.99755859375,-0.0299835205078125
1686343537353355500,5.97835546875,-0.0797882080078125,-0.9959564208984375,-0.02911376953125
1686343537363375400,5.988375244140625,-0.0829620361328125,-0.9986419677734375,-0.03125
1686343537373394400,5.99839453125,-0.0867767333984375,-1.002777099609375,-0.0299530029296875
1686343537383414500,6.00841455078125,-0.0922393798828125,-1.0050811767578125,-0.0308380126953125
1686343537393434600,6.0184345703125,-0.0921783447265625,-1.0057525634765625,-0.0328216552734375
1686343537403453700,6.02845361328125,-0.0878143310546875,-1.0059356689453125,-0.03253173828125
1686343537413473500,6.0384736328125,-0.083526611328125,-1.0051116943359375,-0.03338623046875
1686343537423492400,6.048492431640625,-0.083740234375,-1.0024871826171875,-0.03411865234375
1686343537433512400,6.058512451171875,-0.0844879150390625,-0.9998779296875,-0.0334014892578125
1686343537443532500,6.068532470703125,-0.0837554931640625,-0.9976806640625,-0.0324249267578125
1686343537453551600,6.078551513671875,-0.0788421630859375,-0.99560546875,-0.0312347412109375
1686343537463571500,6.088571533203125,-0.0709686279296875,-0.9936981201171875,-0.026641845703125
1686343537473590500,6.098590576171875,-0.063262939453125,-0.992919921875,-0.025970458984375
1686343537483610400,6.1086103515625,-0.0592193603515625,-0.99420166015625,-0.02880859375
1686343537493629400,6.11862939453125,-0.058197021484375,-0.9949951171875,-0.0315093994140625
1686343537503649500,6.1286494140625,-0.0575714111328125,-0.993560791015625,-0.030364990234375
1686343537513669400,6.13866943359375,-0.059051513671875,-0.9928741455078125,-0.02935791015625
1686343537523688400,6.1486884765625,-0.062225341796875,-0.992828369140625,-0.02825927734375
1686343537533708500,6.15870849609375,-0.0586700439453125,-0.9933624267578125,-0.0293426513671875
1686343537543728600,6.168728759765625,-0.0552520751953125,-0.9930572509765625,-0.025390625
1686343537553748000,6.178748046875,-0.049407958984375,-0.99407958984375,-0.022125244140625
1686343537563767800,6.188767822265625,-0.048065185546875,-0.995269775390625,-0.02374267578125
1686343537573786600,6.19878662109375,-0.0581512451171875,-0.99462890625,-0.0282440185546875
1686343537583806700,6.208806640625,-0.0740203857421875,-0.9972076416015625,-0.03375244140625
1686343537593825800,6.21882568359375,-0.08544921875,-0.9969482421875,-0.03125
1686343537603846000,6.228845947265625,-0.0894622802734375,-0.996185302734375,-0.0253448486328125
1686343537613865700,6.23886572265625,-0.0930633544921875,-0.99456787109375,-0.024505615234375
1686343537623884800,6.248884765625,-0.0984649658203125,-0.9948272705078125,-0.02960205078125
1686343537633905000,6.25890478515625,-0.1023712158203125,-0.999664306640625,-0.038604736328125
1686343537643923700,6.268923828125,-0.1011505126953125,-1.00421142578125,-0.0408782958984375
1686343537653943800,6.27894384765625,-0.1020355224609375,-1.002716064453125,-0.043365478515625
1686343537663964000,6.2889638671875,-0.1079864501953125,-1.000244140625,-0.03765869140625
1686343537673983000,6.29898291015625,-0.10296630859375,-1.0013580322265625,-0.0367431640625
1686343537684002800,6.3090029296875,-0.09332275390625,-0.9973297119140625,-0.0394134521484375
1686343537694022000,6.31902197265625,-0.09747314453125,-0.995513916015625,-0.0375518798828125
1686343537704041700,6.329041748046875,-0.1032257080078125,-0.996917724609375,-0.04107666015625
1686343537714061800,6.339061767578125,-0.10479736328125,-0.9937744140625,-0.041717529296875
1686343537724081000,6.349080810546875,-0.1126861572265625,-0.9935760498046875,-0.041351318359375
1686343537734100700,6.359100830078125,-0.1229095458984375,-0.9917449951171875,-0.044830322265625
1686343537744119800,6.369119873046875,-0.1259307861328125,-0.99261474609375,-0.0505523681640625
1686343537754140000,6.379139892578125,-0.119537353515625,-0.9984130859375,-0.0576629638671875
1686343537764160000,6.389159912109375,-0.124481201171875,-1.0016021728515625,-0.056182861328125
1686343537774178800,6.3991787109375,-0.1293182373046875,-0.998931884765625,-0.0547332763671875
1686343537784198700,6.40919873046875,-0.1396026611328125,-0.996185302734375,-0.048858642578125
1686343537794217700,6.4192177734375,-0.14483642578125,-0.99371337890625,-0.0506591796875
1686343537804237800,6.42923779296875,-0.1302947998046875,-0.997283935546875,-0.0587158203125
1686343537814258000,6.4392578125,-0.1302337646484375,-0.9937286376953125,-0.044891357421875
1686343537824277000,6.449277099609375,-0.1197509765625,-0.9886322021484375,-0.0419921875
1686343537834296800,6.459296875,-0.109619140625,-0.9939117431640625,-0.0416107177734375
1686343537844315600,6.469315673828125,-0.0968780517578125,-0.9950408935546875,-0.0456390380859375
1686343537854335700,6.479335693359375,-0.0947418212890625,-0.9947509765625,-0.0458984375
1686343537864355800,6.48935595703125,-0.1064910888671875,-0.9936981201171875,-0.0467681884765625
1686343537874375000,6.499375,-0.1169586181640625,-0.9952545166015625,-0.0525970458984375
1686343537884395000,6.50939501953125,-0.1310882568359375,-0.994232177734375,-0.05712890625
1686343537894413800,6.519413818359375,-0.1398468017578125,-0.992156982421875,-0.057769775390625
1686343537904433700,6.52943359375,-0.1372222900390625,-0.99078369140625,-0.0555877685546875
1686343537914453800,6.539453857421875,-0.1309051513671875,-0.9907684326171875,-0.0515899658203125
1686343537924472800,6.549472900390625,-0.1319122314453125,-0.9923858642578125,-0.0458526611328125
1686343537934493000,6.559492919921875,-0.1186676025390625,-0.9960479736328125,-0.047393798828125
1686343537944512000,6.569511962890625,-0.1162109375,-0.994140625,-0.0449676513671875
1686343537954531800,6.57953173828125,-0.12310791015625,-0.991363525390625,-0.044677734375
1686343537964552000,6.589552001953125,-0.1256561279296875,-0.9938201904296875,-0.048858642578125
1686343537974570800,6.59957080078125,-0.12701416015625,-0.993743896484375,-0.0498809814453125
1686343537984590800,6.6095908203125,-0.1299896240234375,-0.9931182861328125,-0.0527496337890625
1686343537994610000,6.61960986328125,-0.133514404296875,-0.9919891357421875,-0.054412841796875
1686343538004629800,6.629629638671875,-0.1358489990234375,-0.9929046630859375,-0.055328369140625
1686343538014649900,6.63964990234375,-0.1257476806640625,-0.9935302734375,-0.0604248046875
1686343538024669000,6.6496689453125,-0.1254119873046875,-0.988250732421875,-0.05401611328125
1686343538034689000,6.65968896484375,-0.12701416015625,-0.9887847900390625,-0.043670654296875
1686343538044707800,6.669707763671875,-0.119964599609375,-0.994903564453125,-0.0489501953125
1686343538054727700,6.679727783203125,-0.1286468505859375,-0.99371337890625,-0.0502166748046875
1686343538064747800,6.689747802734375,-0.134429931640625,-0.99542236328125,-0.054779052734375
1686343538074766800,6.699766845703125,-0.13067626953125,-0.9968719482421875,-0.0582275390625
1686343538084787000,6.709786865234375,-0.1339111328125,-0.993072509765625,-0.055755615234375
1686343538094805800,6.7198056640625,-0.13592529296875,-0.9914703369140625,-0.055694580078125
1686343538104825900,6.729825927734375,-0.13385009765625,-0.993408203125,-0.0522308349609375
1686343538114845700,6.739845703125,-0.134613037109375,-0.9915313720703125,-0.0503082275390625
1686343538124864800,6.74986474609375,-0.1351776123046875,-0.99066162109375,-0.050811767578125
1686343538134884900,6.759884765625,-0.137115478515625,-0.9915618896484375,-0.05224609375
1686343538144904000,6.769904052734375,-0.13623046875,-0.9927978515625,-0.0510711669921875
1686343538154924000,6.779924072265625,-0.1346588134765625,-0.9940185546875,-0.048309326171875
1686343538164944000,6.78994384765625,-0.13055419921875,-0.9923858642578125,-0.045166015625
1686343538174962700,6.799962646484375,-0.1252899169921875,-0.993011474609375,-0.043609619140625
1686343538184982800,6.809982666015625,-0.1273345947265625,-0.9938507080078125,-0.0513153076171875
1686343538195001900,6.820001953125,-0.1430511474609375,-0.9915618896484375,-0.064453125
1686343538205022000,6.83002197265625,-0.1583709716796875,-0.99169921875,-0.0679931640625
1686343538215041800,6.840041748046875,-0.1626129150390625,-0.992034912109375,-0.0686187744140625
1686343538225060900,6.850060791015625,-0.1373138427734375,-0.98260498046875,-0.0693206787109375
1686343538235080700,6.860080810546875,-0.1128692626953125,-0.9871826171875,-0.03851318359375
1686343538245099800,6.870099853515625,-0.1444244384765625,-1.005279541015625,-0.0269927978515625
1686343538255120000,6.880119873046875,-0.1487884521484375,-0.9998626708984375,-0.079254150390625
1686343538265139700,6.8901396484375,-0.1569671630859375,-0.99652099609375,-0.0371246337890625
1686343538275158800,6.90015869140625,-0.148223876953125,-0.9961395263671875,-0.0140228271484375
1686343538285179000,6.910178955078125,-0.1424102783203125,-1.00189208984375,-0.024078369140625
1686343538295197700,6.92019775390625,-0.1417694091796875,-1.000274658203125,-0.0535736083984375
1686343538305217800,6.9302177734375,-0.1490478515625,-1.0065460205078125,-0.0849151611328125
1686343538315238000,6.94023779296875,-0.183563232421875,-1.0007476806640625,-0.0992431640625
1686343538325256700,6.950256591796875,-0.2135162353515625,-0.9929046630859375,-0.09674072265625
1686343538335276800,6.96027685546875,-0.2066650390625,-0.9872589111328125,-0.0885467529296875
1686343538345297000,6.970296875,-0.1655731201171875,-0.9881744384765625,-0.0758209228515625
1686343538355316000,6.98031591796875,-0.1170806884765625,-0.9896392822265625,-0.0426177978515625
1686343538365336000,6.990336181640625,-0.0845489501953125,-0.99554443359375,-0.0188140869140625
1686343538375355000,7.00035498046875,-0.0609283447265625,-0.9989013671875,-0.0152130126953125
1686343538385374700,7.010374755859375,-0.0628204345703125,-1.0027618408203125,-0.00732421875
1686343538395394800,7.020394775390625,-0.0580291748046875,-0.9981842041015625,-0.0262908935546875
1686343538405414000,7.030413818359375,-0.0494384765625,-0.993621826171875,-0.0297393798828125
1686343538415434000,7.04043408203125,-0.0625152587890625,-0.9900970458984375,-0.0251617431640625
1686343538425453000,7.050453125,-0.0872802734375,-0.9826812744140625,-0.04437255859375
1686343538435472600,7.06047265625,-0.0981597900390625,-0.9793548583984375,-0.0590057373046875
1686343538445492700,7.07049267578125,-0.0890655517578125,-0.98175048828125,-0.0501556396484375
1686343538455511800,7.08051171875,-0.08477783203125,-0.9835968017578125,-0.039642333984375
1686343538465532000,7.090531982421875,-0.08758544921875,-0.9890899658203125,-0.0427398681640625
1686343538475551000,7.100551025390625,-0.087310791015625,-0.99639892578125,-0.053802490234375
1686343538485570800,7.11057080078125,-0.0962677001953125,-0.9974822998046875,-0.0529937744140625
1686343538495591000,7.1205908203125,-0.1059417724609375,-1.000518798828125,-0.0442352294921875
1686343538505609700,7.130609619140625,-0.119384765625,-1.0023956298828125,-0.0450592041015625
1686343538515629800,7.1406298828125,-0.1405792236328125,-1.00140380859375,-0.056976318359375
1686343538525649000,7.15064892578125,-0.1498260498046875,-0.9970855712890625,-0.0635833740234375
1686343538535668700,7.160668701171875,-0.15350341796875,-0.9951324462890625,-0.0586395263671875
1686343538545688800,7.170688720703125,-0.1513671875,-0.99609375,-0.0431976318359375
1686343538555708000,7.1807080078125,-0.1394805908203125,-0.9963226318359375,-0.0332794189453125
1686343538565728000,7.19072802734375,-0.1240386962890625,-0.99609375,-0.0304718017578125
1686343538575746800,7.200746826171875,-0.1164398193359375,-0.9963226318359375,-0.0308380126953125
1686343538585767000,7.210766845703125,-0.1209869384765625,-0.993072509765625,-0.02960205078125
1686343538595786800,7.220786865234375,-0.123077392578125,-0.9877166748046875,-0.0362396240234375
1686343538605805800,7.230805908203125,-0.1226959228515625,-0.9860992431640625,-0.0450592041015625
1686343538615826000,7.240825927734375,-0.123504638671875,-0.9886932373046875,-0.0479888916015625
1686343538625845000,7.250844970703125,-0.122650146484375,-0.9886474609375,-0.0543212890625
1686343538635865000,7.260864990234375,-0.1179656982421875,-0.988555908203125,-0.0572052001953125
1686343538645885000,7.270885009765625,-0.1110992431640625,-0.9891357421875,-0.046356201171875
1686343538655903700,7.28090380859375,-0.1042938232421875,-0.9906158447265625,-0.03643798828125
1686343538665923800,7.290923828125,-0.1020660400390625,-0.990478515625,-0.0333099365234375
1686343538675944000,7.30094384765625,-0.103912353515625,-0.9907989501953125,-0.0340576171875
1686343538685963000,7.310962890625,-0.1100921630859375,-0.993927001953125,-0.039031982421875
1686343538695982800,7.32098291015625,-0.1251220703125,-0.99310302734375,-0.0451202392578125
1686343538706001700,7.331001708984375,-0.1438751220703125,-0.991485595703125,-0.0436553955078125
1686343538716021800,7.341021728515625,-0.1542816162109375,-0.991180419921875,-0.0447998046875
1686343538726041900,7.351041748046875,-0.156707763671875,-0.991058349609375,-0.047027587890625
1686343538736061000,7.36106103515625,-0.153961181640625,-0.9916534423828125,-0.0446929931640625
1686343538746080800,7.371080810546875,-0.1518707275390625,-0.994720458984375,-0.04815673828125
1686343538756099800,7.381099853515625,-0.1547698974609375,-0.995513916015625,-0.0571136474609375
1686343538766120000,7.391119873046875,-0.1456756591796875,-0.9948272705078125,-0.058074951171875
1686343538776140000,7.40114013671875,-0.1308441162109375,-0.9945831298828125,-0.0414276123046875
1686343538786158800,7.411158935546875,-0.122711181640625,-0.9930877685546875,-0.033935546875
1686343538796179000,7.421178955078125,-0.1237335205078125,-0.9925994873046875,-0.03948974609375
1686343538806197800,7.43119775390625,-0.1297149658203125,-0.99237060546875,-0.0449676513671875
1686343538816217900,7.4412177734375,-0.1390533447265625,-0.9925384521484375,-0.039642333984375
1686343538826238000,7.451238037109375,-0.14544677734375,-0.9930419921875,-0.056884765625
1686343538836257000,7.461257080078125,-0.14019775390625,-0.992828369140625,-0.0674285888671875
1686343538846276900,7.47127685546875,-0.1275482177734375,-0.994354248046875,-0.0552520751953125
1686343538856296000,7.4812958984375,-0.1178436279296875,-0.9914703369140625,-0.04364013671875
1686343538866315800,7.491315673828125,-0.11895751953125,-0.99261474609375,-0.04150390625
1686343538876335900,7.5013359375,-0.1280517578125,-0.98931884765625,-0.0446624755859375
1686343538886355000,7.51135498046875,-0.1431121826171875,-0.987030029296875,-0.044525146484375
1686343538896375000,7.521375,-0.1515655517578125,-0.9889984130859375,-0.0525054931640625
1686343538906395000,7.531394775390625,-0.1603851318359375,-0.9910888671875,-0.0440673828125
1686343538916413700,7.54141357421875,-0.18768310546875,-0.9839019775390625,-0.0484466552734375
1686343538926433800,7.551433837890625,-0.20013427734375,-0.9868011474609375,-0.0840606689453125
1686343538936452900,7.561452880859375,-0.1891937255859375,-0.993804931640625,-0.0700836181640625
1686343538946473000,7.571472900390625,-0.1564178466796875,-0.9975433349609375,-0.0321044921875
1686343538956492800,7.581492919921875,-0.1244354248046875,-1.000579833984375,-0.0181884765625
1686343538966511900,7.591511962890625,-0.1177215576171875,-1.005096435546875,-0.0239410400390625
1686343538976532000,7.601531982421875,-0.1243133544921875,-1.007904052734375,-0.036895751953125
1686343538986550800,7.61155078125,-0.135467529296875,-1.000579833984375,-0.0404510498046875
1686343538996571000,7.62157080078125,-0.15557861328125,-0.99114990234375,-0.0388946533203125
1686343539006590700,7.6315908203125,-0.1566314697265625,-0.9904327392578125,-0.052703857421875
1686343539016609800,7.64160986328125,-0.1269683837890625,-0.987640380859375,-0.062835693359375
1686343539026630000,7.6516298828125,-0.09881591796875,-0.9844512939453125,-0.0396270751953125
1686343539036649000,7.66164892578125,-0.0685272216796875,-0.9781341552734375,-0.0203857421875
1686343539046668800,7.671668701171875,-0.0504302978515625,-0.9959564208984375,0.0003814697265625
1686343539056689000,7.68168896484375,-0.0623779296875,-0.9950714111328125,-0.020782470703125
1686343539066708000,7.6917080078125,-0.08343505859375,-0.9896240234375,-0.0494232177734375
1686343539076727800,7.701727783203125,-0.113494873046875,-0.987091064453125,-0.0379180908203125
1686343539086748000,7.711747802734375,-0.1278228759765625,-0.9861297607421875,-0.0458831787109375
1686343539096767000,7.72176708984375,-0.1379852294921875,-0.985748291015625,-0.0490875244140625
1686343539106787000,7.731787109375,-0.1456298828125,-0.98541259765625,-0.0496978759765625
1686343539116806000,7.741805908203125,-0.145050048828125,-0.9880828857421875,-0.051300048828125
1686343539126825700,7.75182568359375,-0.139251708984375,-0.991302490234375,-0.0500640869140625
1686343539136845800,7.761845703125,-0.1379852294921875,-0.9940643310546875,-0.0403594970703125
1686343539146865000,7.771864990234375,-0.14080810546875,-0.9959259033203125,-0.0335540771484375
1686343539156885000,7.781885009765625,-0.1462554931640625,-0.9978179931640625,-0.0390777587890625
1686343539166904000,7.791904052734375,-0.1541748046875,-0.999725341796875,-0.044219970703125
1686343539176924000,7.801923828125,-0.1619873046875,-0.99981689453125,-0.0461578369140625
1686343539186943700,7.81194384765625,-0.1622161865234375,-0.9956817626953125,-0.049957275390625
1686343539196962800,7.821962890625,-0.159820556640625,-0.9942626953125,-0.05078125
1686343539206983000,7.83198291015625,-0.1553802490234375,-0.9918060302734375,-0.0535430908203125
1686343539217002800,7.842002685546875,-0.1462554931640625,-0.99078369140625,-0.0519561767578125
1686343539227021800,7.852021728515625,-0.1371917724609375,-0.9897613525390625,-0.0457611083984375
1686343539237042000,7.8620419921875,-0.134002685546875,-0.98919677734375,-0.04180908203125
1686343539247060700,7.872060791015625,-0.134368896484375,-0.990966796875,-0.042266845703125
1686343539257080800,7.882080810546875,-0.136199951171875,-0.9933319091796875,-0.04180908203125
1686343539267101000,7.892100830078125,-0.1375274658203125,-0.991851806640625,-0.04541015625
1686343539277120000,7.9021201171875,-0.1380157470703125,-0.9922332763671875,-0.0459136962890625
1686343539287139800,7.912139892578125,-0.1363677978515625,-0.993194580078125,-0.045440673828125
1686343539297159000,7.922158935546875,-0.13397216796875,-0.9917144775390625,-0.0449066162109375
1686343539307179000,7.932178955078125,-0.1304473876953125,-0.9905853271484375,-0.042327880859375
1686343539317199000,7.94219921875,-0.1298065185546875,-0.9909820556640625,-0.043914794921875
1686343539327218000,7.952218017578125,-0.130828857421875,-0.9912109375,-0.0450592041015625
1686343539337237800,7.96223779296875,-0.1331787109375,-0.9900665283203125,-0.0407867431640625
1686343539347257900,7.9722578125,-0.1320953369140625,-0.9888458251953125,-0.04254150390625
1686343539357277000,7.98227685546875,-0.135498046875,-0.9894866943359375,-0.04638671875
1686343539367297000,7.992297119140625,-0.137664794921875,-0.989654541015625,-0.044891357421875
1686343539377315800,8.00231591796875,-0.138580322265625,-0.9907989501953125,-0.0453643798828125
1686343539387335700,8.012335693359375,-0.1375579833984375,-0.992706298828125,-0.0477447509765625
1686343539397355800,8.022355712890626,-0.1402740478515625,-0.9946136474609375,-0.046234130859375
1686343539407374800,8.032374755859376,-0.143310546875,-0.99407958984375,-0.044952392578125
1686343539417395000,8.04239501953125,-0.1431884765625,-0.99578857421875,-0.04541015625
1686343539427414800,8.052414794921875,-0.1456756591796875,-0.9940185546875,-0.04876708984375
1686343539437433900,8.062433837890625,-0.1514434814453125,-0.99200439453125,-0.0502471923828125
1686343539447454000,8.072453857421875,-0.1566009521484375,-0.9898834228515625,-0.050994873046875
1686343539457472800,8.08247265625,-0.15966796875,-0.9890289306640625,-0.053680419921875
1686343539467492900,8.092492919921876,-0.1583099365234375,-0.9878692626953125,-0.0539703369140625
1686343539477513000,8.102512939453124,-0.1531982421875,-0.98760986328125,-0.0507354736328125
1686343539487531800,8.11253173828125,-0.1523590087890625,-0.988525390625,-0.0527496337890625
1686343539497552000,8.1225517578125,-0.1605377197265625,-0.988739013671875,-0.064361572265625
1686343539507571000,8.132571044921875,-0.1665802001953125,-0.98907470703125,-0.067230224609375
1686343539517590800,8.1425908203125,-0.154052734375,-0.9935455322265625,-0.047821044921875
1686343539527611000,8.15261083984375,-0.1284027099609375,-0.9943695068359375,-0.0224456787109375
1686343539537630000,8.1626298828125,-0.1099700927734375,-0.9947662353515625,-0.014923095703125
1686343539547649800,8.17264990234375,-0.1003570556640625,-0.9975738525390625,-0.019744873046875
1686343539557669400,8.18266943359375,-0.1031494140625,-0.9962310791015625,-0.0174713134765625
1686343539567688400,8.1926884765625,-0.113922119140625,-0.9919281005859375,-0.020050048828125
1686343539577708500,8.20270849609375,-0.1268310546875,-0.9876251220703125,-0.0268402099609375
1686343539587727400,8.212727294921875,-0.1297454833984375,-0.98663330078125,-0.040496826171875
1686343539597747200,8.222747314453125,-0.1302032470703125,-0.9898834228515625,-0.0555572509765625
1686343539607767300,8.232767333984375,-0.1285400390625,-0.993011474609375,-0.06292724609375
1686343539617786400,8.242786376953125,-0.122467041015625,-0.9929046630859375,-0.0536041259765625
1686343539627806500,8.252806396484376,-0.1198577880859375,-0.9919281005859375,-0.0389251708984375
1686343539637826600,8.26282666015625,-0.12640380859375,-0.9890899658203125,-0.0307159423828125
1686343539647845400,8.272845458984374,-0.1344757080078125,-0.989593505859375,-0.036651611328125
1686343539657865200,8.282865234375,-0.1404876708984375,-0.9906158447265625,-0.0411529541015625
1686343539667884300,8.29288427734375,-0.13861083984375,-0.98809814453125,-0.0361175537109375
1686343539677904400,8.302904296875,-0.1372833251953125,-0.9853363037109375,-0.0328826904296875
1686343539687924500,8.312924560546875,-0.140655517578125,-0.986175537109375,-0.037139892578125
1686343539697943600,8.322943603515625,-0.1376190185546875,-0.9849700927734375,-0.0397186279296875
1686343539707963400,8.33296337890625,-0.1324615478515625,-0.984039306640625,-0.0301361083984375
1686343539717982200,8.342982177734376,-0.1291656494140625,-0.9820098876953125,-0.0279693603515625
1686343539728002300,8.353002197265624,-0.1336212158203125,-0.9811553955078125,-0.0380859375
1686343539738022400,8.3630224609375,-0.1490478515625,-0.9801025390625,-0.054840087890625
1686343539748041500,8.37304150390625,-0.1685028076171875,-0.9862060546875,-0.0812225341796875
1686343539758061300,8.383061279296875,-0.18585205078125,-0.991851806640625,-0.106170654296875
1686343539768081400,8.393081298828125,-0.1909027099609375,-0.9972686767578125,-0.107452392578125
1686343539778100500,8.4031005859375,-0.187347412109375,-0.996246337890625,-0.0926513671875
1686343539788120300,8.413120361328126,-0.184814453125,-0.99432373046875,-0.0795135498046875
1686343539798139400,8.423139404296874,-0.18707275390625,-0.9941558837890625,-0.0740203857421875
1686343539808159200,8.4331591796875,-0.1850738525390625,-0.99603271484375,-0.069976806640625
1686343539818179300,8.443179443359375,-0.17572021484375,-0.9955291748046875,-0.0580596923828125
1686343539828198400,8.453198486328125,-0.163787841796875,-0.9933929443359375,-0.0490875244140625
1686343539838218500,8.463218505859375,-0.16156005859375,-0.9910736083984375,-0.0495147705078125
1686343539848238600,8.473238525390625,-0.1669921875,-0.9898529052734375,-0.0551910400390625
1686343539858257400,8.48325732421875,-0.17498779296875,-0.9892730712890625,-0.0615386962890625
1686343539868277200,8.49327734375,-0.1773834228515625,-0.98883056640625,-0.06494140625
1686343539878296300,8.50329638671875,-0.1710052490234375,-0.990203857421875,-0.06951904296875
1686343539888316400,8.51331640625,-0.163848876953125,-0.9910125732421875,-0.0682525634765625
1686343539898336500,8.52333642578125,-0.1588897705078125,-0.991180419921875,-0.0658721923828125
1686343539908355600,8.53335546875,-0.15240478515625,-0.9905548095703125,-0.0652313232421875
1686343539918375400,8.54337548828125,-0.1497955322265625,-0.98974609375,-0.0630645751953125
1686343539928394200,8.553394287109375,-0.149658203125,-0.9888763427734375,-0.0606536865234375
1686343539938414300,8.563414306640626,-0.1477813720703125,-0.987457275390625,-0.059661865234375
1686343539948434400,8.573434326171874,-0.1409454345703125,-0.98602294921875,-0.060394287109375
1686343539958453500,8.58345361328125,-0.138427734375,-0.9864654541015625,-0.058197021484375
1686343539968473300,8.593473388671875,-0.13226318359375,-0.9873809814453125,-0.0594329833984375
1686343539978493400,8.603493408203125,-0.1252593994140625,-0.9896087646484375,-0.0550994873046875
1686343539988512300,8.61351220703125,-0.1264801025390625,-0.9889373779296875,-0.055999755859375
1686343539998532400,8.623532470703125,-0.1339569091796875,-0.9879913330078125,-0.059295654296875
1686343540008551400,8.633551513671875,-0.144195556640625,-0.9886627197265625,-0.0536041259765625
1686343540018571300,8.6435712890625,-0.15411376953125,-0.98712158203125,-0.0572052001953125
1686343540028591400,8.65359130859375,-0.158905029296875,-0.9870758056640625,-0.0618743896484375
1686343540038610400,8.6636103515625,-0.16192626953125,-0.9853057861328125,-0.0589141845703125
1686343540048630500,8.673630615234375,-0.161407470703125,-0.98486328125,-0.0559234619140625
1686343540058649300,8.6836494140625,-0.1590576171875,-0.98614501953125,-0.0592193603515625
1686343540068669400,8.69366943359375,-0.157257080078125,-0.985382080078125,-0.0599365234375
1686343540078689300,8.703689208984375,-0.1554107666015625,-0.986785888671875,-0.0605926513671875
1686343540088708400,8.713708251953125,-0.153228759765625,-0.987579345703125,-0.0631561279296875
1686343540098728400,8.723728515625,-0.1552276611328125,-0.989471435546875,-0.0653076171875
1686343540108748500,8.73374853515625,-0.1554412841796875,-0.990966796875,-0.0669708251953125
1686343540118767400,8.743767333984374,-0.1556396484375,-0.990570068359375,-0.0662384033203125
1686343540128787200,8.753787109375,-0.150970458984375,-0.9912872314453125,-0.0643310546875
1686343540138806300,8.76380615234375,-0.14404296875,-0.990631103515625,-0.0619964599609375
1686343540148826400,8.773826416015625,-0.14337158203125,-0.990936279296875,-0.0573577880859375
1686343540158846500,8.783846435546875,-0.1444549560546875,-0.99078369140625,-0.0580596923828125
1686343540168865500,8.793865478515626,-0.1472320556640625,-0.9902496337890625,-0.0574951171875
1686343540178885400,8.803885498046874,-0.15289306640625,-0.98907470703125,-0.055816650390625
1686343540188905500,8.813905517578124,-0.1586761474609375,-0.9891815185546875,-0.0590362548828125
1686343540198924300,8.82392431640625,-0.1586456298828125,-0.9908447265625,-0.0629730224609375
1686343540208944400,8.8339443359375,-0.1546783447265625,-0.9910430908203125,-0.0628509521484375
1686343540218963500,8.84396337890625,-0.15570068359375,-0.9919891357421875,-0.05841064453125
1686343540228983300,8.8539833984375,-0.15777587890625,-0.9910430908203125,-0.0641937255859375
1686343540239003400,8.86400341796875,-0.1494293212890625,-0.9908294677734375,-0.0644073486328125
1686343540249022500,8.8740224609375,-0.142242431640625,-0.9932861328125,-0.0589599609375
1686343540259042300,8.884042236328124,-0.1370391845703125,-0.9927520751953125,-0.060455322265625
1686343540269061400,8.894061279296874,-0.138336181640625,-0.9923095703125,-0.061187744140625
1686343540279081500,8.90408154296875,-0.1406097412109375,-0.9923858642578125,-0.06317138671875
1686343540289101300,8.914101318359375,-0.1485443115234375,-0.9909210205078125,-0.0635986328125
1686343540299120400,8.924120361328125,-0.153900146484375,-0.9877471923828125,-0.0627593994140625
1686343540309140500,8.934140380859375,-0.1550140380859375,-0.985443115234375,-0.0611114501953125
1686343540319160600,8.94416064453125,-0.151123046875,-0.985565185546875,-0.0634765625
1686343540329179400,8.954179443359376,-0.142822265625,-0.9864349365234375,-0.0625457763671875
1686343540339199200,8.96419921875,-0.13592529296875,-0.9874114990234375,-0.058502197265625
1686343540349218300,8.97421826171875,-0.1323699951171875,-0.9897003173828125,-0.0584716796875
1686343540359238400,8.98423828125,-0.13592529296875,-0.9900054931640625,-0.059234619140625
1686343540369258500,8.994258544921875,-0.1430206298828125,-0.9891357421875,-0.0596771240234375
1686343540379277600,9.004277587890625,-0.1479339599609375,-0.990692138671875,-0.06341552734375
1686343540389297400,9.01429736328125,-0.1477203369140625,-0.990325927734375,-0.063323974609375
1686343540399317200,9.024317138671876,-0.1449737548828125,-0.9897613525390625,-0.058624267578125
1686343540409336300,9.03433642578125,-0.144073486328125,-0.98944091796875,-0.0576019287109375
1686343540419356400,9.0443564453125,-0.1417694091796875,-0.9895477294921875,-0.0609130859375
1686343540429375500,9.05437548828125,-0.1399688720703125,-0.9905548095703125,-0.0624237060546875
1686343540439395300,9.064395263671875,-0.139617919921875,-0.9904937744140625,-0.0601959228515625
1686343540449415400,9.07441552734375,-0.1386260986328125,-0.9893646240234375,-0.0611419677734375
1686343540459434200,9.084434326171875,-0.142425537109375,-0.9899444580078125,-0.0609283447265625
1686343540469454300,9.094454345703125,-0.1479644775390625,-0.9903717041015625,-0.0599517822265625
1686343540479473400,9.104473388671876,-0.1490325927734375,-0.9891357421875,-0.0593109130859375
1686343540489493200,9.1144931640625,-0.1438751220703125,-0.9893951416015625,-0.0574951171875
1686343540499513300,9.124513427734374,-0.1415557861328125,-0.98944091796875,-0.0574188232421875
1686343540509532400,9.134532470703125,-0.1460723876953125,-0.98919677734375,-0.056854248046875
1686343540519552500,9.144552490234375,-0.14642333984375,-0.9914703369140625,-0.059051513671875
1686343540529571300,9.1545712890625,-0.1480560302734375,-0.990936279296875,-0.063201904296875
1686343540539591400,9.16459130859375,-0.1484832763671875,-0.98931884765625,-0.068634033203125
1686343540549611300,9.174611328125,-0.146209716796875,-0.9892425537109375,-0.0701751708984375
1686343540559630600,9.184630615234376,-0.14349365234375,-0.990631103515625,-0.06451416015625
1686343540569650700,9.194650634765624,-0.1400299072265625,-0.988433837890625,-0.061676025390625
1686343540579670800,9.2046708984375,-0.13787841796875,-0.9882354736328125,-0.05908203125
1686343540589689600,9.214689697265625,-0.138427734375,-0.9886474609375,-0.0559539794921875
1686343540599709400,9.22470947265625,-0.144500732421875,-0.988922119140625,-0.057647705078125
1686343540609728500,9.234728515625,-0.1534423828125,-0.98895263671875,-0.0605621337890625
1686343540619748600,9.24474853515625,-0.1575775146484375,-0.9916229248046875,-0.06439208984375
1686343540629768700,9.254768798828126,-0.1580810546875,-0.9942779541015625,-0.068511962890625
1686343540639787800,9.264787841796876,-0.1568450927734375,-0.994842529296875,-0.0690460205078125
1686343540649807600,9.2748076171875,-0.1521453857421875,-0.9945526123046875,-0.0664215087890625
1686343540659826400,9.284826416015624,-0.146453857421875,-0.9932861328125,-0.065399169921875
1686343540669846500,9.294846435546875,-0.143402099609375,-0.992706298828125,-0.064605712890625
1686343540679866600,9.30486669921875,-0.142974853515625,-0.991973876953125,-0.0646820068359375
1686343540689885700,9.3148857421875,-0.145172119140625,-0.9896087646484375,-0.063720703125
1686343540699905500,9.324905517578125,-0.1494140625,-0.987640380859375,-0.061859130859375
1686343540709925600,9.334925537109376,-0.1529541015625,-0.98785400390625,-0.0622406005859375
1686343540719944400,9.3449443359375,-0.1508941650390625,-0.987274169921875,-0.0604400634765625
1686343540729964500,9.354964599609374,-0.1439666748046875,-0.9863128662109375,-0.0601806640625
1686343540739983600,9.364983642578125,-0.1334381103515625,-0.9850006103515625,-0.057830810546875
1686343540750003500,9.37500341796875,-0.1238250732421875,-0.984954833984375,-0.05474853515625
1686343540760023600,9.3850234375,-0.119598388671875,-0.986968994140625,-0.0567626953125
1686343540770042600,9.395042724609375,-0.118896484375,-0.9886016845703125,-0.0615692138671875
1686343540780062700,9.405062744140626,-0.124420166015625,-0.986419677734375,-0.065338134765625
1686343540790081500,9.41508154296875,-0.1303558349609375,-0.987518310546875,-0.0685272216796875
1686343540800101600,9.4251015625,-0.1387786865234375,-0.988006591796875,-0.068634033203125
1686343540810121500,9.43512158203125,-0.1466827392578125,-0.987579345703125,-0.0665435791015625
1686343540820140500,9.445140625,-0.1521148681640625,-0.98858642578125,-0.0642547607421875
1686343540830160600,9.45516064453125,-0.15545654296875,-0.9899444580078125,-0.061431884765625
1686343540840180700,9.4651806640625,-0.15673828125,-0.99102783203125,-0.0594329833984375
1686343540850199800,9.47519970703125,-0.156768798828125,-0.9916839599609375,-0.059783935546875
1686343540860219400,9.485219482421876,-0.1552734375,-0.9903106689453125,-0.0626678466796875
1686343540870238500,9.495238525390626,-0.155059814453125,-0.9906158447265625,-0.062347412109375
1686343540880258600,9.505258544921874,-0.156768798828125,-0.9908447265625,-0.0658111572265625
1686343540890278700,9.515278564453125,-0.1621551513671875,-0.9906768798828125,-0.067657470703125
1686343540900297700,9.525297607421875,-0.162078857421875,-0.9923553466796875,-0.06982421875
1686343540910317600,9.535317626953125,-0.1563262939453125,-0.9925384521484375,-0.06561279296875
1686343540920336400,9.54533642578125,-0.14923095703125,-0.99285888671875,-0.063262939453125
1686343540930356500,9.5553564453125,-0.1434478759765625,-0.9929962158203125,-0.063568115234375
1686343540940376600,9.56537646484375,-0.1383209228515625,-0.99163818359375,-0.0636749267578125
1686343540950395600,9.575395751953126,-0.1401824951171875,-0.99072265625,-0.06134033203125
1686343540960415500,9.58541552734375,-0.139190673828125,-0.990631103515625,-0.0642852783203125
1686343540970435600,9.595435546875,-0.139434814453125,-0.989105224609375,-0.0652618408203125
1686343540980454700,9.60545458984375,-0.1414947509765625,-0.989013671875,-0.06610107421875
1686343540990474800,9.615474853515625,-0.1424407958984375,-0.9880218505859375,-0.0654296875
1686343541000493600,9.62549365234375,-0.1428680419921875,-0.9882659912109375,-0.0614776611328125
1686343541010513700,9.635513671875,-0.1387939453125,-0.9872894287109375,-0.0602569580078125
1686343541020533500,9.645533447265626,-0.139434814453125,-0.98736572265625,-0.0598297119140625
1686343541030552600,9.655552490234374,-0.1418304443359375,-0.987762451171875,-0.0606842041015625
1686343541040572700,9.66557275390625,-0.1442413330078125,-0.9885711669921875,-0.061248779296875
1686343541050591500,9.675591552734375,-0.145172119140625,-0.9881439208984375,-0.06353759765625
1686343541060611600,9.685611572265625,-0.1431427001953125,-0.987701416015625,-0.0633392333984375
1686343541070631400,9.69563134765625,-0.139434814453125,-0.9866790771484375,-0.0598602294921875
1686343541080650500,9.705650390625,-0.1395263671875,-0.9869537353515625,-0.061187744140625
1686343541090670600,9.715670654296876,-0.1427001953125,-0.9907684326171875,-0.0645904541015625
1686343541100690700,9.725690673828124,-0.147247314453125,-0.9901885986328125,-0.065673828125
1686343541110709800,9.735709716796874,-0.14996337890625,-0.9912109375,-0.063446044921875
1686343541120729600,9.7457294921875,-0.1536407470703125,-0.991973876953125,-0.0610198974609375
1686343541130748400,9.75574853515625,-0.155548095703125,-0.9929962158203125,-0.0614166259765625
1686343541140768500,9.7657685546875,-0.1562652587890625,-0.992462158203125,-0.0618438720703125
1686343541150788600,9.77578857421875,-0.1540374755859375,-0.9906768798828125,-0.061187744140625
1686343541160807700,9.7858076171875,-0.15185546875,-0.9899139404296875,-0.06048583984375
1686343541170827500,9.79582763671875,-0.14990234375,-0.988372802734375,-0.063201904296875
1686343541180846600,9.8058466796875,-0.14312744140625,-0.98773193359375,-0.0633544921875
1686343541190866400,9.815866455078124,-0.1369476318359375,-0.988555908203125,-0.0616455078125
1686343541200886500,9.825886474609375,-0.135528564453125,-0.98974609375,-0.060516357421875
1686343541210905600,9.835905517578125,-0.136444091796875,-0.9889678955078125,-0.0618896484375
1686343541220925700,9.84592578125,-0.1416015625,-0.9891815185546875,-0.0618133544921875
1686343541230944500,9.855944580078125,-0.1500091552734375,-0.9896697998046875,-0.061676025390625
1686343541240964600,9.865964599609375,-0.1536407470703125,-0.9887542724609375,-0.061798095703125
1686343541250984700,9.875984619140626,-0.149566650390625,-0.9898223876953125,-0.0611724853515625
1686343541261003500,9.88600341796875,-0.1449737548828125,-0.989898681640625,-0.0622100830078125
1686343541271023600,9.896023681640624,-0.143707275390625,-0.9908294677734375,-0.0610809326171875
1686343541281043500,9.90604345703125,-0.142486572265625,-0.98968505859375,-0.0598297119140625
1686343541291062500,9.9160625,-0.1414794921875,-0.99072265625,-0.0605316162109375
1686343541301082600,9.92608251953125,-0.1457366943359375,-0.98944091796875,-0.06219482421875
1686343541311101700,9.936101806640625,-0.15142822265625,-0.9896392822265625,-0.0635986328125
1686343541321121800,9.946121826171876,-0.1551055908203125,-0.988433837890625,-0.064727783203125
1686343541331141400,9.956141357421876,-0.1542816162109375,-0.9876251220703125,-0.065032958984375
1686343541341160400,9.966160400390624,-0.1522369384765625,-0.9892730712890625,-0.063323974609375
1686343541351180500,9.9761806640625,-0.151123046875,-0.99041748046875,-0.0620574951171875
1686343541361199600,9.98619970703125,-0.14794921875,-0.9906463623046875,-0.062347412109375
1686343541371219700,9.9962197265625,-0.147247314453125,-0.9927825927734375,-0.0635833740234375
1686343541381239600,10.006239501953125,-0.1475372314453125,-0.9919281005859375,-0.0642547607421875
1686343541391258400,10.01625830078125,-0.148681640625,-0.99066162109375,-0.0654296875
1686343541401278500,10.026278564453126,-0.1491546630859375,-0.989898681640625,-0.0654754638671875
1686343541411298600,10.036298583984374,-0.1474761962890625,-0.989227294921875,-0.0622711181640625
1686343541421317600,10.046317626953124,-0.147918701171875,-0.987762451171875,-0.0599212646484375
1686343541431337500,10.05633740234375,-0.1461944580078125,-0.9871063232421875,-0.059539794921875
1686343541441356500,10.0663564453125,-0.1466522216796875,-0.9860382080078125,-0.057708740234375
1686343541451376600,10.076376708984375,-0.14532470703125,-0.985687255859375,-0.056884765625
1686343541461396700,10.086396728515625,-0.1422271728515625,-0.9876251220703125,-0.0575408935546875
1686343541471415600,10.09641552734375,-0.1371002197265625,-0.9888763427734375,-0.0590972900390625
1686343541481435600,10.106435546875,-0.1349029541015625,-0.9907684326171875,-0.0621337890625
1686343541491454700,10.116454833984376,-0.1374969482421875,-0.989227294921875,-0.063812255859375
1686343541501474600,10.126474609375,-0.1414031982421875,-0.990509033203125,-0.063232421875
1686343541511494700,10.13649462890625,-0.141265869140625,-0.9877777099609375,-0.0608062744140625
1686343541521513700,10.146513671875,-0.1408538818359375,-0.98529052734375,-0.058441162109375
1686343541531533600,10.156533447265625,-0.144805908203125,-0.9856719970703125,-0.0563507080078125
1686343541541553400,10.166553466796875,-0.1502227783203125,-0.985748291015625,-0.05792236328125
1686343541551572500,10.176572509765625,-0.1542816162109375,-0.9867095947265625,-0.059051513671875
1686343541561592600,10.186592529296876,-0.1578826904296875,-0.990814208984375,-0.062469482421875
1686343541571611600,10.196611572265626,-0.1623077392578125,-0.991485595703125,-0.066314697265625
1686343541581631700,10.2066318359375,-0.1597137451171875,-0.994049072265625,-0.0676116943359375
1686343541591651600,10.216651611328125,-0.1553955078125,-0.9964752197265625,-0.06915283203125
1686343541601670400,10.22667041015625,-0.1525726318359375,-0.9943389892578125,-0.0722198486328125
1686343541611690500,10.2366904296875,-0.15142822265625,-0.993927001953125,-0.071441650390625
1686343541621709600,10.24670947265625,-0.1540069580078125,-0.994476318359375,-0.067596435546875
1686343541631729700,10.256729736328126,-0.15252685546875,-0.9886474609375,-0.0645751953125
1686343541641749500,10.26674951171875,-0.140960693359375,-0.9845428466796875,-0.0654296875
1686343541651768600,10.2767685546875,-0.1491241455078125,-0.99383544921875,-0.068206787109375
1686343541661788400,10.286788330078124,-0.1664886474609375,-0.9913330078125,-0.061676025390625
1686343541671808500,10.29680859375,-0.1593170166015625,-0.9828948974609375,-0.0634765625
1686343541681827600,10.30682763671875,-0.1487579345703125,-0.984619140625,-0.0648651123046875
1686343541691847700,10.31684765625,-0.1530303955078125,-0.982818603515625,-0.065948486328125
1686343541701866800,10.32686669921875,-0.153717041015625,-0.9803314208984375,-0.0738067626953125
1686343541711886600,10.336886474609376,-0.1468658447265625,-0.9880218505859375,-0.0746307373046875
1686343541721906700,10.34690673828125,-0.1464996337890625,-1.0056304931640625,-0.0733795166015625
1686343541731925500,10.356925537109374,-0.1438446044921875,-1.0035552978515625,-0.076324462890625
1686343541741945600,10.366945556640625,-0.1428680419921875,-0.9974822998046875,-0.0807952880859375
1686343541751964700,10.376964599609375,-0.1470947265625,-1.0060272216796875,-0.0876007080078125
1686343541761984500,10.386984619140625,-0.1543731689453125,-1.0128631591796875,-0.0884246826171875
1686343541772004600,10.397004638671875,-0.1389312744140625,-0.998260498046875,-0.0679779052734375
1686343541782023700,10.407023681640625,-0.1212921142578125,-1.004547119140625,-0.024810791015625
1686343541792043800,10.417043701171876,-0.105194091796875,-1.0067596435546875,-0.061981201171875
1686343541802062600,10.4270625,-0.11785888671875,-0.9671630859375,-0.041717529296875
1686343541812082400,10.43708251953125,-0.1287994384765625,-0.9714202880859375,-0.014892578125
1686343541822102500,10.4471025390625,-0.1424560546875,-0.976776123046875,-0.0297393798828125
1686343541832121600,10.45712158203125,-0.1559600830078125,-0.976318359375,-0.0438995361328125
1686343541842141700,10.4671416015625,-0.154388427734375,-0.9793853759765625,-0.0435638427734375
1686343541852161500,10.47716162109375,-0.152252197265625,-0.975799560546875,-0.048828125
1686343541862180400,10.487180419921875,-0.160614013671875,-0.9809112548828125,-0.0556640625
1686343541872200400,10.497200439453126,-0.1724853515625,-0.973175048828125,-0.052490234375
1686343541882219500,10.507219482421876,-0.186553955078125,-0.9603118896484375,-0.0512237548828125
1686343541892239600,10.517239501953124,-0.2365875244140625,-0.9727935791015625,-0.0774383544921875
1686343541902259700,10.527259765625,-0.26519775390625,-0.979217529296875,-0.0650177001953125
1686343541912278500,10.537278564453125,-0.261444091796875,-0.9817962646484375,-0.055084228515625
1686343541922298600,10.547298583984375,-0.211761474609375,-0.944488525390625,-0.0411224365234375
1686343541932318700,10.557318603515625,-0.1527862548828125,-0.9391326904296875,-0.0233306884765625
1686343541942337500,10.567337646484376,-0.1383056640625,-0.9860687255859375,-0.0366058349609375
1686343541952357600,10.577357666015626,-0.1004180908203125,-0.9916229248046875,-0.0726165771484375
1686343541962376700,10.587376708984374,-0.071533203125,-0.9797210693359375,-0.0860137939453125
1686343541972396500,10.597396484375,-0.067626953125,-0.974212646484375,-0.0732879638671875
1686343541982416600,10.607416748046875,-0.0693359375,-0.979400634765625,-0.0579681396484375
1686343541992435700,10.617435791015625,-0.0670166015625,-0.9858856201171875,-0.0597686767578125
1686343542002455600,10.62745556640625,-0.0623016357421875,-0.9735260009765625,-0.062408447265625
1686343542012475400,10.637475341796875,-0.0738525390625,-0.9606475830078125,-0.0443267822265625
1686343542022494500,10.647494384765626,-0.1141204833984375,-0.9483489990234375,-0.0271453857421875
1686343542032514600,10.6575146484375,-0.1671905517578125,-0.9532318115234375,-0.0217437744140625
1686343542042533600,10.66753369140625,-0.19012451171875,-0.97076416015625,-0.049285888671875
1686343542052553700,10.6775537109375,-0.1668548583984375,-0.988311767578125,-0.1015472412109375
1686343542062573600,10.687573486328125,-0.1255035400390625,-1.00830078125,-0.15008544921875
1686343542072592400,10.69759228515625,-0.09100341796875,-1.0198822021484375,-0.182464599609375
1686343542082612500,10.707612548828125,-0.07196044921875,-1.034088134765625,-0.1984100341796875
1686343542092631600,10.717631591796875,-0.072967529296875,-1.037261962890625,-0.204193115234375
1686343542102651600,10.727651611328126,-0.0936279296875,-1.0249176025390625,-0.1981964111328125
1686343542112671500,10.73767138671875,-0.1170654296875,-1.0167388916015625,-0.17950439453125
1686343542122690600,10.747690673828124,-0.1331024169921875,-1.014801025390625,-0.1654052734375
1686343542132710700,10.757710693359375,-0.1374969482421875,-1.002532958984375,-0.158355712890625
1686343542142730500,10.76773046875,-0.1363983154296875,-0.9890594482421875,-0.14453125
1686343542152749600,10.77774951171875,-0.128021240234375,-0.9840240478515625,-0.1282196044921875
1686343542162769700,10.787769775390625,-0.1262054443359375,-0.9861907958984375,-0.1216888427734375
1686343542172788700,10.797788818359376,-0.122039794921875,-0.98876953125,-0.1286773681640625
1686343542182808600,10.80780859375,-0.1062774658203125,-0.9849090576171875,-0.139434814453125
1686343542192828700,10.81782861328125,-0.0030059814453125,-0.9843597412109375,-0.1432342529296875
1686343542202847500,10.827847412109374,0.136993408203125,-1.022430419921875,-0.1582183837890625
1686343542212867600,10.83786767578125,0.0233001708984375,-1.0327606201171875,-0.1491241455078125
1686343542222886700,10.84788671875,-0.019683837890625,-1.0008392333984375,-0.156341552734375
1686343542232906500,10.857906494140625,-0.092041015625,-1.0010528564453125,-0.1517791748046875
1686343542242926600,10.867926513671875,-0.1506195068359375,-1.0055084228515625,-0.1440277099609375
1686343542252945700,10.877945556640626,-0.1868896484375,-1.008331298828125,-0.156463623046875
1686343542262965800,10.8879658203125,-0.2004852294921875,-1.015045166015625,-0.172637939453125
1686343542272985600,10.897985595703124,-0.1818084716796875,-1.0141448974609375,-0.1799163818359375
1686343542283004400,10.90800439453125,-0.1624298095703125,-1.021484375,-0.183441162109375
1686343542293024500,10.9180244140625,-0.14923095703125,-1.0235595703125,-0.1911468505859375
1686343542303044600,10.928044677734375,-0.14764404296875,-1.0166473388671875,-0.1954345703125
1686343542313063700,10.938063720703125,-0.14794921875,-1.0048065185546875,-0.1823577880859375
1686343542323083500,10.94808349609375,-0.145172119140625,-0.9909515380859375,-0.1505126953125
1686343542333102600,10.9581025390625,-0.139556884765625,-0.9836578369140625,-0.1201324462890625
1686343542343122400,10.968122314453124,-0.126617431640625,-0.9833221435546875,-0.1005096435546875
1686343542353142500,10.978142578125,-0.11322021484375,-0.982177734375,-0.09033203125
1686343542363161600,10.98816162109375,-0.0995635986328125,-0.9830322265625,-0.0883941650390625
1686343542373181700,10.998181640625,-0.0914154052734375,-0.98828125,-0.09246826171875
1686343542383201500,11.008201416015625,-0.089019775390625,-0.9951171875,-0.1021270751953125
1686343542393220600,11.018220703125,-0.087310791015625,-0.9964752197265625,-0.1097564697265625
1686343542403240700,11.02824072265625,-0.0910491943359375,-0.993896484375,-0.110076904296875
1686343542413259500,11.038259521484376,-0.0973358154296875,-0.9928131103515625,-0.1042327880859375
1686343542423279600,11.048279541015624,-0.1017913818359375,-0.9864959716796875,-0.09857177734375
1686343542433299500,11.058299560546875,-0.1058197021484375,-0.9878692626953125,-0.0951080322265625
1686343542443318500,11.068318603515625,-0.1164703369140625,-0.9871826171875,-0.097686767578125
1686343542453338600,11.078338623046875,-0.1288299560546875,-0.98724365234375,-0.101104736328125
1686343542463357700,11.088357666015625,-0.1317596435546875,-0.989837646484375,-0.1041259765625
1686343542473377500,11.09837744140625,-0.1335296630859375,-0.9856719970703125,-0.1031494140625
1686343542483397400,11.1083974609375,-0.1361083984375,-0.9738616943359375,-0.08697509765625
1686343542493416400,11.11841650390625,-0.13861083984375,-0.9671173095703125,-0.0559844970703125
1686343542503436500,11.1284365234375,-0.1423797607421875,-0.9637451171875,-0.0290985107421875
1686343542513456600,11.13845654296875,-0.1491241455078125,-0.9576568603515625,-0.013397216796875
1686343542523475700,11.148475830078125,-0.1409149169921875,-0.955108642578125,-0.005462646484375
1686343542533495600,11.15849560546875,0.028839111328125,-0.9349212646484375,-0.0508880615234375
1686343542543514400,11.168514404296875,-0.090576171875,-1.0011138916015625,0.00604248046875
1686343542553534500,11.178534423828125,-0.0858306884765625,-0.9780120849609375,-0.0545196533203125
1686343542563554000,11.188553955078126,-0.0595855712890625,-0.972442626953125,-0.09051513671875
1686343542573573000,11.198572998046876,-0.09271240234375,-0.9998016357421875,-0.1134796142578125
1686343542583593200,11.20859326171875,-0.1123046875,-1.001129150390625,-0.1103363037109375
1686343542593613000,11.218613037109375,-0.1271209716796875,-1.0034942626953125,-0.087066650390625
1686343542603631900,11.2286318359375,-0.12982177734375,-1.0202789306640625,-0.0692291259765625
1686343542613652000,11.23865185546875,-0.1309661865234375,-1.017913818359375,-0.0639495849609375
1686343542623671000,11.248671142578125,-0.1370086669921875,-1.0019683837890625,-0.04052734375
1686343542633691100,11.258691162109375,-0.123504638671875,-0.9998626708984375,-0.0233612060546875
1686343542643711000,11.2687109375,-0.0781402587890625,-1.008148193359375,-0.0348663330078125
1686343542653730000,11.27872998046875,-0.0604400634765625,-1.0113983154296875,-0.04937744140625
1686343542663750100,11.288750244140624,-0.0542144775390625,-1.0040283203125,-0.055755615234375
1686343542673770200,11.298770263671875,-0.057373046875,-0.9877471923828125,-0.042510986328125
1686343542683789000,11.3087890625,-0.0792694091796875,-0.9804840087890625,-0.01434326171875
1686343542693809200,11.31880908203125,-0.10162353515625,-0.9910430908203125,-0.02484130859375
1686343542703829000,11.3288291015625,-0.0809173583984375,-0.9870758056640625,-0.0509033203125
1686343542713848000,11.33884814453125,-0.0899200439453125,-0.991546630859375,-0.0539093017578125
1686343542723868200,11.3488681640625,-0.112518310546875,-0.9898681640625,-0.05841064453125
1686343542733887200,11.35888720703125,-0.1301116943359375,-0.98773193359375,-0.065704345703125
1686343542743907000,11.368906982421874,-0.1345977783203125,-0.9943695068359375,-0.0538177490234375
1686343542753927000,11.378927001953125,-0.1251220703125,-0.9964599609375,-0.0423736572265625
1686343542763946000,11.388946044921875,-0.1106414794921875,-0.9971923828125,-0.0395355224609375
1686343542773966000,11.398966064453125,-0.1134185791015625,-0.98822021484375,-0.0336151123046875
1686343542783986200,11.408986083984376,-0.122467041015625,-0.9877166748046875,-0.0289154052734375
1686343542794005200,11.419005126953126,-0.128692626953125,-0.984466552734375,-0.0205078125
1686343542804025000,11.429025146484374,-0.1334686279296875,-0.9833831787109375,-0.0172882080078125
1686343542814045200,11.439045166015624,-0.13330078125,-0.981903076171875,-0.0186614990234375
1686343542824064000,11.44906396484375,-0.11834716796875,-0.9808349609375,-0.02496337890625
1686343542834084000,11.459083984375,-0.104766845703125,-0.98394775390625,-0.0304107666015625
1686343542844103200,11.469103271484375,-0.0993194580078125,-0.9936981201171875,-0.039947509765625
1686343542854123000,11.479123046875,-0.111419677734375,-0.9980621337890625,-0.0636138916015625
1686343542864143000,11.48914306640625,-0.122711181640625,-1.0001220703125,-0.06561279296875
1686343542874162200,11.499162109375,-0.121551513671875,-1.0041656494140625,-0.054962158203125
1686343542884182000,11.50918212890625,-0.1212005615234375,-0.9992828369140625,-0.041229248046875
1686343542894202000,11.5192021484375,-0.118072509765625,-0.99334716796875,-0.030670166015625
1686343542904221200,11.52922119140625,-0.122344970703125,-0.9926910400390625,-0.0221405029296875
1686343542914241000,11.539240966796875,-0.1349945068359375,-0.987640380859375,-0.0267486572265625
1686343542924260000,11.549260009765625,-0.1472015380859375,-0.98785400390625,-0.0353851318359375
1686343542934280200,11.5592802734375,-0.1470947265625,-0.989898681640625,-0.0352935791015625
1686343542944300300,11.56930029296875,-0.1368865966796875,-0.990020751953125,-0.0337677001953125
1686343542954319000,11.579319091796876,-0.129974365234375,-0.9936370849609375,-0.036041259765625
1686343542964339000,11.5893388671875,-0.12591552734375,-0.99835205078125,-0.0417022705078125
1686343542974359000,11.599359130859375,-0.1269073486328125,-0.9992828369140625,-0.0426788330078125
1686343542984378000,11.609378173828125,-0.124908447265625,-0.999267578125,-0.03533935546875
1686343542994398200,11.619398193359375,-0.1190643310546875,-0.99871826171875,-0.030853271484375
1686343543004418000,11.62941796875,-0.1159210205078125,-0.9961700439453125,-0.03662109375
1686343543014437000,11.63943701171875,-0.1192169189453125,-0.9965057373046875,-0.0428009033203125
1686343543024457000,11.64945703125,-0.1232757568359375,-0.994384765625,-0.045867919921875
1686343543034477000,11.65947705078125,-0.128265380859375,-0.9892425537109375,-0.0334625244140625
1686343543044496100,11.66949609375,-0.132110595703125,-0.9888916015625,-0.0226593017578125
1686343543054516000,11.679515869140625,-0.128509521484375,-0.994171142578125,-0.03253173828125
1686343543064535000,11.68953515625,-0.1313323974609375,-0.9940032958984375,-0.0404815673828125
1686343543074555100,11.69955517578125,-0.1378631591796875,-0.996551513671875,-0.0366668701171875
1686343543084575200,11.7095751953125,-0.1221771240234375,-0.999267578125,-0.0471954345703125
1686343543094594000,11.719593994140626,-0.1191558837890625,-0.9913330078125,-0.03216552734375
1686343543104614100,11.7296142578125,-0.1182403564453125,-0.9863433837890625,-0.0406341552734375
1686343543114634000,11.739634033203124,-0.1022796630859375,-0.9933013916015625,-0.0496673583984375
1686343543124653000,11.749653076171874,-0.100128173828125,-0.9948577880859375,-0.04425048828125
1686343543134673200,11.759673095703125,-0.1056365966796875,-0.9893951416015625,-0.04156494140625
1686343543144693200,11.769693359375,-0.11151123046875,-0.99188232421875,-0.0363616943359375
1686343543154712300,11.77971240234375,-0.1170196533203125,-0.9940643310546875,-0.037994384765625
1686343543164732000,11.78973193359375,-0.124237060546875,-0.9920196533203125,-0.039764404296875
1686343543174751000,11.7997509765625,-0.1341400146484375,-0.9929046630859375,-0.0417938232421875
1686343543184771000,11.80977099609375,-0.1424713134765625,-0.9948883056640625,-0.0522613525390625
1686343543194791200,11.819791259765625,-0.1462860107421875,-0.9952545166015625,-0.0500946044921875
1686343543204810200,11.829810302734375,-0.1453399658203125,-0.995849609375,-0.0400543212890625
1686343543214830000,11.839830078125,-0.137664794921875,-0.9947967529296875,-0.0411529541015625
1686343543224850200,11.84985009765625,-0.123626708984375,-0.9973907470703125,-0.043853759765625
1686343543234869000,11.859868896484375,-0.1141815185546875,-0.9944915771484375,-0.0429229736328125
1686343543244889000,11.86988916015625,-0.112823486328125,-0.9935302734375,-0.038238525390625
1686343543254909000,11.879908935546876,-0.116851806640625,-0.9931793212890625,-0.034912109375
1686343543264928000,11.889927978515624,-0.1213836669921875,-0.9918670654296875,-0.0324859619140625
1686343543274948000,11.899947998046875,-0.1263885498046875,-0.9942169189453125,-0.0384979248046875
1686343543284968200,11.90996826171875,-0.1360321044921875,-0.99383544921875,-0.04095458984375
1686343543294987000,11.919987060546875,-0.1435699462890625,-0.9937896728515625,-0.04132080078125
1686343543305007000,11.930007080078125,-0.1389007568359375,-0.9912109375,-0.04400634765625
1686343543315026000,11.94002587890625,-0.1261138916015625,-0.9959716796875,-0.041534423828125
1686343543325046000,11.9500458984375,-0.1163787841796875,-0.9992828369140625,-0.0287933349609375
1686343543335066000,11.960066162109374,-0.1155548095703125,-0.9927825927734375,-0.0382843017578125
1686343543345085200,11.970085205078124,-0.112030029296875,-0.99658203125,-0.0418243408203125
1686343543355105300,11.980105224609375,-0.1116180419921875,-0.9951019287109375,-0.0404205322265625
1686343543365125000,11.990125,-0.11328125,-0.993316650390625,-0.041107177734375
1686343543375144000,12.00014404296875,-0.123687744140625,-0.9912872314453125,-0.0478363037109375
1686343543385164000,12.0101640625,-0.1284027099609375,-0.989654541015625,-0.0502471923828125
1686343543395184000,12.02018408203125,-0.1321563720703125,-0.989044189453125,-0.0439453125
1686343543405203200,12.030203125,-0.1314544677734375,-0.988311767578125,-0.0453643798828125
1686343543415223000,12.04022314453125,-0.1271514892578125,-0.9927978515625,-0.0454559326171875
1686343543425243100,12.0502431640625,-0.124969482421875,-0.995758056640625,-0.040679931640625
1686343543435262000,12.060261962890625,-0.125579833984375,-0.9951934814453125,-0.0393524169921875
1686343543445282000,12.070281982421875,-0.12286376953125,-0.995361328125,-0.0378570556640625
1686343543455301000,12.080301025390625,-0.1212615966796875,-0.9978179931640625,-0.037139892578125
1686343543465321000,12.090321044921875,-0.1191864013671875,-0.997894287109375,-0.0427398681640625
1686343543475341000,12.100341064453126,-0.126251220703125,-0.9944305419921875,-0.0531768798828125
1686343543485360000,12.110360107421876,-0.13909912109375,-0.9936065673828125,-0.0535888671875
1686343543495380200,12.120380126953124,-0.1468353271484375,-0.990020751953125,-0.049835205078125
1686343543505400000,12.130400146484375,-0.1437530517578125,-0.9875335693359375,-0.0433807373046875
1686343543515419000,12.1404189453125,-0.1307830810546875,-0.991363525390625,-0.0391693115234375
1686343543525439000,12.15043896484375,-0.122833251953125,-0.9924163818359375,-0.0382232666015625
1686343543535459000,12.160458984375,-0.120361328125,-0.9942779541015625,-0.036895751953125
1686343543545478100,12.17047802734375,-0.1210784912109375,-0.997802734375,-0.039306640625
1686343543555498200,12.180498291015626,-0.1243743896484375,-0.998199462890625,-0.03863525390625
1686343543565518300,12.190518310546874,-0.1287078857421875,-0.9962615966796875,-0.0400390625
1686343543575537400,12.200537353515625,-0.1298675537109375,-0.9940948486328125,-0.0418853759765625
1686343543585557200,12.21055712890625,-0.127838134765625,-0.99365234375,-0.04327392578125
1686343543595577300,12.220577392578125,-0.1237030029296875,-0.99176025390625,-0.047637939453125
1686343543605596400,12.230596435546875,-0.122344970703125,-0.9915008544921875,-0.047607421875
1686343543615616300,12.2406162109375,-0.122711181640625,-0.991546630859375,-0.0444183349609375
1686343543625635300,12.25063525390625,-0.126556396484375,-0.9910430908203125,-0.0425262451171875
1686343543635655400,12.260655517578124,-0.1304168701171875,-0.991943359375,-0.042327880859375
1686343543645675500,12.270675537109375,-0.136138916015625,-0.9944000244140625,-0.044769287109375
1686343543655694300,12.2806943359375,-0.1392669677734375,-0.996246337890625,-0.04296875
1686343543665714200,12.290714111328125,-0.1356353759765625,-0.995880126953125,-0.0423126220703125
1686343543675734300,12.300734375,-0.1313629150390625,-0.994476318359375,-0.043975830078125
1686343543685753300,12.31075341796875,-0.1244659423828125,-0.9947967529296875,-0.0464630126953125
1686343543695773400,12.3207734375,-0.119598388671875,-0.99200439453125,-0.0415191650390625
1686343543705793300,12.330793212890624,-0.1159515380859375,-0.991180419921875,-0.040740966796875
1686343543715812400,12.340812255859374,-0.1164093017578125,-0.9912567138671875,-0.041168212890625
1686343543725832200,12.350832275390625,-0.1192474365234375,-0.9900970458984375,-0.04058837890625
1686343543735851300,12.360851318359375,-0.1196136474609375,-0.98822021484375,-0.039825439453125
1686343543745871400,12.370871337890625,-0.1205902099609375,-0.9878997802734375,-0.034759521484375
1686343543755891200,12.38089111328125,-0.124237060546875,-0.9917144775390625,-0.03350830078125
1686343543765910300,12.39091015625,-0.128692626953125,-0.99395751953125,-0.039947509765625
1686343543775930400,12.400930419921876,-0.1322174072265625,-0.995025634765625,-0.0447845458984375
1686343543785950500,12.410950439453124,-0.1297149658203125,-0.9985809326171875,-0.0461273193359375
1686343543795969300,12.42096923828125,-0.1311187744140625,-0.9994964599609375,-0.0460662841796875
1686343543805989400,12.4309892578125,-0.1349945068359375,-0.999908447265625,-0.0484771728515625
1686343543816009200,12.44100927734375,-0.13397216796875,-0.99932861328125,-0.0471343994140625
1686343543826028300,12.4510283203125,-0.134490966796875,-0.995880126953125,-0.04443359375
1686343543836048400,12.46104833984375,-0.1342926025390625,-0.993621826171875,-0.04376220703125
1686343543846068500,12.471068359375,-0.131591796875,-0.99615478515625,-0.043182373046875
1686343543856087600,12.481087646484376,-0.1273193359375,-0.9969482421875,-0.04193115234375
1686343543866107100,12.491107177734374,-0.1252288818359375,-0.9953460693359375,-0.0408935546875
1686343543876127200,12.501127197265625,-0.1258087158203125,-0.9918670654296875,-0.036712646484375
1686343543886146300,12.511146240234375,-0.12384033203125,-0.9912109375,-0.0377655029296875
1686343543896166400,12.52116650390625,-0.1195526123046875,-0.99066162109375,-0.039337158203125
1686343543906185500,12.531185546875,-0.117767333984375,-0.98876953125,-0.040802001953125
1686343543916205300,12.541205322265625,-0.115142822265625,-0.9877777099609375,-0.04254150390625
1686343543926225400,12.551225341796876,-0.1082611083984375,-0.987701416015625,-0.0433349609375
1686343543936244200,12.561244140625,-0.100372314453125,-0.9886474609375,-0.041534423828125
1686343543946264300,12.571264404296874,-0.1012725830078125,-0.9924774169921875,-0.0381622314453125
1686343543956284200,12.5812841796875,-0.1059112548828125,-0.9904327392578125,-0.04132080078125
1686343543966303200,12.59130322265625,-0.1130218505859375,-0.9924163818359375,-0.04534912109375
1686343543976323300,12.6013232421875,-0.120208740234375,-0.994354248046875,-0.039947509765625
1686343543986343400,12.611343505859375,-0.1265716552734375,-0.9958648681640625,-0.0386505126953125
1686343543996362500,12.621362548828126,-0.1317901611328125,-0.99603271484375,-0.0403289794921875
1686343544006382300,12.63138232421875,-0.136566162109375,-0.994140625,-0.0411376953125
1686343544016401400,12.6414013671875,-0.14434814453125,-0.9931793212890625,-0.0428009033203125
1686343544026421200,12.651421142578124,-0.1487579345703125,-0.99066162109375,-0.044281005859375
1686343544036441300,12.66144140625,-0.1457061767578125,-0.9925079345703125,-0.0423583984375
1686343544046460400,12.67146044921875,-0.1392822265625,-0.9925384521484375,-0.0394744873046875
1686343544056480500,12.68148046875,-0.1328582763671875,-0.99609375,-0.0409698486328125
1686343544066500400,12.691500244140625,-0.126556396484375,-0.9995269775390625,-0.0421905517578125
1686343544076519200,12.701519287109376,-0.1204986572265625,-0.999725341796875,-0.0406494140625
1686343544086539300,12.711539306640624,-0.119232177734375,-0.9985504150390625,-0.0403594970703125
1686343544096559400,12.721559326171874,-0.122467041015625,-0.995208740234375,-0.0390777587890625
1686343544106578400,12.731578369140625,-0.1268310546875,-0.9963531494140625,-0.0421600341796875
1686343544116598300,12.741598388671875,-0.13134765625,-0.99468994140625,-0.0460662841796875
1686343544126617300,12.751617431640625,-0.13421630859375,-0.9937744140625,-0.0489654541015625
1686343544136637400,12.761637451171875,-0.132293701171875,-0.990875244140625,-0.0526580810546875
1686343544146657300,12.7716572265625,-0.1343536376953125,-0.987518310546875,-0.0494384765625
1686343544156676400,12.78167626953125,-0.136383056640625,-0.9914398193359375,-0.048095703125
1686343544166696200,12.7916962890625,-0.13079833984375,-0.9957427978515625,-0.0461273193359375
1686343544176716300,12.80171630859375,-0.128326416015625,-0.9879608154296875,-0.0327301025390625
1686343544186735400,12.8117353515625,-0.1156768798828125,-0.9910888671875,-0.024444580078125
1686343544196755500,12.82175537109375,-0.09735107421875,-0.9973602294921875,-0.02593994140625
1686343544206774300,12.831774169921875,-0.0938568115234375,-0.9996490478515625,-0.03009033203125
1686343544216794400,12.84179443359375,-0.1119232177734375,-0.997772216796875,-0.0376434326171875
1686343544226814200,12.851814208984376,-0.1349334716796875,-0.9929656982421875,-0.0418701171875
1686343544236833300,12.861833251953126,-0.1436309814453125,-0.9901580810546875,-0.04974365234375
1686343544246853400,12.871853271484374,-0.1390838623046875,-0.9907684326171875,-0.054443359375
1686343544256873500,12.88187353515625,-0.125518798828125,-0.99102783203125,-0.0487213134765625
1686343544266892500,12.891892578125,-0.1161346435546875,-0.990631103515625,-0.0410614013671875
1686343544276912400,12.901912353515625,-0.110137939453125,-0.9907379150390625,-0.03839111328125
1686343544286931200,12.91193115234375,-0.109039306640625,-0.9938812255859375,-0.04052734375
