"Time (s)","Acceleration x (m/s^2)","Acceleration y (m/s^2)","Acceleration z (m/s^2)"
3.324053800E-2,-4.054936886E0,-1.641805267E1,-1.406381488E0
3.576866300E-2,-4.263411522E0,-1.674856186E1,-1.198205948E0
3.829121500E-2,-4.359423637E0,-1.696182251E1,-9.681958556E-1
4.081652700E-2,-4.457529545E0,-1.710539246E1,-7.932206988E-1
4.334189200E-2,-4.397708893E0,-1.719661903E1,-6.014958024E-1
4.586720500E-2,-4.234697819E0,-1.720379639E1,-4.555336237E-1
4.839256900E-2,-3.983152390E0,-1.715594101E1,-2.709871531E-1
5.095736100E-2,-3.604787350E0,-1.706232071E1,-1.537388563E-1
5.348272500E-2,-3.128017426E0,-1.689960861E1,-9.122636169E-2
5.606397500E-2,-2.684746981E0,-1.669831276E1,-5.054837838E-2
5.858928800E-2,-2.162513494E0,-1.654487228E1,-5.533402413E-2
6.111460000E-2,-1.686042666E0,-1.648266029E1,-7.686942816E-2
6.363996500E-2,-1.328913927E0,-1.639173317E1,-1.007976532E-1
6.364001700E-2,-9.385846853E-1,-1.635823250E1,-1.103689447E-1
6.863663200E-2,-6.607181430E-1,-1.637737465E1,-9.122636169E-2
7.116199600E-2,-5.335994363E-1,-1.641087532E1,-9.870393202E-3
7.368543400E-2,-4.689932466E-1,-1.648266029E1,6.669992954E-2
7.621079800E-2,-4.809573591E-1,-1.646830368E1,8.105687052E-2
7.876361100E-2,-6.415755749E-1,-1.642283821E1,1.405783277E-2
8.131637100E-2,-7.707880139E-1,-1.628614998E1,-1.489532143E-1
8.384173600E-2,-9.002995491E-1,-1.608036613E1,-3.547359705E-1
8.635939200E-2,-1.098903775E0,-1.576630878E1,-5.297111273E-1
8.892913200E-2,-1.285843015E0,-1.534487247E1,-7.334001660E-1
9.136559000E-2,-1.520638824E0,-1.486810303E1,-1.066301584E0
9.389090200E-2,-1.760220170E0,-1.437458324E1,-1.315454245E0
9.641626700E-2,-2.038086653E0,-1.386431313E1,-1.607677698E0
9.899220500E-2,-2.268096685E0,-1.333490181E1,-1.859223247E0
1.014669440E-1,-2.543570518E0,-1.283659649E1,-2.113161564E0
1.039922570E-1,-2.775973320E0,-1.233858967E1,-2.359921217E0
1.065176210E-1,-2.883650303E0,-1.192164040E1,-2.568396091E0
1.090429340E-1,-2.960220814E0,-1.157198906E1,-2.786142826E0
1.115682980E-1,-3.070589542E0,-1.127498055E1,-2.977867842E0
1.140936630E-1,-3.092125177E0,-1.102582741E1,-3.198306561E0
1.166603820E-1,-3.065804005E0,-1.083888817E1,-3.385245800E0
1.192003820E-1,-3.087339401E0,-1.077667522E1,-3.586242914E0
1.216696520E-1,-3.123231649E0,-1.070728302E1,-3.785146236E0
1.241949650E-1,-3.132802963E0,-1.064955616E1,-3.938585997E0
1.267203300E-1,-3.137588739E0,-1.065912724E1,-4.173381805E0
1.293230900E-1,-3.135195971E0,-1.062802124E1,-4.367200375E0
1.317710070E-1,-3.080160856E0,-1.059691429E1,-4.570889473E0
1.342963190E-1,-3.025125980E0,-1.059212875E1,-4.796113968E0
1.368216840E-1,-2.967399120E0,-1.056580734E1,-5.023731232E0
1.393469960E-1,-2.893221617E0,-1.058734322E1,-5.299204826E0
1.418723610E-1,-2.888436079E0,-1.051795101E1,-5.555535793E0
1.443977250E-1,-2.886043310E0,-1.048684406E1,-5.835795403E0
1.469230380E-1,-2.909971476E0,-1.050837994E1,-6.096911907E0
1.494483500E-1,-2.924328327E0,-1.050359440E1,-6.319743633E0
1.519737150E-1,-2.960220814E0,-1.048445129E1,-6.513562202E0
1.544990270E-1,-2.945863724E0,-1.048205853E1,-6.710072994E0
1.570243920E-1,-2.969791889E0,-1.052512932E1,-6.885047913E0
1.595497570E-1,-2.919542789E0,-1.054666519E1,-7.057331085E0
1.620750690E-1,-2.917150021E0,-1.053709316E1,-7.201199532E0
1.646003820E-1,-3.000898600E0,-1.064716339E1,-7.304090977E0
1.671257460E-1,-3.061018467E0,-1.075274658E1,-7.464709282E0
1.696510590E-1,-3.070589542E0,-1.093460083E1,-7.565207958E0
1.721764230E-1,-3.111267567E0,-1.112632656E1,-7.730611801E0
1.747017360E-1,-3.223730326E0,-1.135633659E1,-7.886444569E0
1.772271000E-1,-3.230908871E0,-1.161984539E1,-8.049156189E0
1.797524650E-1,-3.247658491E0,-1.185703468E1,-8.108976364E0
1.822777770E-1,-3.247658491E0,-1.216122246E1,-8.094619751E0
1.848030900E-1,-3.242872953E0,-1.250130177E1,-8.053941727E0
1.873284550E-1,-3.216551781E0,-1.286560917E1,-7.915158272E0
1.898537670E-1,-3.125624657E0,-1.321765327E1,-7.649255753E0
1.923791320E-1,-2.991327524E0,-1.354337597E1,-7.339983463E0
1.949044440E-1,-2.737389088E0,-1.387627792E1,-6.964011192E0
1.974298090E-1,-2.569891453E0,-1.409671593E1,-6.523133755E0
1.999551730E-1,-2.404487610E0,-1.425015640E1,-6.049055576E0
2.024804860E-1,-2.155334949E0,-1.442722511E1,-5.536393166E0
2.050057980E-1,-1.879861236E0,-1.458545017E1,-4.913362026E0
2.075311630E-1,-1.712363720E0,-1.468834209E1,-4.273880482E0
2.100564750E-1,-1.551745534E0,-1.472931862E1,-3.701397419E0
2.125818400E-1,-1.338485122E0,-1.476281834E1,-2.901297569E0
2.151071520E-1,-1.012762189E0,-1.488724518E1,-2.189731836E0
2.176325170E-1,-6.655037999E-1,-1.495903015E1,-1.749153376E0
2.201578300E-1,-4.881358147E-1,-1.491595936E1,-1.258026481E0
2.226831940E-1,-3.469592929E-1,-1.483699608E1,-6.062814593E-1
2.252085590E-1,-2.006980032E-1,-1.459262848E1,-1.800599098E-1
2.277338710E-1,1.495514158E-2,-1.428604889E1,4.286143482E-1
2.302591840E-1,3.957130313E-1,-1.408235931E1,1.463211060E0
2.327845480E-1,8.892326951E-1,-1.381406403E1,1.602293849E0
2.353098610E-1,1.279860973E0,-1.357448292E1,1.633400559E0
2.378352250E-1,1.500000715E0,-1.332293701E1,1.856232166E0
2.403605900E-1,1.696511269E0,-1.299960709E1,2.112563372E0
2.428858500E-1,1.809273005E0,-1.273131180E1,2.169991016E0
2.454112150E-1,1.986341953E0,-1.246062374E1,2.284846544E0
2.479365800E-1,2.038984060E0,-1.214447212E1,2.205883265E0
2.504618920E-1,1.936092615E0,-1.178524971E1,2.038385868E0
2.529872570E-1,1.840379715E0,-1.139940739E1,2.040778637E0
2.555125690E-1,1.893021822E0,-1.107846928E1,2.306680918E0
2.580379340E-1,1.900200248E0,-1.081735325E1,2.704188585E0
2.605632460E-1,1.936092615E0,-1.060887814E1,3.113959551E0
2.630886110E-1,1.919342875E0,-1.045095158E1,3.533002615E0
2.656139230E-1,1.893021822E0,-1.035015392E1,4.167997837E0
2.681392360E-1,1.842772484E0,-1.013928699E1,4.493721008E0
2.706646000E-1,1.713261008E0,-9.964611053E0,4.431507587E0
2.731899130E-1,1.660618901E0,-9.717850685E0,4.404887199E0
2.757152770E-1,1.562513232E0,-9.576375008E0,4.433900356E0
2.782405900E-1,1.500000715E0,-9.514162064E0,4.426422596E0
2.807659550E-1,1.394716501E0,-9.423234940E0,4.385744572E0
2.832912670E-1,1.157527924E0,-9.312865257E0,4.254139423E0
2.858166320E-1,9.394819736E-1,-9.150154114E0,3.945166349E0
2.883419440E-1,7.719843984E-1,-9.025427818E0,3.509074450E0
2.908673090E-1,6.113662124E-1,-8.922536850E0,2.965305567E0
2.933926210E-1,4.893322289E-1,-8.853144646E0,2.354537487E0
2.959179860E-1,3.717848063E-1,-8.761918068E0,1.621436477E0
2.984432980E-1,1.537388563E-1,-8.678169250E0,8.213363886E-1
3.009686630E-1,-3.050848842E-2,-8.543871880E0,2.841476910E-2
3.034939750E-1,-2.533400953E-1,-8.510373116E0,-7.262216806E-1
3.060193400E-1,-4.546363056E-1,-8.515158653E0,-1.365703583E0
3.085446520E-1,-7.037889361E-1,-8.407481194E0,-2.019841433E0
3.110700170E-1,-9.194421172E-1,-8.431409836E0,-2.554039001E0
3.135953300E-1,-1.156630635E0,-8.405088425E0,-2.781357288E0
3.161206940E-1,-1.355234981E0,-8.151150703E0,-2.934797049E0
3.186460070E-1,-1.451246977E0,-7.935497284E0,-3.069094181E0
3.211713710E-1,-1.674078584E0,-7.628916740E0,-3.169592619E0
3.236966840E-1,-1.971087694E0,-7.209574699E0,-3.332304716E0
3.262220480E-1,-2.299203396E0,-6.788138866E0,-3.507279873E0
3.287473610E-1,-2.663211584E0,-6.297011852E0,-3.758825302E0
3.312727250E-1,-2.854936600E0,-5.825027466E0,-4.082155228E0
3.337980380E-1,-3.020340443E0,-5.358128071E0,-4.336093903E0
3.363233500E-1,-3.125624657E0,-4.996213913E0,-4.580460548E0
3.388487150E-1,-3.211766243E0,-4.701597214E0,-4.841577530E0
3.413740800E-1,-3.293421268E0,-4.433301926E0,-5.059623718E0
3.438993920E-1,-3.446561813E0,-4.191328049E0,-5.148158073E0
3.464247050E-1,-3.549752474E0,-4.076472282E0,-5.292026520E0
3.489500690E-1,-3.621536970E0,-3.968496323E0,-5.457130909E0
3.514753820E-1,-3.724428415E0,-3.827319860E0,-5.474180222E0
3.540007460E-1,-3.774677753E0,-3.726522207E0,-5.387739182E0
3.565260590E-1,-3.757927895E0,-3.661916018E0,-5.157729149E0
3.590514230E-1,-3.741178274E0,-3.590131283E0,-4.781756878E0
3.615767360E-1,-3.678964853E0,-3.523132324E0,-4.316951275E0
3.641020480E-1,-3.539881945E0,-3.511168242E0,-3.742075443E0
3.666274130E-1,-3.432204962E0,-3.527917862E0,-3.210270643E0
3.691527250E-1,-3.300599813E0,-3.499203920E0,-2.623430967E0
3.716780900E-1,-3.262015581E0,-3.496811152E0,-2.050948143E0
3.742034550E-1,-3.187838078E0,-3.518346548E0,-1.622034669E0
3.767287670E-1,-3.202194929E0,-3.494418383E0,-1.279561877E0
3.792540800E-1,-3.171088219E0,-3.463012457E0,-9.993025661E-1
3.817794440E-1,-3.166302681E0,-3.386442184E0,-8.817551732E-1
3.843048090E-1,-3.187838078E0,-3.362514019E0,-8.027920127E-1
3.868301210E-1,-3.199802160E0,-3.384049416E0,-6.927221417E-1
3.893554340E-1,-3.254837036E0,-3.300300598E0,-6.783652306E-1
3.918807980E-1,-3.307778120E0,-3.259622574E0,-7.429714203E-1
3.944061110E-1,-3.314956665E0,-3.173182011E0,-8.602197170E-1
3.969314750E-1,-3.336492062E0,-3.110968590E0,-1.035194874E0
3.994567880E-1,-3.527917862E0,-3.079861879E0,-1.212562919E0
4.019821520E-1,-3.549752474E0,-3.120539904E0,-1.325025558E0
4.045074650E-1,-3.604787350E0,-3.151646614E0,-1.471286774E0
4.070328300E-1,-3.659822226E0,-3.245265722E0,-1.645962834E0
4.095581420E-1,-3.786641836E0,-3.271586657E0,-1.775474429E0
4.120835070E-1,-3.863511324E0,-3.273979664E0,-1.816152334E0
4.146088190E-1,-3.877868176E0,-3.364906788E0,-1.878365755E0
4.171341840E-1,-3.856332779E0,-3.434298754E0,-1.962114573E0
4.196594960E-1,-3.777070522E0,-3.561417341E0,-1.964507341E0
4.221848090E-1,-3.729214191E0,-3.702594042E0,-1.931007862E0
4.247101730E-1,-3.702893019E0,-3.841676712E0,-2.038984060E0
4.272354860E-1,-3.753142357E0,-3.939782381E0,-2.208874464E0
4.297608500E-1,-3.676572084E0,-4.088436604E0,-2.239981174E0
4.322861630E-1,-3.616751432E0,-4.251148701E0,-2.326421738E0
4.348115270E-1,-3.638286829E0,-4.371088982E0,-2.359921217E0
4.373368400E-1,-3.597608805E0,-4.533800602E0,-2.369492531E0
4.398622050E-1,-3.544667721E0,-4.656133652E0,-2.388635159E0
4.423875170E-1,-3.451347589E0,-4.816452980E0,-2.362314224E0
4.449128820E-1,-3.425026417E0,-4.862215519E0,-2.297708035E0
4.474381940E-1,-3.396312714E0,-4.905286312E0,-2.271386862E0
4.499635590E-1,-3.298206806E0,-4.972285271E0,-2.153839588E0
4.524888710E-1,-3.310171127E0,-4.962714195E0,-2.098804474E0
4.550141840E-1,-3.209373474E0,-4.886143684E0,-2.127518415E0
4.575395480E-1,-3.183052301E0,-4.838287354E0,-2.115554333E0
4.600648610E-1,-3.187838078E0,-4.665705204E0,-2.062912226E0
4.625902250E-1,-3.262015581E0,-4.471587181E0,-2.048555374E0
4.651155380E-1,-3.250051260E0,-4.414159775E0,-2.031805515E0
4.676409020E-1,-3.355634689E0,-4.272684097E0,-2.031805515E0
4.701662150E-1,-3.386741400E0,-4.129114628E0,-2.156232357E0
4.726915800E-1,-3.470490217E0,-4.028615952E0,-2.268994093E0
4.752168920E-1,-3.595216036E0,-3.887140274E0,-2.412563324E0
4.777422570E-1,-3.700500250E0,-3.753142357E0,-2.606681108E0
4.802675690E-1,-3.800998688E0,-3.683451414E0,-2.783750057E0
4.827929340E-1,-4.023830414E0,-3.527917862E0,-3.018545866E0
4.853182460E-1,-4.179663181E0,-3.329014540E0,-3.217449188E0
4.878435590E-1,-4.366602421E0,-3.168396235E0,-3.416352510E0
4.903689230E-1,-4.610670090E0,-3.084647417E0,-3.569493294E0
4.928942360E-1,-4.644468784E0,-2.991327524E0,-3.687040567E0
4.954196000E-1,-4.713860512E0,-2.900100946E0,-3.837788343E0
4.979449130E-1,-4.771288395E0,-2.823530674E0,-3.921836376E0
5.004702250E-1,-4.792823792E0,-2.828316450E0,-4.019941807E0
5.029955900E-1,-4.792823792E0,-2.749353170E0,-4.173381805E0
5.055209550E-1,-4.800002098E0,-2.727817774E0,-4.288237095E0
5.080462670E-1,-4.771288395E0,-2.801995277E0,-4.441677094E0
5.105715800E-1,-4.622933388E0,-2.895315409E0,-4.616353035E0
5.130969440E-1,-4.457529545E0,-2.998505831E0,-4.796113968E0
5.155038710E-1,-4.306482315E0,-3.144468069E0,-4.995017052E0
5.181476210E-1,-4.112663746E0,-3.240479946E0,-5.138586521E0
5.206729340E-1,-3.987937927E0,-3.388834953E0,-5.339882851E0
5.231982980E-1,-3.908974886E0,-3.515953779E0,-5.469095230E0
5.257236110E-1,-3.841975927E0,-3.587738514E0,-5.565107346E0
5.282489230E-1,-3.812962770E0,-3.731307745E0,-5.670391560E0
5.307742880E-1,-3.803391695E0,-3.791427374E0,-5.708676815E0
5.332996520E-1,-3.815654755E0,-3.834498405E0,-5.795117378E0
5.358249650E-1,-3.844368696E0,-3.973282099E0,-5.957829475E0
5.383503300E-1,-3.892225027E0,-4.006781578E0,-6.092126369E0
5.408756420E-1,-3.863511324E0,-4.112364769E0,-6.295815468E0
5.434009550E-1,-3.868296862E0,-4.198506355E0,-6.568896294E0
5.459263190E-1,-3.885046721E0,-4.296911240E0,-6.913762093E0
5.484516320E-1,-3.858725548E0,-4.289732933E0,-7.287341595E0
5.510953300E-1,-3.839582920E0,-4.349553585E0,-7.701898098E0
5.536206940E-1,-3.805784464E0,-4.359124660E0,-8.092226982E0
5.561460590E-1,-3.724428415E0,-4.366302967E0,-8.233702660E0
5.586713710E-1,-3.674179077E0,-4.272684097E0,-8.202595711E0
5.611967360E-1,-3.511168242E0,-4.313661098E0,-8.101798058E0
5.637220480E-1,-3.291028500E0,-4.378267288E0,-7.888837337E0
5.662473610E-1,-3.063411236E0,-4.399802685E0,-7.596314430E0
5.687727250E-1,-2.938685417E0,-4.438087940E0,-6.997510910E0
5.712980380E-1,-2.828615427E0,-4.488337040E0,-6.647859573E0
5.738234020E-1,-2.749652386E0,-4.488337040E0,-6.743572235E0
5.763487150E-1,-2.656033039E0,-4.574777603E0,-6.796214581E0
5.788740270E-1,-2.708675146E0,-4.610670090E0,-6.844369888E0
5.813993920E-1,-2.929114103E0,-4.615455627E0,-7.062117100E0
5.839247570E-1,-3.417848110E0,-4.579563618E0,-7.642077446E0
5.864895480E-1,-4.100699902E0,-4.562813759E0,-8.669495583E0
5.889754340E-1,-4.840680122E0,-4.591527462E0,-1.002562809E1
5.915007460E-1,-5.624030590E0,-4.794917583E0,-1.126391315E1
5.940260590E-1,-6.335596085E0,-5.159224510E0,-1.213579845E1
5.965514230E-1,-6.848258495E0,-5.506483078E0,-1.222463131E1
5.990767360E-1,-7.090232372E0,-5.860919952E0,-1.150588799E1
6.016021000E-1,-7.042376041E0,-6.371189594E0,-1.011176968E1
6.041274130E-1,-6.979863644E0,-7.149754047E0,-8.178668022E0
6.066527770E-1,-6.857829571E0,-8.292326927E0,-6.111268997E0
6.091780900E-1,-6.845865726E0,-9.720243454E0,-4.925326347E0
6.117034020E-1,-7.173981190E0,-1.128215885E1,-4.961517811E0
6.142682460E-1,-7.650751114E0,-1.287518024E1,-6.286244392E0
6.167541320E-1,-8.141878128E0,-1.451366615E1,-8.573782921E0
6.192794440E-1,-8.886644363E0,-1.635344696E1,-1.132134151E1
6.218047570E-1,-9.624530792E0,-1.836311913E1,-1.370489216E1
6.243305900E-1,-1.032891846E1,-2.040898323E1,-1.511605930E1
6.268564230E-1,-1.098036385E1,-2.236361885E1,-1.552074528E1
6.293822050E-1,-1.129172993E1,-2.418665123E1,-1.479003716E1
6.319080380E-1,-1.074556828E1,-2.599293327E1,-1.289522076E1
6.344338710E-1,-9.260522842E0,-2.723600388E1,-9.929615974E0
6.369596520E-1,-7.392027378E0,-2.745165825E1,-6.518348217E0
6.394854860E-1,-5.271986485E0,-2.646222496E1,-3.267698526E0
6.420113190E-1,-3.061018467E0,-2.409333038E1,-5.584250093E-1
6.445371000E-1,-7.660023570E-1,-2.098625183E1,1.408176184E0
6.470629340E-1,9.035896659E-1,-1.794407654E1,2.553141832E0
6.495887670E-1,1.866700768E0,-1.499522114E1,2.644368172E0
6.521087670E-1,2.149353027E0,-1.216361523E1,1.817947030E0
6.546346000E-1,1.943271041E0,-9.585947037E0,6.152545214E-1
6.571604340E-1,1.466501236E0,-7.178467751E0,-4.292125702E-1
6.596862150E-1,8.820542693E-1,-5.171188831E0,-1.377667665E0
6.622120480E-1,2.210369855E-1,-3.415156126E0,-2.038984060E0
6.647378820E-1,-3.876372576E-1,-1.906182289E0,-2.407777786E0
6.672636630E-1,-9.625129104E-1,-7.082754970E-1,-2.649751902E0
6.697894960E-1,-1.568495274E0,1.301097274E-1,-2.867797852E0
6.723153300E-1,-2.126621008E0,6.906284094E-1,-3.270091295E0
6.748411110E-1,-2.696711063E0,1.054636598E0,-3.976871252E0
6.773669440E-1,-3.233301640E0,1.205683470E0,-4.810471058E0
6.798927770E-1,-3.743571043E0,1.138684511E0,-5.548357487E0
6.824128300E-1,-4.074079514E0,8.871390224E-1,-5.926722527E0
6.849386630E-1,-4.136591911E0,4.773681164E-1,-5.991328716E0
6.874644960E-1,-4.009473324E0,1.229312643E-1,-5.787939072E0
6.899902770E-1,-3.818047523E0,-2.724826932E-1,-5.284847736E0
6.925161110E-1,-3.640679598E0,-6.364908218E-1,-4.578067780E0
6.950419440E-1,-3.415455103E0,-9.430712461E-1,-3.754039526E0
6.975677250E-1,-3.273979664E0,-1.299900889E0,-3.018545866E0
7.000935590E-1,-3.173480988E0,-1.743171334E0,-2.450848579E0
7.026193920E-1,-3.080160856E0,-2.315654039E0,-1.950150490E0
7.051451730E-1,-3.037090063E0,-2.955435038E0,-1.703390598E0
7.076710070E-1,-3.008077145E0,-3.592524052E0,-1.622034669E0
7.101968400E-1,-3.027518749E0,-4.392624378E0,-1.705783486E0
7.127168400E-1,-3.178266764E0,-5.190331459E0,-1.940579176E0
7.152426730E-1,-3.300599813E0,-5.992824078E0,-2.347957134E0
7.177685070E-1,-3.468097210E0,-6.757031918E0,-2.819941521E0
7.202942880E-1,-3.671786308E0,-7.485048294E0,-3.188735247E0
7.228201210E-1,-3.861118555E0,-8.263612747E0,-3.612863064E0
7.253459550E-1,-4.028615952E0,-9.015856743E0,-3.991228104E0
7.278717360E-1,-4.158127785E0,-9.803992271E0,-4.340879440E0
7.303975690E-1,-4.186841488E0,-1.059930706E1,-4.558925152E0
7.329234020E-1,-4.100699902E0,-1.143769264E1,-4.702793598E0
7.354491840E-1,-3.975973845E0,-1.223061371E1,-4.793721199E0
7.379750170E-1,-3.853940010E0,-1.299242878E1,-4.820042133E0
7.405008500E-1,-3.607180119E0,-1.371356583E1,-4.640281200E0
7.430209020E-1,-3.221337557E0,-1.435304737E1,-4.501497746E0
7.455467360E-1,-2.732603550E0,-1.501914978E1,-4.228416920E0
7.480725690E-1,-2.210669041E0,-1.551954842E1,-3.873979807E0
7.505983500E-1,-1.649851203E0,-1.580249977E1,-3.512065411E0
7.531241840E-1,-1.067797065E0,-1.587907028E1,-3.114557743E0
7.556500170E-1,-4.809573591E-1,-1.586471367E1,-2.659323215E0
7.581757980E-1,1.256231871E-2,-1.566820240E1,-2.254338026E0
7.607016320E-1,4.603192508E-1,-1.530658722E1,-1.878365755E0
7.632274650E-1,7.815557122E-1,-1.493988705E1,-1.638784409E0
7.657532460E-1,9.993025661E-1,-1.448495197E1,-1.435095429E0
7.682790800E-1,1.088136077E0,-1.393879032E1,-1.334596872E0
7.708049130E-1,1.059422255E0,-1.341177082E1,-1.380060434E0
7.733249130E-1,9.897312522E-1,-1.280070400E1,-1.528714538E0
7.758507460E-1,9.035896659E-1,-1.227847004E1,-1.734796405E0
7.783765800E-1,8.174480200E-1,-1.172513008E1,-1.854437590E0
7.809023610E-1,7.432705164E-1,-1.119332504E1,-2.038984060E0
7.834281940E-1,7.286145091E-1,-1.074796104E1,-2.175374985E0
7.859540270E-1,6.807580590E-1,-1.037647533E1,-2.280958176E0
7.884798090E-1,6.065805554E-1,-1.008903790E1,-2.410170555E0
7.910056420E-1,5.204389095E-1,-9.885348320E0,-2.513062000E0
7.935314750E-1,4.004986882E-1,-9.701101303E0,-2.611466885E0
7.960572570E-1,2.952145040E-1,-9.564411163E0,-2.695215702E0
7.985830900E-1,7.477571070E-2,-9.418449402E0,-2.783750057E0
8.011089230E-1,-1.217348501E-1,-9.392127991E0,-2.951546669E0
8.036289750E-1,-3.876372576E-1,-9.310472488E0,-3.097808123E0
8.061548090E-1,-6.032904387E-1,-9.198010445E0,-3.241377354E0
8.086806420E-1,-7.875377536E-1,-9.166903496E0,-3.246163130E0
8.112064230E-1,-9.960124493E-1,-9.107083321E0,-3.279662609E0
8.137322570E-1,-1.137488008E0,-9.119047165E0,-3.181556702E0
8.162580900E-1,-1.235593796E0,-9.116654396E0,-3.100200891E0
8.187838710E-1,-1.381555915E0,-9.131011009E0,-3.100200891E0
8.213097050E-1,-1.482353687E0,-9.131011009E0,-3.081058264E0
8.238355380E-1,-1.621137381E0,-9.131011009E0,-3.037688255E0
8.263613190E-1,-1.760220170E0,-9.094820023E0,-3.028116941E0
8.288871520E-1,-1.817647934E0,-9.097212791E0,-3.032902718E0
8.314129860E-1,-1.851147413E0,-9.097212791E0,-3.037688255E0
8.339329860E-1,-1.796112537E0,-9.073284149E0,-3.013760090E0
8.364588190E-1,-1.760220170E0,-9.027820587E0,-2.951546669E0
8.389846520E-1,-1.760220170E0,-8.956035614E0,-2.817548752E0
8.415104340E-1,-1.846361756E0,-8.860322952E0,-2.678465843E0
8.440362670E-1,-2.004587173E0,-8.747561455E0,-2.558824778E0
8.465621000E-1,-2.126621008E0,-8.702097893E0,-2.484348059E0
8.490878820E-1,-2.210669041E0,-8.599205971E0,-2.525026083E0
8.516137150E-1,-2.299203396E0,-8.481658936E0,-2.537289381E0
8.541395480E-1,-2.397309303E0,-8.357232094E0,-2.493919373E0
8.566653300E-1,-2.471486807E0,-8.254041672E0,-2.436491728E0
8.591911630E-1,-2.483749866E0,-8.127222061E0,-2.338385820E0
8.617169960E-1,-2.361416817E0,-8.060222626E0,-2.206481695E0
8.642370480E-1,-2.308774710E0,-7.968996525E0,-2.161017895E0
8.667628820E-1,-2.253739834E0,-7.909176350E0,-2.122732878E0
8.692887150E-1,-2.148156643E0,-7.899604797E0,-2.034198284E0
8.718144960E-1,-2.176870346E0,-7.880462170E0,-1.988435626E0
8.743403300E-1,-2.090728760E0,-7.885247707E0,-1.875972986E0
8.768661630E-1,-1.927717686E0,-7.868498325E0,-1.816152334E0
8.793919440E-1,-1.930110574E0,-7.849355698E0,-1.732403636E0
8.819177770E-1,-2.004587173E0,-7.777570724E0,-1.624427438E0
8.844436110E-1,-2.066800594E0,-7.722237110E0,-1.471286774E0
8.869693920E-1,-2.186441660E0,-7.683951855E0,-1.401595831E0
8.894952250E-1,-2.275275230E0,-7.573882103E0,-1.241276741E0
8.920210590E-1,-2.265703917E0,-7.523632526E0,-1.090229869E0
8.945410590E-1,-2.306381941E0,-7.521239758E0,-9.251250625E-1
8.970668920E-1,-2.332702875E0,-7.559525013E0,-8.410771489E-1
8.995927250E-1,-2.337488651E0,-7.516454220E0,-7.549355626E-1
9.021185070E-1,-2.342274189E0,-7.542775154E0,-7.214360237E-1
9.046443400E-1,-2.330310106E0,-7.657630444E0,-7.166503668E-1
9.071701730E-1,-2.323131800E0,-7.719843864E0,-7.238288522E-1
9.096959550E-1,-2.306381941E0,-7.775177956E0,-6.831508875E-1
9.122217880E-1,-2.217847586E0,-7.904390335E0,-7.070791125E-1
9.147476210E-1,-2.129014015E0,-8.012067795E0,-7.429714203E-1
9.172734020E-1,-2.030908108E0,-8.148757935E0,-7.262216806E-1
9.197992360E-1,-1.877468467E0,-8.220541954E0,-7.286145091E-1
9.223250690E-1,-1.729113460E0,-8.309375763E0,-7.716853023E-1
9.248451210E-1,-1.587637782E0,-8.414659500E0,-8.051848412E-1
9.273709550E-1,-1.432104349E0,-8.429017067E0,-8.027920127E-1
9.298967880E-1,-1.247557878E0,-8.484051704E0,-8.315058947E-1
9.324225690E-1,-1.065404296E0,-8.512765884E0,-8.291130662E-1
9.349484020E-1,-8.569296002E-1,-8.510373116E0,-7.501499057E-1
9.374742360E-1,-6.607181430E-1,-8.371588707E0,-7.262216806E-1
9.400000170E-1,-5.144568682E-1,-8.285148621E0,-6.565307379E-1
9.425258500E-1,-4.546363056E-1,-8.246863365E0,-5.991029739E-1
9.450516840E-1,-3.421736360E-1,-8.132007599E0,-5.871388316E-1
9.475774650E-1,-2.341975123E-1,-8.016853333E0,-5.656034350E-1
9.501032980E-1,-1.576271951E-1,-7.935497284E0,-5.177469850E-1
9.526291320E-1,-1.384846121E-1,-7.813463211E0,-5.368895531E-1
9.551491840E-1,-1.241276711E-1,-7.710272789E0,-5.321039557E-1
9.576750170E-1,-1.887338907E-1,-7.576274872E0,-5.679962635E-1
9.602008500E-1,-2.294118702E-1,-7.473084450E0,-5.919244885E-1
9.627266320E-1,-3.299104273E-1,-7.427620411E0,-6.206383705E-1
9.652524650E-1,-5.000999570E-1,-7.324729443E0,-7.429714203E-1
9.677782980E-1,-6.439684033E-1,-7.243373394E0,-8.554341197E-1
9.703040800E-1,-8.162516356E-1,-7.183253765E0,-9.275178909E-1
9.728299130E-1,-9.649057388E-1,-7.209574699E0,-1.099801064E0
9.753557460E-1,-1.175773263E0,-7.202396393E0,-1.154836059E0
9.778815270E-1,-1.364806175E0,-7.233801842E0,-1.277169108E0
9.804073610E-1,-1.628315806E0,-7.312765121E0,-1.415952802E0
9.829331940E-1,-1.858325839E0,-7.355835915E0,-1.588535190E0
9.854531940E-1,-2.033301115E0,-7.415656567E0,-1.732403636E0
9.879790270E-1,-2.071586132E0,-7.535596848E0,-1.871187329E0
9.905048610E-1,-1.985444546E0,-7.717451096E0,-1.959721804E0
9.930306420E-1,-1.954337835E0,-7.846962929E0,-1.995913148E0
9.955564750E-1,-1.910967946E0,-8.016853333E0,-2.050948143E0
9.980823090E-1,-1.870290041E0,-8.203792572E0,-2.122732878E0
1.000608090E0,-1.832004786E0,-8.306982994E0,-2.170589209E0
1.003133923E0,-1.765005827E0,-8.445766449E0,-2.204088688E0
1.005659757E0,-1.633101463E0,-8.558229446E0,-2.383849621E0
1.008185538E0,-1.534995675E0,-8.659027100E0,-2.575574398E0
1.010711371E0,-1.357627749E0,-8.711668968E0,-2.743072033E0
1.013237205E0,-1.206879973E0,-8.809774399E0,-2.879761934E0
1.015757205E0,-1.077368379E0,-8.908179283E0,-3.152842999E0
1.018283038E0,-9.720842242E-1,-8.965607643E0,-3.366103172E0
1.020808871E0,-8.931210637E-1,-9.020642281E0,-3.519243956E0
1.023334652E0,-8.162516356E-1,-9.082855225E0,-3.667897940E0
1.025860486E0,-7.468597889E-1,-9.114261627E0,-3.801896095E0
1.028386319E0,-6.798607111E-1,-9.236295700E0,-3.837788343E0
1.030912100E0,-6.942176819E-1,-9.300901413E0,-3.876372576E0
1.033437934E0,-6.750751138E-1,-9.351150513E0,-3.914657831E0
1.035963767E0,-6.822535396E-1,-9.439984322E0,-3.912265062E0
1.038489548E0,-7.181459069E-1,-9.526125908E0,-3.895515203E0
1.041015382E0,-7.540382147E-1,-9.638887405E0,-3.859323740E0
1.043541215E0,-8.401798606E-1,-9.775279045E0,-3.777967930E0
1.046061267E0,-9.170492887E-1,-9.885348320E0,-3.679862022E0
1.048587100E0,-9.744769931E-1,-1.001246738E1,-3.571886063E0
1.051112934E0,-9.385846853E-1,-1.012732315E1,-3.435495138E0
1.053638715E0,-9.792626500E-1,-1.024965572E1,-3.255734205E0
1.056164548E0,-1.015154958E0,-1.037168980E1,-3.066701412E0
1.058690382E0,-9.672985673E-1,-1.048684406E1,-2.863012314E0
1.061216163E0,-8.859425783E-1,-1.062323570E1,-2.647359133E0
1.063741996E0,-7.540382147E-1,-1.073121166E1,-2.446063042E0
1.066267830E0,-6.343970895E-1,-1.087717342E1,-2.237588167E0
1.068793611E0,-5.335994363E-1,-1.097797108E1,-2.098804474E0
1.071319444E0,-3.732803464E-1,-1.103539848E1,-1.962114573E0
1.073845277E0,-2.294118702E-1,-1.115025425E1,-1.871187329E0
1.076365277E0,-8.105687052E-2,-1.119811058E1,-1.789831281E0
1.078891111E0,1.016949583E-2,-1.121964645E1,-1.768295884E0
1.081416944E0,9.152546525E-2,-1.125583744E1,-1.722533226E0
1.083942725E0,1.202393398E-1,-1.130369377E1,-1.741974831E0
1.086468559E0,1.680957973E-1,-1.132522964E1,-1.720140338E0
1.088994392E0,2.210369855E-1,-1.128455162E1,-1.775474429E0
1.091520173E0,2.210369855E-1,-1.117896843E1,-1.808973908E0
1.094046007E0,1.992024779E-1,-1.105693436E1,-1.816152334E0
1.096571840E0,1.728814393E-1,-1.093699455E1,-1.832902193E0
1.099097621E0,7.956135273E-2,-1.077906799E1,-1.868794441E0
1.101623455E0,-2.093719877E-2,-1.062562847E1,-1.916650891E0
1.104149288E0,-8.584251255E-2,-1.048684406E1,-1.988435626E0
1.106669340E0,-1.600200087E-1,-1.043629551E1,-2.074876308E0
1.109195173E0,-2.437688112E-1,-1.035972595E1,-2.149053812E0
1.111721007E0,-2.724826932E-1,-1.040518951E1,-2.201695919E0
1.114246788E0,-3.275175989E-1,-1.044855881E1,-2.343171597E0
1.116772621E0,-3.804588020E-1,-1.048684406E1,-2.405385017E0
1.119298455E0,-4.857429862E-1,-1.055623627E1,-2.450848579E0
1.121824236E0,-5.144568682E-1,-1.073121166E1,-2.489133835E0
1.124350069E0,-5.168496966E-1,-1.092263699E1,-2.517847538E0
1.126875902E0,-5.359922647E-1,-1.114068317E1,-2.563610315E0
1.129401684E0,-5.096712112E-1,-1.134915733E1,-2.546860695E0
1.131927517E0,-4.881358147E-1,-1.156241798E1,-2.551646233E0
1.134453350E0,-4.378865361E-1,-1.176102257E1,-2.604288340E0
1.136973350E0,-3.517449200E-1,-1.198863983E1,-2.573181629E0
1.139498767E0,-3.083750308E-1,-1.213490105E1,-2.525026083E0
1.142024236E0,-2.174477577E-1,-1.228086281E1,-2.467598438E0
1.144549652E0,-1.600200087E-1,-1.243908882E1,-2.465205431E0
1.147075069E0,-1.815554202E-1,-1.253958702E1,-2.441277266E0
1.149600538E0,-1.983051747E-1,-1.264517021E1,-2.412563324E0
1.152125955E0,-1.983051747E-1,-1.270259857E1,-2.357528448E0
1.154651371E0,-2.198405862E-1,-1.283181095E1,-2.355135679E0
1.157176840E0,-2.485544533E-1,-1.299003601E1,-2.331207514E0
1.159702257E0,-3.035893738E-1,-1.309531975E1,-2.223231316E0
1.162227673E0,-3.589234054E-1,-1.328465176E1,-2.144268274E0
1.164753090E0,-4.307080805E-1,-1.351944828E1,-2.070090771E0
1.167277361E0,-4.905286431E-1,-1.379492188E1,-1.911865234E0
1.169802777E0,-5.790630579E-1,-1.413739395E1,-1.665105462E0
1.172328246E0,-6.631109715E-1,-1.451605892E1,-1.442273855E0
1.174853663E0,-8.258228898E-1,-1.504786301E1,-1.190728426E0
1.177379080E0,-9.433703423E-1,-1.556052589E1,-8.554341197E-1
1.179904548E0,-9.984052777E-1,-1.610668755E1,-4.220340848E-1
1.182429965E0,-1.098903775E0,-1.667438507E1,-8.404789865E-2
1.184955382E0,-1.142273664E0,-1.719661903E1,2.321037948E-1
1.187480850E0,-1.226022482E0,-1.775713730E1,4.692923427E-1
1.190006267E0,-1.266700506E0,-1.813311005E1,6.439684033E-1
1.192531684E0,-1.324128270E0,-1.837747574E1,8.596215248E-1
1.195057100E0,-1.388734460E0,-1.844686890E1,9.795617461E-1
1.197581423E0,-1.456032634E0,-1.843490410E1,9.819545746E-1
1.200106840E0,-1.479960799E0,-1.838944054E1,9.433703423E-1
1.202632309E0,-1.527817249E0,-1.826740646E1,7.615157962E-1
1.205157725E0,-1.611566067E0,-1.814507294E1,5.195416212E-1
1.207683142E0,-1.712363720E0,-1.799911118E1,3.326023519E-1
1.210208611E0,-1.879861236E0,-1.794407654E1,1.025922745E-1
1.212734027E0,-2.062014818E0,-1.791984940E1,-1.968096644E-1
1.215259444E0,-2.208276272E0,-1.791506386E1,-4.363910258E-1
1.217784913E0,-2.368595362E0,-1.789591980E1,-6.879364848E-1
1.220310330E0,-2.593819857E0,-1.776670837E1,-9.080761671E-1
1.222835746E0,-2.752045155E0,-1.761326790E1,-1.195813060E0
1.225361163E0,-2.881257534E0,-1.741466331E1,-1.569392562E0
1.227885434E0,-2.953042269E0,-1.708146286E1,-1.875972986E0
1.230410850E0,-3.034697294E0,-1.665763474E1,-2.297708035E0
1.232936319E0,-3.104089260E0,-1.612104416E1,-2.738286495E0
1.235461736E0,-3.154338360E0,-1.554616833E1,-3.210270643E0
1.237987152E0,-3.187838078E0,-1.488485241E1,-3.684647799E0
1.240512621E0,-3.104089260E0,-1.434826183E1,-4.161417484E0
1.243038038E0,-3.056232691E0,-1.380449295E1,-4.628317356E0
1.245563455E0,-3.104089260E0,-1.315543938E1,-5.064409256E0
1.248088923E0,-3.132802963E0,-1.260688496E1,-5.526822090E0
1.250614340E0,-3.291028500E0,-1.201974678E1,-5.893223286E0
1.253139757E0,-3.271586657E0,-1.156002522E1,-6.195017815E0
1.255665173E0,-3.331706524E0,-1.115503979E1,-6.448956013E0
1.258189444E0,-3.463311672E0,-1.081256771E1,-6.647859573E0
1.260714861E0,-3.427419424E0,-1.058734322E1,-6.745965004E0
1.263240330E0,-3.444169044E0,-1.044377327E1,-6.841977119E0
1.265765746E0,-3.561716557E0,-1.032144070E1,-6.865905285E0
1.268291163E0,-3.578466177E0,-1.026879883E1,-6.885047913E0
1.270816632E0,-3.578466177E0,-1.020419216E1,-6.882655144E0
1.273342048E0,-3.597608805E0,-1.016321468E1,-6.813263416E0
1.275867465E0,-3.595216036E0,-1.010578728E1,-6.707680225E0
1.278392934E0,-3.623929977E0,-1.005553818E1,-6.640681267E0
1.280918350E0,-3.628715515E0,-1.000050354E1,-6.499205589E0
1.283443767E0,-3.640679598E0,-9.859027863E0,-6.279065609E0
1.285969184E0,-3.705285788E0,-9.665208817E0,-6.092126369E0
1.288493507E0,-3.777070522E0,-9.454340935E0,-5.854938030E0
1.291018923E0,-3.808177233E0,-9.269794464E0,-5.600999832E0
1.293544392E0,-3.818047523E0,-9.046963692E0,-5.493322372E0
1.296069809E0,-3.846761465E0,-8.869894028E0,-5.342275620E0
1.298595225E0,-3.820440531E0,-8.706883430E0,-5.330311775E0
1.301120694E0,-3.719642878E0,-8.565707207E0,-5.385346413E0
1.303646111E0,-3.590430260E0,-8.515158653E0,-5.565107346E0
1.306171527E0,-3.386741400E0,-8.500801086E0,-5.677569866E0
1.308696996E0,-3.130410194E0,-8.570492744E0,-5.807081223E0
1.311222413E0,-2.809472799E0,-8.771489143E0,-6.022734642E0
1.313747830E0,-2.414058924E0,-9.015856743E0,-6.288637161E0
1.316273246E0,-1.927717686E0,-9.396913528E0,-6.530312061E0
1.318797517E0,-1.355234981E0,-9.856635094E0,-6.717251301E0
1.321322934E0,-7.995018363E-1,-1.050359440E1,-6.820441723E0
1.323848402E0,-2.844468057E-1,-1.123878860E1,-6.769893646E0
1.326373819E0,3.669991791E-1,-1.204875946E1,-6.568896294E0
1.328899236E0,9.705886841E-1,-1.282702446E1,-6.257231236E0
1.331424705E0,1.622333765E0,-1.363191032E1,-5.845366478E0
1.333950121E0,2.309672117E0,-1.444636726E1,-5.327918530E0
1.336475538E0,2.992523909E0,-1.516032600E1,-4.738686085E0
1.339001007E0,3.612863064E0,-1.569691658E1,-4.190131664E0
1.341526423E0,4.120739460E0,-1.605135345E1,-3.653541088E0
1.344051840E0,4.690829754E0,-1.635344696E1,-3.076272726E0
1.346577257E0,5.069493771E0,-1.649223137E1,-2.601895571E0
1.349101527E0,5.256134033E0,-1.656880188E1,-2.070090771E0
1.351626944E0,5.333003521E0,-1.667677689E1,-1.686640859E0
1.354152413E0,5.280062199E0,-1.670549202E1,-1.372882009E0
1.356677830E0,5.181956768E0,-1.664566994E1,-1.035194874E0
1.359203246E0,5.009374142E0,-1.655683708E1,-7.668996453E-1
1.361728715E0,4.808377266E0,-1.632951927E1,-6.158527136E-1
1.364254132E0,4.669294357E0,-1.598196125E1,-5.440680385E-1
1.366779548E0,4.492225647E0,-1.548844147E1,-4.938187599E-1
1.369305017E0,4.341178417E0,-1.500239944E1,-4.818546474E-1
1.371830434E0,4.255036831E0,-1.449213028E1,-4.818546474E-1
1.374355850E0,4.056133270E0,-1.401057434E1,-4.866403043E-1
1.376881267E0,3.814159393E0,-1.352184105E1,-5.560321808E-1
1.379405538E0,3.555435419E0,-1.307139206E1,-5.440680385E-1
1.381930955E0,3.438187122E0,-1.273131180E1,-2.997010350E-1
1.384456423E0,3.416651726E0,-1.241994572E1,-2.991028305E-4
1.386981840E0,3.270390272E0,-1.224018478E1,2.799602449E-1
1.389507257E0,3.011666298E0,-1.206311607E1,4.884349108E-1
1.392032725E0,2.614158630E0,-1.188096237E1,6.367899179E-1
1.394558142E0,2.094317913E0,-1.170120144E1,7.399803996E-1
1.397083559E0,1.466501236E0,-1.140419292E1,7.064808607E-1
1.399609027E0,8.413762450E-1,-1.108804131E1,6.631109715E-1
1.402134444E0,3.000001311E-1,-1.082453156E1,7.208378315E-1
1.404659861E0,-2.485544533E-1,-1.061127090E1,8.715856671E-1
1.407185277E0,-7.468597889E-1,-1.037647533E1,1.135095239E0
1.409709600E0,-1.249950767E0,-1.016560745E1,1.355534077E0
1.412235017E0,-1.738684773E0,-9.976574898E0,1.607079506E0
1.414760486E0,-2.227418661E0,-9.717850685E0,1.896910191E0
1.417285902E0,-2.696711063E0,-9.461520195E0,2.119741678E0
1.419811319E0,-3.116053343E0,-9.238688469E0,2.297109842E0
1.422336788E0,-3.434597731E0,-9.049356461E0,2.522035122E0
1.424862205E0,-3.667000771E0,-8.836395264E0,2.766402006E0
1.427387621E0,-3.880260944E0,-8.627920151E0,3.008376360E0
1.429913090E0,-4.047758579E0,-8.474480629E0,3.188137054E0
1.432438507E0,-4.172484398E0,-8.354839325E0,3.255136013E0
1.434963923E0,-4.251447678E0,-8.206185341E0,3.264707327E0
1.437489340E0,-4.332803726E0,-8.021638870E0,3.264707327E0
1.440013611E0,-4.421637058E0,-7.933104515E0,3.161816120E0
1.442539027E0,-4.371387959E0,-7.846962929E0,3.037090063E0
1.445064496E0,-4.299304008E0,-7.703094482E0,2.797508717E0
1.447589913E0,-4.354638100E0,-7.597810268E0,2.459821701E0
1.450115330E0,-4.469493389E0,-7.499704361E0,2.069492579E0
1.452640798E0,-4.581956387E0,-7.334300518E0,1.638186216E0
1.455166215E0,-4.709074974E0,-7.173682213E0,1.075274706E0
1.457691632E0,-4.936692238E0,-7.049255371E0,3.900300860E-1
1.460217100E0,-5.113760948E0,-6.850352287E0,-3.427718580E-1
1.462742517E0,-5.178666592E0,-6.718746662E0,-1.001695395E0
1.465267934E0,-5.257629395E0,-6.672984123E0,-1.780260086E0
1.467793350E0,-5.353342533E0,-6.629913330E0,-2.527418852E0
1.470317621E0,-5.384449005E0,-6.577271461E0,-3.320340633E0
1.472843038E0,-5.358128071E0,-6.486343861E0,-4.065405846E0
1.475368507E0,-5.221737385E0,-6.491129398E0,-4.769793034E0
1.477893923E0,-5.068297386E0,-6.436094761E0,-5.562714577E0
1.480419340E0,-4.884049892E0,-6.443273067E0,-6.360421658E0
1.482944809E0,-4.694717884E0,-6.469594002E0,-7.083951473E0
1.485470225E0,-4.409673214E0,-6.536593437E0,-7.682755470E0
1.487995642E0,-4.076472282E0,-6.608377934E0,-8.322237015E0
1.490521111E0,-3.736392498E0,-6.761817455E0,-8.947361946E0
1.493046527E0,-3.312563896E0,-6.895815849E0,-9.575179100E0
1.495571944E0,-2.931506872E0,-7.087540627E0,-9.991828918E0
1.498097361E0,-2.641676188E0,-7.233801842E0,-1.004477024E1
1.500621632E0,-2.437987089E0,-7.288836956E0,-9.749855042E0
1.503147048E0,-2.169692039E0,-7.427620411E0,-9.122337341E0
1.505672517E0,-1.951945066E0,-7.528418064E0,-8.183453560E0
1.508197934E0,-1.805683732E0,-7.597810268E0,-7.222734928E0
1.510723350E0,-1.714756489E0,-7.631309509E0,-6.218945980E0
1.513248819E0,-1.712363720E0,-7.609774113E0,-5.258526802E0
1.515774236E0,-1.757827282E0,-7.557132244E0,-4.434498787E0
1.518299652E0,-1.786541224E0,-7.439584732E0,-3.684647799E0
1.520825121E0,-1.848754644E0,-7.382156849E0,-3.030509949E0
1.523350538E0,-1.848754644E0,-7.214360237E0,-2.429313183E0
1.525875955E0,-1.877468467E0,-7.166503906E0,-1.892722726E0
1.528401371E0,-1.918146491E0,-7.101897717E0,-1.358525038E0
1.530925642E0,-2.026122570E0,-6.941279411E0,-9.466604590E-1
1.533451059E0,-2.186441660E0,-6.723532677E0,-6.493522525E-1
1.535976527E0,-2.382952213E0,-6.424130440E0,-4.555336237E-1
1.538501944E0,-2.600998163E0,-6.134000778E0,-2.638086975E-1
1.541027361E0,-2.756830692E0,-5.820241928E0,-9.601201117E-2
1.543552830E0,-2.919542789E0,-5.504090309E0,5.712864175E-2
1.546078246E0,-3.003291607E0,-5.288437366E0,5.712864175E-2
1.548603663E0,-3.159124136E0,-5.005784988E0,-5.772684515E-2
1.551129132E0,-3.324527979E0,-4.775774956E0,-2.590230405E-1
1.553654548E0,-3.401098251E0,-4.648955345E0,-4.914259613E-1
1.556179965E0,-3.480061531E0,-4.550849438E0,-8.027920127E-1
1.558705382E0,-3.539881945E0,-4.462016106E0,-1.109372377E0
1.561229652E0,-3.621536970E0,-4.397409916E0,-1.535893083E0
1.563755069E0,-3.580859184E0,-4.476373196E0,-1.892722726E0
1.566280538E0,-3.559323788E0,-4.450051785E0,-2.184946060E0
1.568805955E0,-3.552145243E0,-4.471587181E0,-2.374278307E0
1.571331371E0,-3.492025614E0,-4.459623337E0,-2.534896374E0
1.573856840E0,-3.448954821E0,-4.445266247E0,-2.711965322E0
1.576382257E0,-3.542274714E0,-4.351946354E0,-2.822334290E0
1.578907673E0,-3.489632607E0,-4.385445595E0,-2.860619545E0
1.581433142E0,-3.360420227E0,-4.433301926E0,-2.913261652E0
1.583958559E0,-3.374777317E0,-4.378267288E0,-2.843869686E0
1.586483975E0,-3.324527979E0,-4.404588223E0,-2.750250578E0
1.589009392E0,-3.264408350E0,-4.440480709E0,-2.695215702E0
1.591533663E0,-3.197409153E0,-4.328018188E0,-2.532503605E0
1.594059080E0,-3.139981508E0,-4.306482315E0,-2.314457655E0
1.596584548E0,-3.161516905E0,-4.217648983E0,-2.273779631E0
1.599109965E0,-3.072982550E0,-4.275076866E0,-2.156232357E0
1.601635382E0,-3.094517946E0,-4.215256214E0,-2.017448664E0
1.604160850E0,-3.101696253E0,-4.133900166E0,-1.892722726E0
1.606686267E0,-2.993720293E0,-4.042973042E0,-1.775474429E0
1.609211684E0,-2.895614386E0,-3.925425529E0,-1.665105462E0
1.611737152E0,-2.850150824E0,-3.805784464E0,-1.610070586E0
1.614262569E0,-2.833401203E0,-3.716950893E0,-1.600499272E0
1.616787986E0,-2.804687262E0,-3.599702597E0,-1.526321769E0
1.619313402E0,-2.828615427E0,-3.410370588E0,-1.576570988E0
1.621837621E0,-2.756830692E0,-3.189931631E0,-1.689033628E0
1.624363038E0,-2.734996319E0,-2.967399120E0,-1.691426516E0
1.626888507E0,-2.747259617E0,-2.794816732E0,-1.732403636E0
1.629413923E0,-2.687139750E0,-2.706282377E0,-1.626820326E0
1.631939340E0,-2.713460922E0,-2.512164593E0,-1.550249934E0
1.634464809E0,-2.701496840E0,-2.406581402E0,-1.492822170E0
1.636990225E0,-2.764009237E0,-2.315654039E0,-1.511964798E0
1.639515642E0,-2.802294493E0,-2.150549412E0,-1.521536112E0
1.642041111E0,-2.847758055E0,-1.977967024E0,-1.538285851E0
1.644566527E0,-2.752045155E0,-1.956431627E0,-1.423131227E0
1.647091944E0,-2.778366089E0,-1.829312921E0,-1.432702541E0
1.649617361E0,-2.941078186E0,-1.640279889E0,-1.643570065E0
1.652141684E0,-3.135195971E0,-1.419841170E0,-1.871187329E0
1.654667048E0,-3.149552822E0,-1.311864972E0,-1.976471543E0
1.657192413E0,-3.020340443E0,-1.319043517E0,-2.060519457E0
1.659717777E0,-2.898007393E0,-1.319043517E0,-2.220838547E0
1.662243090E0,-2.876471996E0,-1.295115232E0,-2.388635159E0
1.664768455E0,-2.819044113E0,-1.321436286E0,-2.625823736E0
1.667293819E0,-2.878864765E0,-1.278365493E0,-2.973082066E0
1.669819184E0,-2.835793972E0,-1.331007600E0,-3.217449188E0
1.672344548E0,-2.878864765E0,-1.371984720E0,-3.552743435E0
1.674869861E0,-2.914757013E0,-1.477268934E0,-3.900300980E0
1.677395225E0,-2.955435038E0,-1.594517231E0,-4.221238136E0
1.679920590E0,-3.008077145E0,-1.774278045E0,-4.520640373E0
1.682445694E0,-3.082553864E0,-1.951645970E0,-4.791328430E0
1.684971059E0,-3.128017426E0,-2.030609131E0,-5.011766911E0
1.687496423E0,-3.199802160E0,-2.155334949E0,-5.232205868E0
1.690021788E0,-3.257229805E0,-2.349153519E0,-5.342275620E0
1.692547100E0,-3.417848110E0,-2.531307220E0,-5.361418247E0
1.695072465E0,-3.463311672E0,-2.643769979E0,-5.478965759E0
1.697597830E0,-3.468097210E0,-2.619841576E0,-5.591428280E0
1.700123194E0,-3.480061531E0,-2.660519600E0,-5.636891842E0
1.702648559E0,-3.499203920E0,-2.670090914E0,-5.725426197E0
1.705173871E0,-3.501596928E0,-2.605484724E0,-5.955436230E0
1.707699236E0,-3.585644722E0,-2.564806700E0,-6.254838467E0
1.710224600E0,-3.585644722E0,-2.526521683E0,-6.590431690E0
1.712749705E0,-3.602394581E0,-2.457129717E0,-6.882655144E0
1.715275069E0,-3.628715515E0,-2.409273386E0,-7.249056339E0
1.717800434E0,-3.664607763E0,-2.353939295E0,-7.632505894E0
1.720325798E0,-3.822833300E0,-2.296511650E0,-8.061120033E0
1.722851111E0,-3.952045679E0,-2.236690998E0,-8.494819641E0
1.725376475E0,-4.134199142E0,-2.207977057E0,-8.930612564E0
1.727901840E0,-4.277768612E0,-2.282154560E0,-9.359525681E0
1.730427205E0,-4.388137817E0,-2.279761791E0,-9.821938515E0
1.732952569E0,-4.584349155E0,-2.315654039E0,-1.045902824E1
1.735477882E0,-4.840680122E0,-2.504986286E0,-1.091186905E1
1.738003246E0,-4.982155800E0,-2.607877493E0,-1.109641552E1
1.740528611E0,-5.214558601E0,-2.727817774E0,-1.187228870E1
1.743053715E0,-5.413163185E0,-2.960220814E0,-1.248335552E1
1.745579080E0,-5.647958755E0,-3.106182814E0,-1.289522076E1
1.748104444E0,-5.949753284E0,-3.235694408E0,-1.335284805E1
1.750629809E0,-6.342774391E0,-3.348157167E0,-1.406680584E1
1.753155121E0,-6.709175587E0,-3.525525093E0,-1.523809242E1
1.755680486E0,-7.245766163E0,-3.779463291E0,-1.625145340E1
1.758205850E0,-7.933403492E0,-3.937389612E0,-1.702283859E1
1.760731215E0,-8.793324471E0,-4.076472282E0,-1.799283028E1
1.763256580E0,-9.684351921E0,-4.442873478E0,-1.898465538E1
1.765781892E0,-1.056849957E1,-4.898108006E0,-1.980389786E1
1.768307257E0,-1.138295650E1,-5.317151070E0,-2.023759651E1
1.770832621E0,-1.239392376E1,-5.753242970E0,-1.958106613E1
1.773357673E0,-1.351496124E1,-6.100501537E0,-1.724776459E1
1.775883038E0,-1.449930859E1,-6.222834587E0,-1.307498074E1
1.778408402E0,-1.493300819E1,-6.318547249E0,-7.541279793E0
1.780933767E0,-1.452353573E1,-6.414260387E0,-1.911865234E0
1.783459080E0,-1.324427319E1,-6.558128834E0,2.634796858E0
1.785984444E0,-1.149781227E1,-6.812067032E0,5.286642551E0
1.788509809E0,-9.567103386E0,-7.248158932E0,5.648257732E0
1.791035173E0,-7.712964535E0,-7.861319542E0,3.844368696E0
1.793560538E0,-6.407381058E0,-8.666205406E0,7.304090858E-1
1.796085850E0,-5.696114540E0,-9.607481956E0,-2.738286495E0
1.798611215E0,-5.362913609E0,-1.056580734E1,-5.955436230E0
1.801136580E0,-5.394020557E0,-1.132283688E1,-8.501997948E0
1.803661684E0,-5.571388245E0,-1.194796181E1,-9.905687332E0
1.806187048E0,-5.842076302E0,-1.253001595E1,-1.037767220E1
1.808712413E0,-6.017051697E0,-1.308574867E1,-1.003280640E1
1.811237777E0,-6.323632240E0,-1.343091393E1,-9.323633194E0
1.813763090E0,-6.682854652E0,-1.358166122E1,-8.904291153E0
1.816288455E0,-7.181159973E0,-1.352662659E1,-9.129515648E0
1.818813819E0,-7.672286510E0,-1.328943825E1,-9.323633194E0
1.821339184E0,-8.093722343E0,-1.292303658E1,-8.808578491E0
1.823864548E0,-8.388637543E0,-1.231705475E1,-7.237092018E0
1.826389861E0,-8.290233612E0,-1.147119141E1,-5.474180222E0
1.828915225E0,-7.832904816E0,-1.046052361E1,-4.336093903E0
1.831440590E0,-7.226623535E0,-9.260223389E0,-4.257130623E0
1.834005173E0,-6.515357018E0,-8.079365730E0,-4.829613209E0
1.836530538E0,-5.710471153E0,-7.233801842E0,-5.565107346E0
1.839055850E0,-4.857429981E0,-6.577271461E0,-6.262016773E0
1.841581215E0,-3.918546200E0,-6.225227356E0,-6.813263416E0
1.844106580E0,-2.804687262E0,-6.059823513E0,-7.234699249E0
1.846631944E0,-1.714756489E0,-5.937789440E0,-7.153343201E0
1.849157309E0,-6.607181430E-1,-5.839384556E0,-6.360421658E0
1.851682621E0,2.066800594E-1,-5.839384556E0,-5.100301266E0
1.854207986E0,9.035896659E-1,-5.798706532E0,-3.998406649E0
1.856733350E0,1.519143224E0,-5.736493111E0,-3.222234726E0
1.859258715E0,1.833201289E0,-5.702993870E0,-2.666501760E0
1.861784080E0,1.960020900E0,-5.817849159E0,-2.149053812E0
1.864309132E0,1.876272082E0,-6.057430744E0,-1.648355722E0
1.866834496E0,1.502393484E0,-6.323332787E0,-1.243669510E0
1.869359809E0,1.057029366E0,-6.582056999E0,-9.753743410E-1
1.871885173E0,4.316053987E-1,-6.893423080E0,-1.037587762E0
1.874410538E0,-2.078764737E-1,-7.135396957E0,-1.432702541E0
1.876935902E0,-8.545367718E-1,-7.343871593E0,-2.046162367E0
1.879461267E0,-1.570888042E0,-7.521239758E0,-2.656930447E0
1.881986580E0,-2.213061810E0,-7.710272789E0,-3.181556702E0
1.884511944E0,-2.828615427E0,-7.830213070E0,-3.334996462E0
1.887037309E0,-3.398705482E0,-7.988139153E0,-3.294019461E0
1.889562673E0,-3.961616993E0,-8.167900085E0,-3.313162088E0
1.892088038E0,-4.424029827E0,-8.378767967E0,-3.547957659E0
1.894573663E0,-4.809573650E0,-8.572885513E0,-3.871587038E0
1.897099027E0,-5.094618320E0,-8.716454506E0,-4.108476639E0
1.899624392E0,-5.286343575E0,-8.845966339E0,-4.214059830E0
1.902149757E0,-5.355735302E0,-8.881858826E0,-4.139882088E0
1.904675069E0,-5.449354649E0,-8.881858826E0,-3.976871252E0
1.907200434E0,-5.494818211E0,-8.905786514E0,-3.890729666E0
1.909725798E0,-5.547460079E0,-8.862715721E0,-3.919443607E0
1.912251163E0,-5.609673500E0,-8.828917503E0,-4.101297855E0
1.914776527E0,-5.703292847E0,-8.749954224E0,-4.348057747E0
1.917301840E0,-5.779862881E0,-8.699705124E0,-4.621138573E0
1.919827205E0,-5.861218929E0,-8.663812637E0,-4.865505695E0
1.922352569E0,-5.923432350E0,-8.570492744E0,-4.992624283E0
1.924877673E0,-5.944967747E0,-8.455337524E0,-5.109872818E0
1.927403038E0,-5.882754326E0,-8.340482712E0,-5.138586521E0
1.929928402E0,-5.815755367E0,-8.263612747E0,-5.105087280E0
1.932453767E0,-5.647958755E0,-8.179863930E0,-5.023731232E0
1.934979080E0,-5.442175865E0,-8.100900650E0,-4.910969257E0
1.937504444E0,-5.178666592E0,-8.026424408E0,-4.750650406E0
1.940029809E0,-4.896014214E0,-8.074580193E0,-4.549354076E0
1.942555173E0,-4.546063900E0,-8.136793137E0,-4.400700092E0
1.945080538E0,-4.196412563E0,-8.177471161E0,-4.130012035E0
1.947605850E0,-3.784249067E0,-8.299804688E0,-3.890729666E0
1.950131215E0,-3.312563896E0,-8.481658936E0,-3.543172121E0
1.952656580E0,-2.895614386E0,-8.678169250E0,-3.150450230E0
1.955181684E0,-2.394916296E0,-8.977571487E0,-2.714358091E0
1.957707048E0,-1.930110574E0,-9.229117393E0,-2.395813704E0
1.960232413E0,-1.494317770E0,-9.569196701E0,-2.137089729E0
1.962757777E0,-1.120439172E0,-9.943075180E0,-2.010270119E0
1.965283090E0,-7.301099896E-1,-1.031186962E1,-1.892722726E0
1.967808455E0,-4.235295951E-1,-1.059691429E1,-1.782652855E0
1.970333819E0,-1.528415531E-1,-1.092742252E1,-1.753939033E0
1.972859184E0,1.178465188E-1,-1.119571781E1,-1.785045743E0
1.975384548E0,3.765704632E-1,-1.141137123E1,-1.818545222E0
1.977909861E0,5.371887088E-1,-1.163420296E1,-1.921436548E0
1.980435225E0,6.376872063E-1,-1.176820087E1,-2.019841433E0
1.982960590E0,8.150551915E-1,-1.187856960E1,-2.115554333E0
1.985485694E0,9.777671695E-1,-1.200778198E1,-2.187339067E0
1.988011059E0,1.191027522E0,-1.207986641E1,-2.268994093E0
1.990536423E0,1.454537034E0,-1.220429325E1,-2.340778828E0
1.993061788E0,1.555334687E0,-1.234337521E1,-2.434098721E0
1.995587100E0,1.615155339E0,-1.241276741E1,-2.594717026E0
1.998112465E0,1.696511269E0,-1.240798187E1,-2.664108992E0
2.000637830E0,1.794616938E0,-1.235055447E1,-2.637787819E0
2.003163194E0,1.900200248E0,-1.231466198E1,-2.654537678E0
2.005688559E0,1.957628012E0,-1.221625710E1,-2.642573595E0
2.008213871E0,2.005484581E0,-1.203171062E1,-2.635395050E0
2.010739236E0,1.993520379E0,-1.191924763E1,-2.637787819E0
2.013264600E0,2.027019978E0,-1.171555901E1,-2.573181629E0
2.015789705E0,2.072483540E0,-1.141854954E1,-2.517847538E0
2.018315069E0,1.981556296E0,-1.114786148E1,-2.379063845E0
2.020840434E0,1.876272082E0,-1.091785145E1,-2.290529490E0
2.023365798E0,1.818844318E0,-1.064477062E1,-2.266601324E0
2.025891111E0,1.643869162E0,-1.038604641E1,-2.276172638E0
2.028416475E0,1.488036633E0,-1.020897770E1,-2.256730795E0
2.030941840E0,1.425823212E0,-1.007946587E1,-2.177767754E0
2.033467205E0,1.219741344E0,-9.907182693E0,-2.062912226E0
2.035992569E0,1.035493970E0,-9.763314247E0,-1.919043779E0
2.038517882E0,8.174480200E-1,-9.590732574E0,-1.887937069E0
2.041043246E0,5.730810165E-1,-9.392127991E0,-1.909472466E0
2.043568611E0,2.952145040E-1,-9.257830620E0,-2.046162367E0
2.046133194E0,-8.105687052E-2,-9.058927536E0,-2.213660002E0
2.048658559E0,-2.629113793E-1,-8.929715157E0,-2.326421738E0
2.051183871E0,-3.924229145E-1,-8.759525299E0,-2.335993052E0
2.053709236E0,-6.439684033E-1,-8.620741844E0,-2.192124605E0
2.056234600E0,-7.420741320E-1,-8.531908035E0,-2.046162367E0
2.058759965E0,-9.098708034E-1,-8.385946274E0,-1.969292998E0
2.061285330E0,-1.161416292E0,-8.251648903E0,-2.007877350E0
2.063810642E0,-1.439282775E0,-8.000102997E0,-1.952543259E0
2.066336007E0,-1.568495274E0,-7.878069401E0,-1.741974831E0
2.068861371E0,-1.678864241E0,-7.738986492E0,-1.444666624E0
2.071386736E0,-1.959123492E0,-7.554739475E0,-1.037587762E0
2.073912100E0,-2.030908108E0,-7.449155807E0,-8.147560954E-1
2.076397725E0,-2.107478619E0,-7.408477783E0,-8.291130662E-1
2.078923090E0,-2.191227436E0,-7.377371311E0,-7.932206988E-1
2.081448455E0,-2.382952213E0,-7.415656567E0,-5.608177781E-1
2.083973819E0,-2.713460922E0,-7.204789162E0,-1.298106313E-1
2.086499132E0,-3.264408350E0,-6.816852570E0,-3.379862010E-1
2.089024496E0,-3.600001574E0,-6.596413612E0,-9.514461160E-1
2.091549861E0,-3.597608805E0,-6.474380016E0,-1.339382529E0
2.094075225E0,-3.643072367E0,-6.325725555E0,-1.521536112E0
2.096600590E0,-3.604787350E0,-6.282654762E0,-1.696212173E0
2.099125902E0,-3.465704441E0,-6.268298149E0,-1.885544300E0
2.101651267E0,-3.273979664E0,-6.268298149E0,-1.966900229E0
2.104176632E0,-2.996113062E0,-6.328118801E0,-1.942971945E0
2.106701736E0,-2.725425005E0,-6.529414654E0,-1.820937991E0
2.109227100E0,-2.562713146E0,-6.668198586E0,-1.598106384E0
2.111752465E0,-2.464308262E0,-6.766603470E0,-1.399203062E0
2.114277830E0,-2.473879576E0,-6.893423080E0,-1.217348576E0
2.116803142E0,-2.337488651E0,-6.958029270E0,-9.801599979E-1
2.119328507E0,-2.246561289E0,-7.061219692E0,-1.018445134E0
2.121853871E0,-2.315953255E0,-7.133004189E0,-1.128515005E0
2.124379236E0,-2.406880379E0,-7.128218651E0,-1.145264745E0
2.126904600E0,-2.354238272E0,-7.099504948E0,-1.116550922E0
2.129429913E0,-2.196012974E0,-7.221538544E0,-1.008873820E0
2.131955277E0,-2.026122570E0,-7.449155807E0,-9.538389444E-1
2.134480642E0,-1.910967946E0,-7.602595806E0,-8.602197170E-1
2.137005746E0,-1.769791484E0,-7.717451096E0,-7.525427341E-1
2.139531111E0,-1.609173179E0,-7.827820301E0,-6.951149702E-1
2.142056475E0,-1.475175142E0,-7.976175308E0,-6.565307379E-1
2.144581840E0,-1.261914849E0,-8.115258217E0,-6.038886309E-1
2.147107152E0,-1.079761267E0,-8.234899521E0,-5.512465239E-1
2.149632517E0,-8.787640929E-1,-8.270791054E0,-5.727819204E-1
2.152157882E0,-7.420741320E-1,-8.299804688E0,-5.368895531E-1
2.154683246E0,-5.623133183E-1,-8.328517914E0,-5.895316601E-1
2.157208611E0,-4.474578202E-1,-8.304590225E0,-6.493522525E-1
2.159733923E0,-3.661018610E-1,-8.277970314E0,-7.022934556E-1
2.162259288E0,-3.059822023E-1,-8.294719696E0,-7.501499057E-1
2.164784652E0,-2.605185509E-1,-8.237292290E0,-9.299107194E-1
2.167309757E0,-2.892324328E-1,-8.189435959E0,-1.006481051E0
2.169835121E0,-3.323032558E-1,-8.120043755E0,-1.078265667E0
2.172360434E0,-4.115654826E-1,-8.115258217E0,-1.253240824E0
2.174885798E0,-4.881358147E-1,-8.105687141E0,-1.322632670E0
2.177411111E0,-5.599204898E-1,-8.029116631E0,-1.365703583E0
2.179936475E0,-6.296114326E-1,-8.000102997E0,-1.406381488E0
2.182461788E0,-6.918248534E-1,-7.995317936E0,-1.399203062E0
2.184987152E0,-7.851449251E-1,-7.957032681E0,-1.403988719E0
2.187512465E0,-8.665009141E-1,-8.019246101E0,-1.459023595E0
2.190037777E0,-8.210372925E-1,-8.029116631E0,-1.531107426E0
2.192563142E0,-7.851449251E-1,-8.091329575E0,-1.500000715E0
2.195088455E0,-7.803592682E-1,-8.108079910E0,-1.454237938E0
2.197613767E0,-7.683951855E-1,-8.143971443E0,-1.408774376E0
2.200139132E0,-6.702894568E-1,-8.225327492E0,-1.478465319E0
2.202664444E0,-5.670989752E-1,-8.297411919E0,-1.523928881E0
2.205189809E0,-4.713860750E-1,-8.335697174E0,-1.566999674E0
2.207715121E0,-3.275175989E-1,-8.359624863E0,-1.586142302E0
2.210240486E0,-1.217348501E-1,-8.371588707E0,-1.595713615E0
2.212765798E0,6.281159073E-2,-8.390731812E0,-1.672283888E0
2.215291163E0,1.968096644E-1,-8.512765884E0,-1.753939033E0
2.217816475E0,4.052843451E-1,-8.570492744E0,-1.883151412E0
2.220341788E0,5.395814776E-1,-8.637491226E0,-1.957328916E0
2.222867152E0,6.568298340E-1,-8.730812073E0,-2.062912226E0
2.225392465E0,7.719843984E-1,-8.809774399E0,-2.187339067E0
2.227917777E0,8.318049908E-1,-8.877073288E0,-2.297708035E0
2.230443142E0,8.653044701E-1,-8.910572052E0,-2.321636200E0
2.232968455E0,8.772686124E-1,-8.999106407E0,-2.312064886E0
2.235493819E0,9.035896659E-1,-9.087641716E0,-2.256730795E0
2.238019132E0,9.059824944E-1,-9.205188751E0,-2.206481695E0
2.240544496E0,8.461619020E-1,-9.286544800E0,-2.156232357E0
2.243069809E0,7.671987414E-1,-9.375378609E0,-2.010270119E0
2.245595173E0,6.975077987E-1,-9.483055115E0,-1.899901152E0
2.248120486E0,6.496513486E-1,-9.593125343E0,-1.763510346E0
2.250645798E0,6.041877270E-1,-9.717850685E0,-1.700997829E0
2.253171163E0,5.443671346E-1,-9.801599503E0,-1.555035591E0
2.255696475E0,4.268197417E-1,-9.799206734E0,-1.334596872E0
2.258221788E0,4.028915167E-1,-9.827920914E0,-1.166800141E0
2.260747152E0,4.292125702E-1,-9.921540260E0,-9.753743410E-1
2.263272465E0,4.797609448E-1,-9.947860718E0,-8.626125455E-1
2.265797830E0,4.701896608E-1,-9.849455833E0,-6.592226624E-1
2.268323142E0,4.507479668E-1,-9.794421196E0,-4.914259613E-1
2.270848507E0,5.276173949E-1,-9.780064583E0,-3.379862010E-1
2.273373819E0,6.065805554E-1,-9.717850685E0,-1.944168359E-1
2.275899184E0,6.305087805E-1,-9.535696983E0,-2.662015148E-2
2.278424496E0,6.137589812E-1,-9.341579437E0,1.938186288E-1
2.280949809E0,6.664010882E-1,-9.221938133E0,3.900300860E-1
2.283475173E0,7.022934556E-1,-9.104690552E0,4.908277392E-1
2.286000486E0,7.671987414E-1,-8.884251595E0,6.272186637E-1
2.288525798E0,7.719843984E-1,-8.651848793E0,8.069794178E-1
2.291051163E0,7.504490018E-1,-8.400302887E0,9.098708034E-1
2.293576475E0,7.719843984E-1,-8.177471161E0,1.041775107E0
2.296101840E0,8.413762450E-1,-7.992925167E0,1.103988528E0
2.298627152E0,8.916255236E-1,-7.777570724E0,1.206879973E0
2.301152517E0,8.174480200E-1,-7.540382385E0,1.197308660E0
2.303677830E0,7.815557122E-1,-7.370193005E0,1.271785259E0
2.306203194E0,8.222336769E-1,-7.214360237E0,1.283749342E0
2.308728507E0,7.695915699E-1,-7.142575741E0,1.243071318E0
2.311253819E0,7.504490018E-1,-7.123433113E0,1.156630635E0
2.313779184E0,6.855437160E-1,-7.116254330E0,1.048953652E0
2.316304496E0,6.400800347E-1,-7.176074982E0,9.170492887E-1
2.318829809E0,5.371887088E-1,-7.221538544E0,8.237292171E-1
2.321355173E0,4.196412563E-1,-7.463512897E0,6.969096065E-1
2.323880486E0,3.167499006E-1,-7.770392418E0,4.812564552E-1
2.326405850E0,2.066800594E-1,-8.163114548E0,1.794617027E-1
2.328931163E0,6.520441920E-2,-8.572885513E0,-3.379862010E-2
2.331456527E0,-2.333002165E-2,-9.013463974E0,-3.332005441E-1
2.333981840E0,-1.552343667E-1,-9.547661781E0,-6.469594240E-1
2.336507205E0,-2.676970363E-1,-1.002443123E1,-1.001695395E0
2.339032517E0,-3.948157430E-1,-1.046291637E1,-1.389631748E0
2.341557830E0,-4.713860750E-1,-1.092024422E1,-1.712961912E0
2.344083194E0,-5.670989752E-1,-1.132044411E1,-2.060519457E0
2.346608507E0,-6.798607111E-1,-1.159352493E1,-2.328814745E0
2.349133819E0,-7.995018363E-1,-1.184746265E1,-2.633002281E0
2.351659184E0,-9.218349457E-1,-1.209422302E1,-2.944368362E0
2.354184496E0,-1.005583763E0,-1.223539925E1,-3.155235767E0
2.356709861E0,-1.082154036E0,-1.234816170E1,-3.461816072E0
2.359235173E0,-1.127617717E0,-1.236969662E1,-3.718147278E0
2.361760538E0,-1.127617717E0,-1.240080357E1,-3.890729666E0
2.364285850E0,-1.098903775E0,-1.245583820E1,-3.996013880E0
2.366811215E0,-1.048654556E0,-1.243191051E1,-4.067798615E0
2.369336527E0,-1.012762189E0,-1.240319633E1,-4.110869408E0
2.371861840E0,-9.672985673E-1,-1.238883877E1,-4.091726780E0
2.374387205E0,-9.170492887E-1,-1.243669605E1,-3.984049797E0
2.376912517E0,-8.787640929E-1,-1.243191051E1,-3.821038723E0
2.379437830E0,-8.401798606E-1,-1.244387436E1,-3.507279873E0
2.381963194E0,-8.353942037E-1,-1.246062374E1,-3.155235767E0
2.384488507E0,-8.641080856E-1,-1.245583820E1,-2.815155745E0
2.387013871E0,-8.859425783E-1,-1.247258759E1,-2.383849621E0
2.389539184E0,-8.931210637E-1,-1.245105267E1,-2.094018936E0
2.392064548E0,-1.029511929E0,-1.227847004E1,-1.775474429E0
2.394589861E0,-1.137488008E0,-1.222822094E1,-1.476072431E0
2.397115225E0,-1.199701428E0,-1.213490105E1,-1.231705427E0
2.399640538E0,-1.355234981E0,-1.207507992E1,-1.130907774E0
2.402165850E0,-1.434497118E0,-1.202453232E1,-1.092622638E0
2.404691215E0,-1.606780410E0,-1.183789158E1,-1.118943691E0
2.407216527E0,-1.796112537E0,-1.169641590E1,-1.164407372E0
2.409741840E0,-1.848754644E0,-1.155763245E1,-1.392024517E0
2.412267205E0,-1.908575177E0,-1.134676456E1,-1.686640859E0
2.414792517E0,-1.877468467E0,-1.117896843E1,-2.041376829E0
2.417317882E0,-1.721935034E0,-1.106171989E1,-2.374278307E0
2.419843194E0,-1.534995675E0,-1.098275661E1,-2.743072033E0
2.422368559E0,-1.240379453E0,-1.093220806E1,-2.987439156E0
2.424893871E0,-8.787640929E-1,-1.091067314E1,-3.112164974E0
2.427419236E0,-5.359922647E-1,-1.101864910E1,-3.157628536E0
2.429944548E0,-2.365903407E-1,-1.124148083E1,-3.097808123E0
2.432469861E0,1.178465188E-1,-1.157198906E1,-2.891726255E0
2.434995225E0,4.076771438E-1,-1.201256752E1,-2.685644388E0
2.437520538E0,6.759724021E-1,-1.262602806E1,-2.515454769E0
2.440045850E0,8.246265054E-1,-1.321765327E1,-2.307279348E0
2.442571215E0,1.001695395E0,-1.384517097E1,-2.084447622E0
2.445096527E0,1.202991605E0,-1.451127338E1,-1.842473388E0
2.447621892E0,1.385145187E0,-1.503589916E1,-1.555035591E0
2.450147205E0,1.572084427E0,-1.542144299E1,-1.284347534E0
2.452672569E0,1.768295884E0,-1.575912952E1,-1.066301584E0
2.455197882E0,2.050948143E0,-1.599871159E1,-9.849455953E-1
2.457723246E0,2.338385820E0,-1.612104416E1,-8.051848412E-1
2.460248559E0,2.688336134E0,-1.623111343E1,-6.541379094E-1
2.462773871E0,3.040380239E0,-1.622632790E1,-5.895316601E-1
2.465299236E0,3.366103172E0,-1.617607880E1,-4.674977362E-1
2.467824548E0,3.682554007E0,-1.611386681E1,-3.547359705E-1
2.470349861E0,3.977170229E0,-1.601067543E1,-2.303091735E-1
2.472875225E0,4.250251293E0,-1.592931938E1,-6.490531564E-2
2.475400538E0,4.504189491E0,-1.569452381E1,-2.991028305E-4
2.477925902E0,4.709972382E0,-1.543101406E1,-5.084747914E-3
2.480451215E0,4.810770035E0,-1.511964798E1,6.191428751E-2
2.482976580E0,4.774877548E0,-1.470030594E1,-3.379862010E-2
2.485501892E0,4.611866474E0,-1.436979771E1,-1.800599098E-1
2.488027257E0,4.312464714E0,-1.407996655E1,-3.308077157E-1
2.490552569E0,3.871587038E0,-1.367288780E1,-5.177469850E-1
2.493077882E0,3.349353552E0,-1.332772255E1,-6.735795736E-1
2.495603246E0,2.717050076E0,-1.301875019E1,-9.056833982E-1
2.498128559E0,2.130210400E0,-1.275284767E1,-1.073480010E0
2.500653871E0,1.466501236E0,-1.260688496E1,-1.293918848E0
2.503179236E0,8.270193338E-1,-1.247258759E1,-1.602892041E0
2.505704548E0,2.114657015E-1,-1.238883877E1,-1.808973908E0
2.508229913E0,-3.421736360E-1,-1.225214958E1,-1.933400750E0
2.510755225E0,-7.133602500E-1,-1.218275738E1,-1.986042738E0
2.513280590E0,-1.015154958E0,-1.212293720E1,-2.113161564E0
2.515805902E0,-1.194915771E0,-1.200538921E1,-2.220838547E0
2.518331267E0,-1.321735382E0,-1.182832050E1,-2.321636200E0
2.520856580E0,-1.309771299E0,-1.169163036E1,-2.412563324E0
2.523381892E0,-1.194915771E0,-1.157198906E1,-2.407777786E0
2.525907257E0,-8.811569214E-1,-1.153849030E1,-2.391027927E0
2.528432569E0,-4.857429862E-1,-1.158156109E1,-2.359921217E0
2.530957882E0,-3.131606579E-1,-1.162463188E1,-2.304886341E0
2.533483246E0,-2.365903407E-1,-1.156720352E1,-2.362314224E0
2.536008559E0,5.324030295E-2,-1.162702465E1,-2.391027927E0
2.538533923E0,2.425723970E-1,-1.174187946E1,-2.362314224E0
2.541059236E0,6.185446382E-1,-1.192642593E1,-2.355135679E0
2.543584600E0,9.490532875E-1,-1.204397392E1,-2.129911184E0
2.546109913E0,1.147956610E0,-1.209661579E1,-1.885544300E0
2.548635277E0,1.325324655E0,-1.221386433E1,-1.600499272E0
2.551160590E0,1.588834286E0,-1.242233849E1,-1.315454245E0
2.553685902E0,1.821237087E0,-1.264517021E1,-1.016052365E0
2.556211267E0,2.029412746E0,-1.287996578E1,-8.171489239E-1
2.558736580E0,2.158924341E0,-1.310489178E1,-7.405785918E-1
2.561261892E0,2.273779631E0,-1.335165119E1,-6.999006271E-1
2.563787257E0,2.316850424E0,-1.365135193E1,-6.687939167E-1
2.566312569E0,2.391327143E0,-1.397468281E1,-6.565307379E-1
2.568837934E0,2.563610315E0,-1.426451302E1,-6.517450809E-1
2.571363246E0,2.755335331E0,-1.453041553E1,-5.703890920E-1
2.573888611E0,3.006880760E0,-1.476042557E1,-4.244269133E-1
2.576413923E0,3.325425386E0,-1.494227982E1,-2.470589429E-1
2.578939288E0,3.672683716E0,-1.503829193E1,-4.097708687E-2
2.581464600E0,4.010669708E0,-1.516511154E1,2.249253243E-1
2.583989913E0,4.228715897E0,-1.530897999E1,4.238287210E-1
2.586515277E0,4.547260284E0,-1.540947914E1,5.793621540E-1
2.589040590E0,5.006981373E0,-1.552702618E1,6.655037999E-1
2.591565902E0,5.526822090E0,-1.565863132E1,7.280163169E-1
2.594091267E0,5.615655422E0,-1.585753441E1,9.002995491E-1
2.596616580E0,5.397609711E0,-1.586231995E1,1.300499082E0
2.599141944E0,5.165206909E0,-1.589103413E1,1.913659930E0
2.601667257E0,4.999803066E0,-1.587428474E1,2.392822742E0
2.604192621E0,4.707579613E0,-1.582164288E1,2.661117792E0
2.606717934E0,4.369892120E0,-1.563230991E1,3.149851799E0
2.609243298E0,4.355535507E0,-1.544537067E1,3.827618837E0
2.611768611E0,4.485046864E0,-1.524646759E1,4.237389565E0
2.614293923E0,4.516153812E0,-1.496142292E1,4.290031910E0
2.616819288E0,4.530510426E0,-1.464766407E1,4.340281010E0
2.619344600E0,4.434498787E0,-1.434108353E1,4.570291042E0
2.621869913E0,4.365106583E0,-1.393400478E1,4.821836948E0
2.624395277E0,4.281357765E0,-1.359841156E1,5.147559643E0
2.626920590E0,4.080061913E0,-1.326072407E1,5.514259815E0
2.629445955E0,3.869194269E0,-1.291585827E1,5.612365723E0
2.631971267E0,3.641577005E0,-1.256112289E1,5.384748459E0
2.634496632E0,3.421437263E0,-1.210857964E1,5.082953453E0
2.637021944E0,3.145963669E0,-1.169880867E1,4.872086048E0
2.639547309E0,2.870190859E0,-1.120289612E1,4.745266438E0
2.642072621E0,2.546860695E0,-1.077667522E1,4.575077057E0
2.644597934E0,2.247458696E0,-1.035733318E1,4.340281010E0
2.647123298E0,1.864308000E0,-9.916754723E0,3.976273060E0
2.649648611E0,1.466501236E0,-9.480662346E0,3.571287870E0
2.652173923E0,1.030708313E0,-9.032606125E0,3.274278641E0
2.654699288E0,6.592226624E-1,-8.582456589E0,3.041875839E0
2.657224600E0,3.382852972E-1,-8.187042236E0,2.787937403E0
2.659749965E0,1.974078640E-2,-7.870891094E0,2.517249346E0
2.662275277E0,-1.624128371E-1,-7.628916740E0,2.292324066E0
2.664800642E0,-2.102692872E-1,-7.432406425E0,2.167598248E0
2.667325955E0,-2.964109182E-1,-7.264908791E0,1.983051777E0
2.669851319E0,-3.397808075E-1,-7.154539585E0,1.784447432E0
2.672376632E0,-3.613162339E-1,-7.106683254E0,1.633400559E0
2.674901944E0,-3.876372576E-1,-7.015756130E0,1.566401482E0
2.677427309E0,-3.541377485E-1,-6.979863644E0,1.578365684E0
2.679952621E0,-3.684946895E-1,-6.996613503E0,1.805982947E0
2.682477934E0,-3.589234054E-1,-7.008577347E0,1.947159410E0
2.685003298E0,-3.972085714E-1,-7.010970116E0,2.028814554E0
2.687528611E0,-3.972085714E-1,-7.089933395E0,1.954337835E0
2.690053923E0,-4.043870270E-1,-7.144968510E0,1.856232166E0
2.692579288E0,-3.996013701E-1,-7.274479866E0,1.755733609E0
2.695104600E0,-3.924229145E-1,-7.406085014E0,1.676471353E0
2.697629965E0,-4.235295951E-1,-7.549953461E0,1.475175142E0
2.700155277E0,-4.163511395E-1,-7.676773071E0,1.300499082E0
2.702680642E0,-4.402793646E-1,-7.796713352E0,1.132702470E0
2.705205955E0,-4.977070987E-1,-7.832605839E0,9.747761488E-1
2.707731267E0,-5.982056856E-1,-7.760521889E0,9.026923180E-1
2.710256632E0,-6.966105103E-1,-7.660023689E0,7.830511928E-1
2.712781944E0,-7.851449251E-1,-7.616952896E0,7.543373108E-1
2.715307309E0,-7.851449251E-1,-7.480262756E0,8.189435601E-1
2.717832621E0,-7.875377536E-1,-7.406085014E0,8.835497499E-1
2.720357934E0,-7.755736113E-1,-7.346264839E0,9.508479238E-1
2.722883298E0,-7.516453862E-1,-7.324729443E0,9.867402315E-1
2.725408611E0,-6.607181430E-1,-7.348657608E0,1.065703392E0
2.727933975E0,-6.005984545E-1,-7.348657608E0,1.092024446E0
2.730459288E0,-6.200401783E-1,-7.229016304E0,9.433703423E-1
2.732984652E0,-5.503492355E-1,-7.154539585E0,8.691928387E-1
2.735509965E0,-4.331009090E-1,-7.250551701E0,7.806583643E-1
2.738035277E0,-3.323032558E-1,-7.360621452E0,6.176473498E-1
2.740560642E0,-2.940180898E-1,-7.475477219E0,5.027918816E-1
2.743085955E0,-2.509472668E-1,-7.628916740E0,2.751746178E-1
2.745611319E0,-2.724826932E-1,-7.753343582E0,4.995017126E-2
2.748136632E0,-3.541377485E-1,-7.897212029E0,-1.007976532E-1
2.750661944E0,-3.421736360E-1,-8.057829857E0,-2.590230405E-1
2.753187309E0,-3.708875179E-1,-8.258827209E0,-3.667000830E-1
2.755712621E0,-4.402793646E-1,-8.476873398E0,-4.746761918E-1
2.758237986E0,-4.881358147E-1,-8.675776482E0,-5.344967842E-1
2.760763298E0,-5.910272002E-1,-8.819346428E0,-6.134598851E-1
2.763288663E0,-5.958128572E-1,-9.066105843E0,-6.565307379E-1
2.765813975E0,-6.726822853E-1,-9.260223389E0,-6.616154313E-1
2.768339288E0,-7.707880139E-1,-9.454340935E0,-6.373881102E-1
2.770864652E0,-8.569296002E-1,-9.626625061E0,-6.134598851E-1
2.773389913E0,-1.019940615E0,-9.765707016E0,-6.373881102E-1
2.775915277E0,-1.273878932E0,-9.861420631E0,-7.668996453E-1
2.778440590E0,-1.324128270E0,-1.000289631E1,-7.692924738E-1
2.780965902E0,-1.362413406E0,-1.019701385E1,-6.640082598E-1
2.783491267E0,-1.465603828E0,-1.033101177E1,-5.703890920E-1
2.786016580E0,-1.563709617E0,-1.046530914E1,-4.746761918E-1
2.788541944E0,-1.721935034E0,-1.058016396E1,-4.292125702E-1
2.791067257E0,-1.927717686E0,-1.067109203E1,-4.603192508E-1
2.793592621E0,-2.215454578E0,-1.074796104E1,-4.555336237E-1
2.796117934E0,-2.354238272E0,-1.085563850E1,-4.914259613E-1
2.798643246E0,-2.572284460E0,-1.089153004E1,-5.775675774E-1
2.801168611E0,-2.876471996E0,-1.088913727E1,-5.608177781E-1
2.803733402E0,-3.063411236E0,-1.085324574E1,-6.038886309E-1
2.806258715E0,-3.235694408E0,-1.082213879E1,-6.879364848E-1
2.808784080E0,-3.451347589E0,-1.074078274E1,-8.003991842E-1
2.811309392E0,-3.667000771E0,-1.062802124E1,-9.466604590E-1
2.813834705E0,-3.846761465E0,-1.046052361E1,-1.097408295E0
2.816360069E0,-3.992723703E0,-1.024008465E1,-1.279561877E0
2.818885382E0,-4.179663181E0,-9.969396591E0,-1.468894005E0
2.821410746E0,-4.407280445E0,-9.626625061E0,-1.576570988E0
2.823936059E0,-4.625326157E0,-9.219545364E0,-1.708176255E0
2.826461423E0,-4.756931305E0,-8.869894028E0,-1.854437590E0
2.828986736E0,-4.910371304E0,-8.486444473E0,-1.887937069E0
2.831512100E0,-5.061119080E0,-8.100900650E0,-1.988435626E0
2.833997934E0,-5.209773064E0,-7.806284904E0,-2.065304995E0
2.836523298E0,-5.372485161E0,-7.468298435E0,-2.122732878E0
2.839048611E0,-5.497210979E0,-7.109076023E0,-2.237588167E0
2.841573923E0,-5.597709656E0,-6.790531635E0,-2.347957134E0
2.844099288E0,-5.674279690E0,-6.572485447E0,-2.326421738E0
2.846624600E0,-5.720042706E0,-6.366403580E0,-2.239981174E0
2.849149965E0,-5.746363640E0,-6.263512135E0,-2.211267233E0
2.851675277E0,-5.688935757E0,-6.194120407E0,-2.165803671E0
2.854200642E0,-5.621637821E0,-6.153143406E0,-2.007877350E0
2.856725955E0,-5.535496235E0,-6.124429703E0,-1.904686809E0
2.859251267E0,-5.384449005E0,-6.114858150E0,-1.751546144E0
2.861776632E0,-5.214558601E0,-6.189334869E0,-1.598106384E0
2.864301944E0,-5.037190914E0,-6.251548290E0,-1.504786372E0
2.866827309E0,-4.847858906E0,-6.285048008E0,-1.387238979E0
2.869352621E0,-4.692325115E0,-6.344868183E0,-1.262812138E0
2.871877934E0,-4.526921272E0,-6.450451851E0,-1.164407372E0
2.874403298E0,-4.357030869E0,-6.572485447E0,-1.090229869E0
2.876928611E0,-4.158127785E0,-6.668198586E0,-1.039980531E0
2.879453975E0,-3.990330935E0,-6.761817455E0,-9.729815125E-1
2.881979288E0,-3.791427374E0,-6.891030312E0,-9.176474810E-1
2.884504652E0,-3.590430260E0,-6.994220734E0,-8.817551732E-1
2.887029965E0,-3.432204962E0,-7.080362320E0,-8.745766878E-1
2.889555277E0,-3.257229805E0,-7.106683254E0,-7.980063558E-1
2.892080642E0,-3.058625460E0,-7.152146816E0,-8.075776696E-1
2.894605955E0,-2.926721096E0,-7.188039303E0,-8.147560954E-1
2.897131319E0,-2.778366089E0,-7.204789162E0,-8.003991842E-1
2.899656632E0,-2.653640270E0,-7.197610378E0,-7.645068169E-1
2.902181944E0,-2.565105915E0,-7.142575741E0,-6.807580590E-1
2.904707309E0,-2.555534601E0,-7.027719975E0,-5.584250093E-1
2.907232621E0,-2.524427891E0,-6.852745056E0,-5.608177781E-1
2.909757986E0,-2.359024048E0,-6.721139908E0,-7.070791125E-1
2.912283298E0,-2.299203396E0,-6.749853611E0,-7.286145091E-1
2.914808663E0,-2.239382982E0,-6.847959518E0,-8.434699774E-1
2.917333975E0,-2.191227436E0,-6.938886642E0,-1.039980531E0
2.919859288E0,-2.239382982E0,-7.003791809E0,-1.190728426E0
2.922384652E0,-2.277667999E0,-7.104290485E0,-1.514357686E0
2.924909965E0,-2.327917337E0,-7.233801842E0,-1.794616938E0
2.927435330E0,-2.447558403E0,-7.334300518E0,-2.079662085E0
2.929960642E0,-2.574677229E0,-7.434799194E0,-2.359921217E0
2.932485955E0,-2.718246460E0,-7.542775154E0,-2.640180588E0
2.935011319E0,-2.876471996E0,-7.573882103E0,-2.941975355E0
2.937536632E0,-2.955435038E0,-7.643273830E0,-3.241377354E0
2.940061996E0,-3.027518749E0,-7.698308468E0,-3.538386583E0
2.942587309E0,-3.108874798E0,-7.731808186E0,-3.775574923E0
2.945112673E0,-3.137588739E0,-7.777570724E0,-3.993621111E0
2.947637986E0,-3.168695450E0,-7.873283863E0,-4.264308929E0
2.950163298E0,-3.130410194E0,-7.957032681E0,-4.460819721E0
2.952688663E0,-3.070589542E0,-8.045866013E0,-4.693222523E0
2.955213975E0,-3.000898600E0,-8.129614830E0,-5.026124001E0
2.957739340E0,-2.948256493E0,-8.165507317E0,-5.380560875E0
2.960264652E0,-2.881257534E0,-8.203792572E0,-5.775974751E0
2.962789965E0,-2.854936600E0,-8.249256134E0,-6.123233318E0
2.965315330E0,-2.725425005E0,-8.340482712E0,-6.518348217E0
2.967840642E0,-2.641676188E0,-8.486444473E0,-6.889833927E0
2.970366007E0,-2.498106956E0,-8.551051140E0,-7.196413994E0
2.972891319E0,-2.337488651E0,-8.577671051E0,-7.553243637E0
2.975416684E0,-2.176870346E0,-8.699705124E0,-7.943871975E0
2.977941996E0,-1.985444546E0,-8.781061172E0,-8.346165657E0
2.980467309E0,-1.724327803E0,-8.920144081E0,-8.765507698E0
2.982992673E0,-1.448854089E0,-9.056534767E0,-9.215657234E0
2.985517986E0,-1.199701428E0,-9.152546883E0,-9.697213173E0
2.988043350E0,-7.779664397E-1,-9.260223389E0,-1.011176968E1
2.990568663E0,-3.828516304E-1,-9.380164146E0,-1.050449181E1
2.993093975E0,1.974078640E-2,-9.490233421E0,-1.099322510E1
2.995619340E0,5.371887088E-1,-9.614660263E0,-1.134766197E1
2.998144652E0,1.076171994E0,-9.751350403E0,-1.164018440E1
3.000670017E0,1.624726534E0,-9.868598938E0,-1.192523003E1
3.003195330E0,2.036591291E0,-9.976574898E0,-1.205922794E1
3.005720694E0,2.379363060E0,-1.002921677E1,-1.206401348E1
3.008246007E0,2.659622431E0,-1.006271648E1,-1.195155048E1
3.010771319E0,2.877668381E0,-1.007707310E1,-1.170000553E1
3.013296684E0,2.951845884E0,-9.957432747E0,-1.110120201E1
3.015821996E0,2.937488794E0,-9.892526627E0,-1.071296597E1
3.018347361E0,2.956631422E0,-9.839884758E0,-1.023619652E1
3.020872673E0,2.930310488E0,-9.701101303E0,-9.558428764E0
3.023397986E0,2.853441000E0,-9.569196701E0,-8.985946655E0
3.025923350E0,2.764906645E0,-9.463912964E0,-8.396414757E0
3.028448663E0,2.554039001E0,-9.343972206E0,-7.831110477E0
3.030974027E0,2.408077002E0,-9.229117393E0,-7.234699249E0
3.033499340E0,2.276172638E0,-9.181260109E0,-6.712465763E0
3.036024705E0,2.075175524E0,-9.094820023E0,-6.254838467E0
3.038550017E0,1.777867198E0,-9.054141998E0,-5.775974751E0
3.041075330E0,1.488036633E0,-9.090034485E0,-5.409274578E0
3.043600694E0,1.104885817E0,-9.135796547E0,-5.073980331E0
3.046125955E0,6.113662124E-1,-9.169296265E0,-4.717150688E0
3.048651319E0,1.154536903E-1,-9.260223389E0,-4.362414837E0
3.051176632E0,-3.756731451E-1,-9.343972206E0,-4.134797573E0
3.053701944E0,-8.330013752E-1,-9.456734657E0,-3.754039526E0
3.056227309E0,-1.386341572E0,-9.722636223E0,-3.390031576E0
3.058752621E0,-1.961516380E0,-9.974182129E0,-3.059223652E0
3.061277986E0,-2.447558403E0,-1.025204849E1,-2.776571512E0
3.063803298E0,-2.950649500E0,-1.059691429E1,-2.486740828E0
3.066328663E0,-3.458526134E0,-1.107368374E1,-2.120339870E0
3.068853975E0,-3.930510283E0,-1.156959629E1,-1.730010748E0
3.071379288E0,-4.488636017E0,-1.218036461E1,-1.258026481E0
3.073904652E0,-4.917549610E0,-1.289671612E1,-7.788637877E-1
3.076429965E0,-5.391627789E0,-1.366570950E1,-3.332005441E-1
3.078955330E0,-5.832505226E0,-1.448255920E1,3.798605874E-2
3.081480642E0,-6.167799473E0,-1.521775341E1,2.799602449E-1
3.084005955E0,-6.409773827E0,-1.591974831E1,2.919243574E-1
3.086531319E0,-6.556035042E0,-1.654008675E1,9.302098304E-2
3.089056632E0,-6.541677952E0,-1.697378731E1,-3.762713671E-1
3.091581996E0,-6.483951092E0,-1.716311836E1,-1.008873820E0
3.094107309E0,-6.383452415E0,-1.715115356E1,-1.835294962E0
3.096632673E0,-6.186942101E0,-1.700489235E1,-2.891726255E0
3.099157986E0,-5.875576019E0,-1.678445435E1,-4.106083870E0
3.101683298E0,-5.583352566E0,-1.648744583E1,-5.325525761E0
3.104208663E0,-5.209773064E0,-1.604656792E1,-6.547360897E0
3.106734027E0,-4.804787636E0,-1.556291866E1,-7.469494820E0
3.109259392E0,-4.277768612E0,-1.499522114E1,-7.994121552E0
3.111784705E0,-3.844368696E0,-1.438176155E1,-7.737790108E0
3.114310017E0,-3.600001574E0,-1.378295708E1,-6.705287457E0
3.116835382E0,-3.463311672E0,-1.309531975E1,-4.635495663E0
3.119360694E0,-3.503989697E0,-1.238644600E1,-1.789831281E0
3.121886059E0,-3.475275755E0,-1.183071327E1,1.451246977E0
3.124411371E0,-3.398705482E0,-1.153609753E1,4.486542225E0
3.126936736E0,-3.583251953E0,-1.127258778E1,6.597012043E0
3.129462048E0,-4.052544117E0,-1.105932713E1,7.864011765E0
3.131987361E0,-4.759324074E0,-1.090110207E1,8.438887596E0
3.134512725E0,-5.604887962E0,-1.077428246E1,8.592327118E0
3.137037986E0,-6.560820580E0,-1.060648537E1,8.228319168E0
3.139563350E0,-7.586144924E0,-1.036690426E1,7.059125900E0
3.142088663E0,-8.896215439E0,-9.986145973E0,5.195415974E0
3.144613975E0,-1.007737255E1,-9.617053032E0,3.171387196E0
3.147139340E0,-1.075035381E1,-9.166903496E0,1.130309582E0
3.149664652E0,-1.087747288E1,-8.637491226E0,-1.920240223E-1
3.152190017E0,-1.034566784E1,-8.060222626E0,-1.016052365E0
3.154715330E0,-9.207880974E0,-7.566703320E0,-1.464108348E0
3.157240694E0,-7.864011765E0,-7.099504948E0,-1.310668588E0
3.159766007E0,-6.694818497E0,-6.713961124E0,-6.903293133E-1
3.162291319E0,-5.635994434E0,-6.385546207E0,4.995017126E-2
3.164816684E0,-4.747360229E0,-6.040680885E0,7.375875711E-1
3.167342048E0,-3.992723703E0,-5.734100342E0,1.255035520E0
3.169867413E0,-3.269193888E0,-5.456233978E0,1.638186216E0
3.172392725E0,-2.569891453E0,-5.207081318E0,1.794018745E0
3.174918038E0,-1.922932148E0,-5.022534847E0,1.813161373E0
3.177443402E0,-1.285843015E0,-4.874179840E0,1.662114382E0
3.179968715E0,-7.516453862E-1,-4.703989983E0,1.420140266E0
3.182494080E0,-3.107678294E-1,-4.605884552E0,1.063310504E0
3.185019392E0,1.298106313E-1,-4.601099014E0,8.021938205E-1
3.187544757E0,5.371887088E-1,-4.646562576E0,6.655037999E-1
3.190070069E0,8.796614408E-1,-4.816452980E0,6.583253145E-1
3.192595382E0,1.318146229E0,-5.024927616E0,7.734799385E-1
3.195120746E0,1.663011789E0,-5.271687508E0,1.001097202E0
3.197646059E0,1.988734722E0,-5.599802971E0,1.393819213E0
3.200171423E0,2.261815548E0,-6.014359951E0,1.853839397E0
3.202696736E0,2.558824778E0,-6.471987247E0,2.297109842E0
3.205222048E0,2.863012314E0,-7.008577347E0,2.673082113E0
3.207747413E0,3.112164974E0,-7.593024254E0,3.001197815E0
3.210272725E0,3.431008577E0,-8.261219978E0,3.430111170E0
3.212798090E0,3.735196114E0,-8.991928101E0,3.882653952E0
3.215323402E0,4.017848492E0,-9.794421196E0,4.211068630E0
3.217848715E0,4.331607342E0,-1.060169983E1,4.383351803E0
3.220374080E0,4.626223564E0,-1.149272728E1,4.457828522E0
3.222899392E0,4.944767952E0,-1.235534000E1,4.392923355E0
3.225424757E0,5.268098354E0,-1.312672615E1,4.232604027E0
3.227950017E0,5.543571949E0,-1.395075417E1,4.153341770E0
3.230475382E0,5.752046585E0,-1.467877007E1,3.947559118E0
3.233000694E0,5.848058701E0,-1.534487247E1,3.518645763E0
3.235526007E0,5.797510147E0,-1.585753441E1,2.936591625E0
3.238051371E0,5.598906040E0,-1.630050659E1,2.256132603E0
3.240576684E0,5.232205868E0,-1.657837296E1,1.614257932E0
3.243102048E0,4.808377266E0,-1.665763474E1,1.170987606E0
3.245627361E0,4.322035789E0,-1.666002846E1,9.628120065E-1
3.248152673E0,3.921836376E0,-1.653530121E1,1.022632599E0
3.250678038E0,3.466900826E0,-1.629093552E1,1.204487085E0
3.253203350E0,3.009273529E0,-1.593171215E1,1.458425403E0
3.255728715E0,2.424826622E0,-1.547169209E1,1.456032634E0
3.258254080E0,1.794616938E0,-1.492313766E1,1.274178028E0
3.260779444E0,1.095314622E0,-1.430040550E1,9.628120065E-1
3.263304757E0,2.856431901E-1,-1.361755371E1,5.410770178E-1
3.265830069E0,-5.670989752E-1,-1.291825104E1,-2.422732860E-2
3.268355434E0,-1.371984720E0,-1.230479145E1,-6.349952817E-1
3.270880746E0,-2.164906263E0,-1.165573788E1,-1.224527001E0
3.273406111E0,-2.811865807E0,-1.102104187E1,-1.804188251E0
3.275931423E0,-3.302992582E0,-1.045334530E1,-2.218445778E0
3.278456736E0,-3.576073408E0,-1.001725292E1,-2.542074919E0
3.280982100E0,-3.750749588E0,-9.547661781E0,-2.920439959E0
3.283507413E0,-3.793820381E0,-9.102297783E0,-3.375674486E0
3.286032777E0,-3.868296862E0,-8.781061172E0,-3.974478483E0
3.288558090E0,-3.942474365E0,-8.450551987E0,-4.391128540E0
3.291083455E0,-3.947260141E0,-8.167900085E0,-4.515854359E0
3.293608767E0,-3.772284985E0,-8.053044319E0,-4.542175770E0
3.296134080E0,-3.518346548E0,-7.959425449E0,-4.381557465E0
3.298659444E0,-3.355634689E0,-8.009675026E0,-4.163810730E0
3.301184757E0,-3.391526937E0,-7.961818218E0,-4.063013077E0
3.303710121E0,-3.748356581E0,-7.715058327E0,-4.130012035E0
3.306235434E0,-4.134199142E0,-7.504489899E0,-4.328915119E0
3.308760746E0,-4.299304008E0,-7.296015263E0,-4.314558506E0
3.311286111E0,-4.328018188E0,-7.168896675E0,-4.094119549E0
3.313811423E0,-4.179663181E0,-7.089933395E0,-3.885943890E0
3.316336788E0,-3.954438448E0,-7.097112179E0,-3.639184237E0
3.318862100E0,-3.810570002E0,-7.109076023E0,-3.284448147E0
3.321387465E0,-3.662214994E0,-7.147361279E0,-2.841476917E0
3.323912777E0,-3.525525093E0,-7.226623535E0,-2.434098721E0
3.326438090E0,-3.386741400E0,-7.348657608E0,-2.074876308E0
3.328963455E0,-3.281457186E0,-7.511668682E0,-1.734796405E0
3.331488767E0,-3.149552822E0,-7.664809227E0,-1.519143224E0
3.334014132E0,-3.017947674E0,-7.858926773E0,-1.258026481E0
3.336539444E0,-2.905185699E0,-8.026424408E0,-1.049551845E0
3.339064757E0,-2.754437923E0,-8.213363647E0,-9.032905698E-1
3.341590121E0,-2.572284460E0,-8.354839325E0,-7.573283911E-1
3.344115434E0,-2.411666155E0,-8.460124016E0,-6.158527136E-1
3.346640798E0,-2.303989172E0,-8.627920151E0,-4.986044168E-1
3.349166111E0,-2.076371908E0,-8.802596092E0,-3.786641955E-1
3.351691475E0,-1.870290041E0,-8.927322388E0,-3.308077157E-1
3.354216788E0,-1.729113460E0,-8.979964256E0,-2.518445849E-1
3.356742100E0,-1.530210137E0,-9.087641716E0,-9.122636169E-2
3.359267465E0,-1.340878010E0,-9.205188751E0,9.272187948E-3
3.361792777E0,-1.147059321E0,-9.341579437E0,-1.226321608E-2
3.364318142E0,-9.170492887E-1,-9.557232857E0,5.952146277E-2
3.366843455E0,-7.420741320E-1,-9.658030510E0,9.541380405E-2
3.369368767E0,-5.527420044E-1,-9.775279045E0,1.313061416E-1
3.371894132E0,-4.139583111E-1,-9.943075180E0,3.014956415E-1
3.374419444E0,-2.700898647E-1,-1.006750202E1,4.214358926E-1
3.376944809E0,-1.671984792E-1,-1.021376324E1,5.099703074E-1
3.379470121E0,-2.811566554E-2,-1.035494041E1,6.032904387E-1
3.381995486E0,7.716853172E-2,-1.043898773E1,6.391827464E-1
3.384520798E0,1.800599098E-1,-1.057298565E1,6.415755749E-1
3.387046111E0,2.186441720E-1,-1.069262695E1,6.415755749E-1
3.389571475E0,2.832503915E-1,-1.082453156E1,6.583253145E-1
3.392096788E0,3.454637825E-1,-1.099711418E1,6.969096065E-1
3.394622152E0,3.215355575E-1,-1.106650543E1,7.710871100E-1
3.397147465E0,2.186441720E-1,-1.116700459E1,7.710871100E-1
3.399672777E0,1.896311939E-1,-1.120528889E1,6.873382926E-1
3.402198142E0,1.178465188E-1,-1.129890823E1,5.985047817E-1
3.404723455E0,2.991028363E-3,-1.132044411E1,4.525425732E-1
3.407248819E0,-1.313061416E-1,-1.133001518E1,2.608176768E-1
3.409774132E0,-3.059822023E-1,-1.130369377E1,4.516452923E-2
3.412299496E0,-4.570291340E-1,-1.125105190E1,-2.638086975E-1
3.414824809E0,-6.487540603E-1,-1.111196899E1,-5.727819204E-1
3.417350121E0,-7.995018363E-1,-1.098036385E1,-9.176474810E-1
3.419875486E0,-9.649057388E-1,-1.086281681E1,-1.358525038E0
3.422400798E0,-1.127617717E0,-1.069741249E1,-1.804188251E0
3.424926163E0,-1.252343535E0,-1.050598717E1,-2.194517374E0
3.427451475E0,-1.324128270E0,-1.035015392E1,-2.546860695E0
3.429976788E0,-1.439282775E0,-1.021137047E1,-2.939582586E0
3.432502152E0,-1.487139225E0,-1.009382343E1,-3.258127213E0
3.435027465E0,-1.580459356E0,-9.943075180E0,-3.516851187E0
3.437552830E0,-1.597209096E0,-9.839884758E0,-3.809074640E0
3.440078142E0,-1.681257010E0,-9.684351921E0,-4.041477680E0
3.442603507E0,-1.769791484E0,-9.573982239E0,-4.264308929E0
3.445128819E0,-1.776969910E0,-9.425627708E0,-4.489533424E0
3.447654132E0,-1.824826360E0,-9.284152031E0,-4.736293316E0
3.450179496E0,-1.832004786E0,-9.126225471E0,-4.870291233E0
3.452704809E0,-1.791326880E0,-8.953642845E0,-5.050052166E0
3.455230173E0,-1.776969910E0,-8.836395264E0,-5.054837704E0
3.457755486E0,-1.649851203E0,-8.711668968E0,-5.066802025E0
3.460280798E0,-1.477568030E0,-8.611170769E0,-4.956732273E0
3.462806163E0,-1.295414329E0,-8.565707207E0,-4.757828712E0
3.465331475E0,-1.036690354E0,-8.531908035E0,-4.518247128E0
3.467856840E0,-9.170492887E-1,-8.457730293E0,-4.245166302E0
3.470382152E0,-8.234301209E-1,-8.366803169E0,-3.919443607E0
3.472907517E0,-7.540382147E-1,-8.357232094E0,-3.595814228E0
3.475432830E0,-7.133602500E-1,-8.326125145E0,-3.270091295E0
3.477958142E0,-6.774678826E-1,-8.328517914E0,-2.908475876E0
3.480483507E0,-6.774678826E-1,-8.275577545E0,-2.544467688E0
3.483008819E0,-7.061817646E-1,-8.210970879E0,-2.239981174E0
3.485534184E0,-7.851449251E-1,-8.155936241E0,-1.909472466E0
3.488059496E0,-8.353942037E-1,-8.108079910E0,-1.581356645E0
3.490584809E0,-8.811569214E-1,-8.045866013E0,-1.212562919E0
3.493110173E0,-8.665009141E-1,-7.961818218E0,-8.315058947E-1
3.495635486E0,-8.715856671E-1,-7.918747425E0,-5.536393523E-1
3.498160850E0,-9.050851464E-1,-7.957032681E0,-3.044866920E-1
3.500686215E0,-9.385846853E-1,-7.928318501E0,-1.055833027E-1
3.503211580E0,-9.337990284E-1,-7.892426491E0,5.712864175E-2
3.505736892E0,-9.050851464E-1,-7.937890053E0,2.464607358E-1
3.508262205E0,-8.883354068E-1,-7.942675591E0,3.661018610E-1
3.510787569E0,-8.186444640E-1,-8.016853333E0,4.740779996E-1
3.513312882E0,-8.138588071E-1,-8.050651550E0,5.650052428E-1
3.515838246E0,-7.995018363E-1,-8.124829292E0,5.578267574E-1
3.518363559E0,-7.731808424E-1,-8.309375763E0,5.147559643E-1
3.520888871E0,-7.516453862E-1,-8.436195374E0,4.645066857E-1
3.523414236E0,-7.516453862E-1,-8.606385231E0,3.828516304E-1
3.525939548E0,-7.636095285E-1,-8.778668404E0,2.512463629E-1
3.528464913E0,-8.018946648E-1,-8.908179283E0,1.579262912E-1
3.530990225E0,-8.377870321E-1,-9.078069687E0,-3.858426586E-2
3.533515590E0,-8.907282352E-1,-9.221938133E0,-2.446661144E-1
3.536040902E0,-9.409775138E-1,-9.365508080E0,-3.933202326E-1
3.538566215E0,-9.601200819E-1,-9.463912964E0,-6.302096844E-1
3.541091580E0,-9.960124493E-1,-9.569196701E0,-8.626125455E-1
3.543616892E0,-9.912267923E-1,-9.614660263E0,-1.099801064E0
3.546142257E0,-9.625129104E-1,-9.662816048E0,-1.442273855E0
3.548667569E0,-9.433703423E-1,-9.715457916E0,-1.741974831E0
3.551192882E0,-8.593224287E-1,-9.736993790E0,-1.995913148E0
3.553718246E0,-8.497511148E-1,-9.760921478E0,-2.335993052E0
3.556243559E0,-7.803592682E-1,-9.734601021E0,-2.570788860E0
3.558768923E0,-6.846463680E-1,-9.729815483E0,-2.788535595E0
3.561294236E0,-5.335994363E-1,-9.679565430E0,-3.056830883E0
3.563819600E0,-4.091726840E-1,-9.658030510E0,-3.270091295E0
3.566344913E0,-3.131606579E-1,-9.643673897E0,-3.378067255E0
3.568870225E0,-1.360917836E-1,-9.557232857E0,-3.409173965E0
3.571395590E0,1.734796353E-2,-9.483055115E0,-3.480958700E0
3.573920902E0,1.848455518E-1,-9.437591553E0,-3.437887907E0
3.576446267E0,2.808575630E-1,-9.334401131E0,-3.344567776E0
3.578971580E0,3.909274042E-1,-9.198010445E0,-3.136093140E0
3.581496892E0,5.012963414E-1,-9.107083321E0,-2.968296528E0
3.584022257E0,5.587241054E-1,-8.984749794E0,-2.769393206E0
3.586547569E0,5.754738450E-1,-8.855537415E0,-2.623430967E0
3.589072934E0,5.802595019E-1,-8.709276199E0,-2.362314224E0
3.591598246E0,5.395814776E-1,-8.654241562E0,-2.137089729E0
3.594123611E0,5.156532526E-1,-8.637491226E0,-1.923829436E0
3.596648923E0,4.893322289E-1,-8.651848793E0,-1.672283888E0
3.599174236E0,4.363910258E-1,-8.625527382E0,-1.444666624E0
3.601699600E0,3.717848063E-1,-8.666205406E0,-1.178764224E0
3.604224913E0,3.454637825E-1,-8.740383148E0,-9.152546525E-1
3.606750277E0,2.688934505E-1,-8.831310272E0,-6.831508875E-1
3.609275590E0,2.186441720E-1,-8.939286232E0,-4.124628007E-1
3.611800902E0,1.298106313E-1,-9.061320305E0,-1.728814393E-1
3.614326267E0,1.800599098E-1,-9.131011009E0,8.344969153E-2
3.616851580E0,1.848455518E-1,-9.236295700E0,3.373879790E-1
3.619376944E0,2.665006220E-1,-9.253045082E0,5.985047817E-1
3.621902205E0,3.047857881E-1,-9.245866776E0,7.519445419E-1
3.624427569E0,3.047857881E-1,-9.329615593E0,8.572286963E-1
3.626952882E0,3.191427290E-1,-9.353543282E0,9.050851464E-1
3.629478194E0,3.358924687E-1,-9.320044518E0,9.002995491E-1
3.632003559E0,2.736790776E-1,-9.353543282E0,8.356932998E-1
3.634528871E0,1.417747438E-1,-9.389735222E0,8.213363886E-1
3.637054236E0,-1.136590727E-2,-9.461520195E0,7.902296782E-1
3.639579548E0,-2.413759828E-1,-9.545269012E0,8.093722463E-1
3.642104861E0,-4.594219327E-1,-9.566803932E0,7.782655358E-1
3.644630225E0,-6.702894568E-1,-9.701101303E0,7.591229677E-1
3.647155538E0,-9.194421172E-1,-9.902397156E0,8.093722463E-1
3.649680902E0,-1.190130115E0,-1.013689423E1,8.763712645E-1
3.652206215E0,-1.403091431E0,-1.045813084E1,9.580263495E-1
3.654731580E0,-1.597209096E0,-1.079342461E1,1.034596682E0
3.657256892E0,-1.695613980E0,-1.116221809E1,1.080060363E0
3.659782205E0,-1.719542146E0,-1.153609753E1,1.103988528E0
3.662307569E0,-1.566102386E0,-1.191206932E1,1.178166032E0
3.664832882E0,-1.432104349E0,-1.229761314E1,1.223928809E0
3.667358246E0,-1.278664589E0,-1.264756298E1,1.314856052E0
3.669883559E0,-1.005583763E0,-1.296610737E1,1.355534077E0
3.672408871E0,-7.492526174E-1,-1.329661655E1,1.422533035E0
3.674934236E0,-5.407779217E-1,-1.368724442E1,1.400997639E0
3.677459548E0,-3.421736360E-1,-1.407757378E1,1.448854089E0
3.679984913E0,-1.504487246E-1,-1.450887966E1,1.432104349E0
3.682510225E0,-4.247260094E-2,-1.499761391E1,1.408176184E0
3.685035590E0,4.366901144E-2,-1.548365593E1,1.405783296E0
3.687560902E0,1.585244983E-1,-1.600588989E1,1.353141189E0
3.690086215E0,2.306082845E-1,-1.653769493E1,1.266999602E0
3.692611580E0,2.473580390E-1,-1.704796410E1,1.185344458E0
3.695136892E0,2.784647346E-1,-1.742662811E1,1.130309582E0
3.697662257E0,3.478565812E-1,-1.773799515E1,1.001097202E0
3.700187569E0,4.579264224E-1,-1.797039795E1,9.314061999E-1
3.702712882E0,5.970092416E-1,-1.809003830E1,8.380861282E-1
3.705238246E0,7.238288522E-1,-1.816421509E1,7.088736892E-1
3.707763559E0,8.461619020E-1,-1.809960938E1,5.865406394E-1
3.710288923E0,9.849455953E-1,-1.803260994E1,4.884349108E-1
3.712814288E0,1.155135155E0,-1.796561241E1,3.613162339E-1
3.715339652E0,1.260419369E0,-1.787199211E1,2.656033039E-1
3.717864965E0,1.361217022E0,-1.778824425E1,1.722832322E-1
3.720390277E0,1.409073472E0,-1.763001823E1,1.073779166E-1
3.722915642E0,1.449751377E0,-1.752234077E1,4.037888348E-2
3.725440955E0,1.459322691E0,-1.740987778E1,3.559323773E-2
3.727966319E0,1.409073472E0,-1.736411667E1,3.080759197E-2
3.730491632E0,1.320538998E0,-1.739552116E1,-9.870393202E-3
3.733016944E0,1.140778184E0,-1.745534134E1,-8.165507019E-2
3.735542309E0,9.227322340E-1,-1.753909111E1,-1.944168359E-1
3.738067621E0,7.334001660E-1,-1.758455467E1,-2.997010350E-1
3.740592986E0,4.725824594E-1,-1.759173203E1,-4.627120793E-1
3.743118298E0,3.071786165E-1,-1.755823326E1,-6.903293133E-1
3.745643663E0,1.561316848E-1,-1.744337845E1,-9.152546525E-1
3.748168975E0,6.999006122E-2,-1.723490334E1,-1.145264745E0
3.750694288E0,1.016949583E-2,-1.697857285E1,-1.439880967E0
3.753219652E0,6.999006122E-2,-1.664566994E1,-1.677069545E0
3.755744965E0,1.250249892E-1,-1.629332733E1,-1.818545222E0
3.758270330E0,2.090728730E-1,-1.599153328E1,-1.907079697E0
3.760795642E0,2.736790776E-1,-1.566820240E1,-1.990828395E0
3.763320955E0,3.191427290E-1,-1.533051586E1,-2.072483540E0
3.765846319E0,3.933202326E-1,-1.508614826E1,-2.050948143E0
3.768371632E0,3.957130313E-1,-1.476999664E1,-2.003091574E0
3.770896996E0,4.483551383E-1,-1.448734474E1,-1.959721804E0
3.773422257E0,4.749752879E-1,-1.423819160E1,-1.813759565E0
3.775947621E0,4.941178858E-1,-1.393639755E1,-1.705783486E0
3.778472934E0,5.300102234E-1,-1.369442272E1,-1.576570988E0
3.780998246E0,5.682953596E-1,-1.345244884E1,-1.336989641E0
3.783523611E0,5.563312769E-1,-1.319611740E1,-1.133300662E0
3.786048923E0,5.946164131E-1,-1.296610737E1,-9.610173702E-1
3.788574288E0,5.515456200E-1,-1.283420372E1,-7.692924738E-1
3.791099600E0,4.749752879E-1,-1.268584824E1,-5.991029739E-1
3.793624913E0,4.004986882E-1,-1.256112289E1,-4.962115884E-1
3.796150277E0,2.736790776E-1,-1.241516018E1,-3.738785386E-1
3.798675590E0,1.657029688E-1,-1.226650620E1,-2.327020019E-1
3.801200955E0,2.931207791E-2,-1.217797184E1,-1.633101404E-1
3.803726267E0,-1.217348501E-1,-1.201496029E1,-9.361918271E-2
3.806251632E0,-2.389831543E-1,-1.184746265E1,-5.294119939E-2
3.808776944E0,-3.179463148E-1,-1.171795177E1,-5.772684515E-2
3.811302257E0,-4.474578202E-1,-1.160309601E1,-7.926224917E-2
3.813827621E0,-5.886343718E-1,-1.149033451E1,-1.393819153E-1
3.816352934E0,-6.774678826E-1,-1.145683479E1,-2.374876440E-1
3.818878298E0,-7.923234105E-1,-1.147837067E1,-2.805584669E-1
3.821403611E0,-1.007976532E0,-1.155523968E1,-3.619144261E-1
3.823928923E0,-1.178166032E0,-1.162702465E1,-4.579264224E-1
3.826454288E0,-1.336092353E0,-1.172991562E1,-4.914259613E-1
3.828979600E0,-1.530210137E0,-1.182114220E1,-5.536393523E-1
3.831504965E0,-1.693221092E0,-1.199581814E1,-5.847460628E-1
3.834030277E0,-1.846361756E0,-1.215882874E1,-6.038886309E-1
3.836555642E0,-1.925324917E0,-1.235055447E1,-5.895316601E-1
3.839080955E0,-2.016551256E0,-1.257787228E1,-5.727819204E-1
3.841606267E0,-2.097907305E0,-1.281745338E1,-5.823532343E-1
3.844131632E0,-2.184048891E0,-1.303549957E1,-6.014958024E-1
3.846656944E0,-2.160120726E0,-1.324397469E1,-6.062814593E-1
3.849182309E0,-2.133799553E0,-1.345005608E1,-5.440680385E-1
3.851707621E0,-2.093121529E0,-1.358883953E1,-5.201398134E-1
3.854232934E0,-2.035693884E0,-1.370160198E1,-4.004986882E-1
3.856758298E0,-1.918146491E0,-1.376381493E1,-3.020938635E-1
3.859283611E0,-1.774577141E0,-1.379252911E1,-2.446661144E-1
3.861808975E0,-1.676471353E0,-1.382842159E1,-1.728814393E-1
3.864334288E0,-1.542174220E0,-1.383320713E1,-8.644071966E-2
3.866859652E0,-1.408176184E0,-1.384756374E1,6.879365072E-3
3.869384965E0,-1.264307618E0,-1.391217041E1,1.049850956E-1
3.871910277E0,-1.098903775E0,-1.397707558E1,1.794617027E-1
3.874435642E0,-9.337990284E-1,-1.400578880E1,2.727817893E-1
3.876960955E0,-7.612167001E-1,-1.407996655E1,3.158525825E-1
3.879486319E0,-6.005984545E-1,-1.415414429E1,3.996013701E-1
3.882011632E0,-4.929214716E-1,-1.428604889E1,4.405784607E-1
3.884536944E0,-4.785645306E-1,-1.431236935E1,4.788636267E-1
3.887062309E0,-3.924229145E-1,-1.443201065E1,5.123631358E-1
3.889587621E0,-3.275175989E-1,-1.443679619E1,5.817549825E-1
3.892112986E0,-2.533400953E-1,-1.439133263E1,6.897311211E-1
3.894638298E0,-2.174477577E-1,-1.436979771E1,7.567301393E-1
3.897163663E0,-2.341975123E-1,-1.430758381E1,8.093722463E-1
3.899688975E0,-2.653042078E-1,-1.421665668E1,8.261220455E-1
3.902214288E0,-2.844468057E-1,-1.416610813E1,8.141579032E-1
3.904739652E0,-3.251247704E-1,-1.408475208E1,8.476574421E-1
3.907264965E0,-4.235295951E-1,-1.396271801E1,8.763712645E-1
3.909790330E0,-5.144568682E-1,-1.378774357E1,9.002995491E-1
3.912315642E0,-6.702894568E-1,-1.363669586E1,1.020239711E0
3.914840955E0,-8.042874932E-1,-1.349791241E1,1.192523003E0
3.917366319E0,-9.002995491E-1,-1.335404396E1,1.479960799E0
3.919891632E0,-8.835497499E-1,-1.320808220E1,1.837089539E0
3.922416996E0,-7.923234105E-1,-1.311954784E1,2.392822742E0
3.924942309E0,-7.229315639E-1,-1.308574867E1,2.986840963E0
3.927467673E0,-6.846463680E-1,-1.293021584E1,3.408575773E0
3.929992986E0,-5.599204898E-1,-1.285843086E1,3.676871061E0
3.932518298E0,-4.043870270E-1,-1.287996578E1,3.897309780E0
3.935043663E0,-3.852444589E-1,-1.269781208E1,3.894917011E0
3.937568975E0,-4.929214716E-1,-1.253240871E1,3.889832258E0
3.940094340E0,-5.048855543E-1,-1.241994572E1,3.741477251E0
3.942619652E0,-5.168496966E-1,-1.228325558E1,3.427718401E0
3.945144965E0,-5.934200287E-1,-1.208943748E1,3.022733212E0
3.947670330E0,-5.599204898E-1,-1.196710396E1,2.385644197E0
3.950195642E0,-6.296114326E-1,-1.177567863E1,1.767697692E0
3.952721007E0,-7.372884750E-1,-1.156241798E1,1.127916813E0
3.955246319E0,-8.641080856E-1,-1.131326580E1,4.692923427E-1
3.957771684E0,-1.019940615E0,-1.100907803E1,-1.441675574E-1
3.960296996E0,-1.024726272E0,-1.073121166E1,-6.469594240E-1
3.962822309E0,-1.086939692E0,-1.043150997E1,-1.207777262E0
3.965347673E0,-1.094118118E0,-1.009382343E1,-1.871187329E0
3.967872986E0,-1.077368379E0,-9.732208252E0,-2.455634356E0
3.970398350E0,-1.110867858E0,-9.394520760E0,-3.011367321E0
3.972923663E0,-1.091725349E0,-9.107083321E0,-3.490530014E0
3.975448975E0,-1.142273664E0,-8.821739197E0,-3.861716747E0
3.977974340E0,-1.185344458E0,-8.587242126E0,-4.233202457E0
3.980499652E0,-1.242772222E0,-8.376375198E0,-4.448855400E0
3.983025017E0,-1.249950767E0,-8.292326927E0,-4.616353035E0
3.985550330E0,-1.331306696E0,-8.225327492E0,-4.736293316E0
3.988075694E0,-1.546959877E0,-8.132007599E0,-4.745864391E0
3.990601007E0,-1.786541224E0,-8.014460564E0,-4.700400829E0
3.993126319E0,-2.100300074E0,-7.925925732E0,-4.834399223E0
3.995651684E0,-2.562713146E0,-7.856534004E0,-4.963910580E0
3.998176996E0,-3.089732170E0,-7.765606880E0,-5.138586521E0
4.000702361E0,-3.602394581E0,-7.681559086E0,-5.265705109E0
4.003227673E0,-4.047758579E0,-7.612166882E0,-5.311169147E0
4.005752986E0,-4.412065983E0,-7.609774113E0,-5.263312340E0
4.008278350E0,-4.742574692E0,-7.612166882E0,-5.112265587E0
4.010803663E0,-4.977370262E0,-7.581060410E0,-4.865505695E0
4.013329027E0,-5.173880577E0,-7.549953461E0,-4.645066738E0
4.015854340E0,-5.415555954E0,-7.545167923E0,-4.343272209E0
4.018379705E0,-5.547460079E0,-7.514061451E0,-4.065405846E0
4.020905017E0,-5.518746376E0,-7.523632526E0,-3.667897940E0
4.023430330E0,-5.374877930E0,-7.581060410E0,-3.109772205E0
4.025955694E0,-5.161916733E0,-7.652844906E0,-2.546860695E0
4.028481007E0,-4.886443138E0,-7.633702278E0,-2.125125647E0
4.031006371E0,-4.668396950E0,-7.612166882E0,-1.832902193E0
4.033531684E0,-4.447957993E0,-7.619345665E0,-1.545464277E0
4.036056996E0,-4.011866093E0,-7.657630444E0,-1.258026481E0
4.038582361E0,-3.619144201E0,-7.688737392E0,-1.020837903E0
4.041107673E0,-3.293421268E0,-7.669594765E0,-1.006481051E0
4.043633038E0,-3.044268608E0,-7.650452137E0,-1.142871857E0
4.046158350E0,-2.795115948E0,-7.614559650E0,-1.054337502E0
4.048683715E0,-2.337488651E0,-7.719843864E0,-8.865407705E-1
4.051209027E0,-1.851147413E0,-7.832605839E0,-7.740781307E-1
4.053734340E0,-1.458425403E0,-7.909176350E0,-6.640082598E-1
4.056259705E0,-1.271486163E0,-7.827820301E0,-7.118647099E-1
4.058785017E0,-9.960124493E-1,-7.777570724E0,-8.745766878E-1
4.061310382E0,-7.037889361E-1,-7.791927814E0,-1.068694472E0
4.063835694E0,-5.455635786E-1,-7.722237110E0,-1.236491084E0
4.066361007E0,-3.637090325E-1,-7.667201996E0,-1.315454245E0
4.068886371E0,-1.671984792E-1,-7.660023689E0,-1.351346612E0
4.071411684E0,-3.768695518E-2,-7.499704361E0,-1.411167145E0
4.073937048E0,8.913264424E-2,-7.468298435E0,-1.478465319E0
4.076462361E0,2.521436810E-1,-7.324729443E0,-1.557428479E0
4.078987725E0,3.167499006E-1,-7.116254330E0,-1.602892041E0
4.081513038E0,3.454637825E-1,-6.926922321E0,-1.724925995E0
4.084038350E0,3.215355575E-1,-6.718746662E0,-1.797009826E0
4.086563715E0,2.736790776E-1,-6.574878216E0,-1.811366796E0
4.089089027E0,2.138585299E-1,-6.373582363E0,-1.861616015E0
4.091614392E0,1.537388563E-1,-6.191727638E0,-1.856830359E0
4.094139705E0,1.250249892E-1,-6.059823513E0,-1.895115495E0
4.096665017E0,1.345962733E-1,-5.930611134E0,-1.921436548E0
4.099190382E0,8.434699476E-2,-5.853741646E0,-1.885544300E0
4.101715694E0,1.016949583E-2,-5.758028507E0,-1.770688772E0
4.104241059E0,-1.193420291E-1,-5.604588985E0,-1.689033628E0
4.106766371E0,-2.365903407E-1,-5.544768333E0,-1.643570065E0
4.109291736E0,-3.275175989E-1,-5.413163185E0,-1.540678620E0
4.111817048E0,-4.115654826E-1,-5.326722145E0,-1.406381488E0
4.114342361E0,-5.335994363E-1,-5.231009483E0,-1.250848055E0
4.116867725E0,-6.152545214E-1,-5.113760948E0,-1.195813060E0
4.119393038E0,-7.348956466E-1,-4.941178799E0,-1.142871857E0
4.121918402E0,-8.787640929E-1,-4.874179840E0,-1.147657514E0
4.124443715E0,-1.072582722E0,-4.744668007E0,-1.123729348E0
4.126969027E0,-1.218844056E0,-4.689633369E0,-1.135693431E0
4.129494392E0,-1.350449324E0,-4.694418907E0,-1.286740422E0
4.132019705E0,-1.570888042E0,-4.613062859E0,-1.435095429E0
4.134545069E0,-1.846361756E0,-4.531407833E0,-1.502393484E0
4.137070330E0,-2.069193363E0,-4.488337040E0,-1.571785331E0
4.139595694E0,-2.327917337E0,-4.481158733E0,-1.686640859E0
4.142121007E0,-2.591426849E0,-4.426123619E0,-1.746760488E0
4.144646319E0,-2.850150824E0,-4.411766529E0,-1.785045743E0
4.147171684E0,-3.065804005E0,-4.423730850E0,-1.813759565E0
4.149696996E0,-3.254837036E0,-4.359124660E0,-1.825723648E0
4.152222361E0,-3.389134169E0,-4.308875561E0,-1.823330879E0
4.154747673E0,-3.513561010E0,-4.301696777E0,-1.806581140E0
4.157272986E0,-3.623929977E0,-4.246362686E0,-1.852044702E0
4.159798350E0,-3.686143398E0,-4.153042793E0,-1.993221283E0
4.162323663E0,-3.729214191E0,-4.126721859E0,-2.050948143E0
4.164849027E0,-3.712464333E0,-4.076472282E0,-2.192124605E0
4.167374340E0,-3.674179077E0,-4.083651066E0,-2.288136721E0
4.169899705E0,-3.722035646E0,-4.021437645E0,-2.400599241E0
4.172425017E0,-3.705285788E0,-3.994817495E0,-2.515454769E0
4.174950330E0,-3.753142357E0,-3.927818298E0,-2.642573595E0
4.177475694E0,-3.837190151E0,-3.848855257E0,-2.726322412E0
4.180001007E0,-3.853940010E0,-3.810570002E0,-2.800798893E0
4.182526371E0,-3.791427374E0,-3.815355778E0,-2.858226538E0
4.185051684E0,-3.676572084E0,-3.812962770E0,-2.884547710E0
4.187576996E0,-3.631108284E0,-3.757927895E0,-2.915654421E0
4.190102361E0,-3.631108284E0,-3.681058645E0,-2.992224693E0
4.192627673E0,-3.681357622E0,-3.635594845E0,-3.076272726E0
4.195153038E0,-3.738785267E0,-3.582952738E0,-3.138485909E0
4.197678350E0,-3.805784464E0,-3.455834150E0,-3.179163933E0
4.200203715E0,-3.784249067E0,-3.352942705E0,-3.255734205E0
4.202729027E0,-3.769891977E0,-3.317050457E0,-3.305983543E0
4.205254340E0,-3.769891977E0,-3.257229805E0,-3.361317635E0
4.207779705E0,-3.820440531E0,-3.194717407E0,-3.404388428E0
4.210305017E0,-3.822833300E0,-3.099004507E0,-3.358924866E0
4.212830382E0,-3.818047523E0,-3.127718210E0,-3.308376312E0
4.215355694E0,-3.856332779E0,-3.051147938E0,-3.284448147E0
4.217881007E0,-3.868296862E0,-2.943171740E0,-3.298804998E0
4.220406371E0,-3.959224224E0,-2.790031195E0,-3.277269602E0
4.222931684E0,-4.136591911E0,-2.650948286E0,-3.255734205E0
4.225457048E0,-4.158127785E0,-2.540878534E0,-3.243770123E0
4.227982361E0,-4.086342812E0,-2.406581402E0,-3.198306561E0
4.230507725E0,-4.196412563E0,-2.229512453E0,-3.289233923E0
4.233033038E0,-4.251447678E0,-2.114357948E0,-3.366103172E0
4.235558350E0,-4.268197536E0,-2.030609131E0,-3.655933857E0
4.238083715E0,-4.320839405E0,-1.925324917E0,-3.811467409E0
4.240609027E0,-4.246662140E0,-1.879861236E0,-3.938585997E0
4.243134392E0,-4.091128349E0,-1.915753603E0,-4.199702740E0
4.245659705E0,-3.997509241E0,-1.910967946E0,-4.427320004E0
4.248185017E0,-3.885046721E0,-1.973181367E0,-4.661816597E0
4.250710382E0,-3.738785267E0,-2.157727718E0,-4.906183720E0
4.253235694E0,-3.573680639E0,-2.337189436E0,-5.107480049E0
4.255761059E0,-3.403491020E0,-2.598306179E0,-5.268098354E0
4.258286319E0,-3.262015581E0,-2.801995277E0,-5.459524155E0
4.260811684E0,-3.077768087E0,-3.036791086E0,-5.605785370E0
4.263336996E0,-2.914757013E0,-3.250051260E0,-5.682355404E0
4.265862309E0,-2.792723179E0,-3.419941664E0,-5.826223850E0
4.268387673E0,-2.689532757E0,-3.554239035E0,-5.931508064E0
4.270912986E0,-2.589034081E0,-3.614059448E0,-6.017949104E0
4.273438350E0,-2.517249346E0,-3.597309828E0,-6.058627129E0
4.275963663E0,-2.584248543E0,-3.587738514E0,-6.168696880E0
4.278488975E0,-2.675175667E0,-3.535096407E0,-6.185446739E0
4.281014340E0,-2.778366089E0,-3.453441381E0,-6.187839508E0
4.283539652E0,-2.819044113E0,-3.379263878E0,-6.211767673E0
4.286065017E0,-2.878864765E0,-3.254837036E0,-6.235695839E0
4.288590330E0,-2.941078186E0,-3.149253607E0,-6.223731518E0
4.291115694E0,-3.013161898E0,-2.991327524E0,-6.211767673E0
4.293641007E0,-3.049054146E0,-2.861815929E0,-6.245266914E0
4.296166319E0,-3.020340443E0,-2.715853691E0,-6.221338749E0
4.298691684E0,-3.089732170E0,-2.617448807E0,-6.240481377E0
4.301216996E0,-3.061018467E0,-2.531307220E0,-6.242874146E0
4.303742361E0,-2.998505831E0,-2.459522486E0,-6.288637161E0
4.306267673E0,-2.943470955E0,-2.430808783E0,-6.343671799E0
4.308792986E0,-2.893221617E0,-2.447558403E0,-6.369993210E0
4.311318350E0,-2.807080030E0,-2.476272345E0,-6.379564285E0
4.313843663E0,-2.752045155E0,-2.562413931E0,-6.451348782E0
4.316369027E0,-2.701496840E0,-2.648555517E0,-6.444170475E0
4.318894340E0,-2.670390129E0,-2.718246460E0,-6.425027847E0
4.321419705E0,-2.651247501E0,-2.864208698E0,-6.360421658E0
4.323945017E0,-2.689532757E0,-2.948256493E0,-6.336493492E0
4.326470330E0,-2.744866610E0,-3.077469110E0,-6.279065609E0
4.328995694E0,-2.811865807E0,-3.235694408E0,-6.264409542E0
4.331521007E0,-2.950649500E0,-3.431905985E0,-6.604788780E0
4.334046371E0,-3.185445070E0,-3.661916018E0,-7.054938316E0
4.336571684E0,-3.532703638E0,-3.968496323E0,-7.483851910E0
4.339096996E0,-3.885046721E0,-4.246362686E0,-8.193024635E0
4.341622361E0,-4.332803726E0,-4.445266247E0,-8.810971260E0
4.344147673E0,-4.871787071E0,-4.675276279E0,-9.936794281E0
4.346673038E0,-5.458925724E0,-4.874179840E0,-1.104347515E1
4.349237830E0,-6.088836193E0,-5.032105923E0,-1.183400345E1
4.351763142E0,-6.666104794E0,-5.214259624E0,-1.280907917E1
4.354288507E0,-7.406384468E0,-5.504090309E0,-1.405005646E1
4.356813819E0,-8.306982994E0,-5.860919952E0,-1.575075531E1
4.359339132E0,-9.222237587E0,-6.474380016E0,-1.785643959E1
4.361864496E0,-9.969695091E0,-7.470691204E0,-1.967229271E1
4.364389809E0,-1.023529911E1,-8.989535332E0,-1.974886322E1
4.366915173E0,-9.847362518E0,-1.076231766E1,-1.812473488E1
4.369440486E0,-9.399306297E0,-1.248933792E1,-1.408594894E1
4.371965798E0,-9.368199348E0,-1.390020561E1,-9.208478928E0
4.374491163E0,-9.643673897E0,-1.483699608E1,-4.546961308E0
4.377016475E0,-9.859326363E0,-1.548126316E1,-8.147560954E-1
4.379502309E0,-9.890433311E0,-1.590778446E1,1.530509233E0
4.382027673E0,-9.696315765E0,-1.617607880E1,2.543570518E0
4.384552986E0,-9.361021042E0,-1.635823250E1,2.445464849E0
4.387078298E0,-9.238986969E0,-1.646590996E1,1.405783296E0
4.389603663E0,-9.418449402E0,-1.641326714E1,-3.284149170E-1
4.392128975E0,-9.626923561E0,-1.626700592E1,-2.206481695E0
4.394654340E0,-9.629316330E0,-1.606600952E1,-3.881158352E0
4.397179652E0,-9.468997002E0,-1.588146305E1,-5.442774296E0
4.399704965E0,-9.006584167E0,-1.564666748E1,-6.710072994E0
4.402230330E0,-8.342875481E0,-1.522971821E1,-7.404888630E0
4.404755642E0,-7.634001732E0,-1.463569927E1,-7.898408413E0
4.407281007E0,-6.999006271E0,-1.385713482E1,-7.864609718E0
4.409806319E0,-6.536892414E0,-1.285364532E1,-7.500601768E0
4.412331684E0,-6.340381622E0,-1.176102257E1,-6.995117664E0
4.414856996E0,-6.323632240E0,-1.046291637E1,-6.298208237E0
4.417382309E0,-6.510571480E0,-9.030213356E0,-5.545964718E0
4.419907673E0,-6.733103752E0,-7.616952896E0,-4.997410297E0
4.422432986E0,-7.001399040E0,-6.349654198E0,-4.741078854E0
4.424958350E0,-7.097411156E0,-5.326722145E0,-4.563711166E0
4.427483663E0,-7.169195652E0,-4.512265205E0,-4.395914078E0
4.430008975E0,-7.102196693E0,-3.815355778E0,-4.374378681E0
4.432534340E0,-6.972685337E0,-3.474976778E0,-4.398307323E0
4.435059652E0,-6.764509678E0,-3.388834953E0,-4.671687126E0
4.437585017E0,-6.464808464E0,-3.492025614E0,-5.289633751E0
4.440110277E0,-6.174977779E0,-3.707379580E0,-6.111268997E0
4.442635642E0,-5.846862316E0,-3.954139471E0,-6.925725937E0
4.445160955E0,-5.454140186E0,-4.251148701E0,-7.344769001E0
4.447686267E0,-4.991727352E0,-4.586741924E0,-7.246663570E0
4.450211632E0,-4.371387959E0,-4.934000492E0,-6.841977119E0
4.452736944E0,-3.588037491E0,-5.257330418E0,-6.271588326E0
4.455262309E0,-2.807080030E0,-5.554339409E0,-5.783153057E0
4.457787621E0,-2.073979139E0,-5.796313763E0,-5.404489040E0
4.460312934E0,-1.472782373E0,-6.059823513E0,-5.138586521E0
4.462838298E0,-1.027119160E0,-6.239583969E0,-4.949553490E0
4.465363611E0,-6.583253145E-1,-6.452844620E0,-4.745864391E0
4.467888975E0,-3.397808075E-1,-6.663413048E0,-4.558925152E0
4.470414288E0,-1.289133132E-1,-6.902994156E0,-4.465605259E0
4.472939652E0,2.931207791E-2,-7.207181931E0,-4.357629299E0
4.475464965E0,9.870393574E-2,-7.480262756E0,-4.252345085E0
4.477990277E0,-4.247260094E-2,-7.741379261E0,-4.194917202E0
4.480515642E0,-2.389831543E-1,-7.990531921E0,-4.149453640E0
4.483040955E0,-5.096712112E-1,-8.287541389E0,-4.147060871E0
4.485566319E0,-7.827520967E-1,-8.627920151E0,-4.103690624E0
4.488091632E0,-1.163809061E0,-9.042177200E0,-4.019941807E0
4.490616944E0,-1.463211060E0,-9.521340370E0,-3.936193228E0
4.493142309E0,-1.784148335E0,-1.010339451E1,-3.933800459E0
4.495667621E0,-2.152942181E0,-1.065673447E1,-3.957728624E0
4.498192986E0,-2.593819857E0,-1.125583744E1,-3.840181351E0
4.500718298E0,-3.089732170E0,-1.185464191E1,-3.629612923E0
4.503243663E0,-3.616751432E0,-1.249173069E1,-3.409173965E0
4.505768975E0,-4.021437645E0,-1.310728455E1,-3.315554857E0
4.508294288E0,-4.261018753E0,-1.369920921E1,-3.282055378E0
4.510819652E0,-4.359423637E0,-1.416850090E1,-3.255734205E0
4.513344965E0,-4.380959034E0,-1.446102333E1,-3.224627733E0
4.515870330E0,-4.388137817E0,-1.455434418E1,-3.210270643E0
4.518395642E0,-4.332803726E0,-1.437936878E1,-3.224627733E0
4.520920955E0,-4.292125702E0,-1.403689575E1,-3.238984585E0
4.523446319E0,-4.225126743E0,-1.338544941E1,-3.250948668E0
4.525971632E0,-4.088735580E0,-1.255633640E1,-3.423531055E0
4.528496996E0,-4.103092670E0,-1.161027431E1,-3.540779352E0
4.531022309E0,-4.165306091E0,-1.066630650E1,-3.605684519E0
4.533547673E0,-4.208376884E0,-9.729815483E0,-3.682255030E0
4.536072986E0,-4.299304008E0,-8.970393181E0,-3.856930971E0
4.538598298E0,-4.438386917E0,-8.328517914E0,-4.022335052E0
4.541123663E0,-4.495814800E0,-7.806284904E0,-4.259523392E0
4.543648975E0,-4.514957428E0,-7.353443146E0,-4.415356159E0
4.546174340E0,-4.526921272E0,-7.025327206E0,-4.599603176E0
4.548699652E0,-4.514957428E0,-6.742675304E0,-4.709972382E0
4.551224965E0,-4.471886635E0,-6.519843578E0,-4.812863827E0
4.553750330E0,-4.402494431E0,-6.383153439E0,-4.877470016E0
4.556275642E0,-4.347160339E0,-6.220441341E0,-4.875077248E0
4.558801007E0,-4.258625984E0,-6.201299191E0,-4.846363068E0
4.561326319E0,-4.138985157E0,-6.215655804E0,-4.829613209E0
4.563851684E0,-3.985545158E0,-6.182156563E0,-4.776971340E0
4.566376996E0,-3.774677753E0,-6.275476456E0,-4.659423828E0
4.568902309E0,-3.588037491E0,-6.378367901E0,-4.513461590E0
4.571427673E0,-3.389134169E0,-6.488736629E0,-4.374378681E0
4.573952986E0,-3.104089260E0,-6.656234264E0,-4.247559071E0
4.576478350E0,-2.771187782E0,-6.757031918E0,-4.046263218E0
4.579003663E0,-2.461915493E0,-6.975078106E0,-3.799503326E0
4.581528975E0,-2.133799553E0,-7.123433113E0,-3.622434378E0
4.584054340E0,-1.839183331E0,-7.288836956E0,-3.447459221E0
4.586579652E0,-1.503889084E0,-7.554739475E0,-3.224627733E0
4.589105017E0,-1.175773263E0,-7.765606880E0,-2.992224693E0
4.591630330E0,-8.162516356E-1,-7.925925732E0,-2.786142826E0
4.594155694E0,-5.647061467E-1,-8.163114548E0,-2.566003084E0
4.596681007E0,-4.402793646E-1,-8.357232094E0,-2.405385017E0
4.599206319E0,-2.724826932E-1,-8.527122498E0,-2.261516571E0
4.601731684E0,-1.408774406E-1,-8.730812073E0,-2.091626167E0
4.604256996E0,-6.161518395E-2,-8.922536850E0,-1.978864312E0
4.606782361E0,2.931207791E-2,-9.104690552E0,-1.871187329E0
4.609307673E0,1.489532143E-1,-9.312865257E0,-1.737189293E0
4.611832986E0,1.920240223E-1,-9.408877373E0,-1.698604941E0
4.614358350E0,2.880360186E-1,-9.569196701E0,-1.665105462E0
4.616883663E0,4.244269133E-1,-9.806385040E0,-1.660319805E0
4.619409027E0,5.371887088E-1,-9.952646255E0,-1.871187329E0
4.621934340E0,4.459623098E-1,-9.935896873E0,-2.096411705E0
4.624459705E0,1.872383654E-1,-1.000050354E1,-2.443670034E0
4.626985017E0,-4.247260094E-2,-1.011057281E1,-2.728715181E0
4.629510330E0,-1.815554202E-1,-1.018026352E1,-2.918047190E0
4.632035694E0,-2.868396044E-1,-1.022812080E1,-2.994617462E0
4.634561007E0,-2.844468057E-1,-1.034536839E1,-2.989831924E0
4.637086371E0,-1.576271951E-1,-1.048205853E1,-2.863012314E0
4.639611684E0,-1.432702541E-1,-1.058495045E1,-2.680858612E0
4.642136996E0,-2.030908167E-1,-1.062802124E1,-2.481955290E0
4.644662361E0,-1.959123611E-1,-1.067827034E1,-2.297708035E0
4.647187673E0,-2.509472668E-1,-1.064477062E1,-2.182553291E0
4.649713038E0,-3.541377485E-1,-1.061366367E1,-2.117947102E0
4.652238350E0,-5.455635786E-1,-1.044616604E1,-2.232802629E0
4.654763715E0,-7.468597889E-1,-1.023290634E1,-2.347957134E0
4.657289027E0,-9.385846853E-1,-1.010339451E1,-2.443670034E0
4.659814340E0,-1.074975610E0,-9.885348320E0,-2.498705149E0
4.662339705E0,-1.254736423E0,-9.638887405E0,-2.592324257E0
4.664865017E0,-1.432104349E0,-9.406484604E0,-2.740679264E0
4.667390382E0,-1.501496196E0,-9.214759827E0,-2.877369165E0
4.669915694E0,-1.609173179E0,-8.977571487E0,-3.028116941E0
4.672441007E0,-1.707578063E0,-8.797810555E0,-3.121736288E0
4.674966371E0,-1.736291885E0,-8.642276764E0,-3.267698526E0
4.677491684E0,-1.781755567E0,-8.534300804E0,-3.310769320E0
4.680017048E0,-1.829612017E0,-8.402695656E0,-3.349353552E0
4.682542361E0,-1.848754644E0,-8.263612747E0,-3.428316593E0
4.685067725E0,-1.894218206E0,-8.115258217E0,-3.305983543E0
4.687593038E0,-1.908575177E0,-7.978568077E0,-3.186342478E0
4.690118350E0,-2.004587173E0,-7.803892136E0,-3.020938635E0
4.692643715E0,-2.162513494E0,-7.645666599E0,-2.946761131E0
4.695169027E0,-2.265703917E0,-7.487441063E0,-2.851048231E0
4.697694392E0,-2.368595362E0,-7.240980625E0,-2.788535595E0
4.700219705E0,-2.471486807E0,-7.073183537E0,-2.697608471E0
4.702745017E0,-2.529213428E0,-6.922136784E0,-2.592324257E0
4.705270382E0,-2.577069998E0,-6.773781776E0,-2.436491728E0
4.707795694E0,-2.591426849E0,-6.646663189E0,-2.285743713E0
4.710321059E0,-2.560320139E0,-6.589235306E0,-2.117947102E0
4.712846371E0,-2.548356056E0,-6.517450809E0,-1.907079697E0
4.715371736E0,-2.723032236E0,-6.385546207E0,-1.724925995E0
4.717897048E0,-2.780759096E0,-6.289833546E0,-1.497607827E0
4.720422361E0,-2.742174864E0,-6.263512135E0,-1.301097274E0
4.722947725E0,-2.720639229E0,-6.282654762E0,-1.054337502E0
4.725473038E0,-2.672782898E0,-6.320940018E0,-8.913264275E-1
4.727998402E0,-2.653640270E0,-6.364010811E0,-7.668996453E-1
4.730523715E0,-2.581855536E0,-6.498308182E0,-6.664010882E-1
4.733049027E0,-2.473879576E0,-6.629913330E0,-6.062814593E-1
4.735574392E0,-2.368595362E0,-6.771389008E0,-5.943173170E-1
4.738099705E0,-2.227418661E0,-6.989434719E0,-6.254240274E-1
4.740625069E0,-2.186441660E0,-7.156932354E0,-6.664010882E-1
4.743150382E0,-2.112264156E0,-7.374978542E0,-7.238288522E-1
4.745675746E0,-1.951945066E0,-7.602595806E0,-8.650053740E-1
4.748201059E0,-1.774577141E0,-7.832605839E0,-1.020837903E0
4.750726371E0,-1.568495274E0,-8.060222626E0,-1.173978567E0
4.753251736E0,-1.376770377E0,-8.234899521E0,-1.356132269E0
4.755777048E0,-1.187737346E0,-8.414659500E0,-1.476072431E0
4.758302413E0,-1.051047325E0,-8.575278282E0,-1.552642822E0
4.760827725E0,-8.787640929E-1,-8.690134048E0,-1.583749533E0
4.763353038E0,-7.468597889E-1,-8.778668404E0,-1.636391640E0
4.765878402E0,-6.272186637E-1,-8.932107925E0,-1.696212173E0
4.768403715E0,-5.479564071E-1,-8.968000412E0,-1.761117458E0
4.770929080E0,-5.192425251E-1,-9.044570923E0,-1.782652855E0
4.773454392E0,-5.096712112E-1,-9.085248947E0,-1.828116536E0
4.775979757E0,-4.977070987E-1,-9.142974854E0,-1.871187329E0
4.778505069E0,-4.546363056E-1,-9.231510162E0,-1.909472466E0
4.781030382E0,-4.378865361E-1,-9.298508644E0,-1.986042738E0
4.783555746E0,-4.259224236E-1,-9.384949684E0,-2.043769598E0
4.786081059E0,-4.235295951E-1,-9.428020477E0,-2.096411705E0
4.788606423E0,-4.522434771E-1,-9.502198219E0,-2.098804474E0
4.791131736E0,-4.809573591E-1,-9.564411163E0,-2.165803671E0
4.793657048E0,-4.666004181E-1,-9.550054550E0,-2.129911184E0
4.796182413E0,-5.096712112E-1,-9.612267494E0,-2.129911184E0
4.798707725E0,-5.623133183E-1,-9.617053032E0,-2.139482498E0
4.801233090E0,-5.838487148E-1,-9.609874725E0,-2.172981977E0
4.803758402E0,-6.080760360E-1,-9.578767776E0,-2.213660002E0
4.806283767E0,-7.085745931E-1,-9.509376526E0,-2.319243431E0
4.808809080E0,-7.325028181E-1,-9.432806015E0,-2.383849621E0
4.811334392E0,-7.779664397E-1,-9.384949684E0,-2.510669231E0
4.813859757E0,-8.401798606E-1,-9.269794464E0,-2.647359133E0
4.816385069E0,-8.665009141E-1,-9.219545364E0,-2.781357288E0
4.818910434E0,-8.739784956E-1,-9.078069687E0,-2.889333248E0
4.821435746E0,-9.314061999E-1,-8.960822105E0,-3.004188776E0
4.823961059E0,-9.194421172E-1,-8.896215439E0,-3.121736288E0
4.826486423E0,-9.266205430E-1,-8.790632248E0,-3.188735247E0
4.829011736E0,-9.649057388E-1,-8.690134048E0,-3.317947626E0
4.831537100E0,-1.000798106E0,-8.615956306E0,-3.404388428E0
4.834062413E0,-9.960124493E-1,-8.519944191E0,-3.535993576E0
4.836587777E0,-1.017547846E0,-8.464909554E0,-3.624827147E0
4.839113090E0,-9.696913958E-1,-8.385946274E0,-3.708575964E0
4.841638402E0,-9.026923180E-1,-8.424231529E0,-3.787539244E0
4.844163767E0,-8.569296002E-1,-8.493622780E0,-3.866502285E0
4.846689080E0,-8.569296002E-1,-8.534300804E0,-3.924229145E0
4.849214444E0,-8.593224287E-1,-8.637491226E0,-3.991228104E0
4.851739757E0,-8.473583460E-1,-8.726025581E0,-4.012763500E0
4.854265069E0,-7.923234105E-1,-8.841180801E0,-4.089334011E0
4.856790434E0,-7.229315639E-1,-9.030213356E0,-4.147060871E0
4.859315746E0,-6.607181430E-1,-9.224330902E0,-4.187738895E0
4.861841111E0,-5.838487148E-1,-9.418449402E0,-4.194917202E0
4.864405902E0,-5.048855543E-1,-9.605089188E0,-4.173381805E0
4.866931215E0,-4.139583111E-1,-9.820742607E0,-4.149453640E0
4.869456580E0,-2.509472668E-1,-1.000050354E1,-4.063013077E0
4.871981892E0,-1.289133132E-1,-1.019940662E1,-3.967299938E0
4.874507205E0,1.495514158E-2,-1.038365364E1,-3.842574120E0
4.877032569E0,1.537388563E-1,-1.054187965E1,-3.715754509E0
4.879557882E0,2.641077936E-1,-1.062802124E1,-3.552743435E0
4.882083246E0,3.406781256E-1,-1.070459080E1,-3.387638569E0
4.884608559E0,4.124628007E-1,-1.073599720E1,-3.243770123E0
4.887133871E0,4.339981973E-1,-1.075753212E1,-3.056830883E0
4.889659236E0,4.701896608E-1,-1.071446133E1,-2.922832966E0
4.892184548E0,4.725824594E-1,-1.066391277E1,-2.795714140E0
4.894670434E0,4.411766827E-1,-1.057059288E1,-2.656930447E0
4.897195798E0,4.004986882E-1,-1.047966576E1,-2.498705149E0
4.899721111E0,3.215355575E-1,-1.035015392E1,-2.297708035E0
4.902246423E0,2.258226424E-1,-1.017787075E1,-2.151446581E0
4.904771788E0,1.130608693E-1,-1.005075264E1,-2.041376829E0
4.907297100E0,-3.768695518E-2,-9.919147491E0,-1.897508383E0
4.909822465E0,-1.815554202E-1,-9.789635658E0,-1.801795483E0
4.912347777E0,-3.107678294E-1,-9.641280174E0,-1.773081541E0
4.914873090E0,-4.785645306E-1,-9.499805450E0,-1.739582062E0
4.917398455E0,-6.559324861E-1,-9.473484039E0,-1.717747569E0
4.919923767E0,-8.330013752E-1,-9.471091270E0,-1.785045743E0
4.922449132E0,-9.553344250E-1,-9.473484039E0,-1.868794441E0
4.924974444E0,-1.115653515E0,-9.447162628E0,-2.012662888E0
4.927499809E0,-1.214058399E0,-9.475876808E0,-2.122732878E0
4.930025121E0,-1.340878010E0,-9.514162064E0,-2.319243431E0
4.932550434E0,-1.371984720E0,-9.571589470E0,-2.450848579E0
4.935075798E0,-1.420140266E0,-9.605089188E0,-2.566003084E0
4.937601111E0,-1.436890006E0,-9.672387123E0,-2.709572554E0
4.940126475E0,-1.444068432E0,-9.729815483E0,-2.879761934E0
4.942651788E0,-1.420140266E0,-9.758528709E0,-3.016152859E0
4.945177100E0,-1.343270779E0,-9.806385040E0,-3.157628536E0
4.947702465E0,-1.297807217E0,-9.878170013E0,-3.301198006E0
4.950227777E0,-1.202094316E0,-9.995717049E0,-3.435495138E0
4.952753142E0,-1.079761267E0,-1.008425236E1,-3.519243956E0
4.955278455E0,-9.457631707E-1,-1.010818005E1,-3.569493294E0
4.957803819E0,-8.330013752E-1,-1.018026352E1,-3.579064369E0
4.960329132E0,-7.612167001E-1,-1.023290634E1,-3.514458179E0
4.962854444E0,-6.631109715E-1,-1.023051357E1,-3.504886866E0
4.965379809E0,-5.575276613E-1,-1.024008465E1,-3.435495138E0
4.967905121E0,-5.288137794E-1,-1.024247742E1,-3.308376312E0
4.970430486E0,-5.048855543E-1,-1.025444126E1,-3.155235767E0
4.972955798E0,-4.642075896E-1,-1.028315544E1,-3.056830883E0
4.975481111E0,-4.546363056E-1,-1.024008465E1,-2.946761131E0
4.978006475E0,-4.689932466E-1,-1.027597713E1,-2.786142826E0
4.980531788E0,-4.713860750E-1,-1.029033375E1,-2.714358091E0
4.983057152E0,-5.240281820E-1,-1.032622623E1,-2.604288340E0
4.985582465E0,-5.503492355E-1,-1.038365364E1,-2.510669231E0
4.988107830E0,-6.559324861E-1,-1.041715336E1,-2.429313183E0
4.990633142E0,-7.779664397E-1,-1.049880886E1,-2.374278307E0
4.993158455E0,-9.433703423E-1,-1.057777119E1,-2.249552488E0
4.995683819E0,-1.120439172E0,-1.065434170E1,-2.139482498E0
4.998209132E0,-1.343270779E0,-1.075035381E1,-2.029412746E0
5.000734496E0,-1.539781332E0,-1.088435173E1,-1.902294040E0
5.003259809E0,-1.762612939E0,-1.101864910E1,-1.794616938E0
5.005785121E0,-1.920539260E0,-1.114546871E1,-1.624427438E0
5.008310486E0,-2.038086653E0,-1.128215885E1,-1.425524116E0
5.010835798E0,-2.160120726E0,-1.141137123E1,-1.205384374E0
5.013361163E0,-2.222633123E0,-1.156720352E1,-9.753743410E-1
5.015886475E0,-2.172084808E0,-1.179242802E1,-7.501499057E-1
5.018411840E0,-2.066800594E0,-1.191924763E1,-4.962115884E-1
5.020937152E0,-1.968694806E0,-1.204397392E1,-2.303091735E-1
5.023462465E0,-1.805683732E0,-1.213490105E1,1.884347759E-2
5.025987830E0,-1.594816327E0,-1.229761314E1,2.249253243E-1
5.028513142E0,-1.348056436E0,-1.245344543E1,4.166502357E-1
5.031038507E0,-1.010369420E0,-1.252283764E1,5.147559643E-1
5.033563819E0,-6.822535396E-1,-1.266431332E1,6.367899179E-1
5.036089132E0,-3.900300860E-1,-1.268106270E1,7.854440212E-1
5.038614496E0,-6.640082598E-2,-1.265474129E1,8.572286963E-1
5.041139809E0,2.353939265E-1,-1.259252834E1,9.218349457E-1
5.043665173E0,5.180460811E-1,-1.257308674E1,9.409775138E-1
5.046190434E0,8.294121623E-1,-1.238883877E1,1.065703392E0
5.048715798E0,1.080957651E0,-1.219472122E1,1.130309582E0
5.051241111E0,1.262812138E0,-1.207986641E1,1.154237866E0
5.053766423E0,1.327717423E0,-1.193360519E1,1.216750264E0
5.056291788E0,1.361217022E0,-1.183549881E1,1.231107235E0
5.058817100E0,1.318146229E0,-1.179960632E1,1.255035520E0
5.061342465E0,1.140778184E0,-1.181157112E1,1.231107235E0
5.063867777E0,8.724829555E-1,-1.193360519E1,1.219143152E0
5.066393090E0,5.347958803E-1,-1.208704472E1,1.243071318E0
5.068918455E0,6.759724021E-2,-1.232901859E1,1.312463164E0
5.071443767E0,-4.761717021E-1,-1.272891903E1,1.266999602E0
5.073969132E0,-1.048654556E0,-1.321765327E1,1.266999602E0
5.076494444E0,-1.661815286E0,-1.369442272E1,1.173380375E0
5.079019809E0,-2.239382982E0,-1.429322720E1,1.034596682E0
5.081545121E0,-2.713460922E0,-1.490638733E1,7.710871100E-1
5.084070434E0,-3.108874798E0,-1.555574036E1,5.362913609E-1
5.086595798E0,-3.355634689E0,-1.624547195E1,4.019941986E-1
5.089121111E0,-3.494418383E0,-1.680120468E1,3.780659735E-1
5.091646475E0,-3.662214994E0,-1.715115356E1,3.086741269E-1
5.094171788E0,-3.772284985E0,-1.737368774E1,3.134597540E-1
5.096697100E0,-3.791427374E0,-1.735932922E1,2.799602449E-1
5.099222465E0,-3.851547241E0,-1.709342766E1,2.153540403E-1
5.101747777E0,-3.897010803E0,-1.661695671E1,1.073779166E-1
5.104273142E0,-3.913760424E0,-1.592453384E1,-1.944168359E-1
5.106798455E0,-4.002295017E0,-1.510529137E1,-5.201398134E-1
5.109323819E0,-3.978366852E0,-1.437458324E1,-8.338986635E-1
5.111849132E0,-3.932903051E0,-1.375185108E1,-1.183549881E0
5.114374444E0,-3.793820381E0,-1.321047497E1,-1.435095429E0
5.116899809E0,-3.693321705E0,-1.281984615E1,-1.605284929E0
5.119425121E0,-3.609572887E0,-1.250130177E1,-1.681855202E0
5.121950486E0,-3.494418383E0,-1.229043484E1,-1.689033628E0
5.124475798E0,-3.436990738E0,-1.214925766E1,-1.717747569E0
5.127001111E0,-3.441776276E0,-1.204128170E1,-1.669891119E0
5.129526475E0,-3.350848913E0,-1.196949673E1,-1.655534148E0
5.132051788E0,-3.266801119E0,-1.188096237E1,-1.605284929E0
