"Time (s)","Linear Acceleration x (m/s^2)","Linear Acceleration y (m/s^2)","Linear Acceleration z (m/s^2)"
7.851637100E-2,-1.447999477E-2,8.964538574E-5,-4.427433014E-4
8.355939200E-2,-1.698634028E-1,1.741333008E-1,-2.066369653E-1
8.856559000E-2,-3.672028780E-1,6.001491547E-1,-4.392489195E-1
9.361626700E-2,-6.198487282E-1,1.225707054E0,-7.891829014E-1
9.866694400E-2,-9.065426588E-1,1.869862556E0,-1.090143919E0
1.037176210E-1,-1.167955756E0,2.465407372E0,-1.335619211E0
1.087682980E-1,-1.200814843E0,2.885357857E0,-1.514075994E0
1.138603820E-1,-1.150450349E0,3.083800316E0,-1.660149336E0
1.188696520E-1,-9.663016796E-1,3.068555832E0,-1.791605711E0
1.239203300E-1,-8.529040813E-1,2.887067795E0,-1.899419308E0
1.289710070E-1,-7.099604607E-1,2.652610779E0,-2.033849239E0
1.340216840E-1,-4.910185337E-1,2.461799622E0,-2.166492939E0
1.390723610E-1,-2.483410835E-1,2.263436317E0,-2.352478027E0
1.441230380E-1,-9.040546417E-2,2.134649277E0,-2.579904556E0
1.491737150E-1,-5.209684372E-3,1.941663742E0,-2.773157358E0
1.542243920E-1,7.507371902E-2,1.782647133E0,-2.852061033E0
1.592750690E-1,1.977572441E-1,1.556830406E0,-2.883516312E0
1.643257460E-1,2.953104973E-1,1.333484650E0,-2.837567329E0
1.693764230E-1,3.012087345E-1,9.285011292E-1,-2.772860527E0
1.744271000E-1,3.106658459E-1,3.946018219E-1,-2.737251282E0
1.794777770E-1,3.470749855E-1,-2.208728790E-1,-2.677455425E0
1.845284550E-1,4.437274933E-1,-9.138402939E-1,-2.352751732E0
1.895791320E-1,6.122739315E-1,-1.703234673E0,-1.763664722E0
1.946298090E-1,9.960205555E-1,-2.432446480E0,-8.737130165E-1
1.996804860E-1,1.431012392E0,-2.945460320E0,2.066130638E-1
2.047311630E-1,1.934190512E0,-3.318274498E0,1.430483818E0
2.097818400E-1,2.331053734E0,-3.551586151E0,2.774179935E0
2.148325170E-1,2.772857189E0,-3.688893318E0,4.261648655E0
2.198831940E-1,3.326149940E0,-3.809634209E0,5.304661751E0
2.249338710E-1,3.562971354E0,-3.591264725E0,6.371888638E0
2.299845480E-1,3.952822924E0,-3.069841385E0,7.618713379E0
2.350352250E-1,4.710823059E0,-2.591620445E0,8.172814369E0
2.400858500E-1,5.083594799E0,-2.074606895E0,8.409202576E0
2.451365800E-1,5.229724407E0,-1.531958580E0,8.517082214E0
2.501872570E-1,5.161467552E0,-9.338283539E-1,8.284492493E0
2.552379340E-1,4.885840416E0,-2.557878494E-1,8.214638710E0
2.602886110E-1,4.784502983E0,2.125053406E-1,8.816490173E0
2.653392360E-1,4.627179623E0,4.633817673E-1,9.607038498E0
2.703899130E-1,4.366881847E0,7.448234558E-1,1.006017494E1
2.754405900E-1,4.082961082E0,1.074919701E0,9.868684769E0
2.804912670E-1,3.817647457E0,1.175348282E0,9.718156815E0
2.855419440E-1,3.340876579E0,1.328621864E0,9.292987823E0
2.905926210E-1,2.929041386E0,1.494561195E0,8.344791412E0
2.956432980E-1,2.633616447E0,1.562758446E0,7.050996780E0
3.006939750E-1,2.254333258E0,1.651929855E0,5.490938663E0
3.057446520E-1,1.855104804E0,1.634435654E0,4.066819191E0
3.107953300E-1,1.442698359E0,1.603084564E0,2.907873869E0
3.158460070E-1,1.072155595E0,1.611033440E0,2.432803154E0
3.208966840E-1,8.633153439E-1,1.961441040E0,2.267481804E0
3.259473610E-1,4.118978977E-1,2.585620403E0,2.057544947E0
3.309980380E-1,-7.398104668E-2,3.351251602E0,1.643418550E0
3.360487150E-1,-2.457456589E-1,4.052843094E0,1.189414978E0
3.410993920E-1,-2.866637707E-1,4.475977898E0,7.791724205E-1
3.461500690E-1,-3.985764980E-1,4.721877098E0,5.886721611E-1
3.512007460E-1,-4.484560490E-1,4.771912575E0,4.216351509E-1
3.562514230E-1,-4.287164211E-1,4.791306973E0,6.873202324E-1
3.613020480E-1,-2.734644413E-1,4.747779369E0,1.469589233E0
3.663527250E-1,3.453016281E-2,4.608824253E0,2.581326008E0
3.714034550E-1,3.114199638E-1,4.460146904E0,3.737313986E0
3.764540800E-1,4.630222321E-1,4.287909508E0,4.622795105E0
3.815048090E-1,5.512783527E-1,4.209682941E0,5.121180534E0
3.865554340E-1,5.866405964E-1,4.105337143E0,5.297074318E0
3.916061110E-1,5.597522259E-1,4.045870781E0,5.314726353E0
3.966567880E-1,5.751261711E-1,4.033004761E0,5.059886456E0
4.017074650E-1,4.231235981E-1,3.927419662E0,4.724944592E0
4.067581420E-1,3.903064728E-1,3.686613798E0,4.424511909E0
4.118088190E-1,2.589702606E-1,3.474233627E0,4.179082394E0
4.168594960E-1,2.775311470E-1,3.214321852E0,4.046446800E0
4.219101730E-1,4.486141205E-1,2.856212139E0,4.008855820E0
4.269608500E-1,5.292267799E-1,2.479667664E0,3.822419167E0
4.320115270E-1,6.628186703E-1,2.091345310E0,3.652152538E0
4.370622050E-1,7.404503822E-1,1.708346844E0,3.558227777E0
4.421128820E-1,9.043335915E-1,1.333377361E0,3.532438993E0
4.471635590E-1,1.031257153E0,1.102984428E0,3.604274988E0
4.522141840E-1,1.172243595E0,9.438691139E-1,3.737941265E0
4.572648610E-1,1.308638811E0,9.799327850E-1,3.715282917E0
4.623155380E-1,1.304222584E0,1.208112240E0,3.749849796E0
4.673662150E-1,1.247410536E0,1.373522758E0,3.738644838E0
4.724168920E-1,1.139129639E0,1.584057331E0,3.521654606E0
4.774675690E-1,9.342513084E-1,1.794120312E0,3.189815521E0
4.825182460E-1,6.804709435E-1,1.965662003E0,2.766705751E0
4.875689230E-1,3.281927109E-1,2.283342838E0,2.324004173E0
4.926196000E-1,-2.126789093E-2,2.459590912E0,1.989513397E0
4.976702250E-1,-1.373243332E-1,2.606041431E0,1.718372345E0
5.027209550E-1,-1.954412460E-1,2.655588627E0,1.484867096E0
5.077715800E-1,-2.029361725E-1,2.662558079E0,1.202945709E0
5.127038710E-1,1.934957504E-2,2.471910477E0,8.513517380E-1
5.178729340E-1,3.155803680E-1,2.228387833E0,4.837603569E-1
5.229236110E-1,5.344076157E-1,1.979601383E0,1.411747932E-1
5.279742880E-1,6.064534187E-1,1.792393208E0,-7.647848129E-2
5.330249650E-1,5.709333420E-1,1.667081118E0,-2.164435387E-1
5.380756420E-1,4.561572075E-1,1.525408745E0,-4.958281517E-1
5.431263190E-1,4.004588127E-1,1.402395248E0,-9.090170860E-1
5.482953300E-1,3.335657120E-1,1.314302444E0,-1.580970287E0
5.533460590E-1,3.218863010E-1,1.305508614E0,-2.376556396E0
5.583967360E-1,3.836200237E-1,1.394937992E0,-2.697957039E0
5.634473610E-1,6.189501286E-1,1.425904751E0,-2.483179569E0
5.684980380E-1,9.542586803E-1,1.413414955E0,-1.805804253E0
5.735487150E-1,1.101543903E0,1.407009602E0,-1.236505985E0
5.785993920E-1,1.144344807E0,1.366487026E0,-1.394345760E0
5.836895480E-1,5.966992378E-1,1.422712326E0,-1.954513550E0
5.887007460E-1,-7.411367893E-1,1.494788170E0,-3.952531815E0
5.937514230E-1,-2.278452873E0,1.139646053E0,-6.272854328E0
5.988021000E-1,-3.292448521E0,4.745969772E-1,-6.390850067E0
6.038527770E-1,-3.363738298E0,-5.553245544E-1,-3.642098427E0
6.089034020E-1,-3.234433889E0,-2.732223034E0,-2.409410477E-2
6.139541320E-1,-3.815832615E0,-5.705643177E0,-1.433901787E-1
6.190047570E-1,-4.925984383E0,-8.935770035E0,-4.440146923E0
6.240564230E-1,-6.375365257E0,-1.274046803E1,-8.829216003E0
6.291080380E-1,-7.487637043E0,-1.646432877E1,-9.493006706E0
6.341596520E-1,-6.287540436E0,-1.962243843E1,-5.710640907E0
6.392113190E-1,-2.571184397E0,-1.977961540E1,7.763834000E-1
6.442629340E-1,1.841006279E0,-1.520084572E1,6.000337601E0
6.493087670E-1,5.079557419E0,-9.001035690E0,8.046880722E0
6.543604340E-1,5.647295952E0,-3.307122231E0,6.540202141E0
6.594120480E-1,4.664172649E0,1.462905407E0,4.311901093E0
6.644636630E-1,3.287469149E0,5.022865772E0,2.896178007E0
6.695153300E-1,1.986209989E0,7.421901703E0,2.270896912E0
6.745669440E-1,7.284295559E-1,8.599373817E0,1.325994253E0
6.796128300E-1,-4.468398094E-1,8.906000137E0,-2.918267250E-1
6.846644960E-1,-1.150071383E0,8.419513702E0,-1.119928360E0
6.897161110E-1,-1.040266514E0,7.665184498E0,-7.421035767E-1
6.947677250E-1,-7.357721329E-1,6.953996658E0,5.767550468E-1
6.998193920E-1,-5.099413395E-1,6.229190350E0,1.946179152E0
7.048710070E-1,-4.159853458E-1,5.129111290E0,2.783084869E0
7.099168400E-1,-4.357728958E-1,3.794045925E0,2.871081829E0
7.149685070E-1,-7.032427788E-1,2.225908279E0,2.317855597E0
7.200201210E-1,-1.063992023E0,7.342376709E-1,1.391777992E0
7.250717360E-1,-1.454553843E0,-7.403545380E-1,5.360541344E-1
7.301234020E-1,-1.686903238E0,-2.251455784E0,-1.618618965E-1
7.351750170E-1,-1.552342653E0,-3.825392723E0,-5.045094490E-1
7.402209020E-1,-1.243360043E0,-5.277478218E0,-5.283951759E-1
7.452725690E-1,-4.941017628E-1,-6.535611153E0,-2.068438530E-1
7.503241840E-1,5.393247604E-1,-7.428548813E0,4.151122570E-1
7.553757980E-1,1.669507265E0,-7.554200172E0,1.161626339E0
7.604274650E-1,2.642691135E0,-7.084824562E0,1.911102533E0
7.654790800E-1,3.249166965E0,-6.227696419E0,2.359335423E0
7.705249130E-1,3.379033804E0,-5.113142967E0,2.450127602E0
7.755765800E-1,3.195246696E0,-3.906561852E0,2.083444118E0
7.806281940E-1,2.968939781E0,-2.761818886E0,1.674729586E0
7.856798090E-1,2.830536366E0,-1.806683540E0,1.299862146E0
7.907314750E-1,2.623603106E0,-1.178462029E0,9.745202065E-1
7.957830900E-1,2.340325594E0,-7.742204666E-1,6.935420036E-1
8.008289750E-1,1.900920272E0,-4.999637604E-1,3.929579258E-1
8.058806420E-1,1.361576080E0,-3.050746918E-1,9.153127670E-3
8.109322570E-1,8.984741569E-1,-1.461868286E-1,-1.637094021E-1
8.159838710E-1,5.378441811E-1,-8.716964722E-2,-1.205110550E-1
8.210355380E-1,2.269059420E-1,-6.183528900E-2,-1.485934258E-1
8.260871520E-1,-9.617233276E-2,-6.942749023E-3,-1.690104008E-1
8.311329860E-1,-3.034015894E-1,4.390811920E-2,-2.484228611E-1
8.361846520E-1,-3.110730648E-1,1.241712570E-1,-2.724921703E-1
8.412362670E-1,-3.994493484E-1,2.979125977E-1,-1.157612801E-1
8.462878820E-1,-7.219387293E-1,5.097923279E-1,3.107380867E-2
8.513395480E-1,-9.680370092E-1,7.202215195E-1,-5.800318718E-2
8.563911630E-1,-1.201084733E0,9.779443741E-1,-7.169485092E-2
8.614370480E-1,-1.239696145E0,1.209988594E0,4.101657867E-2
8.664887150E-1,-1.147394896E0,1.382141113E0,9.123277664E-2
8.715403300E-1,-1.076321840E0,1.447225571E0,1.413269043E-1
8.765919440E-1,-9.695459604E-1,1.475077629E0,2.256059647E-1
8.816436110E-1,-9.723332524E-1,1.551667690E0,3.115913868E-1
8.866952250E-1,-1.171946764E0,1.673083782E0,4.703865051E-1
8.917410590E-1,-1.350399852E0,1.836518764E0,6.566597223E-1
8.967927250E-1,-1.429102182E0,1.852511406E0,8.534618616E-1
9.018443400E-1,-1.473833799E0,1.869475365E0,9.125573635E-1
9.068959550E-1,-1.480424047E0,1.715920448E0,8.463172913E-1
9.119476210E-1,-1.431795001E0,1.570294380E0,7.893136144E-1
9.169992360E-1,-1.263446331E0,1.334939003E0,6.707030535E-1
9.220451210E-1,-9.994832277E-1,1.155755043E0,5.790824890E-1
9.270967880E-1,-7.183967233E-1,1.003942490E0,4.523540735E-1
9.321484020E-1,-3.780018091E-1,9.318275452E-1,3.563145399E-1
9.372000170E-1,5.501568317E-3,9.926710129E-1,3.808823824E-1
9.422516840E-1,2.647503018E-1,1.169170380E0,4.248673916E-1
9.473032980E-1,4.456541538E-1,1.360723495E0,4.115285873E-1
9.523491840E-1,5.698714256E-1,1.558959007E0,3.972766399E-1
9.574008500E-1,5.459329486E-1,1.786511421E0,3.130583167E-1
9.624524650E-1,4.078782201E-1,1.974158287E0,1.978225112E-1
9.675040800E-1,1.031751037E-1,2.134027958E0,-5.034321547E-2
9.725557460E-1,-2.251316905E-1,2.213847160E0,-3.156422973E-1
9.776073610E-1,-6.109066606E-1,2.184301376E0,-5.645555258E-1
9.826531940E-1,-1.085441113E0,2.060282707E0,-8.921129704E-1
9.877048610E-1,-1.391706467E0,1.911430836E0,-1.227830410E0
9.927564750E-1,-1.304440260E0,1.598583221E0,-1.436374307E0
9.978080900E-1,-1.219584465E0,1.265699387E0,-1.575486898E0
1.002859757E0,-1.120542049E0,9.963426590E-1,-1.705120444E0
1.007911371E0,-8.991104364E-1,7.616214752E-1,-2.025230646E0
1.012957205E0,-5.906016231E-1,6.078023911E-1,-2.383399725E0
1.018008871E0,-3.268433213E-1,4.308147430E-1,-2.855534554E0
1.023060486E0,-1.504794955E-1,3.153343201E-1,-3.211434603E0
1.028112100E0,-2.895057201E-3,1.919307709E-1,-3.456895113E0
1.033163767E0,3.254705667E-2,4.158210754E-2,-3.549230814E0
1.038215382E0,2.439987659E-2,-1.141452789E-1,-3.571913481E0
1.043261267E0,-6.437695026E-2,-3.359642029E-1,-3.498959303E0
1.048312934E0,-2.035248280E-1,-5.746870041E-1,-3.316468716E0
1.053364548E0,-2.069928646E-1,-8.099555969E-1,-3.045584679E0
1.058416163E0,-2.291338444E-1,-1.045357704E0,-2.674150944E0
1.063467830E0,-4.829084873E-2,-1.286816597E0,-2.267133236E0
1.068519444E0,1.959453821E-1,-1.529493332E0,-1.901892900E0
1.073565277E0,4.847401977E-1,-1.686332703E0,-1.665907979E0
1.078616944E0,7.544835210E-1,-1.793499947E0,-1.545853615E0
1.083668559E0,8.976022601E-1,-1.854790688E0,-1.518576741E0
1.088720173E0,9.857077599E-1,-1.870401382E0,-1.554969549E0
1.093771840E0,9.986541271E-1,-1.674889565E0,-1.641559601E0
1.098823455E0,9.104185104E-1,-1.407531738E0,-1.703286648E0
1.103869340E0,7.256111503E-1,-1.099711418E0,-1.829597354E0
1.108921007E0,5.710351467E-1,-9.363765717E-1,-2.014551401E0
1.113972621E0,4.656724334E-1,-9.597549438E-1,-2.201679468E0
1.119024236E0,3.250855505E-1,-1.048610687E0,-2.384755373E0
1.124075902E0,2.346163988E-1,-1.346929550E0,-2.488519907E0
1.129127517E0,2.193354368E-1,-1.756012917E0,-2.569471836E0
1.134173350E0,2.704998255E-1,-2.162118912E0,-2.622830868E0
1.139224236E0,3.933781385E-1,-2.549766541E0,-2.626040220E0
1.144275069E0,5.229828358E-1,-2.834412575E0,-2.576683044E0
1.149325955E0,5.091276169E-1,-3.052323341E0,-2.570808172E0
1.154376840E0,4.765918255E-1,-3.212159157E0,-2.533328533E0
1.159427673E0,3.962340355E-1,-3.471580505E0,-2.485955715E0
1.164477361E0,2.650726438E-1,-3.813415527E0,-2.345039606E0
1.169528246E0,1.142032743E-1,-4.357729912E0,-2.052717686E0
1.174579080E0,-1.034226418E-1,-5.150092125E0,-1.603957891E0
1.179629965E0,-3.339892626E-1,-6.173913002E0,-9.463434815E-1
1.184680850E0,-4.836450219E-1,-7.243379593E0,-2.508754134E-1
1.189731684E0,-6.044260859E-1,-8.216446877E0,2.192991972E-1
1.194781423E0,-7.039045691E-1,-8.645279884E0,5.752166510E-1
1.199832309E0,-7.977562547E-1,-8.607530594E0,6.182131767E-1
1.204883142E0,-8.754022717E-1,-8.365261078E0,3.038020134E-1
1.209934027E0,-1.071192026E0,-8.095877647E0,-1.036821604E-1
1.214984913E0,-1.374028444E0,-8.008188248E0,-6.158778667E-1
1.220035746E0,-1.680395603E0,-7.889087677E0,-1.070402741E0
1.225085434E0,-1.973657370E0,-7.540730476E0,-1.623627186E0
1.230136319E0,-2.107799053E0,-6.868687630E0,-2.292402744E0
1.235187152E0,-2.199613571E0,-5.809908867E0,-3.138652563E0
1.240238038E0,-2.172851801E0,-4.575942993E0,-4.038375854E0
1.245288923E0,-2.063825369E0,-3.427518845E0,-4.902898788E0
1.250339757E0,-2.151054859E0,-2.254709244E0,-5.695086479E0
1.255389444E0,-2.194703817E0,-1.297564507E0,-6.222223282E0
1.260440330E0,-2.290315866E0,-6.425151825E-1,-6.498665333E0
1.265491163E0,-2.298411369E0,-3.303470612E-1,-6.544032574E0
1.270542048E0,-2.322844982E0,-1.918716431E-1,-6.450382710E0
1.275592934E0,-2.287929058E0,-1.003885269E-1,-6.193024635E0
1.280643767E0,-2.262136459E0,-7.293701172E-3,-5.859773636E0
1.285693507E0,-2.250174761E0,2.409667969E-1,-5.326304436E0
1.290744392E0,-2.307532549E0,6.184215546E-1,-4.715754032E0
1.295795225E0,-2.280301094E0,9.942064285E-1,-4.249343872E0
1.300846111E0,-2.145519733E0,1.283088684E0,-4.029526234E0
1.305896996E0,-1.784768462E0,1.372572899E0,-4.127943516E0
1.310947830E0,-1.179784775E0,1.166075706E0,-4.250688553E0
1.315997517E0,-2.888985872E-1,5.830574036E-1,-4.567672729E0
1.321048402E0,8.992851973E-1,-4.409446716E-1,-4.742526531E0
1.326099236E0,2.111630440E0,-1.955033302E0,-4.455053806E0
1.331150121E0,3.454763889E0,-3.589729309E0,-3.650481224E0
1.336201007E0,4.886630535E0,-5.208806992E0,-2.453126192E0
1.341251840E0,6.165263176E0,-6.320713043E0,-1.173688650E0
1.346301527E0,7.224272728E0,-6.905856133E0,6.296205521E-2
1.351352413E0,7.667856216E0,-7.137681961E0,1.162939548E0
1.356403246E0,7.618626118E0,-7.217116356E0,1.963243008E0
1.361454132E0,7.297258377E0,-7.007270813E0,2.589866638E0
1.366505017E0,6.956895828E0,-6.319710732E0,2.867230892E0
1.371555850E0,6.649320126E0,-5.351267815E0,3.002650023E0
1.376605538E0,6.250146866E0,-4.390169144E0,3.057005882E0
1.381656423E0,5.765752792E0,-3.545747757E0,3.246739864E0
1.386707257E0,5.557181358E0,-2.994563103E0,3.893546581E0
1.391758142E0,4.965384483E0,-2.656080246E0,4.396922588E0
1.396809027E0,3.870567322E0,-2.257464409E0,4.635805130E0
1.401859861E0,2.601042509E0,-1.684557915E0,4.683118820E0
1.406909600E0,1.477770448E0,-1.249388695E0,5.072860718E0
1.411960486E0,4.346632957E-1,-8.578567505E-1,5.628147125E0
1.417011319E0,-5.685088634E-1,-4.122772217E-1,6.230901718E0
1.422062205E0,-1.403908730E0,-7.145881653E-3,6.705809593E0
1.427113090E0,-1.910089254E0,3.600015640E-1,7.254421234E0
1.432163923E0,-2.239378214E0,6.287307739E-1,7.655761719E0
1.437213611E0,-2.398696899E0,8.771753311E-1,7.762837410E0
1.442264496E0,-2.463814735E0,1.045492172E0,7.658921242E0
1.447315330E0,-2.338550091E0,1.225397587E0,7.248211861E0
1.452366215E0,-2.462873220E0,1.394242287E0,6.534057140E0
1.457417100E0,-2.666330814E0,1.628634453E0,5.476603508E0
1.462467934E0,-2.876950026E0,1.876688004E0,4.140533924E0
1.467517621E0,-2.905361652E0,1.922257423E0,2.734051943E0
1.472568507E0,-2.823988676E0,1.946011543E0,1.275667429E0
1.477619340E0,-2.438271761E0,1.910953522E0,-1.136946678E-1
1.482670225E0,-1.917966127E0,1.809861183E0,-1.583783627E0
1.487721111E0,-1.210950613E0,1.584042549E0,-2.778434753E0
1.492771944E0,-3.465545177E-1,1.220551491E0,-3.950064659E0
1.497821632E0,5.116009712E-1,7.860798836E-1,-4.615232944E0
1.502872517E0,1.086129904E0,4.903717041E-1,-3.938222408E0
1.507923350E0,1.577631235E0,1.920638084E-1,-2.111380100E0
1.512974236E0,1.790999413E0,4.451847076E-2,-5.749416351E-2
1.518025121E0,1.769227266E0,7.910633087E-2,1.705449581E0
1.523075955E0,1.724315047E0,1.928868294E-1,3.111964703E0
1.528125642E0,1.706406236E0,2.715587616E-1,4.285693169E0
1.533176527E0,1.533399105E0,4.872856140E-1,5.175094128E0
1.538227361E0,1.191729307E0,9.516181946E-1,5.668408394E0
1.543278246E0,9.008569717E-1,1.474715233E0,6.057118416E0
1.548329132E0,7.243649960E-1,1.890675545E0,6.120096207E0
1.553379965E0,5.194666386E-1,2.221292496E0,5.786234379E0
1.558429652E0,4.550731182E-1,2.319200516E0,5.245367527E0
1.563480538E0,4.496185780E-1,2.277779102E0,4.527981758E0
1.568531371E0,5.794243813E-1,2.141903877E0,4.004038811E0
1.573582257E0,7.455890179E-1,2.038394451E0,3.701485634E0
1.578633142E0,7.771596909E-1,2.010888100E0,3.524306297E0
1.583683975E0,9.974355698E-1,1.864470482E0,3.526530743E0
1.588733663E0,1.138015509E0,1.741012096E0,3.718630791E0
1.593784548E0,1.327621460E0,1.742822170E0,4.049965858E0
1.598835382E0,1.440506697E0,1.713535786E0,4.285339355E0
1.603886267E0,1.519469738E0,1.689579964E0,4.566428661E0
1.608937152E0,1.731103897E0,1.788166046E0,4.816370964E0
1.613987986E0,1.891241550E0,1.923281431E0,4.940835476E0
1.619037621E0,1.972132206E0,2.096101284E0,4.999221802E0
1.624088507E0,2.096439362E0,2.442950249E0,4.860771179E0
1.629139340E0,2.176032066E0,2.695822477E0,4.868431091E0
1.634190225E0,2.233206749E0,2.915883303E0,5.019995689E0
1.639241111E0,2.200906277E0,3.076435566E0,5.016143322E0
1.644291944E0,2.221822023E0,3.281917810E0,5.041845322E0
1.649341684E0,2.193996429E0,3.459965706E0,4.972841263E0
1.654392413E0,1.937858105E0,3.779766560E0,4.576501846E0
1.659443090E0,2.139992952E0,3.783947945E0,4.349780560E0
1.664493819E0,2.261996746E0,3.759402990E0,3.974992514E0
1.669544548E0,2.254573345E0,3.734932899E0,3.381540060E0
1.674595225E0,2.208441973E0,3.594848633E0,2.748341084E0
1.679645694E0,2.108243465E0,3.323044538E0,2.105165005E0
1.684696423E0,1.962285519E0,3.013191700E0,1.577699184E0
1.689747100E0,1.810630798E0,2.757139683E0,1.195367813E0
1.694797830E0,1.567556381E0,2.435174465E0,1.063155174E0
1.699848559E0,1.501093864E0,2.403039932E0,8.664245605E-1
1.704899236E0,1.442053795E0,2.432905197E0,6.323628426E-1
1.709949705E0,1.325614691E0,2.558368683E0,3.856611252E-2
1.715000434E0,1.265506268E0,2.709076166E0,-6.196904182E-1
1.720051111E0,1.108014345E0,2.858841419E0,-1.417398930E0
1.725101840E0,7.800087929E-1,3.006612539E0,-2.300411224E0
1.730152569E0,4.610686302E-1,2.995502472E0,-3.194413185E0
1.735203246E0,5.092620850E-2,2.915866852E0,-4.302090645E0
1.740253715E0,-3.669199944E-1,2.709898949E0,-5.110944271E0
1.745304444E0,-8.329939842E-1,2.397033691E0,-6.320701599E0
1.750355121E0,-1.482748032E0,2.189754486E0,-7.340515614E0
1.755405850E0,-2.347321510E0,1.877168655E0,-9.364286423E0
1.760456580E0,-3.763221264E0,1.562776089E0,-1.110325050E1
1.765507257E0,-5.550554752E0,9.274530411E-1,-1.294890118E1
1.770557673E0,-7.328139305E0,7.627248764E-2,-1.340954399E1
1.775608402E0,-9.447042465E0,-5.476503372E-1,-8.617210388E0
1.780659080E0,-1.014956093E1,-7.474589348E-1,1.817810535E0
1.785709809E0,-7.765478134E0,-1.040468216E0,1.045204163E1
1.790760538E0,-4.012889385E0,-1.856787682E0,1.115608406E1
1.795811215E0,-1.419649124E0,-3.363287449E0,5.330355644E0
1.800861684E0,-7.664713860E-1,-5.082320213E0,-9.430384636E-1
1.805912413E0,-1.140088558E0,-6.283430099E0,-3.879878521E0
1.810963090E0,-1.668371677E0,-7.205688000E0,-3.428870678E0
1.816013819E0,-2.500728130E0,-7.404596806E0,-2.777652740E0
1.821064548E0,-3.513047695E0,-6.864184380E0,-2.840239525E0
1.826115225E0,-4.014486313E0,-5.562862396E0,-1.636261940E-1
1.831205173E0,-3.239146709E0,-3.439927578E0,1.838580132E0
1.836255850E0,-1.853174686E0,-1.149929523E0,8.730630875E-1
1.841306580E0,-1.628170013E-1,1.885738373E-1,-5.320940018E-1
1.846357309E0,1.918103218E0,6.736388206E-1,-1.249191761E0
1.851407986E0,3.883024216E0,9.190425873E-1,1.530036926E-1
1.856458715E0,5.233026505E0,1.083738327E0,2.206517696E0
1.861509132E0,5.812500477E0,1.189927578E0,3.338839293E0
1.866559809E0,5.491089821E0,8.635497093E-1,4.225575447E0
1.871610538E0,4.432696342E0,4.212560654E-1,4.585467339E0
1.876661267E0,3.051278353E0,2.224588394E-2,3.772055626E0
1.881711944E0,1.596880913E0,-2.566633224E-1,2.514160395E0
1.886762673E0,2.956540585E-1,-4.608664513E-1,2.042869091E0
1.891773663E0,-8.482663631E-1,-7.444257736E-1,1.853694916E0
1.896824392E0,-1.661722660E0,-1.042217255E0,1.226276159E0
1.901875069E0,-2.078341722E0,-1.194292068E0,9.764294624E-1
1.906925798E0,-2.274282932E0,-1.161827564E0,1.159628868E0
1.911976527E0,-2.425153732E0,-1.054718018E0,1.025807858E0
1.917027205E0,-2.632336378E0,-8.770446777E-1,4.975528717E-1
1.922077673E0,-2.827954531E0,-7.142415047E-1,1.506328583E-3
1.927128402E0,-2.895238400E0,-4.414234161E-1,-2.446107864E-1
1.932179080E0,-2.760886431E0,-2.123250961E-1,-2.363266945E-1
1.937229809E0,-2.389423847E0,-1.399040222E-3,-5.631208420E-2
1.942280538E0,-1.852783442E0,1.027584076E-2,2.425084114E-1
1.947331215E0,-1.176760197E0,-6.795787811E-2,6.457600594E-1
1.952381684E0,-3.466784954E-1,-3.525457382E-1,1.241442680E0
1.957432413E0,5.375437737E-1,-8.164548874E-1,1.957403183E0
1.962483090E0,1.335492969E0,-1.406690598E0,2.355416775E0
1.967533819E0,2.009300232E0,-2.039536476E0,2.500797510E0
1.972584548E0,2.512877464E0,-2.579269409E0,2.472448826E0
1.977635225E0,2.932061911E0,-2.971638680E0,2.270540237E0
1.982685694E0,3.146502495E0,-3.203208923E0,1.968613386E0
1.987736423E0,3.448313475E0,-3.354723930E0,1.701740980E0
1.992787100E0,3.809442520E0,-3.516139030E0,1.435053349E0
1.997837830E0,3.897510052E0,-3.584954262E0,1.086142778E0
2.002888559E0,4.022151947E0,-3.441073418E0,9.631781578E-1
2.007939236E0,4.085507393E0,-3.168995857E0,8.654811382E-1
2.012989705E0,4.040438652E0,-2.801620483E0,7.959098816E-1
2.018040434E0,3.981022358E0,-2.210162163E0,8.508508205E-1
2.023091111E0,3.723817348E0,-1.654368401E0,9.196634293E-1
2.028141840E0,3.363970041E0,-1.119752884E0,8.312447071E-1
2.033192569E0,3.041409492E0,-7.672739029E-1,8.768291473E-1
2.038243246E0,2.565168619E0,-4.050016403E-1,9.915595055E-1
2.043333194E0,1.992795944E0,-8.630752563E-3,8.129582405E-1
2.048383871E0,1.308638215E0,3.634462357E-1,4.165232182E-1
2.053434600E0,8.853101134E-1,7.069530487E-1,3.164846897E-1
2.058485330E0,5.018579364E-1,9.753370285E-1,4.638638496E-1
2.063536007E0,-4.533815384E-2,1.343088150E0,3.800760508E-1
2.068586736E0,-4.371892214E-1,1.692661762E0,6.520059109E-1
2.073597725E0,-8.698132038E-1,2.028482437E0,1.200312138E0
2.078648455E0,-1.078964472E0,2.164497375E0,1.192730308E0
2.083699132E0,-1.524455309E0,2.271665573E0,1.533014774E0
2.088749861E0,-2.445001364E0,2.895739555E0,1.108277321E0
2.093800590E0,-2.661459684E0,3.218955994E0,2.022039890E-1
2.098851267E0,-2.598527670E0,3.356790543E0,-2.728030682E-1
2.103901736E0,-2.216920853E0,3.344631672E0,-5.450440645E-1
2.108952465E0,-1.742985010E0,3.053158283E0,-4.031310081E-1
2.114003142E0,-1.583991289E0,2.829952240E0,-1.026822329E-1
2.119053871E0,-1.420996428E0,2.657108307E0,1.077037454E-1
2.124104600E0,-1.501680613E0,2.541649818E0,-1.250871420E-1
2.129155277E0,-1.423230290E0,2.515752316E0,-1.429864764E-1
2.134205746E0,-1.121577978E0,2.153913498E0,-7.647734880E-2
2.139256475E0,-8.448968530E-1,1.909937859E0,2.011650801E-2
2.144307152E0,-5.245833993E-1,1.639109612E0,2.950382233E-2
2.149357882E0,-1.357548833E-1,1.433666229E0,1.656407118E-2
2.154408611E0,1.905999780E-1,1.373649597E0,-6.334403157E-2
2.159459288E0,4.344936311E-1,1.396716118E0,-2.516841888E-1
2.164509757E0,5.550339222E-1,1.421499252E0,-4.879889786E-1
2.169560434E0,5.238494873E-1,1.531693459E0,-7.585458755E-1
2.174611111E0,3.808460832E-1,1.574209213E0,-1.067742109E0
2.179661788E0,2.316224575E-1,1.667565346E0,-1.225237489E0
2.184712465E0,8.389872313E-2,1.702936172E0,-1.296112061E0
2.189763142E0,-2.541714907E-2,1.651865005E0,-1.441304564E0
2.194813767E0,3.153806925E-2,1.573152542E0,-1.472387314E0
2.199864444E0,9.064298868E-2,1.484824181E0,-1.486480236E0
2.204915121E0,2.855294347E-1,1.349887848E0,-1.635186553E0
2.209965798E0,5.739417076E-1,1.297506332E0,-1.727856159E0
2.215016475E0,9.209566116E-1,1.207983017E0,-1.897589922E0
2.220067152E0,1.254668236E0,1.052720070E0,-2.152509451E0
2.225117777E0,1.486765623E0,8.832502365E-1,-2.404779196E0
2.230168455E0,1.610375166E0,7.569751740E-1,-2.635832787E0
2.235219132E0,1.641340971E0,6.044950485E-1,-2.656722784E0
2.240269809E0,1.615809202E0,3.995809555E-1,-2.599364758E0
2.245320486E0,1.461370230E0,2.140207291E-1,-2.418777466E0
2.250371163E0,1.346123815E0,-1.441287994E-2,-2.241989136E0
2.255421788E0,1.196292758E0,-1.614036560E-1,-2.001438379E0
2.260472465E0,1.120096445E0,-2.379589081E-1,-1.675916076E0
2.265523142E0,1.173353910E0,-2.645549774E-1,-1.415104747E0
2.270573819E0,1.183670521E0,-1.564855576E-1,-1.119821548E0
2.275624496E0,1.309646249E0,-7.915496826E-5,-8.677845001E-1
2.280675173E0,1.328265429E0,3.396310806E-1,-5.188326240E-1
2.285725798E0,1.419720411E0,6.208744049E-1,-3.060463667E-1
2.290776475E0,1.442556739E0,1.081631660E0,-6.155449152E-2
2.295827152E0,1.484124660E0,1.513545036E0,9.729957581E-2
2.300877830E0,1.527106762E0,1.929853439E0,1.706248522E-1
2.305928507E0,1.468763471E0,2.285149574E0,1.894913912E-1
2.310979184E0,1.420548439E0,2.432540894E0,5.463981628E-2
2.316029809E0,1.316788435E0,2.407105446E0,-2.194776535E-1
2.321080486E0,1.125801086E0,2.198416710E0,-4.999770522E-1
2.326131163E0,9.032629728E-1,1.563000202E0,-9.878857136E-1
2.331181840E0,6.580644846E-1,7.264776230E-1,-1.559321404E0
2.336232517E0,4.228280783E-1,-2.748060226E-1,-2.256579399E0
2.341283194E0,2.000453472E-1,-1.187016487E0,-3.037972212E0
2.346333819E0,1.003634930E-2,-1.957615852E0,-3.732742786E0
2.351384496E0,-2.250369787E-1,-2.475632668E0,-4.375080585E0
2.356435173E0,-4.043482542E-1,-2.800040245E0,-4.939249516E0
2.361485850E0,-4.824591279E-1,-2.896400452E0,-5.474655151E0
2.366536527E0,-4.212865829E-1,-2.957516670E0,-5.737211227E0
2.371587205E0,-3.287630677E-1,-2.911581039E0,-5.836804390E0
2.376637830E0,-2.264754176E-1,-2.951147079E0,-5.663586617E0
2.381688507E0,-1.552618146E-1,-2.969619751E0,-5.114251137E0
2.386739184E0,-1.796879768E-1,-2.981424332E0,-4.401515961E0
2.391789861E0,-2.522185445E-1,-2.881350517E0,-3.752846241E0
2.396840538E0,-4.449741840E-1,-2.697170258E0,-3.185342789E0
2.401891215E0,-6.566867232E-1,-2.564045906E0,-2.953333616E0
2.406941840E0,-9.479969144E-1,-2.279893875E0,-2.989176750E0
2.411992517E0,-1.108800411E0,-1.963372231E0,-3.387710094E0
2.417043194E0,-1.011669636E0,-1.629952431E0,-4.050224304E0
2.422093871E0,-5.795969963E-1,-1.464841843E0,-4.694360733E0
2.427144548E0,1.228520870E-1,-1.468751907E0,-4.942539692E0
2.432195225E0,7.955077887E-1,-1.905569077E0,-4.774156570E0
2.437245850E0,1.424508333E0,-2.810485840E0,-4.346167564E0
2.442296527E0,1.827299356E0,-4.011774063E0,-3.902049541E0
2.447347205E0,2.242727041E0,-5.239953041E0,-3.360626459E0
2.452397882E0,2.655484200E0,-6.040785789E0,-2.787630081E0
2.457448559E0,3.217942238E0,-6.492843628E0,-2.451503515E0
2.462499236E0,3.924970150E0,-6.643293381E0,-2.115086079E0
2.467549861E0,4.621258259E0,-6.540450096E0,-1.832003117E0
2.472600538E0,5.244932652E0,-6.346179008E0,-1.486548781E0
2.477651215E0,5.770056248E0,-5.919635773E0,-1.248837948E0
2.482701892E0,5.984304905E0,-5.248257637E0,-1.127601027E0
2.487752569E0,5.680119514E0,-4.545574188E0,-1.279835701E0
2.492803246E0,4.855051994E0,-3.805128098E0,-1.490509033E0
2.497853871E0,3.697952509E0,-3.177276611E0,-1.743859291E0
2.502904548E0,2.457112551E0,-2.820506096E0,-2.052470207E0
2.507955225E0,1.289382815E0,-2.594087601E0,-2.317387104E0
2.513005902E0,5.437145233E-1,-2.423123360E0,-2.332306147E0
2.518056580E0,2.105615139E-1,-2.188340187E0,-2.385367393E0
2.523107257E0,2.835004330E-1,-1.909255981E0,-2.351275444E0
2.528157882E0,9.218117595E-1,-1.847692490E0,-2.139769077E0
2.533208559E0,1.399967551E0,-1.897865295E0,-1.918256402E0
2.538259236E0,1.891080499E0,-2.004448891E0,-1.779039860E0
2.543309913E0,2.591084003E0,-2.325888634E0,-1.461762905E0
2.548360590E0,3.101995230E0,-2.519276619E0,-7.817142606E-1
2.553411267E0,3.620801449E0,-2.922217369E0,-2.990353107E-2
2.558461892E0,4.051912308E0,-3.405456543E0,5.234412551E-1
2.563512569E0,4.286072731E0,-3.938179970E0,7.761934400E-1
2.568563246E0,4.492103577E0,-4.578372955E0,9.562503099E-1
2.573613923E0,4.910040379E0,-5.124580383E0,1.255499601E0
2.578664600E0,5.531653404E0,-5.488207817E0,1.744006157E0
2.583715277E0,6.144866943E0,-5.751851082E0,2.340509892E0
2.588765902E0,6.784779549E0,-5.998347282E0,2.761750698E0
2.593816580E0,7.550789833E0,-6.301992416E0,3.072489738E0
2.598867257E0,7.227837563E0,-6.433735847E0,3.979273558E0
2.603917934E0,6.766594887E0,-6.418149948E0,5.005952358E0
2.608968611E0,6.245274544E0,-6.123108864E0,6.066296577E0
2.614019288E0,6.356804371E0,-5.703151703E0,6.930716515E0
2.619069913E0,6.317245483E0,-5.109551430E0,7.204793930E0
2.624120590E0,6.140785217E0,-4.398501396E0,7.808844566E0
2.629171267E0,5.780236244E0,-3.738289833E0,8.452980995E0
2.634221944E0,5.330316544E0,-3.003420830E0,8.183089256E0
2.639272621E0,4.805887699E0,-2.139396667E0,7.812741280E0
2.644323298E0,4.200383663E0,-1.277091980E0,7.512887478E0
2.649373923E0,3.480591536E0,-4.323930740E-1,6.878107071E0
2.654424600E0,2.679270983E0,4.325571060E-1,6.310672760E0
2.659475277E0,2.039302349E0,1.182358742E0,5.853004456E0
2.664525955E0,1.705737591E0,1.649761677E0,5.477859974E0
2.669576632E0,1.609386683E0,1.938254356E0,5.179529190E0
2.674627309E0,1.590319872E0,2.053053856E0,4.944128513E0
2.679677934E0,1.641218901E0,2.091627598E0,5.084527969E0
2.684728611E0,1.662520409E0,2.035346031E0,5.427029610E0
2.689779288E0,1.677095652E0,1.893182755E0,5.389852524E0
2.694829965E0,1.716276646E0,1.636943817E0,5.245614052E0
2.699880642E0,1.721378684E0,1.331642151E0,4.963231087E0
2.704931267E0,1.694606662E0,1.099367619E0,4.676515102E0
2.709981944E0,1.533259392E0,1.172865868E0,4.514486790E0
2.715032621E0,1.409010768E0,1.304180622E0,4.506844521E0
2.720083298E0,1.424879670E0,1.446644783E0,4.683922291E0
2.725133975E0,1.513467908E0,1.456975460E0,4.835724831E0
2.730184652E0,1.624520540E0,1.476799011E0,4.865346909E0
2.735235277E0,1.760992289E0,1.536383629E0,4.704971313E0
2.740285955E0,1.958625793E0,1.296777725E0,4.466786385E0
2.745336632E0,2.028799057E0,1.003139973E0,4.089716434E0
2.750387309E0,1.959483862E0,7.000198364E-1,3.762287140E0
2.755437986E0,1.915976286E0,2.966136932E-1,3.531746864E0
2.760488663E0,1.792327046E0,-9.236240387E-2,3.384616375E0
2.765539288E0,1.704290390E0,-5.140438080E-1,3.302945137E0
2.770589913E0,1.527365923E0,-8.947753906E-1,3.338080883E0
2.775640590E0,1.193637133E0,-1.169418335E0,3.262610197E0
2.780691267E0,9.935668707E-1,-1.456022263E0,3.249884367E0
2.785741944E0,8.167462349E-1,-1.753698349E0,3.445747137E0
2.790792621E0,5.007171631E-1,-1.980437279E0,3.526106358E0
2.795843246E0,3.576159477E-2,-2.155792236E0,3.500902414E0
2.800933402E0,-4.074950218E-1,-2.244302750E0,3.410111904E0
2.805984080E0,-8.346786499E-1,-2.192363739E0,3.339769363E0
2.811034705E0,-1.244968653E0,-2.040700912E0,3.119874477E0
2.816085382E0,-1.605244637E0,-1.709276199E0,2.813982725E0
2.821136059E0,-1.978543520E0,-1.160935402E0,2.489929914E0
2.826186736E0,-2.375679016E0,-4.124851227E-1,2.241539478E0
2.831197934E0,-2.669936657E0,3.328962326E-1,2.094088078E0
2.836248611E0,-2.974979162E0,9.832758904E-1,1.946664333E0
2.841299288E0,-3.230554819E0,1.664289951E0,1.754947186E0
2.846349965E0,-3.378748178E0,2.137655258E0,1.770405293E0
2.851400642E0,-3.395984173E0,2.370868206E0,1.870206118E0
2.856451267E0,-3.251911163E0,2.452657223E0,2.106783867E0
2.861501944E0,-2.965572834E0,2.431014061E0,2.391423225E0
2.866552621E0,-2.599094868E0,2.306177139E0,2.622124672E0
2.871603298E0,-2.253605604E0,2.167809486E0,2.855194807E0
2.876653975E0,-1.886152029E0,1.935966492E0,3.003111124E0
2.881704652E0,-1.501916409E0,1.720682621E0,3.121470451E0
2.886755277E0,-1.102494240E0,1.500611782E0,3.186163664E0
2.891805955E0,-7.274744511E-1,1.398908615E0,3.258288383E0
2.896856632E0,-3.985548019E-1,1.322104931E0,3.249445200E0
2.901907309E0,-1.305048466E-1,1.338500023E0,3.329417706E0
2.906957986E0,-3.373074532E-2,1.558203697E0,3.485055447E0
2.912008663E0,2.070555687E-1,1.752700806E0,3.317247868E0
2.917059288E0,3.526682854E-1,1.585747242E0,3.079951525E0
2.922109965E0,3.419415951E-1,1.418735027E0,2.651623011E0
2.927160642E0,2.434108257E-1,1.185586452E0,2.045327663E0
2.932211319E0,1.293516159E-2,9.813709259E-1,1.456007004E0
2.937261996E0,-2.319195271E-1,8.661241531E-1,8.334057331E-1
2.942312673E0,-3.628029823E-1,7.678594589E-1,2.324376106E-1
2.947363298E0,-4.298272133E-1,6.694993973E-1,-2.796382904E-1
2.952413975E0,-3.618795872E-1,5.085754395E-1,-7.723093033E-1
2.957464652E0,-2.231211662E-1,3.803501129E-1,-1.447205305E0
2.962515330E0,-1.047952175E-1,3.207015991E-1,-2.243724823E0
2.967566007E0,9.059119225E-2,1.540107727E-1,-3.048863173E0
2.972616684E0,3.675718307E-1,2.292633057E-2,-3.769012213E0
2.977667309E0,7.160477638E-1,-1.345119476E-1,-4.585645676E0
2.982717986E0,1.223335743E0,-3.658037186E-1,-5.472472191E0
2.987768663E0,1.833865523E0,-5.699081421E-1,-6.419984818E0
2.992819340E0,2.653379440E0,-7.882165909E-1,-7.288208008E0
2.997870017E0,3.651648045E0,-1.029525757E0,-8.045022964E0
3.002920694E0,4.681878090E0,-1.266110420E0,-8.542313576E0
3.007971319E0,5.371427536E0,-1.390120506E0,-8.543920517E0
3.013021996E0,5.761582375E0,-1.365208626E0,-7.911601067E0
3.018072673E0,5.782656670E0,-1.220568657E0,-6.952039719E0
3.023123350E0,5.709920883E0,-9.974412918E-1,-5.709622860E0
3.028174027E0,5.453392982E0,-7.752428055E-1,-4.507228851E0
3.033224705E0,5.105768204E0,-5.857248306E-1,-3.320297241E0
3.038275330E0,4.654015541E0,-4.641065598E-1,-2.314252377E0
3.043325955E0,3.982507706E0,-5.102205276E-1,-1.492699385E0
3.048376632E0,3.003160954E0,-6.179389954E-1,-7.445690632E-1
3.053427309E0,1.985145450E0,-8.069057465E-1,-1.064336300E-1
3.058477986E0,8.626734018E-1,-1.254448891E0,6.502947807E-1
3.063528663E0,-2.163469791E-1,-1.825624466E0,1.271832705E0
3.068579288E0,-1.264839649E0,-2.712136269E0,1.996571064E0
3.073629965E0,-2.324348927E0,-3.911759377E0,2.908477306E0
3.078680642E0,-3.279637098E0,-5.422498703E0,3.769447565E0
3.083731319E0,-3.995054722E0,-6.885397911E0,4.177772045E0
3.088781996E0,-4.284103870E0,-8.036152840E0,3.711540222E0
3.093832673E0,-4.188675880E0,-8.396584511E0,2.384468079E0
3.098883298E0,-3.798632860E0,-8.096507072E0,2.619812489E-1
3.103934027E0,-3.174291372E0,-7.437011719E0,-2.208235741E0
3.108984705E0,-2.335032940E0,-6.425976753E0,-4.014174461E0
3.114035382E0,-1.544708014E0,-5.215292931E0,-3.492600441E0
3.119086059E0,-1.351022720E0,-3.864598274E0,5.357453823E-1
3.124136736E0,-1.361474514E0,-2.795883179E0,6.724160194E0
3.129187361E0,-1.802620411E0,-2.260990143E0,1.096952820E1
3.134237986E0,-3.216925144E0,-1.909533501E0,1.221597290E1
3.139288663E0,-5.136036873E0,-1.533028603E0,1.128868484E1
3.144339340E0,-7.542381287E0,-8.264331818E-1,7.768617630E0
3.149390017E0,-8.824917793E0,8.546447754E-2,3.999679089E0
3.154440694E0,-7.721343994E0,1.177568436E0,2.242449284E0
3.159491319E0,-5.153409004E0,2.082368851E0,2.436600685E0
3.164542048E0,-2.999605179E0,2.772734642E0,3.782264709E0
3.169592725E0,-1.381422758E0,3.388784885E0,4.781386375E0
3.174643402E0,4.899859428E-2,3.869407654E0,5.080534935E0
3.179694080E0,1.309210181E0,4.197982788E0,4.759270668E0
3.184744757E0,2.256412029E0,4.388622284E0,4.093484402E0
3.189795382E0,3.061100483E0,4.267646313E0,3.768169880E0
3.194846059E0,3.836549282E0,3.860549927E0,3.940683842E0
3.199896736E0,4.453573227E0,3.214353561E0,4.625170708E0
3.204947413E0,5.013106346E0,2.296770096E0,5.433563232E0
3.209998090E0,5.542450905E0,1.127698898E0,6.110847473E0
3.215048715E0,6.114376545E0,-3.183069229E-1,6.887578964E0
3.220099392E0,6.684271812E0,-1.950400352E0,7.206161499E0
3.225150017E0,7.280395985E0,-3.620251656E0,7.043638229E0
3.230200694E0,7.791075706E0,-5.168668747E0,6.727329731E0
3.235251371E0,7.935832977E0,-6.428445816E0,5.852823257E0
3.240302048E0,7.499094009E0,-7.240049362E0,4.513600349E0
3.245352673E0,6.620027542E0,-7.432854652E0,3.601861000E0
3.250403350E0,5.721298218E0,-7.161231995E0,3.604240417E0
3.255454080E0,4.715914726E0,-6.423463821E0,3.898151875E0
3.260504757E0,3.414466619E0,-5.306804657E0,3.503053665E0
3.265555434E0,1.796867013E0,-3.936211586E0,2.581987381E0
3.270606111E0,1.352952719E-1,-2.622611046E0,1.330744147E0
3.275656736E0,-1.188795686E0,-1.354705811E0,1.857509613E-1
3.280707413E0,-1.831629157E0,-3.767919540E-1,-5.978541374E-1
3.285758090E0,-2.038016319E0,4.858818054E-1,-1.604423761E0
3.290808767E0,-2.192146301E0,1.138618469E0,-2.443463564E0
3.295859444E0,-1.935315013E0,1.460885048E0,-2.510914803E0
3.300910121E0,-1.708257675E0,1.499968052E0,-2.221163273E0
3.305960746E0,-2.319837809E0,1.893280029E0,-2.394659996E0
3.311011423E0,-2.733453751E0,2.285770893E0,-2.424409628E0
3.316062100E0,-2.525089502E0,2.438106537E0,-2.035112858E0
3.321112777E0,-2.230048180E0,2.415429115E0,-1.387263417E0
3.326163455E0,-1.982352376E0,2.267237663E0,-6.303435564E-1
3.331214132E0,-1.771075726E0,1.977131844E0,-5.458509922E-2
3.336264757E0,-1.543362379E0,1.632618904E0,3.667483330E-1
3.341315434E0,-1.268218160E0,1.300777435E0,6.388434172E-1
3.346366111E0,-9.828875065E-1,1.049849510E0,8.609046936E-1
3.351416788E0,-6.155685186E-1,7.374382019E-1,1.012557745E0
3.356467465E0,-2.860761881E-1,5.765266418E-1,1.145469069E0
3.361518142E0,8.786559105E-2,3.445243835E-1,1.265550494E0
3.366568767E0,4.919375181E-1,1.771163940E-2,1.295710802E0
3.371619444E0,8.283369541E-1,-2.266254425E-1,1.386736989E0
3.376670121E0,1.083054662E0,-5.008592606E-1,1.588597775E0
3.381720798E0,1.315522909E0,-7.498130798E-1,1.697437048E0
3.386771475E0,1.478326440E0,-9.781665802E-1,1.671281576E0
3.391822152E0,1.579083204E0,-1.247971535E0,1.660457373E0
3.396872777E0,1.518394470E0,-1.445431709E0,1.705713630E0
3.401923455E0,1.383219719E0,-1.571715355E0,1.527297020E0
3.406974132E0,1.143955708E0,-1.635314941E0,1.188228846E0
3.412024809E0,8.029682040E-1,-1.577746391E0,6.669418812E-1
3.417075486E0,4.349945784E-1,-1.337155342E0,-2.630037069E-2
3.422126163E0,8.579635620E-2,-1.062256813E0,-9.205024242E-1
3.427176788E0,-1.844238043E-1,-7.018480301E-1,-1.767760038E0
3.432227465E0,-3.883508444E-1,-4.188413620E-1,-2.552960873E0
3.437278142E0,-5.440728664E-1,-1.509838104E-1,-3.172178030E0
3.442328819E0,-7.112363577E-1,1.172666550E-1,-3.715014458E0
3.447379496E0,-8.175350428E-1,3.965997696E-1,-4.224766254E0
3.452430173E0,-8.589637280E-1,7.156629562E-1,-4.618020535E0
3.457480798E0,-7.908315659E-1,9.846887589E-1,-4.760399818E0
3.462531475E0,-4.937152863E-1,1.172727585E0,-4.595282555E0
3.467582152E0,-1.141978502E-1,1.268033028E0,-4.156042099E0
3.472632830E0,4.374128580E-2,1.402358055E0,-3.567096233E0
3.477683507E0,1.076419950E-1,1.438099861E0,-2.933247805E0
3.482734184E0,8.287042379E-2,1.522505760E0,-2.271138191E0
3.487784809E0,-6.236732006E-2,1.633969307E0,-1.660820723E0
3.492835486E0,-1.505399942E-1,1.761669159E0,-9.766301513E-1
3.497886215E0,-1.876105666E-1,1.826632500E0,-4.260710180E-1
3.502936892E0,-2.557345629E-1,1.852816582E0,-6.654003263E-2
3.507987569E0,-2.337929606E-1,1.821110725E0,2.166090310E-1
3.513038246E0,-1.682129502E-1,1.725590706E0,3.810222447E-1
3.518088871E0,-1.501502395E-1,1.540067673E0,3.490006328E-1
3.523139548E0,-1.247973442E-1,1.233616829E0,1.882621795E-1
3.528190225E0,-1.635576487E-1,9.093437195E-1,-7.789599895E-2
3.533240902E0,-2.510778904E-1,6.007804871E-1,-4.702393413E-1
3.538291580E0,-3.423017263E-1,3.342247009E-1,-8.863325715E-1
3.543342257E0,-3.895896673E-1,1.550645828E-1,-1.401769996E0
3.548392882E0,-3.524658084E-1,5.599117279E-2,-2.058466434E0
3.553443559E0,-2.573182583E-1,-6.170272827E-3,-2.677785158E0
3.558494236E0,-1.376530528E-1,8.020401001E-3,-3.236518621E0
3.563544913E0,1.213992536E-1,6.861686707E-2,-3.763570309E0
3.568595590E0,3.660536408E-1,1.337976456E-1,-4.034425735E0
3.573646267E0,6.890445948E-1,2.706766129E-1,-4.138024330E0
3.578696892E0,9.200583696E-1,4.613075256E-1,-3.953319788E0
3.583747569E0,1.108983994E0,6.781787872E-1,-3.613403320E0
3.588798246E0,1.150385261E0,9.380331039E-1,-3.265722036E0
3.593848923E0,1.092629433E0,1.070946693E0,-2.829387426E0
3.598899600E0,1.019479394E0,1.074680328E0,-2.381781101E0
3.603950277E0,9.057846069E-1,1.006775856E0,-1.893793821E0
3.609000902E0,7.805518508E-1,8.217782974E-1,-1.418016434E0
3.614051580E0,6.811451912E-1,6.082124710E-1,-9.403240085E-1
3.619102205E0,7.402839661E-1,4.569435120E-1,-4.553849101E-1
3.624152882E0,8.072698116E-1,4.108524323E-1,-1.492075920E-1
3.629203559E0,8.174882531E-1,3.585834503E-1,-8.320838213E-2
3.634254236E0,6.848161221E-1,3.206167221E-1,-1.898179054E-1
3.639304861E0,3.384234309E-1,1.857938766E-1,-2.498688102E-1
3.644355538E0,-1.105608642E-1,5.242633820E-2,-3.101388216E-1
3.649406215E0,-6.084718108E-1,-3.353385925E-1,-2.619094849E-1
3.654456892E0,-1.059264779E0,-9.424600601E-1,-1.318036318E-1
3.659507569E0,-1.268684030E0,-1.665777206E0,-5.633938313E-2
3.664558246E0,-1.060324550E0,-2.420201302E0,3.488421440E-2
3.669608871E0,-7.019370794E-1,-3.119542122E0,1.538078785E-1
3.674659548E0,-2.024411261E-1,-3.800889015E0,2.182000875E-1
3.679710225E0,1.995026022E-1,-4.597020149E0,2.375565767E-1
3.684760902E0,4.504027069E-1,-5.537687302E0,1.975537539E-1
3.689811580E0,6.496942639E-1,-6.560650826E0,9.578204155E-2
3.694862257E0,7.244837284E-1,-7.516427994E0,-6.035399437E-2
3.699912882E0,8.717935085E-1,-8.122946739E0,-2.563376427E-1
3.704963559E0,1.136207700E0,-8.385590553E0,-4.549488425E-1
3.710014288E0,1.397305489E0,-8.314329147E0,-6.976963282E-1
3.715064965E0,1.694408178E0,-8.157180786E0,-9.292824864E-1
3.720115642E0,1.875679970E0,-7.938090324E0,-1.110648394E0
3.725166319E0,1.947874308E0,-7.685764313E0,-1.219920993E0
3.730216944E0,1.860283613E0,-7.590434074E0,-1.254605889E0
3.735267621E0,1.529859543E0,-7.698489189E0,-1.409341097E0
3.740318298E0,1.105225086E0,-7.779948235E0,-1.656786919E0
3.745368975E0,7.406894565E-1,-7.682782173E0,-2.078870296E0
3.750419652E0,5.590626001E-1,-7.279004097E0,-2.563043118E0
3.755470330E0,6.299453974E-1,-6.632196426E0,-3.004214048E0
3.760520955E0,7.902442217E-1,-5.982985497E0,-3.182243824E0
3.765571632E0,9.246488214E-1,-5.351639748E0,-3.261547804E0
3.770622257E0,1.012997866E0,-4.762106895E0,-3.137585640E0
3.775672934E0,1.100743771E0,-4.210855484E0,-2.861711740E0
3.780723611E0,1.193735361E0,-3.687265396E0,-2.494008064E0
3.785774288E0,1.251103401E0,-3.185551643E0,-2.009640217E0
3.790824913E0,1.222536564E0,-2.855466843E0,-1.562004566E0
3.795875590E0,1.082904100E0,-2.575073242E0,-1.218317509E0
3.800926267E0,8.824540377E-1,-2.301568031E0,-8.769944906E-1
3.805976944E0,6.461524963E-1,-2.004156113E0,-6.384628415E-1
3.811027621E0,4.872432947E-1,-1.728654861E0,-5.097203851E-1
3.816078298E0,2.821934819E-1,-1.538797379E0,-4.952258468E-1
3.821128923E0,6.168580055E-2,-1.580786705E0,-4.832473993E-1
3.826179600E0,-2.471557856E-1,-1.743557930E0,-4.818410873E-1
3.831230277E0,-5.515962839E-1,-1.977221489E0,-4.133074284E-1
3.836280955E0,-7.737066746E-1,-2.329939842E0,-2.711899281E-1
3.841331632E0,-8.907030821E-1,-2.782693863E0,-7.826337218E-2
3.846382309E0,-9.498143196E-1,-3.237323761E0,7.094746828E-2
3.851432934E0,-8.346043825E-1,-3.632691383E0,3.179418445E-1
3.856483611E0,-6.420909166E-1,-3.864445686E0,6.710579395E-1
3.861534288E0,-3.363883495E-1,-3.963426590E0,9.813479185E-1
3.866584965E0,-3.440976143E-2,-4.016621590E0,1.312169075E0
3.871635642E0,3.074049950E-1,-4.145553589E0,1.649410725E0
3.876686319E0,6.859294176E-1,-4.269467354E0,1.949619055E0
3.881736944E0,1.026376009E0,-4.472908020E0,2.216750622E0
3.886787621E0,1.172618866E0,-4.651392937E0,2.427594423E0
3.891838298E0,1.346974015E0,-4.719851494E0,2.697953224E0
3.896888975E0,1.435174465E0,-4.671183586E0,2.971573353E0
3.901939652E0,1.403801322E0,-4.551060677E0,3.132312298E0
3.906990330E0,1.317021489E0,-4.411411285E0,3.296803236E0
3.912040955E0,1.107634306E0,-4.129529953E0,3.517846584E0
3.917091632E0,8.542706370E-1,-3.874671936E0,4.016825199E0
3.922142309E0,8.747406006E-1,-3.645765305E0,4.917020798E0
3.927192986E0,1.016901255E0,-3.525040627E0,6.117464066E0
3.932243663E0,1.250189543E0,-3.422461510E0,6.819745064E0
3.937294340E0,1.310762882E0,-3.206498146E0,7.033658028E0
3.942344965E0,1.264694095E0,-2.983184814E0,6.831170559E0
3.947395642E0,1.234766722E0,-2.703187943E0,6.055282593E0
3.952446319E0,1.175517082E0,-2.391836166E0,4.905541420E0
3.957496996E0,9.762929082E-1,-1.937923431E0,3.731366158E0
3.962547673E0,9.337472916E-1,-1.419147491E0,2.757824421E0
3.967598350E0,9.856741428E-1,-8.194942474E-1,1.644434690E0
3.972648975E0,1.060263157E0,-2.337512970E-1,6.857867241E-1
3.977699652E0,1.093757510E0,2.286424637E-1,2.275085449E-2
3.982750330E0,1.109648228E0,5.094614029E-1,-3.272624016E-1
3.987801007E0,1.015458822E0,5.729761124E-1,-4.030828476E-1
3.992851684E0,6.078989506E-1,6.889777184E-1,-3.034396172E-1
3.997902361E0,-1.833679676E-1,7.576050758E-1,-4.682536125E-1
4.002952986E0,-1.099443674E0,8.333883286E-1,-5.914554596E-1
4.008003663E0,-1.779128790E0,7.835111618E-1,-3.805651665E-1
4.013054340E0,-2.214012384E0,7.451205254E-1,1.589326859E-1
4.018105017E0,-2.563353062E0,6.982254982E-1,8.142075539E-1
4.023155694E0,-2.476438761E0,5.931625366E-1,1.730891705E0
4.028206371E0,-2.002907276E0,4.202671051E-1,2.879642963E0
4.033256996E0,-1.485259771E0,3.658013344E-1,3.617277861E0
4.038307673E0,-6.880397797E-1,2.260770798E-1,4.252088547E0
4.043358350E0,1.694464684E-2,1.562762260E-1,4.397047043E0
4.048409027E0,6.815049648E-1,6.495904922E-2,4.577224731E0
4.053459705E0,1.658904314E0,-2.238626480E-1,4.900245190E0
4.058510382E0,2.250437260E0,-2.428011894E-1,4.893969059E0
4.063561007E0,2.833574057E0,-2.869071960E-1,4.600515366E0
4.068611684E0,3.270159721E0,-2.860136032E-1,4.483924389E0
4.073662361E0,3.641070366E0,-2.017278671E-1,4.435088634E0
4.078713038E0,3.981572628E0,-3.633785248E-2,4.360604286E0
4.083763715E0,4.113911629E0,2.604351044E-1,4.239119053E0
4.088814392E0,4.108098030E0,5.059642792E-1,4.221155167E0
4.093865017E0,4.088199139E0,7.500300407E-1,4.236708641E0
4.098915694E0,4.141592979E0,8.785853386E-1,4.261696815E0
4.103966371E0,4.059864044E0,9.844369888E-1,4.484725952E0
4.109017048E0,3.913926125E0,1.082340240E0,4.668313026E0
4.114067725E0,3.804489374E0,1.178712368E0,4.973589897E0
4.119118402E0,3.682551861E0,1.327700138E0,5.170500755E0
4.124169027E0,3.461736679E0,1.444519520E0,5.237778664E0
4.129219705E0,3.231160164E0,1.462577343E0,5.192667484E0
4.134270330E0,2.883473396E0,1.485216141E0,4.962850571E0
4.139321007E0,2.467450142E0,1.477931976E0,4.827632904E0
4.144371684E0,2.016287804E0,1.451747417E0,4.714240074E0
4.149422361E0,1.645177841E0,1.390086651E0,4.681142807E0
4.154472986E0,1.420453310E0,1.390298367E0,4.703715324E0
4.159523663E0,1.281378031E0,1.412940979E0,4.610603333E0
4.164574340E0,1.277881622E0,1.431521416E0,4.423972130E0
4.169625017E0,1.360108852E0,1.404208183E0,4.211587429E0
4.174675694E0,1.384871006E0,1.422179699E0,3.986040115E0
4.179726371E0,1.320011139E0,1.484605789E0,3.810303688E0
4.184776996E0,1.477639437E0,1.435320139E0,3.710564613E0
4.189827673E0,1.622002602E0,1.470040321E0,3.634915113E0
4.194878350E0,1.580118656E0,1.525227547E0,3.487510681E0
4.199929027E0,1.528672934E0,1.679582596E0,3.381972075E0
4.204979705E0,1.584053278E0,1.751223803E0,3.269035578E0
4.210030382E0,1.559746981E0,1.850171804E0,3.222936630E0
4.215081007E0,1.568337917E0,1.871237755E0,3.308198214E0
4.220131684E0,1.512799263E0,2.062092781E0,3.315535545E0
4.225182361E0,1.297182083E0,2.305093765E0,3.352026463E0
4.230233038E0,1.317525387E0,2.559732199E0,3.355441570E0
4.235283715E0,1.209032536E0,2.786686659E0,3.086019039E0
4.240334392E0,1.189644337E0,2.943364143E0,2.720625877E0
4.245385017E0,1.427658558E0,2.924934149E0,2.282114506E0
4.250435694E0,1.652493000E0,2.771287203E0,1.812238216E0
4.255486319E0,1.962960720E0,2.373852015E0,1.409639359E0
4.260536996E0,2.264250994E0,1.933823109E0,1.065052986E0
4.265587673E0,2.559920549E0,1.535774231E0,8.423013687E-1
4.270638350E0,2.751988888E0,1.309401751E0,6.185517311E-1
4.275688975E0,2.817563534E0,1.327840090E0,4.737577438E-1
4.280739652E0,2.618422985E0,1.456099033E0,3.924212456E-1
4.285790330E0,2.473312855E0,1.666061878E0,3.446812630E-1
4.290841007E0,2.322256804E0,1.947714329E0,3.379588127E-1
4.295891684E0,2.241706848E0,2.266035080E0,3.078303337E-1
4.300942361E0,2.177290440E0,2.519323587E0,2.833256721E-1
4.305992986E0,2.255950451E0,2.690067291E0,1.919636726E-1
4.311043663E0,2.348377228E0,2.718019962E0,1.154727936E-1
4.316094340E0,2.439309597E0,2.623012066E0,2.410840988E-2
4.321145017E0,2.467869997E0,2.491021156E0,6.021308899E-2
4.326195694E0,2.368958473E0,2.328302622E0,1.255931854E-1
4.331246371E0,2.157339334E0,2.071127415E0,-2.157020569E-2
4.336296996E0,1.627780437E0,1.656839132E0,-8.753089905E-1
4.341347673E0,8.224272728E-1,1.194425583E0,-2.122877598E0
4.346437830E0,-2.932205200E-1,8.312573433E-1,-4.118455887E0
4.351488507E0,-1.565078735E0,5.397925377E-1,-5.946575642E0
4.356539132E0,-3.099443436E0,2.300214767E-2,-8.508377075E0
4.361589809E0,-4.883283615E0,-1.247200966E0,-1.233557892E1
4.366640486E0,-5.361186504E0,-4.153282642E0,-1.245699406E1
4.371691163E0,-4.722191334E0,-7.482187748E0,-5.126507282E0
4.376702309E0,-5.089323997E0,-9.447132111E0,3.850054502E0
4.381752986E0,-5.111091137E0,-1.031307602E1,8.544046402E0
4.386803663E0,-4.582389832E0,-1.064973259E1,8.383010864E0
4.391854340E0,-4.760863781E0,-1.053555965E1,5.128975868E0
4.396904965E0,-4.743909359E0,-1.012553406E1,1.676217556E0
4.401955642E0,-3.837934971E0,-9.548627853E0,-7.662339211E-1
4.407006319E0,-2.467330456E0,-8.315999031E0,-1.624075890E0
4.412056996E0,-1.599899769E0,-6.332962036E0,-1.013732910E0
4.417107673E0,-1.609494686E0,-3.723321915E0,2.949342728E-1
4.422158350E0,-2.104105473E0,-9.073877335E-1,1.331961632E0
4.427208975E0,-2.418601513E0,1.211128712E0,1.703087330E0
4.432259652E0,-2.370706081E0,2.541689873E0,1.773735046E0
4.437310277E0,-1.993993759E0,2.804719448E0,1.152471066E0
4.442360955E0,-1.436330795E0,2.474678755E0,-4.141769409E-1
4.447411632E0,-6.970992088E-1,1.949396133E0,-1.220729351E0
4.452462309E0,4.925673008E-1,1.340020180E0,-5.146818161E-1
4.457512934E0,1.971663237E0,8.347349167E-1,4.091343880E-1
4.462563611E0,3.093939304E0,4.428253174E-1,9.140629768E-1
4.467614288E0,3.765377045E0,1.240730286E-1,1.257988453E0
4.472664965E0,4.121787071E0,-2.772593498E-1,1.450671196E0
4.477715642E0,4.094628811E0,-7.329149246E-1,1.591264725E0
4.482766319E0,3.578712225E0,-1.159447193E0,1.620313644E0
4.487816944E0,2.863222361E0,-1.754972458E0,1.661041260E0
4.492867621E0,2.099189758E0,-2.635346889E0,1.742331982E0
4.497918298E0,1.243374109E0,-3.687276840E0,1.732428074E0
4.502968975E0,1.686022282E-1,-4.818251610E0,2.065736294E0
4.508019652E0,-7.030816078E-1,-5.968715668E0,2.240276337E0
4.513070330E0,-1.006214619E0,-6.806446075E0,2.254464626E0
4.518120955E0,-1.063887119E0,-6.890380859E0,2.234133244E0
4.523171632E0,-1.023643970E0,-6.071689606E0,2.164220572E0
4.528222309E0,-9.176504612E-1,-4.386291027E0,1.885041952E0
4.533272986E0,-1.061795473E0,-2.447676182E0,1.680693150E0
4.538323663E0,-1.294644117E0,-8.483805656E-1,1.341161013E0
4.543374340E0,-1.481810808E0,2.703900337E-1,8.991117477E-1
4.548424965E0,-1.550304174E0,1.015214443E0,5.367398262E-1
4.553475642E0,-1.524267912E0,1.497033119E0,3.012375832E-1
4.558526319E0,-1.453583717E0,1.787914276E0,2.405538559E-1
4.563576996E0,-1.281874895E0,1.850861549E0,2.526712418E-1
4.568627673E0,-9.738864899E-1,1.774426460E0,4.227619171E-1
4.573678350E0,-6.144495010E-1,1.581097603E0,6.498346329E-1
4.578728975E0,-6.101226807E-2,1.340167999E0,9.871301651E-1
4.583779652E0,4.925771952E-1,1.052490234E0,1.321937799E0
4.588830330E0,1.064494371E0,6.509799957E-1,1.692056179E0
4.593881007E0,1.641294241E0,3.188209534E-1,2.064667702E0
4.598931684E0,1.906181812E0,-2.648639679E-2,2.343762875E0
4.603982361E0,2.095886230E0,-3.587551117E-1,2.574881077E0
4.609032986E0,2.225271463E0,-6.889142990E-1,2.735465765E0
4.614083663E0,2.320054531E0,-9.177751541E-1,2.783726692E0
4.619134340E0,2.508294582E0,-1.257201195E0,2.623504639E0
4.624185017E0,2.294875622E0,-1.295974731E0,2.042255878E0
4.629235694E0,1.820057869E0,-1.425286293E0,1.413238525E0
4.634286371E0,1.602590322E0,-1.520670891E0,1.170231819E0
4.639336996E0,1.695134044E0,-1.722902298E0,1.317205906E0
4.644387673E0,1.604193091E0,-1.799292564E0,1.625572920E0
4.649438350E0,1.460001230E0,-1.732867241E0,1.790651083E0
4.654489027E0,1.075450897E0,-1.401787758E0,1.576022387E0
4.659539705E0,6.741012335E-1,-1.017019272E0,1.321139812E0
4.664590382E0,2.967370749E-1,-5.068178177E-1,1.052276134E0
4.669641007E0,4.355239868E-2,-4.351711273E-2,6.928410530E-1
4.674691684E0,-1.654937267E-1,3.682737350E-1,3.782496452E-1
4.679742361E0,-2.937568426E-1,6.545486450E-1,1.705429554E-1
4.684793038E0,-4.061739445E-1,9.674615860E-1,6.107831001E-2
4.689843715E0,-5.393232107E-1,1.298627853E0,2.515394688E-1
4.694894392E0,-8.450040817E-1,1.655006886E0,3.825924397E-1
4.699945017E0,-1.098532677E0,2.094960213E0,4.641823769E-1
4.704995694E0,-1.277554512E0,2.432758331E0,6.186666489E-1
4.710046371E0,-1.344310522E0,2.689856529E0,8.571310043E-1
4.715097048E0,-1.445435762E0,2.881958008E0,1.168445349E0
4.720147725E0,-1.608401299E0,3.080799103E0,1.510722876E0
4.725198402E0,-1.576285601E0,3.078174591E0,1.862423301E0
4.730249027E0,-1.525141239E0,2.969866753E0,2.044868469E0
4.735299705E0,-1.351957440E0,2.720036030E0,2.088682652E0
4.740350382E0,-1.156444192E0,2.365784645E0,1.973476410E0
4.745401059E0,-9.965397120E-1,1.967064857E0,1.758576632E0
4.750451736E0,-6.480315924E-1,1.525127411E0,1.393333912E0
4.755502413E0,-2.688314915E-1,1.160982132E0,1.016953230E0
4.760553038E0,3.964793682E-2,8.664073944E-1,8.110120296E-1
4.765603715E0,3.090764284E-1,6.560001373E-1,6.621162891E-1
4.770654392E0,4.538213015E-1,5.167226791E-1,5.087912083E-1
4.775705069E0,4.750787020E-1,4.199962616E-1,3.850431442E-1
4.780755746E0,5.236047506E-1,2.796821594E-1,2.429666519E-1
4.785806423E0,5.358276963E-1,1.485128403E-1,7.899546623E-2
4.790857048E0,4.842450619E-1,3.131866455E-2,-2.322435379E-2
4.795907725E0,4.529788792E-1,-7.305145264E-3,-5.909538269E-2
4.800958402E0,3.584188819E-1,-3.073978424E-2,-1.225337982E-1
4.806009080E0,2.640931010E-1,4.714488983E-2,-2.685819864E-1
4.811059757E0,1.581124663E-1,1.903572083E-1,-4.840477705E-1
4.816110434E0,5.095797777E-2,3.617782593E-1,-7.844238281E-1
4.821161059E0,-7.321357727E-3,5.937604904E-1,-1.049069524E0
4.826211736E0,-3.729224205E-2,7.762565613E-1,-1.289118052E0
4.831262413E0,-1.074355841E-1,9.728899002E-1,-1.526830196E0
4.836313090E0,-1.421450973E-1,1.139381409E0,-1.777868390E0
4.841363767E0,-8.269685507E-2,1.232653618E0,-1.977455735E0
4.846414444E0,-1.521188021E-2,1.129449844E0,-2.156090260E0
4.851465069E0,-2.337145805E-2,9.674549103E-1,-2.292749643E0
4.856515746E0,6.079876423E-2,7.190494537E-1,-2.436812401E0
4.861605902E0,1.846106052E-1,3.388051987E-1,-2.535108328E0
4.866656580E0,3.363634050E-1,-4.764461517E-2,-2.527080536E0
4.871707205E0,5.942879915E-1,-4.293651581E-1,-2.400168896E0
4.876757882E0,8.560697436E-1,-7.870378494E-1,-2.181619883E0
4.881808559E0,1.060258746E0,-9.853248596E-1,-1.889186740E0
4.886859236E0,1.166149616E0,-1.060127258E0,-1.586277723E0
4.891870434E0,1.198066473E0,-9.972143173E-1,-1.312720180E0
4.896921111E0,1.130966187E0,-8.277177811E-1,-1.050307274E0
4.901971788E0,9.665494561E-1,-5.612993240E-1,-7.181801796E-1
4.907022465E0,7.139189243E-1,-2.769689560E-1,-4.870979786E-1
4.912073090E0,4.142249525E-1,-2.258300781E-3,-3.321275711E-1
4.917123767E0,7.930624485E-2,2.316856384E-1,-3.036475182E-1
4.922174444E0,-2.592884898E-1,2.514553070E-1,-4.353179932E-1
4.927225121E0,-5.391526222E-1,2.677335739E-1,-7.119685411E-1
4.932275798E0,-7.374783754E-1,1.919517517E-1,-1.067517161E0
4.937326475E0,-8.136488199E-1,1.019277573E-1,-1.360497594E0
4.942377100E0,-8.198816776E-1,2.415657043E-3,-1.712512612E0
4.947427777E0,-7.099834085E-1,-8.987426758E-2,-2.036973000E0
4.952478455E0,-5.312749147E-1,-2.814922333E-1,-2.328360558E0
4.957529132E0,-2.808915377E-1,-3.797140121E-1,-2.469240189E0
4.962579809E0,-1.055023074E-1,-4.611902237E-1,-2.448979616E0
4.967630486E0,6.036478281E-2,-4.649076462E-1,-2.356377125E0
4.972681111E0,1.147018373E-1,-4.866085052E-1,-2.136941910E0
4.977731788E0,1.314473748E-1,-4.700279236E-1,-1.945296288E0
4.982782465E0,8.761906624E-2,-5.144920349E-1,-1.787555456E0
4.987833142E0,-2.790951729E-2,-6.008510590E-1,-1.648536682E0
4.992883819E0,-2.972492576E-1,-7.327127457E-1,-1.540932775E0
4.997934496E0,-6.814867854E-1,-8.909645081E-1,-1.363541126E0
5.002985121E0,-1.114448905E0,-1.134232521E0,-1.177001238E0
5.008035798E0,-1.456485152E0,-1.390675545E0,-9.022729397E-1
5.013086475E0,-1.682289124E0,-1.660261154E0,-5.158731937E-1
5.018137152E0,-1.624290466E0,-2.020720482E0,-9.707647562E-2
5.023187830E0,-1.405966997E0,-2.248215675E0,3.714444339E-1
5.028238507E0,-1.004443765E0,-2.528349876E0,7.485476732E-1
5.033289132E0,-3.934991360E-1,-2.740273476E0,9.550029039E-1
5.038339809E0,2.104683518E-1,-2.808747292E0,1.153614283E0
5.043390434E0,8.022442460E-1,-2.718435287E0,1.219778538E0
5.048441111E0,1.369236231E0,-2.422875404E0,1.345860720E0
5.053491788E0,1.699682117E0,-2.134009361E0,1.396690845E0
5.058542465E0,1.735554576E0,-1.941470146E0,1.421612501E0
5.063593090E0,1.394625545E0,-1.993367195E0,1.374473453E0
5.068643767E0,6.818114519E-1,-2.325226784E0,1.400377035E0
5.073694444E0,-3.872336745E-1,-3.086232185E0,1.363879800E0
5.078745121E0,-1.576667309E0,-4.101253510E0,1.175345421E0
5.083795798E0,-2.532721043E0,-5.331758499E0,6.990121603E-1
5.088846475E0,-3.037394285E0,-6.615975380E0,4.101959765E-1
5.093897100E0,-3.317797422E0,-7.346075058E0,3.067517579E-1
5.098947777E0,-3.408847332E0,-7.301403999E0,2.203570604E-1
5.103998455E0,-3.477782249E0,-6.338189125E0,-9.122047573E-2
5.109049132E0,-3.544585466E0,-4.802149773E0,-7.403794527E-1
5.114099809E0,-3.395051241E0,-3.539791107E0,-1.380851388E0
5.119150486E0,-3.156147718E0,-2.717054367E0,-1.714863420E0
5.124201111E0,-2.939538956E0,-2.274792671E0,-1.766924262E0
5.129251788E0,-2.835141420E0,-2.059456825E0,-1.711698174E0
5.134302465E0,-2.616145611E0,-1.941602707E0,-1.594658732E0
5.139353142E0,-2.309753656E0,-1.857732773E0,-1.456276774E0
5.144403819E0,-2.054180861E0,-1.763568878E0,-1.533905625E0
5.149454496E0,-1.690570712E0,-1.722563744E0,-1.624177814E0
5.154505121E0,-1.269731998E0,-1.842342377E0,-1.705800653E0
5.159555798E0,-8.243420720E-1,-2.133503914E0,-1.818209171E0
5.164606475E0,-4.600275159E-1,-2.569550514E0,-2.018656492E0
5.169657152E0,-3.826540709E-2,-3.053440094E0,-2.206397533E0
5.174707830E0,3.277612925E-1,-3.428415298E0,-2.515053034E0
5.179758507E0,5.696920753E-1,-3.615727425E0,-2.874452829E0
5.184809132E0,6.559215784E-1,-3.544019699E0,-3.289449453E0
5.189859809E0,7.221722603E-1,-3.298783302E0,-3.749007940E0
5.194910486E0,8.097305298E-1,-3.067166328E0,-4.093908310E0
5.199961163E0,7.075242996E-1,-2.750251770E0,-4.308936119E0
5.205011840E0,5.694987774E-1,-2.390477180E0,-4.469765186E0
5.210062517E0,3.127913475E-1,-2.141547203E0,-4.616687775E0
5.215113142E0,1.652716398E-1,-1.996689796E0,-4.668181419E0
5.220163819E0,1.925308704E-1,-2.016160965E0,-4.804459095E0
5.225214496E0,2.941224575E-1,-2.238503456E0,-4.954809666E0
5.230265173E0,4.241201878E-1,-2.583579063E0,-5.032773018E0
5.235315850E0,4.684542418E-1,-2.936517715E0,-4.919028282E0
5.240366527E0,3.853657246E-1,-3.279347420E0,-4.613374710E0
5.245417152E0,4.313790798E-2,-3.566356659E0,-3.968551397E0
5.250467830E0,-2.807997465E-1,-3.704796791E0,-3.049924850E0
5.255518507E0,-4.771647453E-1,-3.701944351E0,-1.849405289E0
5.260569184E0,-4.060041904E-1,-3.607898712E0,-5.040252209E-1
5.265619861E0,-2.664250135E-1,-3.363670349E0,8.237950802E-1
5.270670538E0,-6.287574768E-2,-3.027859688E0,1.947979450E0
5.275721163E0,1.074459553E-1,-2.621194839E0,2.759453535E0
5.280771840E0,1.339364052E-1,-2.114712715E0,3.357321262E0
5.285822465E0,8.606290817E-2,-1.642775536E0,3.579714060E0
5.290873142E0,-1.115860939E-1,-1.140414238E0,3.407422781E0
5.295923819E0,-2.215092182E-1,-8.586149216E-1,3.283050060E0
5.300974496E0,-2.850594521E-1,-7.083339691E-1,3.225912333E0
5.306025121E0,-3.340575695E-1,-6.973943710E-1,3.412562609E0
5.311075798E0,-2.152097225E-1,-7.484893799E-1,3.833930731E0
5.316126475E0,8.857727051E-3,-8.297033310E-1,4.383784294E0
5.321177152E0,3.081212044E-1,-9.149084091E-1,5.024655342E0
5.326227830E0,5.153920650E-1,-1.046245575E0,5.496525764E0
5.331278507E0,8.074727058E-1,-1.228931427E0,5.923932552E0
5.336329132E0,1.094124317E0,-1.275344849E0,6.027565956E0
5.341379809E0,1.158423066E0,-1.114581108E0,5.767428875E0
5.346430486E0,1.108693838E0,-8.602705002E-1,5.114832878E0
5.351481163E0,1.189856172E0,-6.206884384E-1,4.530898094E0
5.356531840E0,1.350607634E0,-3.885612488E-1,4.245994568E0
5.361582517E0,1.335462570E0,-2.418498993E-1,3.471973896E0
5.366633142E0,1.253927469E0,-7.305812836E-2,2.272932291E0
5.371683819E0,1.216609478E0,3.446741104E-1,1.168455124E0
5.376734496E0,1.255055189E0,7.750768661E-1,3.819084167E-2
5.381785173E0,1.263485432E0,1.209352016E0,-1.094659805E0
5.386835850E0,1.260363340E0,1.655480385E0,-2.036550522E0
5.391886527E0,1.129509926E0,2.084222794E0,-2.593932152E0
5.396937152E0,1.302560806E0,2.302770138E0,-2.602975845E0
5.401987830E0,1.195438862E0,2.458900452E0,-2.135599613E0
5.407038507E0,1.122347355E0,2.484457970E0,-1.195756912E0
5.412089184E0,1.001826286E0,2.513402939E0,1.768350601E-1
5.417139861E0,1.008780241E0,2.516783714E0,1.503283978E0
5.422190538E0,1.108179569E0,2.513733387E0,2.737005234E0
5.427241163E0,1.304929018E0,2.449226379E0,3.813928843E0
5.432291840E0,1.464386463E0,2.389364719E0,4.696537018E0
5.437342517E0,1.606197357E0,2.340167522E0,5.202979088E0
5.442393194E0,1.655456305E0,2.335969925E0,5.417666435E0
5.447443871E0,1.654744864E0,2.356162071E0,5.272264004E0
5.452494548E0,1.715474606E0,2.218798161E0,5.068326473E0
5.457545173E0,1.734587669E0,2.096500874E0,4.721714020E0
5.462595850E0,1.809934378E0,1.878392696E0,4.266744614E0
5.467646475E0,1.785027981E0,1.666870594E0,3.879487753E0
5.472697152E0,1.720603943E0,1.457761765E0,3.566805840E0
5.477747830E0,1.714694977E0,1.214671135E0,3.191776276E0
5.482798507E0,1.572744370E0,1.140260220E0,2.830436707E0
5.487849132E0,1.337166309E0,1.120556355E0,2.625533104E0
5.492899809E0,1.188871384E0,1.103976727E0,2.402684927E0
5.497950486E0,1.122182131E0,1.241320133E0,2.268462420E0
5.503001163E0,1.114825249E0,1.409606934E0,2.126338482E0
5.508051840E0,1.253704071E0,1.471562862E0,2.023032188E0
5.513102517E0,1.449492455E0,1.536576748E0,1.890528202E0
5.518153142E0,1.752677202E0,1.571211815E0,1.820537090E0
5.523203819E0,2.046471834E0,1.634970188E0,1.889288425E0
5.528254444E0,2.244694471E0,1.677506447E0,2.142309666E0
5.533305121E0,2.391312122E0,1.595068455E0,2.371415854E0
5.538355798E0,2.567685604E0,1.640026569E0,2.531305552E0
5.543406475E0,2.658425331E0,1.744395018E0,2.696289062E0
5.548457100E0,2.883550882E0,1.854717731E0,2.963038683E0
5.553507777E0,3.024941683E0,2.042132139E0,3.137391806E0
5.558558402E0,3.036077499E0,2.282101154E0,3.317026138E0
5.563609080E0,2.998919725E0,2.577550173E0,3.492742777E0
5.568659757E0,2.900646210E0,2.876276493E0,3.528760910E0
5.573710434E0,2.724175930E0,3.299703360E0,3.520981312E0
5.578761059E0,2.529607296E0,3.607547283E0,3.472742558E0
5.583811736E0,2.223194122E0,3.974091530E0,3.287086487E0
5.588862413E0,1.874967813E0,4.235260963E0,3.078672647E0
5.593913090E0,1.534902811E0,4.514558792E0,2.898022652E0
5.598963767E0,1.255738735E0,4.658792019E0,2.710431576E0
5.604014444E0,1.059112549E0,4.747239590E0,2.598233700E0
5.609065069E0,9.696278572E-1,4.617333889E0,2.510477543E0
5.614115746E0,9.506902695E-1,4.393491268E0,2.430181503E0
5.619166423E0,9.714627266E-1,4.179738998E0,2.228098392E0
5.624217100E0,9.277496338E-1,4.011381149E0,1.913390636E0
5.629267777E0,7.842564583E-1,3.772819757E0,1.532896519E0
5.634318455E0,6.654014587E-1,3.519732714E0,1.004621506E0
5.639369080E0,5.896649361E-1,3.232318878E0,3.846693039E-1
5.644419757E0,5.267896652E-1,2.956740856E0,-2.976269722E-1
5.649470382E0,4.802651405E-1,2.731781244E0,-9.017558098E-1
5.654521059E0,4.330549240E-1,2.458431244E0,-1.607658863E0
5.659571736E0,3.673629761E-1,2.212576866E0,-2.004486084E0
5.664622413E0,2.756481171E-1,1.869612694E0,-2.406700611E0
5.669673038E0,-4.749727249E-2,1.441616535E0,-3.634125710E0
5.674723715E0,-5.041599274E-1,9.917702675E-1,-6.587430954E0
5.679774392E0,-2.065827847E0,7.011651993E-1,-9.541915894E0
5.684825069E0,-4.559382439E0,4.162139893E-1,-1.345986271E1
5.689875746E0,-7.123729706E0,-6.693553925E-1,-1.591638660E1
5.694926423E0,-9.177446365E0,-2.749023438E0,-9.113612175E0
5.699977048E0,-8.487943649E0,-5.923254013E0,2.808295727E0
5.705027725E0,-6.160215378E0,-8.837338448E0,8.981504440E0
5.710078350E0,-4.774263382E0,-1.101095581E1,6.748929024E0
5.715129027E0,-3.874854088E0,-1.303066254E1,9.544057846E-1
5.720179705E0,-2.787966728E0,-1.458505630E1,-2.847637177E0
5.725230382E0,-1.562589169E0,-1.464246082E1,-3.271916389E0
5.730281007E0,-4.946470261E-2,-1.227183914E1,-2.039102554E0
5.735331684E0,7.275495529E-1,-8.123465538E0,-1.551295280E0
5.740382361E0,5.654809475E-1,-3.747507572E0,1.778421402E-1
5.745433038E0,2.641277313E-1,-1.648440361E-1,3.206790447E0
5.750483715E0,-2.214870453E-1,2.871224642E0,4.554819107E0
5.755534392E0,-1.327023029E0,5.262096405E0,3.346618176E0
5.760585017E0,-2.296080112E0,6.772933960E0,2.346735001E0
5.765635694E0,-2.356811523E0,7.222455502E0,1.293241978E0
5.770686371E0,-1.268368244E0,6.872082710E0,5.379471779E-1
5.775737048E0,4.825901985E-1,5.877594471E0,8.105487823E-1
5.780787725E0,2.102834702E0,4.840995312E0,1.603425503E0
5.785838350E0,3.088558674E0,3.614316940E0,2.794551134E0
5.790889027E0,3.254652977E0,2.360111237E0,3.360074520E0
5.795939705E0,2.899344444E0,9.098610878E-1,3.391091347E0
5.800990330E0,2.241648197E0,-6.315994263E-1,3.205214739E0
5.806041007E0,1.268652201E0,-2.182894230E0,3.170578957E0
5.811091684E0,9.925627708E-2,-3.690146923E0,2.705585003E0
5.816142309E0,-9.768724442E-1,-5.045484543E0,1.632578850E0
5.821192986E0,-1.713227987E0,-6.018143177E0,6.485366821E-1
5.826243663E0,-2.116367817E0,-6.675502300E0,2.626347542E-1
5.831294340E0,-2.218575478E0,-6.670030117E0,2.543182373E-1
5.836345017E0,-1.895814657E0,-6.020391464E0,8.101782799E-1
5.841395694E0,-1.550682306E0,-4.970519543E0,1.301652670E0
5.846446319E0,-1.299489975E0,-3.723176956E0,1.540186167E0
5.851496996E0,-1.065169573E0,-2.515340328E0,1.460446596E0
5.856547673E0,-8.531591892E-1,-1.463200092E0,1.315781116E0
5.861598298E0,-5.728845596E-1,-6.874837875E-1,1.167463303E0
5.866648975E0,-2.644968033E-1,-1.437940598E-1,1.001613379E0
5.871699652E0,1.949095726E-2,1.152353287E-1,1.019333363E0
5.876750277E0,3.268647194E-1,2.758407593E-1,1.002926826E0
5.881800955E0,6.676292419E-1,1.615066528E-1,1.076907635E0
5.886851632E0,9.273114204E-1,-6.529998779E-2,1.296015024E0
5.891902309E0,1.157068968E0,-3.691225052E-1,1.550876856E0
5.896952986E0,1.384495258E0,-7.575426102E-1,1.835600853E0
5.902003663E0,1.613798141E0,-1.137331009E0,2.103506088E0
5.907054288E0,1.872898459E0,-1.504987717E0,2.426368713E0
5.912104965E0,2.097385883E0,-1.806384087E0,2.767596245E0
5.917155642E0,2.134052277E0,-2.139703751E0,2.815093279E0
5.922206319E0,2.097732782E0,-2.314918518E0,2.581818104E0
5.927256996E0,2.081640959E0,-2.449658394E0,2.323531866E0
5.932307673E0,2.194784641E0,-2.517698288E0,2.130089760E0
5.937358298E0,2.250828505E0,-2.448520660E0,1.841640472E0
5.942408975E0,2.339314222E0,-2.250445366E0,1.402581692E0
5.947459652E0,2.487367153E0,-1.927048683E0,9.943745136E-1
5.952510277E0,2.642879963E0,-1.582048416E0,7.449617386E-1
5.957560955E0,2.791487217E0,-1.213715553E0,5.997304916E-1
5.962611632E0,2.714520454E0,-8.693714142E-1,5.552892685E-1
5.967662257E0,2.370283127E0,-4.770660400E-1,3.466281891E-1
5.972712934E0,1.948186040E0,-1.803026199E-1,3.142979145E-1
5.977763611E0,1.595401287E0,1.767253876E-2,5.486488342E-1
5.982814288E0,9.304406643E-1,3.438730240E-1,5.802748203E-1
5.987864965E0,1.944285631E-1,6.097488403E-1,3.835089207E-1
5.992915642E0,-4.701128006E-1,8.936109543E-1,2.191329002E-2
5.997966267E0,-1.032170773E0,1.135043144E0,-1.564176083E-1
6.003016944E0,-1.436116219E0,1.399530888E0,-4.176838398E-1
6.008067621E0,-1.789222121E0,1.593400955E0,-6.400346756E-1
6.013118298E0,-2.045843124E0,1.794290543E0,-8.059351444E-1
6.018168975E0,-2.244692564E0,2.074991226E0,-8.168659210E-1
6.023219652E0,-2.183313847E0,2.366270065E0,-4.390358925E-1
6.028270277E0,-1.994467258E0,2.606442451E0,1.820592880E-1
6.033320955E0,-1.646349669E0,2.781701088E0,8.571906090E-1
6.038371632E0,-1.240137935E0,2.740631104E0,1.329266787E0
6.043422309E0,-9.387346506E-1,2.679692745E0,1.589089870E0
6.048472986E0,-5.863543749E-1,2.470890522E0,1.927703619E0
6.053523663E0,-2.893612385E-1,2.223139286E0,1.983000398E0
6.058574288E0,3.833210468E-2,1.948256493E0,2.068439484E0
6.063624965E0,3.569490910E-1,1.697669506E0,2.119844675E0
6.068675642E0,5.667010546E-1,1.403120995E0,2.058890820E0
6.073726267E0,7.892518044E-1,1.064586639E0,1.918775797E0
6.078776944E0,9.692978859E-1,7.647085190E-1,1.772757888E0
6.083827621E0,1.139467835E0,4.712629318E-1,1.671262383E0
6.088878246E0,1.251588821E0,2.262430191E-1,1.580532312E0
6.093928923E0,1.305084229E0,9.674739838E-2,1.434537888E0
6.098979600E0,1.226941586E0,3.865242004E-3,1.242278099E0
6.104030277E0,1.091183901E0,-5.689620972E-3,9.126715660E-1
6.109080955E0,8.310635686E-1,4.572868347E-3,4.375438690E-1
6.114131632E0,6.464691162E-1,-7.206916809E-3,-3.820800781E-2
6.119182257E0,4.213732481E-1,-5.109786987E-3,-4.846385717E-1
6.124232934E0,2.631704211E-1,-1.905727386E-2,-9.362274408E-1
6.129283611E0,1.188579202E-1,3.720092773E-2,-1.197065115E0
6.134334288E0,2.925080061E-2,1.875715256E-1,-1.288101315E0
6.139384965E0,-1.276657581E-1,3.159294128E-1,-1.364014864E0
6.144435642E0,-2.560416460E-1,4.593706131E-1,-1.422331810E0
6.149486267E0,-4.916647077E-1,6.106834412E-1,-1.405817628E0
6.154536944E0,-7.071887851E-1,7.267751694E-1,-1.412703753E0
6.159587621E0,-1.016927958E0,8.291597366E-1,-1.515718341E0
6.164638298E0,-1.142434120E0,8.986454010E-1,-1.548331618E0
6.169688975E0,-1.089981794E0,8.287973404E-1,-1.547475338E0
6.174739652E0,-1.099411249E0,7.465982437E-1,-1.555985332E0
6.179790277E0,-1.084359646E0,7.261323929E-1,-1.652074456E0
6.184840955E0,-1.041557550E0,7.313661575E-1,-1.807315111E0
6.189891632E0,-8.873315454E-1,7.610120773E-1,-1.965958476E0
6.194942257E0,-7.213388085E-1,7.684135437E-1,-1.995083213E0
6.199992934E0,-5.584451556E-1,7.524642944E-1,-1.976207614E0
6.205043611E0,-4.144667983E-1,8.078155518E-1,-1.846549630E0
6.210094236E0,-3.291099668E-1,8.113117218E-1,-1.666928291E0
6.215144913E0,-2.938865423E-1,8.624935150E-1,-1.404048085E0
6.220195590E0,-2.152318954E-1,8.621368408E-1,-1.135560989E0
6.225246267E0,-1.514384747E-1,8.175277710E-1,-9.445580244E-1
6.230296944E0,-3.972703218E-2,7.036132812E-1,-8.779910803E-1
6.235347621E0,1.342673302E-1,5.587568283E-1,-8.101338148E-1
6.240398246E0,2.904034257E-1,3.925495148E-1,-8.509839773E-1
6.245448923E0,4.309268594E-1,2.420597076E-1,-9.856821299E-1
6.250499600E0,5.374910831E-1,1.838397980E-1,-1.113481283E0
6.255550277E0,6.312587261E-1,1.197118759E-1,-1.116031528E0
6.260600955E0,5.854043961E-1,9.278964996E-2,-1.066772342E0
6.265651632E0,5.959280133E-1,9.796142578E-3,-1.047587872E0
6.270702257E0,5.489252806E-1,-7.294082642E-2,-9.450411797E-1
6.275752934E0,5.641669631E-1,-1.625843048E-1,-8.958425522E-1
6.280803611E0,5.360009670E-1,-2.363834381E-1,-8.796623945E-1
6.285854236E0,5.514638424E-1,-3.183088303E-1,-9.798394442E-1
6.290904913E0,4.570641816E-1,-4.012193680E-1,-1.144252539E0
6.295955590E0,3.810024261E-1,-4.899435043E-1,-1.288785577E0
6.301006215E0,3.158519864E-1,-5.270137787E-1,-1.395788074E0
6.306056892E0,3.153730631E-1,-5.280389786E-1,-1.547956347E0
6.311107569E0,3.351386189E-1,-4.798479080E-1,-1.680071831E0
6.316158246E0,4.287720323E-1,-3.824996948E-1,-1.880724430E0
6.321208923E0,4.415782094E-1,-2.575750351E-1,-1.983688951E0
6.326259600E0,4.288346469E-1,-1.841287613E-1,-2.142986774E0
6.331310225E0,3.197966814E-1,-1.106967926E-1,-2.159550428E0
6.336360902E0,1.790936887E-1,-1.772632599E-1,-2.077680826E0
6.341411580E0,-4.546147585E-2,-2.030620575E-1,-1.895118833E0
6.346462257E0,-3.883696198E-1,-2.288513184E-1,-1.635705471E0
6.351512934E0,-6.024963856E-1,-2.426862717E-1,-1.247392893E0
6.356563611E0,-7.787516117E-1,-3.199453354E-1,-8.217231035E-1
6.361614236E0,-8.125239015E-1,-4.450502396E-1,-4.880614281E-1
6.366664913E0,-8.279532790E-1,-6.108007431E-1,-6.472051144E-2
6.371715590E0,-7.131276727E-1,-9.081525803E-1,2.955158651E-1
6.376766267E0,-4.223330021E-1,-1.375304222E0,5.852016807E-1
6.381816944E0,-5.700111389E-2,-1.916422844E0,7.877093554E-1
6.386867621E0,3.193617165E-1,-2.446520805E0,8.757950068E-1
6.391918246E0,6.841144562E-1,-2.818475723E0,9.965692759E-1
6.396968923E0,1.021469831E0,-2.945115089E0,1.255655289E0
6.402019600E0,1.179429531E0,-2.963058472E0,1.611630678E0
6.407070225E0,1.156514883E0,-3.044619560E0,1.904266238E0
6.412120902E0,8.150477409E-1,-3.236335754E0,1.886733055E0
6.417171580E0,1.154154241E-1,-3.572710037E0,1.730195761E0
6.422222205E0,-7.513133883E-1,-4.121755600E0,1.437887430E0
6.427272882E0,-1.664416552E0,-4.871284485E0,1.066246629E0
6.432323559E0,-2.468684912E0,-5.835436821E0,6.416640282E-1
6.437374236E0,-3.138348103E0,-6.664678574E0,9.383531660E-2
6.442424913E0,-3.561254501E0,-7.135533333E0,-5.239948630E-1
6.447475590E0,-3.578051567E0,-7.463740349E0,-9.561504722E-1
6.452526215E0,-3.356706619E0,-7.423239708E0,-1.151812911E0
6.457576892E0,-3.302687645E0,-6.611363411E0,-1.385104537E0
6.462627569E0,-3.273672104E0,-5.362936020E0,-1.793605804E0
6.467678194E0,-3.003612995E0,-4.244338036E0,-2.157541752E0
6.472728871E0,-2.640224934E0,-3.473097801E0,-2.342730761E0
6.477779548E0,-2.270194292E0,-2.998525620E0,-2.308275461E0
6.482830173E0,-1.859080076E0,-2.709031105E0,-2.155080318E0
6.487880850E0,-1.413430452E0,-2.592438698E0,-2.012702703E0
6.492931527E0,-9.365458488E-1,-2.552831650E0,-1.829755068E0
6.497982205E0,-4.508351088E-1,-2.553035736E0,-1.769656897E0
6.503032882E0,6.801211834E-2,-2.523621559E0,-1.764451504E0
6.508083559E0,4.653035998E-1,-2.565145493E0,-1.786042333E0
6.513134184E0,8.270043731E-1,-2.647646904E0,-2.041942596E0
6.518184861E0,1.111801624E0,-2.826101303E0,-2.563945293E0
6.523235538E0,1.332978964E0,-3.064594269E0,-3.252645016E0
6.528286163E0,1.413484693E0,-3.265032768E0,-3.986819506E0
6.533336840E0,1.360066891E0,-3.393012047E0,-4.696186543E0
6.538387517E0,1.063765168E0,-3.381992340E0,-5.352030754E0
6.543438142E0,6.837934256E-1,-3.218216896E0,-5.733566284E0
6.548488819E0,8.173477650E-2,-2.934693336E0,-5.915191650E0
6.553539496E0,-5.491834879E-1,-2.569227219E0,-6.051667213E0
6.558590173E0,-1.053417683E0,-2.159623146E0,-6.104645729E0
6.563640850E0,-1.211963415E0,-1.785385132E0,-6.035149097E0
6.568691527E0,-1.119321942E0,-1.577225685E0,-5.815096378E0
6.573742152E0,-9.171776772E-1,-1.380836487E0,-5.666764259E0
6.578792830E0,-6.072754860E-1,-1.305174828E0,-5.513180733E0
6.583843507E0,-3.284666538E-1,-1.296087265E0,-5.220572472E0
6.588894132E0,-1.256940365E-1,-1.312539101E0,-4.947393417E0
6.593944809E0,-3.690087795E-2,-1.362615585E0,-4.515774250E0
6.598995486E0,-3.852248192E-2,-1.505665779E0,-3.875370502E0
6.604046111E0,-2.770483494E-2,-1.710943222E0,-2.936022758E0
6.609096788E0,9.860897064E-2,-2.021540642E0,-1.533075333E0
6.614147465E0,3.482104540E-1,-2.353275299E0,4.214429855E-2
6.619198142E0,7.616457939E-1,-2.545589447E0,1.658564568E0
6.624248819E0,1.125998974E0,-2.672821999E0,3.027247190E0
6.629299496E0,1.421257019E0,-2.595580101E0,3.983191967E0
6.634350121E0,1.685615897E0,-2.337869644E0,4.585738182E0
6.639400798E0,1.745653272E0,-1.974480629E0,4.598579884E0
6.644451475E0,1.823382020E0,-1.588735580E0,4.802478790E0
6.649541580E0,1.806542993E0,-1.204416275E0,5.017879486E0
6.654592205E0,1.504988194E0,-7.692337036E-1,5.173613548E0
6.659642882E0,1.255811453E0,-4.809112549E-1,5.181793690E0
6.664693559E0,1.128004909E0,-2.951030731E-1,4.936462879E0
6.669744236E0,1.106618047E0,-2.940969467E-1,4.764095783E0
6.674794913E0,1.243503809E0,-3.837938309E-1,4.850870609E0
6.679806111E0,1.280423164E0,-4.406833649E-1,4.904767036E0
6.684856788E0,1.254374266E0,-4.957656860E-1,4.805230618E0
6.689907465E0,1.143565774E0,-4.998044968E-1,4.475141525E0
6.694958090E0,1.119353056E0,-5.554561615E-1,4.315546036E0
6.700008767E0,1.053399324E0,-5.963249207E-1,4.380456448E0
6.705059444E0,9.279267788E-1,-6.335439682E-1,4.384647369E0
6.710110121E0,5.425698757E-1,-3.772687912E-1,4.133872032E0
6.715160798E0,4.011490345E-1,-3.004293442E-1,3.564434528E0
6.720211475E0,3.599915504E-1,-1.404571533E-1,2.822922230E0
6.725262100E0,2.724955082E-1,2.402791977E-1,1.871061563E0
6.730312777E0,1.667375565E-1,6.619138718E-1,7.221441269E-1
6.735363455E0,1.860375404E-1,9.580583572E-1,-1.903972626E-1
6.740414080E0,1.650381088E-1,1.195720673E0,-8.402595520E-1
6.745464757E0,2.582354546E-1,1.381998062E0,-1.144981861E0
6.750515434E0,3.440740108E-1,1.544396400E0,-1.087144375E0
6.755566059E0,3.747963905E-1,1.592083454E0,-8.161649704E-1
6.760616736E0,4.193806648E-1,1.614887238E0,-2.446360588E-1
6.765667413E0,4.885106087E-1,1.657479286E0,4.088559151E-1
6.770718038E0,6.219971180E-1,1.674722195E0,1.204553127E0
6.775768715E0,8.225202560E-1,1.691016674E0,2.035048485E0
6.780819392E0,9.996721745E-1,1.657897949E0,2.809542418E0
6.785870017E0,1.222024679E0,1.669290066E0,3.435194254E0
6.790920694E0,1.388384342E0,1.655759811E0,3.926376581E0
6.795971371E0,1.410688400E0,1.660408974E0,4.231719971E0
6.801022048E0,1.484709263E0,1.589852810E0,4.565410614E0
6.806072725E0,1.429215908E0,1.633226871E0,4.886400223E0
6.811123402E0,1.263269663E0,1.746655941E0,5.062184811E0
6.816174027E0,1.046941757E0,1.771210670E0,5.211033821E0
6.821224705E0,8.807263374E-1,1.787294865E0,5.203708649E0
6.826275382E0,6.778073311E-1,1.785850048E0,4.972126484E0
6.831326007E0,4.791657925E-1,1.785249233E0,4.582624435E0
6.836376684E0,3.548798561E-1,1.816716194E0,4.150553226E0
6.841427361E0,3.272166252E-1,1.773996353E0,3.734691858E0
6.846477986E0,3.767440319E-1,1.817987919E0,3.355104685E0
6.851528663E0,3.477606773E-1,1.874502659E0,2.882690430E0
6.856579340E0,3.531408310E-1,1.934927940E0,2.594048023E0
6.861629965E0,4.395179749E-1,2.059425831E0,2.357148170E0
6.866680642E0,6.548566818E-1,2.162123680E0,2.310378075E0
6.871731319E0,8.576755524E-1,2.236101151E0,2.433593750E0
6.876781944E0,1.020267725E0,2.424681425E0,2.462865829E0
6.881832621E0,1.210377455E0,2.595485210E0,2.498827457E0
6.886883298E0,1.318368912E0,2.657037735E0,2.560785770E0
6.891933923E0,1.597288609E0,2.443682909E0,2.684843063E0
6.896984600E0,1.778702259E0,2.384701252E0,2.745986462E0
6.902035277E0,1.914565086E0,2.352178812E0,2.880031109E0
6.907085902E0,2.249340534E0,2.261903763E0,3.058347702E0
6.912136580E0,2.526182652E0,2.200514078E0,3.221340179E0
6.917187257E0,2.619107246E0,2.267531395E0,3.249674797E0
6.922237882E0,2.685753345E0,2.394713640E0,3.143922806E0
6.927288559E0,2.608162403E0,2.543819904E0,2.844976425E0
6.932339236E0,2.365554571E0,2.798173428E0,2.490248680E0
6.937389861E0,2.122473717E0,2.931372881E0,2.145400047E0
6.942440538E0,1.896510601E0,2.991270542E0,1.887620926E0
6.947491215E0,1.733267784E0,2.905767679E0,1.711279392E0
6.952541892E0,1.709028721E0,2.848606586E0,1.577075481E0
6.957592569E0,1.659233570E0,2.855644703E0,1.459193707E0
6.962643246E0,1.609772444E0,2.982125044E0,1.347108364E0
6.967693871E0,1.509484768E0,3.062659264E0,1.290798664E0
6.972744548E0,1.393304348E0,3.136849403E0,1.177342415E0
6.977795225E0,1.231651783E0,3.238917828E0,1.016323566E0
6.982845798E0,1.047427177E0,3.291868210E0,7.276587486E-1
6.987896475E0,8.242888451E-1,3.312887907E0,3.954353333E-1
6.992947152E0,5.710792542E-1,3.274820328E0,2.593421936E-2
6.997997777E0,2.618374825E-1,3.239841461E0,-3.174457550E-1
7.003048455E0,-1.295919418E-1,3.069926739E0,-1.208409786E0
7.008099132E0,-4.136705399E-1,2.730006218E0,-3.017027855E0
7.013149809E0,-5.434303284E-1,2.554374456E0,-4.455576420E0
7.018200486E0,-1.013022423E0,2.431330681E0,-5.897318363E0
7.023251163E0,-1.716945648E0,2.061054707E0,-7.327059269E0
7.028301788E0,-2.626455307E0,1.017957211E0,-7.555499554E0
7.033352465E0,-3.624073267E0,-5.459437370E-1,-4.908694267E0
7.038403142E0,-4.506278038E0,-2.335294247E0,9.864740372E-1
7.043453767E0,-4.695985794E0,-4.639389038E0,5.693648815E0
7.048504444E0,-4.330761909E0,-7.097321987E0,4.390953541E0
7.053555121E0,-4.405631065E0,-9.622265816E0,-1.945656776E0
7.058605746E0,-4.615939140E0,-1.266639519E1,-8.560668945E0
7.063656423E0,-4.875289917E0,-1.573452759E1,-1.001093102E1
7.068707100E0,-4.796070576E0,-1.760275078E1,-6.479103088E0
7.073757725E0,-3.659611464E0,-1.727202225E1,-2.566986084E0
7.078808402E0,-1.308928967E0,-1.381646729E1,9.765005112E-1
7.083859080E0,1.475802898E0,-8.583149910E0,3.553296566E0
7.088909705E0,3.191694736E0,-3.790001392E0,4.746391296E0
7.093960382E0,3.557562590E0,4.374608994E-1,4.461959839E0
7.099011059E0,3.025531292E0,3.921937943E0,3.704654694E0
7.104061736E0,2.061591148E0,6.269798756E0,3.073741674E0
7.109112413E0,1.044305563E0,7.481879234E0,2.513254642E0
7.114163090E0,2.965259552E-1,7.636572361E0,1.810167789E0
7.119213715E0,1.642012596E-2,7.024582863E0,8.932299614E-1
7.124264392E0,2.793302536E-1,6.056952953E0,4.480276108E-1
7.129315069E0,7.317488194E-1,5.007074356E0,6.678342819E-1
7.134365694E0,8.823349476E-1,4.221170425E0,1.205583096E0
7.139416371E0,9.100213051E-1,3.270176411E0,1.759765625E0
7.144467048E0,9.881043434E-1,2.319630623E0,1.995493650E0
7.149517673E0,1.071352482E0,1.297592163E0,1.941645622E0
7.154568350E0,7.150185108E-1,8.489894867E-2,1.764956474E0
7.159619027E0,4.310560226E-2,-1.122789383E0,1.426221848E0
7.164669652E0,-7.205927372E-1,-2.232624054E0,9.807009697E-1
7.169720330E0,-1.313231707E0,-3.221949100E0,7.425045967E-1
7.174771007E0,-1.636654854E0,-3.954997063E0,6.381173134E-1
7.179821632E0,-1.728127718E0,-4.291128159E0,5.518121719E-1
7.184872309E0,-1.614103079E0,-4.266914368E0,5.640654564E-1
7.189922986E0,-1.305731058E0,-3.977023125E0,7.605299950E-1
7.194973663E0,-9.436690807E-1,-3.494581223E0,1.048735142E0
7.200024340E0,-6.310436726E-1,-2.955219269E0,1.179991722E0
7.205075017E0,-3.664381504E-1,-2.447148323E0,1.025073051E0
7.210125642E0,-1.611254215E-1,-1.934582710E0,7.138938904E-1
7.215176319E0,1.825237274E-2,-1.427416801E0,5.222511292E-1
7.220226996E0,2.565305233E-1,-9.895687103E-1,5.099697113E-1
7.225277621E0,5.149946213E-1,-6.391439438E-1,6.491460800E-1
7.230328298E0,7.271654606E-1,-2.915296555E-1,8.005781174E-1
7.235378975E0,9.292755127E-1,-1.050434113E-1,9.821333885E-1
7.240429600E0,1.179970026E0,2.803897858E-2,1.158720016E0
7.245480277E0,1.394781113E0,-4.773998260E-2,1.354054689E0
7.250530955E0,1.551189661E0,-1.956939697E-1,1.481817245E0
7.255581632E0,1.733829260E0,-3.389530182E-1,1.742830753E0
7.260632309E0,1.869009376E0,-5.385217667E-1,1.915346622E0
7.265682986E0,1.881194234E0,-5.828027725E-1,1.739220381E0
7.270733611E0,1.789624214E0,-6.145744324E-1,1.370917320E0
7.275784288E0,1.844068289E0,-5.024290085E-1,1.215568542E0
7.280834965E0,1.867564082E0,-3.948297501E-1,1.212924719E0
7.285885590E0,1.909829974E0,-3.037376404E-1,1.067618370E0
7.290936267E0,1.647235990E0,-1.538295746E-1,7.360069752E-1
7.295986944E0,1.180362701E0,3.672027588E-2,5.968754292E-1
7.301037569E0,7.880424261E-1,1.770095825E-1,4.932529926E-1
7.306088246E0,3.704539537E-1,2.314863205E-1,4.498007298E-1
7.311138923E0,2.799487114E-2,4.169902802E-1,5.341799259E-1
7.316189600E0,-2.716870308E-1,6.401901245E-1,5.269358158E-1
7.321240277E0,-6.014233828E-1,8.532295227E-1,6.014189720E-1
7.326290955E0,-7.486014366E-1,9.903745651E-1,6.170794964E-1
7.331341580E0,-9.971624613E-1,1.167669296E0,7.819530964E-1
7.336392257E0,-1.288048625E0,1.420854568E0,9.854781628E-1
7.341442934E0,-1.625883460E0,1.734009743E0,9.372229576E-1
7.346493559E0,-1.854812503E0,1.958403111E0,7.556121349E-1
7.351544236E0,-1.962201953E0,2.187368393E0,9.648687840E-1
7.356594913E0,-1.915028095E0,2.317897797E0,1.229735374E0
7.361645538E0,-1.837743998E0,2.327208519E0,1.331845760E0
7.366696215E0,-1.811068892E0,2.198583603E0,1.142917156E0
7.371746892E0,-1.716783524E0,1.969063759E0,1.044675827E0
7.376797569E0,-1.374989986E0,1.540878773E0,1.198305845E0
7.381848246E0,-9.126360416E-1,9.839448929E-1,1.359061956E0
7.386898923E0,-4.041545391E-1,4.458274841E-1,1.413004279E0
7.391949548E0,3.448235989E-2,-2.552700043E-2,1.468042731E0
7.397000225E0,4.479153752E-1,-4.982423782E-1,1.343490839E0
7.402050902E0,7.972550392E-1,-9.782981873E-1,1.246877193E0
7.407101527E0,1.106880188E0,-1.421158791E0,1.266192198E0
7.412152205E0,1.317643166E0,-1.739325523E0,1.374483109E0
7.417202882E0,1.441106915E0,-1.923017502E0,1.395840406E0
7.422253507E0,1.464800715E0,-1.871852875E0,1.215524673E0
7.427304184E0,1.379865527E0,-1.635050774E0,1.021338940E0
7.432354861E0,1.294876814E0,-1.264281273E0,7.105298042E-1
7.437405538E0,1.195381522E0,-8.890295029E-1,3.889820576E-1
7.442456215E0,1.024028897E0,-5.380458832E-1,1.845693588E-2
7.447506892E0,7.984068990E-1,-2.055587769E-1,-2.556192875E-1
7.452557517E0,5.946539044E-1,1.430215836E-1,-4.607145786E-1
7.457608194E0,3.654669523E-1,4.106025696E-1,-6.550018787E-1
7.462658871E0,1.610398293E-3,8.124446869E-1,-8.763216734E-1
7.467709496E0,-1.562015414E-1,1.130529404E0,-1.066836715E0
7.472760173E0,-2.522965670E-1,1.361351013E0,-1.208697796E0
7.477810850E0,-3.224862814E-1,1.534937859E0,-1.260071158E0
7.482861475E0,-2.973612547E-1,1.519808769E0,-1.262957096E0
7.487912152E0,-3.191195726E-1,1.460953712E0,-1.307163239E0
7.492962830E0,-3.780807853E-1,1.345276833E0,-1.189136982E0
7.498013455E0,-3.114891648E-1,1.224340439E0,-1.178383231E0
7.503064132E0,-2.748949528E-1,1.173572540E0,-1.015405297E0
7.508114809E0,-1.775046587E-1,1.134376526E0,-8.958168030E-1
7.513165434E0,-1.232340336E-1,1.179762840E0,-7.553112507E-1
7.518216111E0,-1.226405501E-1,1.161335945E0,-6.767371893E-1
7.523266788E0,-1.514044404E-1,1.111527443E0,-6.293585300E-1
7.528317465E0,-1.588847637E-1,1.072206497E0,-6.871660948E-1
7.533368142E0,-1.832455397E-1,1.061301231E0,-7.459570169E-1
7.538418819E0,-2.480899096E-1,1.027322769E0,-8.942456245E-1
7.543469444E0,-2.743400931E-1,9.679155350E-1,-1.111606598E0
7.548520121E0,-3.089294434E-1,8.592100143E-1,-1.368081689E0
7.553570798E0,-3.088979125E-1,7.850046158E-1,-1.527129650E0
7.558621423E0,-2.554609179E-1,6.807298660E-1,-1.638288617E0
7.563672100E0,-1.932671666E-1,6.050348282E-1,-1.743282795E0
7.568722777E0,-1.061375141E-1,5.770883560E-1,-1.781297684E0
7.573773402E0,-3.017246723E-3,6.004066467E-1,-1.753181696E0
7.578824080E0,6.628704071E-2,6.068706512E-1,-1.688368917E0
7.583874757E0,1.123255491E-1,5.774431229E-1,-1.508600950E0
7.588925434E0,1.214090586E-1,5.158348083E-1,-1.363965273E0
7.593976111E0,3.656113148E-2,4.711332321E-1,-1.281244636E0
7.599026788E0,-6.284320354E-2,3.679351807E-1,-1.285780907E0
7.604077413E0,-9.653174877E-2,1.894922256E-1,-1.384242296E0
7.609128090E0,-1.127362251E-3,-2.585697174E-2,-1.540504217E0
7.614178767E0,1.346868873E-1,-2.936782837E-1,-1.757661343E0
7.619229444E0,3.885418773E-1,-5.876359940E-1,-2.035104513E0
7.624280121E0,6.272102594E-1,-9.005413055E-1,-2.332763672E0
7.629330798E0,8.239148259E-1,-1.240756989E0,-2.641490936E0
7.634381423E0,8.972025514E-1,-1.500591278E0,-2.883078098E0
7.639432100E0,8.544838428E-1,-1.672990799E0,-3.067759991E0
7.644482777E0,8.167075515E-1,-1.841800690E0,-3.115097523E0
7.649533402E0,7.562150359E-1,-1.975891113E0,-2.977323055E0
7.654584080E0,6.968652606E-1,-2.082437515E0,-2.796145678E0
7.659634757E0,6.050128937E-1,-2.154239655E0,-2.446786880E0
7.664685382E0,6.029466391E-1,-2.291831017E0,-2.003795862E0
7.669736059E0,6.122456193E-1,-2.441320419E0,-1.502590299E0
7.674786736E0,6.940743327E-1,-2.819235802E0,-1.158358574E0
7.679837361E0,8.653861284E-1,-3.146616936E0,-8.884419799E-1
7.684888038E0,1.008028507E0,-3.296763420E0,-5.646803975E-1
7.689938715E0,1.271823645E0,-3.287845612E0,-1.770179868E-1
7.694989340E0,1.421593547E0,-3.102137566E0,2.723551691E-1
7.700040017E0,1.438477159E0,-2.875012398E0,7.329754829E-1
7.705090694E0,1.239692211E0,-2.673445702E0,9.777903557E-1
7.710141371E0,7.179777622E-1,-2.707924843E0,1.115912795E0
7.715192048E0,-2.510112524E-2,-3.102591515E0,1.190304279E0
7.720242725E0,-8.864390850E-1,-3.813999176E0,1.150540471E0
7.725293350E0,-1.808470130E0,-4.753319740E0,9.937050939E-1
7.730344027E0,-2.603774786E0,-5.764830589E0,6.976872087E-1
7.735394705E0,-3.187269211E0,-6.701366425E0,3.298666477E-1
7.740445330E0,-3.555884600E0,-7.340546608E0,-6.982758641E-2
7.745496007E0,-3.609426260E0,-7.548810005E0,-4.250620008E-1
7.750546684E0,-3.433218718E0,-7.155671120E0,-8.257415295E-1
7.755597309E0,-3.154201508E0,-6.326893806E0,-1.128970146E0
7.760647986E0,-2.986108541E0,-5.292654991E0,-1.330347896E0
7.765698663E0,-2.740349054E0,-4.325896263E0,-1.493408918E0
7.770749340E0,-2.494101286E0,-3.477900505E0,-1.588473797E0
7.775800017E0,-2.176906586E0,-2.753267288E0,-1.625581145E0
7.780850694E0,-1.927826881E0,-2.115922928E0,-1.718057871E0
7.785901319E0,-1.663320184E0,-1.580083847E0,-1.680384040E0
7.790951996E0,-1.213205457E0,-1.180225372E0,-1.689787865E0
7.796002673E0,-1.094395757E0,-7.439222336E-1,-1.986029625E0
7.801053298E0,-8.149403334E-1,-4.315032959E-1,-2.271240711E0
7.806103975E0,-5.344034433E-1,-2.260370255E-1,-2.609859228E0
7.811154652E0,-2.224947214E-1,-1.620216370E-1,-2.831264257E0
7.816205277E0,-4.834830761E-2,-2.668056488E-1,-2.961134672E0
7.821255955E0,1.316725016E-1,-6.347856522E-1,-2.806058884E0
7.826306632E0,1.665772200E-1,-1.000161171E0,-2.632795334E0
7.831396736E0,1.477488279E-1,-1.267425537E0,-2.507188082E0
7.836447673E0,9.129214287E-2,-1.393671989E0,-2.401021242E0
7.841498663E0,-6.055498123E-2,-1.491797447E0,-2.334499121E0
7.846549652E0,-1.949056387E-1,-1.615892410E0,-2.310040236E0
7.851600642E0,-2.513570786E-1,-1.792532921E0,-2.343186378E0
7.856651580E0,-2.201943398E-1,-2.018314362E0,-2.378939867E0
7.861661215E0,-1.332322359E-1,-2.283658028E0,-2.389624596E0
7.866712205E0,5.068695545E-2,-2.463335991E0,-2.368828773E0
7.871763194E0,2.513978481E-1,-2.653158188E0,-2.310235977E0
7.876814132E0,5.780539513E-1,-2.807731628E0,-2.228276491E0
7.881865121E0,9.299145341E-1,-2.960592270E0,-2.099176168E0
7.886916111E0,1.194787860E0,-3.062722206E0,-1.810902357E0
7.891965173E0,1.260134220E0,-3.125002861E0,-1.522610784E0
7.897016163E0,1.079525948E0,-3.215949059E0,-1.162423491E0
7.902067152E0,6.429197788E-1,-3.271122932E0,-8.422564268E-1
7.907118090E0,2.505640984E-1,-3.339815140E0,-4.872794151E-1
7.912169080E0,-2.793478966E-2,-3.339422226E0,-2.382211685E-1
7.917220069E0,-1.848144531E-1,-3.201597214E0,1.466488838E-2
7.922269132E0,-2.248024940E-1,-2.886488914E0,2.848808765E-1
7.927320121E0,-1.685881615E-1,-2.418918610E0,3.942453861E-1
7.932371111E0,-1.835846901E-2,-1.903795242E0,4.381902218E-1
7.937422048E0,-4.959964752E-2,-1.234280586E0,4.591643810E-1
7.942473038E0,-3.539941311E-1,-4.797620773E-1,4.425592422E-1
7.947524027E0,-7.621932030E-1,2.305545807E-1,5.736193657E-1
7.952573090E0,-1.109868050E0,9.123182297E-1,8.627686501E-1
7.957624080E0,-1.273352146E0,1.373168945E0,1.418959379E0
7.962675069E0,-1.147996187E0,1.558883667E0,2.328372717E0
7.967726007E0,-8.494062424E-1,1.552843571E0,3.077995539E0
7.972776996E0,-3.409883976E-1,1.328142166E0,3.976393700E0
7.977827986E0,2.253615856E-1,1.081529617E0,4.873422146E0
7.982877100E0,7.487291098E-1,7.626714706E-1,5.552795410E0
7.987928090E0,1.209272981E0,4.885997772E-1,6.268459320E0
7.992979080E0,1.375275850E0,3.982686996E-1,6.480555534E0
7.998030017E0,1.401277065E0,4.016819000E-1,6.321783066E0
8.003081007E0,1.552707791E0,3.970451355E-1,5.930428028E0
8.008131996E0,1.785802960E0,2.746353149E-1,5.578995705E0
8.013181059E0,1.821304679E0,3.403110504E-1,5.239606380E0
8.018232048E0,1.391113520E0,5.531272888E-1,4.144058228E0
8.023283038E0,1.276005268E0,5.267581940E-1,3.089983940E0
8.028333975E0,1.172407031E0,5.456323624E-1,2.040895462E0
8.033384965E0,1.047202706E0,6.437501907E-1,8.009376526E-1
8.038435955E0,9.234732389E-1,9.144945145E-1,-1.247262955E-2
8.043485069E0,8.299090862E-1,1.219230652E0,-5.182080269E-1
8.048536059E0,8.153705597E-1,1.526054382E0,-9.662089348E-1
8.053587048E0,7.455804348E-1,1.756295204E0,-1.385640621E0
8.058637986E0,5.552630424E-1,1.928098202E0,-1.624705315E0
8.063688975E0,4.458255768E-1,1.988839149E0,-1.570181370E0
8.068739965E0,2.894771099E-1,2.038630962E0,-1.144761086E0
8.073789027E0,1.955008507E-1,2.041943550E0,-4.150285721E-1
8.078840017E0,8.768677711E-2,2.062176228E0,5.403032303E-1
8.083891007E0,2.887892723E-2,2.057483196E0,1.587238550E0
8.088941944E0,4.362821579E-2,2.001282215E0,2.599532127E0
8.093992934E0,8.103132248E-3,1.942111492E0,3.379635334E0
8.099043923E0,-7.486701012E-2,1.876690388E0,3.942510128E0
8.104092986E0,-3.791332245E-2,1.716948986E0,4.408406258E0
8.109143975E0,1.215915680E-1,1.605130672E0,4.675771236E0
8.114194965E0,3.961167336E-1,1.465692997E0,4.784562111E0
8.119245902E0,6.429123878E-1,1.364405155E0,4.676542282E0
8.124296892E0,8.647880554E-1,1.325296402E0,4.315208912E0
8.129347882E0,9.952712059E-1,1.324658394E0,3.931851625E0
8.134396944E0,1.192695856E0,1.330543518E0,3.416580677E0
8.139447934E0,1.398843288E0,1.342168331E0,2.929914474E0
8.144498923E0,1.502026081E0,1.507065296E0,2.387998104E0
8.149549861E0,1.581628799E0,1.637639999E0,1.870150089E0
8.154600850E0,1.590974092E0,1.804898262E0,1.626106262E0
8.159651840E0,1.687869310E0,1.889653683E0,1.331108093E0
8.164700850E0,1.791782856E0,2.049963474E0,1.513381004E0
8.169751840E0,1.854432344E0,2.129046917E0,1.711305141E0
8.174802830E0,1.892880917E0,2.039868355E0,1.881533146E0
8.179853767E0,1.877551079E0,1.980145931E0,2.063350677E0
8.184904757E0,1.761970043E0,1.855007172E0,2.064493179E0
8.189955746E0,1.658291817E0,1.589008808E0,1.941746712E0
8.195004861E0,1.765663624E0,1.254661560E0,1.963070869E0
8.200055850E0,1.729206562E0,9.219613075E-1,1.920015335E0
8.205106840E0,1.626486301E0,7.406706810E-1,1.912026882E0
8.210157777E0,1.619014263E0,5.309724808E-1,2.070996761E0
8.215208767E0,1.631779194E0,4.339752197E-1,2.263999939E0
8.220259757E0,1.684248924E0,3.381772041E-1,2.365590572E0
8.225308819E0,1.790633678E0,2.936468124E-1,2.383692741E0
8.230359809E0,1.891265869E0,3.356127739E-1,2.335891247E0
8.235410798E0,1.802314758E0,5.345768929E-1,2.122827530E0
8.240461736E0,1.739683867E0,7.280406952E-1,1.993070602E0
8.245512725E0,1.682456017E0,1.101324081E0,1.895937920E0
8.250563715E0,1.556232452E0,1.580527782E0,1.810914040E0
8.255612777E0,1.425666332E0,2.022258282E0,1.780890465E0
8.260663767E0,1.242474556E0,2.426926136E0,1.805886745E0
8.265714757E0,1.120822430E0,2.683528423E0,1.763067245E0
8.270765694E0,9.122786522E-1,2.739100218E0,1.809647083E0
8.275816684E0,6.706180573E-1,2.667642117E0,1.756950378E0
8.280867673E0,5.045509338E-1,2.582832813E0,1.776379585E0
8.285916736E0,4.035601616E-1,2.538772583E0,1.761780739E0
8.290967725E0,4.018321037E-1,2.556049585E0,1.744301319E0
8.296018715E0,3.672599792E-1,2.618257999E0,1.806346416E0
8.301069652E0,3.943719864E-1,2.701760292E0,1.742860317E0
8.306120642E0,3.874115944E-1,2.789049149E0,1.722124100E0
8.311171632E0,3.570547104E-1,2.916226864E0,1.626593590E0
8.316220642E0,2.725791931E-1,2.982689857E0,1.475108147E0
8.321271632E0,1.939725876E-1,3.095081568E0,1.193192005E0
8.326322621E0,1.363096237E-1,3.162015438E0,8.177027702E-1
8.331373559E0,-4.494857788E-2,3.206992149E0,2.554845810E-1
8.336424548E0,-2.506113052E-1,3.204916954E0,-5.349035263E-1
8.341475538E0,-5.576343536E-1,3.079383850E0,-2.251596451E0
8.346524652E0,-8.474125862E-1,2.969776630E0,-3.927297592E0
8.351575069E0,-1.418817997E0,3.022961855E0,-5.463265419E0
8.356625486E0,-2.366639614E0,3.023449183E0,-6.454998493E0
8.361675902E0,-3.411755562E0,2.682226181E0,-6.995825768E0
8.366726319E0,-4.178224564E0,1.876078606E0,-5.528852463E0
8.371776736E0,-4.316249847E0,7.679347992E-1,-1.370260715E0
8.376828611E0,-3.701492310E0,-6.914038658E-1,2.751078129E0
8.381879027E0,-2.773116112E0,-2.496789932E0,3.393316269E0
8.386929444E0,-2.356525898E0,-4.775579929E0,-4.533467293E-1
8.391979861E0,-2.112932682E0,-7.464484692E0,-6.666249275E0
8.397030277E0,-1.707140923E0,-1.035709190E1,-1.078029442E1
8.402080694E0,-1.329226494E0,-1.290700912E1,-9.738328934E0
8.407132569E0,-1.114484787E0,-1.442839622E1,-6.276143074E0
8.412182986E0,-8.642725945E-1,-1.448842049E1,-2.276844025E0
8.417233402E0,4.724407196E-2,-1.298710346E1,1.291924953E0
8.422283819E0,1.151316166E0,-9.754467010E0,3.833405495E0
8.427334236E0,1.871233940E0,-5.472833633E0,4.847529411E0
8.432384652E0,1.450948715E0,-1.705440044E0,4.517045975E0
8.437436527E0,2.907192707E-1,1.322900295E0,3.664833546E0
8.442486944E0,-1.051926374E0,3.412577629E0,2.999001265E0
8.447537361E0,-2.335486412E0,4.776196480E0,2.256014347E0
8.452587777E0,-3.270737886E0,5.348007202E0,9.004831314E-1
8.457638194E0,-3.483296394E0,5.350599766E0,-6.549820900E-1
8.462688611E0,-2.915421009E0,4.865092278E0,-1.244664192E0
8.467740486E0,-1.961446047E0,4.019145489E0,-6.424627304E-1
8.472790902E0,-1.264115095E0,3.127190113E0,1.794524193E-1
8.477841319E0,-5.866186619E-1,2.121588707E0,7.699685097E-1
8.482891736E0,8.564877510E-2,1.163851738E0,1.264953613E0
8.487942152E0,5.768096447E-1,-8.839130402E-3,1.690228462E0
8.492992569E0,6.558258533E-1,-1.084154129E0,1.887586117E0
8.498044444E0,3.248503208E-1,-2.099305153E0,1.556427479E0
8.503094861E0,-1.681487560E-1,-2.982565880E0,1.075285912E0
8.508145277E0,-8.059506416E-1,-3.577936172E0,7.932085991E-1
8.513195694E0,-1.424404383E0,-3.857386589E0,6.830396652E-1
8.518246111E0,-1.908263683E0,-3.796057224E0,6.840090752E-1
8.523296527E0,-2.019839764E0,-3.375017643E0,8.701391220E-1
8.528348402E0,-1.911271334E0,-2.633556366E0,1.176337719E0
8.533398819E0,-1.691334009E0,-1.772665977E0,1.458907604E0
8.538449236E0,-1.463436604E0,-9.188241959E-1,1.725809097E0
8.543499652E0,-1.258635759E0,-1.400547028E-1,1.771074772E0
8.548550069E0,-1.026711464E0,5.051684380E-1,1.828238964E0
8.553600486E0,-8.336684704E-1,1.030353069E0,1.867202997E0
8.558652361E0,-6.363263130E-1,1.383154869E0,1.918829203E0
8.563702777E0,-4.732451439E-1,1.688031673E0,1.931457520E0
8.568753194E0,-2.925937176E-1,1.899218559E0,1.865499020E0
8.573803611E0,-5.343556404E-2,1.936361790E0,1.795073986E0
8.578854027E0,2.571780682E-1,1.895246983E0,1.641009808E0
8.583904444E0,7.127606869E-1,1.622818947E0,1.619763613E0
8.588956319E0,1.220068455E0,1.187746048E0,1.754682302E0
8.594006736E0,1.770301104E0,6.717934608E-1,1.759486675E0
8.599057152E0,2.219845295E0,-3.588485718E-2,1.716937780E0
8.604107569E0,2.684886217E0,-8.196792603E-1,1.873066425E0
8.609157986E0,3.067220449E0,-1.526133537E0,1.795897007E0
8.614208402E0,3.262773991E0,-2.002251625E0,1.579718590E0
8.619260277E0,3.308532238E0,-2.479192734E0,1.235064030E0
8.624310694E0,3.366981030E0,-2.762979507E0,1.111874104E0
8.629361111E0,3.217112541E0,-2.930382729E0,8.705270290E-1
8.634411527E0,3.037058830E0,-2.904119492E0,6.592578888E-1
8.639461944E0,2.703853607E0,-2.633060455E0,5.689904690E-1
8.644512361E0,2.292660952E0,-2.309129715E0,5.350284576E-1
8.649564236E0,2.043504238E0,-1.926283836E0,6.176044941E-1
8.654614652E0,1.770630836E0,-1.509673119E0,5.832443237E-1
8.659665069E0,1.634030581E0,-1.187108040E0,5.859763622E-1
8.664715486E0,1.414369822E0,-8.650159836E-1,7.330739498E-1
8.669765902E0,1.001830578E0,-4.966897964E-1,6.818611622E-1
8.674816319E0,6.528644562E-1,-1.075344086E-1,3.958742619E-1
8.679868194E0,3.008456230E-1,4.014148712E-1,8.524823189E-2
8.684918611E0,4.817748070E-2,7.939062119E-1,-2.084598541E-1
8.689969027E0,-2.592635155E-2,1.062729836E0,-4.418256283E-1
8.695019444E0,-4.814505577E-2,1.221015930E0,-4.960198402E-1
8.700069861E0,-2.614661455E-1,1.410964012E0,-6.112711430E-1
8.705120277E0,-3.132562637E-1,1.490052223E0,-5.563516617E-1
8.710172152E0,-3.013701439E-1,1.521878242E0,-3.806936741E-1
8.715222569E0,-2.349158525E-1,1.525574207E0,-1.584043503E-1
8.720272986E0,-5.671036243E-2,1.459414005E0,5.218744278E-3
8.725323402E0,1.311714649E-1,1.384716988E0,3.897931576E-1
8.730373819E0,3.764364719E-1,1.397540092E0,1.010770917E0
8.735424236E0,6.230276823E-1,1.435951233E0,1.657022357E0
8.740476111E0,8.326622844E-1,1.473947525E0,2.108245134E0
8.745526527E0,9.981268644E-1,1.592976570E0,2.367840052E0
8.750576944E0,1.018256187E0,1.736616135E0,2.480374813E0
8.755627361E0,9.235916138E-1,1.897556305E0,2.379168510E0
8.760677777E0,7.556508780E-1,2.082729340E0,2.144022465E0
8.765728194E0,6.018919349E-1,2.149639130E0,1.793614507E0
8.770780069E0,3.895905018E-1,2.234666824E0,1.343078136E0
8.775830486E0,2.072882652E-1,2.255062580E0,8.283692598E-1
8.780880902E0,5.379688740E-2,2.117516518E0,1.091003418E-1
8.785931319E0,-4.247963428E-2,1.885606766E0,-5.159933567E-1
8.790981736E0,2.695131302E-2,1.542634964E0,-1.126224875E0
8.796032152E0,2.670763135E-1,1.117562294E0,-1.571802497E0
8.801084027E0,4.925587177E-1,6.836538315E-1,-1.951148033E0
8.806134444E0,7.777655125E-1,2.123651505E-1,-2.176952600E0
8.811184861E0,9.867358804E-1,-1.751747131E-1,-2.232278824E0
8.816235277E0,1.083309650E0,-3.963336945E-1,-2.151636600E0
8.821285694E0,1.196030974E0,-4.761857986E-1,-1.948157549E0
8.826336111E0,1.210926175E0,-4.817342758E-1,-1.542706966E0
8.831427517E0,1.106148124E0,-4.571371078E-1,-1.136458516E0
8.836477934E0,8.394511938E-1,-3.475160599E-1,-8.070491552E-1
8.841528350E0,5.081238151E-1,-2.402791977E-1,-5.644478798E-1
8.846578715E0,3.401380777E-2,-9.365844727E-2,-4.479850531E-1
8.851629132E0,-5.280891657E-1,2.751064301E-2,-4.675390720E-1
8.856679548E0,-1.064462423E0,1.290073395E-1,-6.447080374E-1
8.861691996E0,-1.559860229E0,2.237730026E-1,-8.665572405E-1
8.866742465E0,-1.807680845E0,2.724342346E-1,-1.054399371E0
8.871792934E0,-1.947057486E0,3.252735138E-1,-1.238899708E0
8.876843402E0,-2.008112669E0,4.673023224E-1,-1.402515292E0
8.881893871E0,-1.897864461E0,5.059137344E-1,-1.512436032E0
8.886944340E0,-1.723477840E0,5.382766724E-1,-1.597126603E0
8.891995955E0,-1.534613609E0,5.729284286E-1,-1.620725155E0
8.897046423E0,-1.444916606E0,5.883951187E-1,-1.612868309E0
8.902096892E0,-1.340698719E0,6.170558929E-1,-1.612798691E0
8.907147361E0,-1.210240364E0,6.074447632E-1,-1.667235851E0
8.912197830E0,-1.156303287E0,6.133699417E-1,-1.822585106E0
8.917248298E0,-1.134395123E0,6.430540085E-1,-2.087134600E0
8.922299913E0,-1.108267665E0,6.030387878E-1,-2.337584019E0
8.927350382E0,-1.094339848E0,5.507373810E-1,-2.544249296E0
8.932400850E0,-1.081775784E0,4.095964432E-1,-2.738059044E0
8.937451319E0,-8.778570890E-1,2.335577011E-1,-2.708411694E0
8.942501788E0,-5.906499624E-1,7.654476166E-2,-2.639166594E0
8.947552257E0,-2.561266422E-1,-1.523723602E-1,-2.500701666E0
8.952643350E0,5.133974552E-2,-2.688446045E-1,-2.363207102E0
8.957693819E0,2.804299593E-1,-4.010677338E-1,-2.272238255E0
8.962744236E0,3.558899760E-1,-5.418291092E-1,-2.183766603E0
8.967794705E0,4.692105651E-1,-6.576290131E-1,-2.135504723E0
8.972845173E0,4.717816114E-1,-7.365064621E-1,-2.037840843E0
8.977895642E0,5.427799225E-1,-8.657951355E-1,-2.003070354E0
8.982907830E0,5.918269157E-1,-9.413032532E-1,-1.975547552E0
8.987958298E0,6.156855226E-1,-1.089806557E0,-1.970900655E0
8.993008767E0,5.631781220E-1,-1.253687859E0,-1.939107299E0
8.998059236E0,2.822025418E-1,-1.424499512E0,-1.945343494E0
9.003109705E0,2.219146490E-2,-1.687163353E0,-1.819686651E0
9.008160173E0,-1.217235923E-1,-1.984182358E0,-1.578629851E0
9.013211788E0,-3.812104464E-2,-2.319126129E0,-1.105782747E0
9.018262257E0,2.455537319E-1,-2.664478302E0,-6.775534153E-1
9.023312725E0,5.441335440E-1,-3.115973473E0,-3.802015483E-1
9.028363194E0,7.866905332E-1,-3.712999344E0,-4.051666260E-1
9.033413663E0,9.982877374E-1,-4.309467316E0,-4.839879870E-1
9.038464132E0,1.196486235E0,-4.875469208E0,-5.676290393E-1
9.043515798E0,1.329692602E0,-5.528324127E0,-5.878440142E-1
9.048566267E0,1.408834934E0,-5.842071533E0,-5.420362949E-1
9.053616736E0,1.345316172E0,-6.064818382E0,-4.489257336E-1
9.058667205E0,1.013155580E0,-6.506513596E0,-5.346466899E-1
9.063717673E0,5.406495929E-1,-7.129827499E0,-6.930283904E-1
9.068768142E0,5.229228735E-2,-7.807748795E0,-8.857281804E-1
9.073819757E0,-4.996528029E-1,-8.349997520E0,-1.126472473E0
9.078870225E0,-8.729839325E-1,-8.549709320E0,-1.380993724E0
9.083920694E0,-1.012254477E0,-8.362933159E0,-1.656281114E0
9.088971163E0,-9.595202208E-1,-7.681092262E0,-1.947094083E0
9.094021632E0,-9.129896760E-1,-6.645773888E0,-2.143791199E0
9.099072100E0,-9.850519896E-1,-5.360182762E0,-2.325039148E0
9.104123715E0,-1.145352840E0,-4.056641579E0,-2.454771996E0
9.109174184E0,-1.350393414E0,-2.896653175E0,-2.503391743E0
9.114224652E0,-1.582016230E0,-2.045144081E0,-2.477688313E0
9.119275121E0,-1.965266109E0,-1.581995964E0,-2.417041779E0
9.124325590E0,-2.346440315E0,-1.392040253E0,-2.325316906E0
9.129376059E0,-2.437392235E0,-1.464305878E0,-2.258077145E0
9.134427621E0,-2.541945457E0,-1.616705894E0,-2.316329241E0
9.139478090E0,-2.712644577E0,-1.641177177E0,-2.383192062E0
9.144528559E0,-2.589257479E0,-1.809620857E0,-2.431723118E0
9.149579027E0,-2.434061527E0,-1.883991241E0,-2.583067656E0
9.154629496E0,-2.211668491E0,-1.902971268E0,-2.774193764E0
9.159679965E0,-1.962252378E0,-1.886047363E0,-2.998666525E0
9.164731580E0,-1.723509192E0,-1.790523529E0,-3.380314350E0
9.169782048E0,-1.476731896E0,-1.614509583E0,-3.641878366E0
9.174832517E0,-1.349701762E0,-1.371663094E0,-3.867676258E0
9.179882986E0,-1.346859455E0,-1.045769691E0,-4.053702354E0
9.184933455E0,-1.545534730E0,-6.924495697E-1,-4.140309334E0
9.189983923E0,-1.824307203E0,-3.385791779E-1,-4.315799713E0
9.195035538E0,-2.008743286E0,-1.019239426E-1,-4.873652458E0
9.200086007E0,-2.040847778E0,-5.948829651E-2,-5.394080162E0
9.205136475E0,-1.942572355E0,-3.288621902E-1,-5.677597046E0
9.210186944E0,-1.747553706E0,-8.515071869E-1,-5.642349243E0
9.215237413E0,-1.501770496E0,-1.409432411E0,-5.139794827E0
9.220287882E0,-1.009560347E0,-1.973418236E0,-4.588627815E0
9.225339496E0,3.110755682E-1,-2.777857780E0,-3.625787973E0
9.230389965E0,1.537211537E0,-3.545310974E0,-2.138438225E0
9.235440434E0,2.218384743E0,-4.045557022E0,-2.945153713E-1
9.240490902E0,3.073673725E0,-4.391877174E0,1.420565486E0
9.245541371E0,3.792967558E0,-4.555302620E0,2.738431931E0
9.250591840E0,4.244716644E0,-4.671497345E0,3.717967987E0
9.255643455E0,4.407227516E0,-4.559458733E0,4.515523911E0
9.260693923E0,4.617391586E0,-4.270683289E0,5.145348549E0
9.265744392E0,4.991678715E0,-3.823050499E0,5.872254848E0
9.270794861E0,5.186489105E0,-3.316200256E0,6.399006844E0
9.275845330E0,5.037444115E0,-2.722129822E0,6.697306633E0
9.280895798E0,4.687219620E0,-1.976515770E0,6.409969807E0
9.285947413E0,4.154712677E0,-1.350655556E0,5.825282097E0
9.290997882E0,3.583476543E0,-8.581132889E-1,5.513680458E0
9.296048350E0,3.029847145E0,-3.411245346E-1,5.439816475E0
9.301098819E0,2.583350897E0,-7.801151276E-2,5.688652515E0
9.306149288E0,2.078574896E0,1.020889282E-1,5.976069450E0
9.311199757E0,1.689443827E0,1.354770660E-1,6.322795868E0
9.316251371E0,1.207467794E0,9.481716156E-2,6.345730305E0
9.321301840E0,6.670928001E-1,2.283382416E-2,6.160947800E0
9.326352309E0,1.421396732E-1,4.101181030E-2,5.812785149E0
9.331402777E0,-3.608713150E-1,1.609468460E-1,5.271799564E0
9.336453246E0,-7.572004795E-1,4.119577408E-1,4.554602623E0
9.341503715E0,-1.001794338E0,4.825229645E-1,3.758072376E0
9.346555277E0,-1.075151443E0,5.846071243E-1,3.016627312E0
9.351605746E0,-1.169004202E0,8.610868454E-1,2.351351738E0
9.356656215E0,-1.343732119E0,1.162775993E0,1.534298897E0
9.361706684E0,-1.405918598E0,1.456676006E0,7.490129471E-1
9.366757152E0,-1.344318390E0,1.696865082E0,1.454272270E-1
9.371807621E0,-1.115664244E0,1.896422863E0,-3.754582405E-1
9.376859236E0,-9.479627609E-1,2.047423363E0,-7.862405777E-1
9.381909757E0,-6.378982067E-1,2.134480953E0,-1.091148853E0
9.386960225E0,-9.240484238E-2,2.133813858E0,-1.085861683E0
9.392010746E0,3.883130550E-1,2.047838688E0,-6.231012344E-1
9.397061267E0,8.354475498E-1,1.886744022E0,1.543307304E-1
9.402111736E0,1.245854855E0,1.658784866E0,1.205330372E0
9.407163194E0,1.598457336E0,1.423449039E0,2.321871281E0
9.412213715E0,1.841490746E0,1.197981358E0,3.373907566E0
9.417264184E0,1.930363894E0,1.067500114E0,4.170791626E0
9.422314705E0,1.827641964E0,9.240365028E-1,4.736589432E0
9.427365225E0,1.684716940E0,7.394909859E-1,5.047327042E0
9.432415694E0,1.501562834E0,4.337806702E-1,5.007612228E0
9.437467152E0,1.304000854E0,1.531624794E-1,4.809413433E0
9.442517673E0,9.396824837E-1,7.138347626E-2,4.528203964E0
9.447568142E0,5.017099380E-1,3.761243820E-2,4.147440434E0
9.452618663E0,1.401786804E-1,1.191596985E-1,3.818481922E0
9.457669184E0,-9.948968887E-2,2.912983894E-1,3.559858322E0
9.462719652E0,-9.691762924E-2,7.288208008E-1,3.494770527E0
9.467771111E0,1.735234261E-1,1.168608665E0,3.477961063E0
9.472821632E0,4.193677902E-1,1.736444950E0,3.623808861E0
9.477872100E0,8.870964050E-1,2.147499561E0,3.693275928E0
9.482922621E0,1.090564251E0,2.709756136E0,3.645970821E0
9.487973142E0,1.390810251E0,3.022345781E0,3.646979094E0
9.493023611E0,1.776418209E0,3.001101017E0,3.533825397E0
9.498075017E0,2.123806477E0,3.135041714E0,3.577040911E0
9.503125538E0,2.243184566E0,3.291474342E0,3.635063648E0
9.508176007E0,2.354648590E0,3.442914486E0,3.717839241E0
9.513226527E0,2.569364548E0,3.490615845E0,3.913343906E0
9.518277048E0,2.649923563E0,3.729030609E0,4.081592560E0
9.523327517E0,2.635176897E0,4.030603409E0,4.301795483E0
9.528378975E0,2.696144581E0,4.219475746E0,4.314206123E0
9.533429496E0,2.702725887E0,4.485063553E0,4.140830040E0
9.538479965E0,2.653559923E0,4.719172478E0,3.919798374E0
9.543530486E0,2.496685028E0,4.892669201E0,3.673594475E0
9.548581007E0,2.193144321E0,4.782800198E0,3.445322752E0
9.553631475E0,1.816011429E0,4.587225437E0,3.104972839E0
9.558682934E0,1.505127192E0,4.425371170E0,2.735854626E0
9.563733455E0,1.358403921E0,4.218160152E0,2.407713890E0
9.568783923E0,1.285638571E0,4.067404270E0,2.043040276E0
9.573834444E0,1.315193653E0,3.857906818E0,1.683093071E0
9.578884965E0,1.429658890E0,3.553555012E0,1.290326595E0
9.583935434E0,1.412876368E0,3.286880970E0,8.597216606E-1
9.588986840E0,1.365459919E0,2.966520309E0,3.244438171E-1
9.594037361E0,1.200215816E0,2.717941999E0,-2.664961815E-1
9.599087830E0,9.690024853E-1,2.441188574E0,-8.412294388E-1
9.604138350E0,6.775846481E-1,2.228035212E0,-1.327397823E0
9.609188871E0,2.657332420E-1,2.029203415E0,-1.707550526E0
9.614239340E0,-6.452178955E-2,1.825691700E0,-2.321149826E0
9.619290798E0,-4.355010986E-1,1.506387234E0,-4.105661392E0
9.624341319E0,-1.194152355E0,1.039003372E0,-9.467832565E0
9.629391788E0,-2.758867741E0,1.699843407E-1,-1.463425255E1
9.634442309E0,-5.571444988E0,-1.290798664E0,-1.969190598E1
9.639492830E0,-9.408844948E0,-2.327961445E0,-1.367087746E1
9.644543298E0,-9.742473602E0,-3.289734840E0,3.578207970E0
9.649594705E0,-4.949406624E0,-4.726137161E0,1.366800880E1
9.654645225E0,-1.346149921E0,-6.019221783E0,9.141230583E0
9.659695694E0,-1.641793728E0,-7.406128883E0,3.897190094E-2
9.664746215E0,-1.776133060E0,-9.604890823E0,-3.763137817E0
9.669796736E0,-1.659833908E0,-1.152175713E1,-3.694598675E0
9.674847205E0,-1.470973969E0,-1.232121468E1,-4.832746029E0
9.679898663E0,-1.709794998E0,-1.169980145E1,-4.682256222E0
9.684949184E0,-1.331246853E0,-9.594312668E0,6.067910194E-1
9.689999652E0,-3.163738251E-1,-5.846277237E0,5.214885235E0
9.695050173E0,1.481938362E-1,-1.646160603E0,4.050795555E0
9.700100694E0,-1.084327698E-1,1.351997375E0,2.103773355E0
9.705151163E0,-2.878026962E-1,3.157919407E0,1.245142937E0
9.710202621E0,3.552341461E-2,4.226378441E0,-4.640135765E-1
9.715253142E0,8.688926697E-1,4.450584412E0,-8.912477493E-1
9.720303611E0,2.083415508E0,4.069469929E0,-2.179017067E-1
9.725354132E0,3.288197994E0,3.143733501E0,1.536723137E0
9.730404652E0,3.835955620E0,2.038545132E0,3.156987667E0
9.735455121E0,3.680246115E0,8.788857460E-1,3.411422253E0
9.740506527E0,3.107354641E0,-1.981987953E-1,3.089200974E0
9.745557048E0,2.109629154E0,-1.007167816E0,3.052643061E0
9.750607517E0,7.055077553E-1,-1.632394791E0,2.895653248E0
9.755658038E0,-8.403174877E-1,-2.021893501E0,2.052389860E0
9.760708559E0,-2.009842873E0,-2.392789841E0,1.343877316E0
9.765759027E0,-2.613862276E0,-2.624381542E0,1.036273479E0
9.770810486E0,-2.654858351E0,-2.698201180E0,6.746640205E-1
9.775861007E0,-2.387390137E0,-2.537106514E0,3.460612297E-1
9.780911475E0,-2.119456768E0,-2.189798355E0,2.298851013E-1
9.785961996E0,-1.826322556E0,-1.687319756E0,2.299041748E-1
9.791012517E0,-1.470318556E0,-1.013703346E0,2.410717010E-1
9.796062986E0,-1.001389503E0,-4.595479965E-1,2.518954277E-1
9.801114444E0,-4.802825451E-1,8.403873444E-2,3.134102821E-1
9.806164965E0,-7.966899872E-2,4.850292206E-1,4.421987534E-1
9.811215434E0,3.380591869E-1,7.515325546E-1,5.829153061E-1
9.816265955E0,7.283096313E-1,8.436436653E-1,8.183226585E-1
9.821316475E0,1.099461794E0,8.174638748E-1,1.198196888E0
9.826366944E0,1.261493444E0,5.625319481E-1,1.420923471E0
9.831457882E0,1.296777129E0,3.299942017E-1,1.220026731E0
9.836508350E0,1.312283278E0,1.755237579E-2,1.045405149E0
9.841558871E0,1.323436022E0,-3.963031769E-1,1.003986835E0
9.846609392E0,1.269363403E0,-7.368240356E-1,9.953622818E-1
9.851659861E0,1.291501045E0,-1.101106644E0,9.684457779E-1
9.856710382E0,1.312967539E0,-1.295166969E0,1.034577608E0
9.861722361E0,1.371746778E0,-1.418472290E0,1.292602301E0
9.866772882E0,1.568578839E0,-1.480622292E0,1.504400015E0
9.871823350E0,1.904222250E0,-1.466177940E0,1.458592892E0
9.876873871E0,2.320589304E0,-1.482381821E0,1.389698744E0
9.881924392E0,2.758328915E0,-1.440241814E0,1.242603540E0
9.886974861E0,3.102971554E0,-1.324221611E0,1.084544182E0
9.892026319E0,3.449810505E0,-1.081764221E0,1.022080421E0
9.897076840E0,3.639193058E0,-6.771087646E-1,9.845151901E-1
9.902127413E0,3.592314243E0,-3.283796310E-1,9.422874451E-1
9.907177934E0,3.331246853E0,6.714820862E-2,6.779868603E-1
9.912228455E0,2.692949295E0,6.464033127E-1,2.350926399E-1
9.917278975E0,1.966659069E0,1.094184875E0,-1.962482929E-1
9.922330225E0,1.136001587E0,1.603043556E0,-5.998063087E-1
9.927380746E0,3.372814655E-1,2.041271210E0,-7.245633602E-1
9.932431319E0,-4.887306690E-1,2.521566868E0,-4.812231064E-1
9.937481840E0,-1.164572239E0,2.955587387E0,-1.145122051E-1
9.942532361E0,-1.610355496E0,3.223830223E0,1.989619732E-1
9.947582882E0,-1.949208140E0,3.462758064E0,1.846070290E-1
9.952634184E0,-2.238663912E0,3.648512840E0,4.315176010E-1
9.957684705E0,-2.471628666E0,3.785840034E0,7.791553736E-1
9.962735277E0,-2.496904850E0,3.726557732E0,1.206632972E0
9.967785798E0,-2.572740078E0,3.595190048E0,1.084009171E0
9.972836319E0,-2.668422222E0,3.451436996E0,6.658569574E-1
9.977886840E0,-2.476382732E0,3.288111687E0,6.145359278E-1
9.982938142E0,-2.403077364E0,3.009699821E0,4.257982969E-1
9.987988663E0,-1.961669207E0,2.548413754E0,2.562314272E-1
9.993039236E0,-1.360989928E0,2.035104275E0,6.279110909E-3
9.998089757E0,-8.958084583E-1,1.490291595E0,-3.235290051E-1
1.000314028E1,-7.793531418E-1,1.137745857E0,-7.387174368E-1
1.000819080E1,-4.170804024E-1,8.456182480E-1,-1.031495929E0
1.001324210E1,9.252667427E-3,3.855152130E-1,-1.139914632E0
1.001829262E1,4.222159982E-1,-2.925014496E-2,-1.044125795E0
1.002334319E1,7.113837004E-1,-3.687286377E-1,-8.401981592E-1
1.002839372E1,8.910144567E-1,-6.292772293E-1,-6.438204050E-1
1.003344424E1,1.003054380E0,-7.595396042E-1,-3.998122215E-1
1.003849476E1,1.128714085E0,-7.967014313E-1,-5.697774887E-2
1.004354606E1,1.329365015E0,-8.448781967E-1,2.162055969E-1
1.004859658E1,1.495181322E0,-8.596925735E-1,4.702434540E-1
1.005364715E1,1.443058968E0,-5.397148132E-1,7.483550310E-1
1.005869767E1,1.290388107E0,-7.684707642E-2,1.148391008E0
1.006374819E1,1.040579915E0,4.018793106E-1,1.388702750E0
1.006879872E1,7.631082535E-1,8.102064133E-1,1.496943235E0
1.007385002E1,6.324810982E-1,1.033308029E0,1.468388796E0
1.007890054E1,5.699076653E-1,1.076219559E0,1.216452956E0
1.008395111E1,7.269300222E-1,1.013402939E0,9.836086035E-1
1.008900163E1,1.029943347E0,8.259315491E-1,5.270200372E-1
1.009405215E1,1.363369465E0,5.247592926E-1,-1.507573724E-1
1.009910267E1,1.655958533E0,1.842288971E-1,-1.037663698E0
1.010415398E1,1.827308297E0,-1.633234024E-1,-1.952463746E0
1.010920450E1,1.857459545E0,-3.636360168E-1,-2.751878262E0
1.011425507E1,1.740853071E0,-5.102300644E-1,-3.276744604E0
1.011930559E1,1.596283674E0,-6.043977737E-1,-3.679951906E0
1.012435611E1,1.324349523E0,-5.672340393E-1,-3.808240652E0
1.012940663E1,9.686890841E-1,-4.372062683E-1,-3.629534960E0
1.013445793E1,5.763742924E-1,-2.347812653E-1,-3.386897087E0
1.013950846E1,1.850534081E-1,3.513240814E-2,-3.071211815E0
1.014455903E1,-1.721958518E-1,2.838907242E-1,-2.720532894E0
1.014960955E1,-4.126300216E-1,5.067329407E-1,-2.412849188E0
1.015466007E1,-5.987741351E-1,6.199808121E-1,-2.091811419E0
1.015971059E1,-6.458139420E-1,7.852573395E-1,-1.711452961E0
1.016476189E1,-6.448234916E-1,8.517465591E-1,-1.495967627E0
1.016981241E1,-5.123255253E-1,1.019344330E0,-1.434551001E0
1.017486299E1,-3.033527136E-1,1.253204346E0,-1.441018939E0
1.017991351E1,-4.559886456E-2,1.523316383E0,-1.480821371E0
1.018496403E1,1.632470489E-1,1.726712227E0,-1.545549154E0
1.019001455E1,3.213173151E-1,1.968693256E0,-1.463033438E0
1.019506585E1,5.352805853E-1,2.098458290E0,-1.394888639E0
1.020011637E1,6.828129292E-1,2.165254593E0,-1.247068882E0
1.020516694E1,7.149135470E-1,2.269667625E0,-1.032565355E0
1.021021747E1,6.868015528E-1,2.355452061E0,-7.356107235E-1
1.021526799E1,5.553383827E-1,2.328147411E0,-4.435104132E-1
1.022031851E1,4.712744355E-1,2.294364929E0,-2.041370869E-1
1.022536976E1,3.849627674E-1,2.251739025E0,2.674245834E-2
1.023042028E1,3.293787539E-1,2.140523911E0,1.919084787E-1
1.023547085E1,3.103334010E-1,2.014595509E0,1.247967482E-1
1.024052137E1,3.751620054E-1,1.775955677E0,-9.382128716E-2
1.024557189E1,4.290423095E-1,1.516866684E0,-3.370164633E-1
1.025062241E1,3.990245461E-1,1.246932030E0,-6.131235361E-1
1.025567372E1,4.002546072E-1,8.501644135E-1,-9.493730068E-1
1.026072424E1,4.424010515E-1,4.332904816E-1,-1.310434103E0
1.026577481E1,4.822634459E-1,3.231239319E-2,-1.707920671E0
1.027082533E1,4.838514328E-1,-4.053001404E-1,-1.988202572E0
1.027587585E1,4.748965204E-1,-7.442731857E-1,-2.188351631E0
1.028092637E1,4.648861289E-1,-1.139033318E0,-2.331367254E0
1.028597767E1,4.406583309E-1,-1.444735527E0,-2.463986397E0
1.029102819E1,5.096224546E-1,-1.696131706E0,-2.616130829E0
1.029607877E1,5.840410590E-1,-1.941015244E0,-2.823332787E0
1.030112929E1,6.514980793E-1,-2.151722908E0,-3.094694138E0
1.030617981E1,7.189227343E-1,-2.281533241E0,-3.385643959E0
1.031123033E1,7.944698334E-1,-2.399698257E0,-3.663114309E0
1.031628163E1,9.003801346E-1,-2.429510117E0,-3.942327023E0
1.032133215E1,9.272989631E-1,-2.422382355E0,-4.055587769E0
1.032638272E1,8.978496194E-1,-2.368654251E0,-4.230037212E0
1.033143325E1,8.675126433E-1,-2.212121010E0,-4.378150940E0
1.033648377E1,8.358414769E-1,-1.923089027E0,-4.455938816E0
1.034153429E1,8.135938644E-1,-1.595117569E0,-4.488703251E0
1.034658559E1,8.218695521E-1,-1.398343086E0,-4.363593102E0
1.035163611E1,8.256866932E-1,-1.203594208E0,-4.088533401E0
1.035668668E1,8.824950457E-1,-1.001369476E0,-3.750138044E0
1.036173720E1,8.058159351E-1,-7.068281174E-1,-3.346393585E0
1.036678772E1,7.361740470E-1,-4.193897247E-1,-3.048407078E0
1.037183825E1,5.974380970E-1,-1.939334869E-1,-2.808691025E0
1.037688955E1,4.045175016E-1,-8.764648438E-2,-2.352423906E0
1.038194007E1,2.996815443E-1,-2.653474808E-1,-1.845663428E0
1.038699064E1,2.093125582E-1,-8.008203506E-1,-1.282427073E0
1.039204116E1,2.384737134E-1,-1.837310791E0,-7.446510792E-1
1.039709168E1,3.315726519E-1,-3.358869553E0,-4.150938988E-1
1.040214220E1,6.004687548E-1,-4.789574623E0,-3.453278542E-1
1.040719351E1,9.909709692E-1,-5.791076660E0,-4.683005810E-1
1.041224408E1,1.367989659E0,-6.221598625E0,-7.813489437E-1
1.041729465E1,1.731572747E0,-6.365267754E0,-1.153248310E0
1.042234517E1,2.073521376E0,-6.449674606E0,-1.543949127E0
1.042739575E1,2.461898327E0,-6.541657448E0,-1.986886621E0
1.043244632E1,2.766269922E0,-6.399319649E0,-2.455356121E0
1.043749746E1,3.109475851E0,-6.222460747E0,-2.850775242E0
