time,seconds_elapsed,z,y,x
1686426756925999900,0.097999755859375,0.0695037443369627,0.42468847060501574,0.26103761212714016
1686426756935944700,0.10794482421875,0.1807341682910919,0.35873628126978874,0.17594521698150783
1686426756945889800,0.117889892578125,0.28022037843763825,0.34897505797296763,0.09627975138858891
1686426756955835000,0.1278349609375,0.40717151861488815,0.353536082278192,0.042707023290870706
1686426756965779700,0.13777978515625,0.46495969071686266,0.3287345262378454,0.05235120977901388
1686426756975724800,0.147724853515625,0.6650123074620962,0.14119535410702228,0.2363218894730322
1686426756985668600,0.157668701171875,0.9243225843399763,-0.05392039075791835,0.43956469882801175
1686426756995613700,0.16761376953125,1.0753075110554695,-0.13271861766278742,0.7147799624547362
1686426757005558800,0.177558837890625,1.1624696616798638,-0.1271516311854124,0.8892480560883879
1686426757015504000,0.18750390625,1.2310913624852895,-0.08885638732165098,0.8942560935087501
1686426757025448700,0.19744873046875,1.2313415378540753,0.002288110937178135,0.8291641011994332
1686426757035393800,0.207393798828125,1.1525023944169281,0.12993395538032054,0.7023509081881493
1686426757045339000,0.2173388671875,0.9941513228476047,-0.0911976897507906,0.5538631320506334
1686426757055283700,0.22728369140625,0.9853507612764835,-0.5112336583748459,0.15713979608342052
1686426757065228800,0.237228759765625,1.260471770748496,-0.27647213182002306,-0.07910334733128548
1686426757075172600,0.247172607421875,1.3065104683458804,0.4610118298739195,0.31780769322775304
1686426757085117700,0.25711767578125,0.7525310164391994,0.4521937326461076,1.725697711186111
1686426757095062800,0.267062744140625,0.4341828596591949,0.1138429445400834,1.3243366324156522
1686426757105007900,0.2770078125,0.5254641360402107,0.34760610770732164,0.9249597131997346
1686426757114952700,0.28695263671875,0.4328413819223642,0.27538199849575756,0.8187095618762076
1686426757124897800,0.296897705078125,0.4554886825382709,0.25872546272724867,0.3283798675812781
1686426757134843000,0.3068427734375,0.5848889694333076,0.5736833925470709,0.06880816328823566
1686426757144787700,0.31678759765625,0.4901099140644073,0.7501593188717961,-0.1284220895126462
1686426757154731800,0.326731689453125,0.5478291125833988,0.8091828779876231,-0.12386223425120114
1686426757164676600,0.336676513671875,0.7602952206999063,0.8228206504568457,0.027720073835551737
1686426757174621700,0.34662158203125,0.9069371497750282,0.8903434501096605,0.03666705814003944
1686426757184566800,0.35656689453125,1.0578010804593563,1.2653405458286404,-0.0916655995234847
1686426757194511600,0.36651171875,0.9758025962084531,1.5693246616914867,-0.335564956779778
1686426757204456700,0.376456787109375,0.6624982788145541,1.6402140151679514,-0.47200434853136536
1686426757214401800,0.38640185546875,0.4099801462948322,1.6647399691373108,-0.44804654983878134
1686426757224347000,0.396346923828125,0.2895785738915205,1.6319582279980183,-0.49695612669736144
1686426757234291700,0.406291748046875,0.2391927870005369,1.6029901999279856,-0.7534937239915132
1686426757244235800,0.41623583984375,0.24667232910096643,1.5694371821552515,-0.894039089757204
1686426757254180600,0.4261806640625,0.1776929008990526,1.5395780504643917,-0.7743424507528543
1686426757264125700,0.436125732421875,0.3311211291134357,1.641962612400949,-0.8312135080099106
1686426757274070800,0.44607080078125,0.47534313756525515,1.7815882329732178,-0.9189683638304471
1686426757284015600,0.456015625,0.6238210498958826,1.822071634531021,-1.0197072043865918
1686426757293960700,0.465960693359375,0.6370265684276819,1.9149998013362288,-1.1840613157629967
1686426757303905800,0.47590576171875,0.33284020799100394,1.9244588268160818,-1.1971645429641007
1686426757313851000,0.485850830078125,0.01016542018353939,1.9470546895056962,-1.2801520382523537
1686426757323795000,0.495794921875,0.059195993073284624,2.259970007582009,-1.4134867419868706
1686426757333739800,0.50573974609375,0.32887481149137016,2.561033559823036,-1.07937227627635
1686426757343684600,0.5156845703125,0.541185436785221,2.690393806968629,-0.732514648848772
1686426757353630000,0.5256298828125,0.8918443561919033,2.7214564692303536,-0.44676820046603677
1686426757363574800,0.53557470703125,1.1913622864261268,2.5525720209479332,-0.0442851319283247
1686426757373519600,0.54551953125,1.2917682417660952,2.196182887326181,0.24462825605273245
1686426757383464700,0.555464599609375,1.1264220506124198,1.841904462248087,0.2329220361679792
1686426757393409800,0.565409912109375,0.7908569477021694,1.679860965901613,-0.29728607952892777
1686426757403355000,0.57535498046875,0.018520612607337533,1.0829103872746229,-0.8951409135192632
1686426757413299000,0.585298828125,-0.9682429746091366,0.24698680187761782,-1.3920803813427687
1686426757423243800,0.595243896484375,-1.5176549724698065,-0.08606734112501144,-1.7423697367846964
1686426757433188600,0.605188720703125,-1.8172142576277255,0.03731967682987451,-1.7051064663171767
1686426757443134000,0.615134033203125,-1.8566531185686588,0.6014350305646657,-1.268250588056445
1686426757453078800,0.625078857421875,-1.8217665141046047,1.104490058659017,-0.7992758164793252
1686426757463023600,0.635023681640625,-1.5512626430392265,1.5199853151135145,-0.33396950428187844
1686426757472968700,0.64496875,-0.7555156582731754,1.7545586256198584,0.507054034602642
1686426757482913800,0.654913818359375,-0.2487784345347434,1.7372120617605744,1.4077508286833762
1686426757492857600,0.664857666015625,-0.35296924217566844,1.7634946501389144,1.921801005783677
1686426757502802700,0.674802734375,-0.7719042638204991,1.8423324784018098,2.1806033331394192
1686426757512747500,0.68474755859375,-1.390299489275366,2.1524998129442334,2.0822768144220114
1686426757522692400,0.6946923828125,-1.9266379244208334,2.2415146056979895,1.9472984351336955
1686426757532637700,0.7046376953125,-2.0370612697757777,2.2485379284635183,2.1314918039679527
1686426757542582500,0.71458251953125,-2.0132044472396373,2.1624863694295287,2.506552612572908
1686426757552527400,0.72452734375,-1.7802853336811064,1.8503800296485422,2.992231850713491
1686426757562472700,0.73447265625,-1.5625931614793835,1.282950729060173,3.17757906575799
1686426757572417500,0.74441748046875,-1.222728461679071,0.37776992143318056,3.139112849241495
1686426757582361300,0.754361328125,-0.8487922731898725,-0.3054126873612404,3.130108289530873
1686426757592306700,0.764306640625,-0.5826524425528943,-0.6028972120717168,3.1765836249798536
1686426757602251500,0.77425146484375,-0.2819780357599258,-1.1649936271995305,3.7278625857561822
1686426757612196400,0.7841962890625,0.05533303403481841,-2.0253265544489025,4.635474858313799
1686426757622141700,0.7941416015625,0.4116191456735134,-2.624121884159744,5.6030456327497955
1686426757632086500,0.80408642578125,0.8348201541997492,-3.0888518577739594,6.392713662928342
1686426757642031400,0.81403125,1.3579485407687724,-3.6598549251958725,6.916912893599271
1686426757651976700,0.823976806640625,1.830952860122919,-4.413922357422114,7.28129916345477
1686426757661921500,0.833921630859375,2.4391022936344147,-5.166498966568708,7.306592010143399
1686426757671865300,0.843865234375,3.0615503016114234,-5.615014302963018,6.806295048585533
1686426757681810700,0.853810791015625,3.55190337678194,-5.718427915686369,6.061986501568556
1686426757691755500,0.863755615234375,3.802528827422857,-5.640266233119368,5.179556016540527
1686426757701700400,0.873700439453125,3.829414496260881,-5.381722264438867,4.278094083306193
1686426757711645700,0.883645751953125,3.52601724037528,-4.886835929752886,3.4857232239097353
1686426757721590500,0.893590576171875,2.9742309145987034,-4.464695682325959,2.978449409076571
1686426757731535400,0.903535400390625,2.4042215343892575,-4.107828702059388,2.6709295203030106
1686426757741480700,0.913480712890625,1.7778081299126147,-3.6696839530318974,2.4448762008607385
1686426757751425500,0.923425537109375,1.3492705826640128,-3.194398975394666,2.1395038455098865
1686426757761369300,0.933369384765625,1.1397755993127823,-2.750300286398828,1.7583862210839987
1686426757771314700,0.943314697265625,0.9131716602504253,-2.239103452903032,1.2267758373737334
1686426757781259500,0.953259521484375,0.5238917721569538,-1.768637565985322,0.4271282649725675
1686426757791204400,0.963204345703125,0.8798808005452156,-1.060645656235516,-0.6836363439112901
1686426757801149700,0.973149658203125,2.1607962243855,-0.3892494929552078,-2.1298563117206095
1686426757811094500,0.983094482421875,4.09695250325799,0.2821868562050164,-3.474341998195648
1686426757821039400,0.993039306640625,5.337524226272106,0.7166809737704694,-4.136925617206097
1686426757830984700,1.002984619140625,4.640707498270273,1.552564227157086,-4.595466673052311
1686426757840929500,1.012929443359375,1.6741829202651977,1.9846857703723013,-4.603305696114897
1686426757850873300,1.022873291015625,1.0531634837865829,2.4105808402881026,-3.0092741709291935
1686426757860818700,1.032818603515625,0.5223264225363731,2.464420567025244,-0.9292027575969696
1686426757870763500,1.042763427734375,-0.9186649239044636,1.8323744173586367,-0.13233984747827052
1686426757880708400,1.052708251953125,-0.6253858880598098,0.4257881024099886,0.005164250895380974
1686426757890653700,1.06265380859375,-0.7003085156403481,-0.21219752030819652,0.3921463834404945
1686426757900598500,1.0725986328125,-1.2046094521425663,-0.011256722551584244,0.05453355422019958
1686426757910543400,1.08254345703125,-0.6935865139089524,0.4019073144763708,-0.9719880063563585
1686426757920488700,1.09248876953125,-1.3191114451132715,-0.4407021784253418,-1.0907441496402024
1686426757930433500,1.10243359375,-1.751460513474047,-0.6658138331033289,-0.8170049499154091
1686426757940377600,1.112377685546875,-0.9796890822529792,-0.8333427751235664,-0.5119382995128632
1686426757950322700,1.12232275390625,-0.2923078527249396,-1.6070863832004367,-0.33177988528311253
1686426757960267500,1.132267578125,0.425647524895519,-2.3572889566920696,-0.08808744877576828
1686426757970212400,1.14221240234375,1.37852371128574,-2.115527342116833,0.5115010771393775
1686426757980157700,1.15215771484375,0.4051322678722441,-2.0498450557641683,0.9281915347278118
1686426757990102500,1.1621025390625,0.3757986213602125,-2.1627885672464964,0.5811193877667188
1686426758000047400,1.17204736328125,0.4910673609197139,-2.0396423723101615,-0.15707272219657897
1686426758009992700,1.18199267578125,0.17822087029591202,-2.2481410381004214,-0.3073386869877577
1686426758019937500,1.1919375,0.754355893778801,-2.1332979766070843,-0.4395207135558128
1686426758029881600,1.201881591796875,0.280331875988096,-2.3179630546063184,-0.87644088922441
1686426758039826700,1.21182666015625,-0.26787352256178854,-1.5544818973466754,0.1801940700650215
1686426758049771500,1.221771484375,-0.40599472992047664,-0.7356644911818205,1.4559008193463086
1686426758059716400,1.23171630859375,-0.19376286895126102,-1.0812006607472895,1.5389584572613237
1686426758069661700,1.24166162109375,0.03887655088305473,-1.4627236511036752,0.9790537069588899
1686426758079606500,1.2516064453125,0.07258695117458701,-1.6239721976801753,-0.24202830268740652
1686426758089551400,1.26155126953125,0.04189049187675118,-1.3643550468102097,-1.5178531253904104
1686426758099496700,1.27149658203125,0.20797171930670738,-0.7296300333231687,-2.1528408814668656
1686426758109440500,1.2814404296875,1.172134877256304,-0.5361573794901371,-2.353939792394638
1686426758119385600,1.291385498046875,1.1946085748709738,0.07557049703001975,-2.5807939068257806
1686426758129330700,1.30133056640625,-0.25310616154074667,2.004241096322238,-2.254913600975275
1686426758139275500,1.311275634765625,-1.3287832365609704,4.577318729682267,-1.9417735342323779
1686426758149220400,1.321220458984375,-1.1096667306445538,6.063650050866603,-1.9933733730882406
1686426758159165700,1.331165771484375,-0.5846154131889343,6.489751310878992,-1.5542635784208774
1686426758169110500,1.341110595703125,-0.4449497528672218,5.6988440942943095,-1.1030097569733857
1686426758179055400,1.351055419921875,0.15292729295492172,4.8194461088299745,-0.11990589784085749
1686426758189000700,1.361000732421875,0.5111198227368295,4.60058737706691,1.4797709397554397
1686426758198944500,1.370944580078125,0.38692411874756216,2.986716009901464,1.985737179121375
1686426758208889600,1.3808896484375,0.25413974237218495,1.245036885729432,2.8228227940350767
1686426758218834700,1.390834716796875,0.004424976835399866,0.20367256080806254,2.295257886323333
1686426758228779500,1.400779541015625,0.07457929403558373,-1.2828580823406577,1.4694155499577521
1686426758238724400,1.410724365234375,0.1800536386810243,-1.7528432000041008,0.5483019907921552
1686426758248669700,1.420669677734375,0.050956134124845266,-1.2118225983917712,-0.7170066985934972
1686426758258614500,1.430614501953125,-0.12984569257497786,-0.5418716654837131,-1.224143150782585
1686426758268559400,1.440559326171875,-0.5533446611344814,-0.7374468445539474,-0.8379933774083852
1686426758278504700,1.450504638671875,-0.6449507855556905,-1.1429308484733105,-0.5739402899175882
1686426758288448500,1.460448486328125,0.09556713700667023,-0.4288812461197376,-0.5789338604211807
1686426758298393600,1.4703935546875,-0.15112915749177336,-0.08120236543715,-0.19409984582066533
1686426758308338400,1.48033837890625,-0.18883344972506164,0.33053602270185944,-0.07108312248289585
1686426758318283500,1.490283447265625,0.00458959281258285,0.8516548230141401,-0.18112872056663035
1686426758328228400,1.500228271484375,0.15185878694057464,1.141297694313526,-0.11336509789526462
1686426758338173700,1.510173583984375,0.11394450521841644,0.9759551564216613,0.18445581916272638
1686426758348118500,1.520118408203125,0.19268069973774254,0.5532926386862993,0.40463177100419995
1686426758358063400,1.5300634765625,-0.13809797261357307,0.4582248295038938,0.7461480374038219
1686426758368008700,1.5400087890625,0.35318916853666305,0.11760171255171298,1.0359797092735767
1686426758377952500,1.549952392578125,0.28843342244438824,0.3295318140953779,0.8165688965857029
1686426758387897600,1.559897705078125,0.20837036323547362,0.13892156395614147,0.5680342807441949
1686426758397842400,1.569842529296875,-0.09823365280218421,-0.1888601916015148,0.4258955083072185
1686426758407787500,1.57978759765625,-0.28251572283320125,-0.6161889475822449,0.31822365361750127
1686426758417732400,1.589732421875,-0.2532487848818302,-1.849179421687126,0.18119886319339273
1686426758427677700,1.599677734375,-0.16107311694435775,-3.3956115758299825,0.2009118639230728
1686426758437622500,1.60962255859375,-0.2860626747250557,-3.886758431726694,0.06973346143960953
1686426758447567400,1.6195673828125,-0.5733293914776295,-3.7337931448489425,-0.17375731501579283
1686426758457512700,1.6295126953125,-0.5126770621161908,-2.9018028072476385,-0.5004664729058742
1686426758467456500,1.63945654296875,0.09918167424201965,-1.1262480092197655,-1.045065517526865
1686426758477401600,1.649401611328125,0.39440965219736096,0.9397159683048725,-1.5050322222620247
1686426758487346400,1.659346435546875,0.32385793317742645,2.0345804127454756,-1.5574001228809355
1686426758497291500,1.66929150390625,-0.22892098383307455,1.879657562059164,-1.2781029967680573
1686426758507237400,1.6792373046875,-0.6442635339438915,1.3853846830964087,-0.9467004203647374
1686426758517182500,1.689182373046875,-0.6054220543742179,0.624950346186757,-0.9151295163199304
1686426758527127600,1.69912744140625,-0.23907296001315115,-0.1604313849747181,-0.7808063860699535
1686426758537072400,1.709072265625,0.10729892972409724,-1.0699930380344391,-0.3640530923783779
1686426758547017500,1.719017578125,0.33906653515994545,-2.072957781934738,0.28779139821380373
1686426758556961500,1.72896142578125,0.1758504879027605,-1.939732968315482,0.7066971937641501
1686426758566906400,1.73890625,-0.28154607408344745,-1.2768027278244494,0.822247526744008
1686426758576851700,1.748851806640625,-0.6347019248723983,-0.452782346189022,0.8980226064354181
1686426758586796500,1.758796630859375,-0.627080343952775,0.08241057218313216,1.110170734643936
1686426758596741400,1.768741455078125,-0.29156302570700643,0.22756723113656044,1.379023039110005
1686426758606686700,1.778686767578125,0.05851181020140647,0.03725158002972603,1.3694739972591399
1686426758616631600,1.788631591796875,0.4580027111858129,0.3461526940286159,1.0955850138001144
1686426758626576400,1.798576416015625,0.5963689793467521,0.7540285615205764,0.8975926905855536
1686426758636521500,1.808521484375,0.2213344742268324,0.895643017822504,0.6244381588809191
1686426758646465500,1.818465576171875,-0.0890495718061924,0.8079886997669935,0.3382828374363482
1686426758656410400,1.828410400390625,-0.2741992001856677,0.866765298384428,-0.22533932595402
1686426758666355700,1.838355712890625,-0.22406707752849905,1.0640151326686142,-0.6070785894095897
1686426758676300500,1.848300537109375,-0.017443868487607688,0.07757657615542411,-0.09777122292220591
1686426758686245400,1.858245361328125,0.09820084651112555,-2.344310378783941,0.5899347085155546
1686426758696190700,1.868190673828125,-0.5026555439153686,-1.902244656920433,0.11868358950428665
1686426758706135600,1.878135498046875,-0.6671025577396154,-0.422289592769742,-0.30895408629514276
1686426758716080400,1.888080322265625,-0.19232695439662784,0.1622609384894371,-0.47625393226724116
1686426758726025500,1.898025390625,0.23931787468492982,0.1773667376846075,-0.5215225222749635
1686426758735969500,1.907969482421875,0.15624503920078275,-0.07774901011288166,-0.4228864261517301
1686426758745914400,1.917914306640625,-0.18292082814779131,-0.8497440209567546,-0.277179129311908
1686426758755859700,1.927859619140625,-0.39081889769639816,-1.7397575084596872,0.01564140390921384
1686426758765804500,1.937804443359375,-0.6903763927560299,-2.292840303787589,0.3896706044441089
1686426758775749400,1.947749267578125,-1.0604396122694015,-2.327985851448774,0.8857984270911663
1686426758785694700,1.95769482421875,-1.087511159068346,-2.298848604291677,1.4470257312342523
1686426758795639600,1.9676396484375,-0.48134340089336036,0.8827145626664161,2.579456520742178
1686426758805584400,1.97758447265625,-0.364831529404968,9.8883369340837,3.569769288340211
1686426758815529500,1.987529541015625,0.11288593607619404,11.440090575510263,-0.6763880532834678
1686426758825473500,1.9974736328125,0.8392160510711372,8.07182059559226,-1.9688718229077755
1686426758835418400,2.00741845703125,2.0741979912541804,3.771264505109191,-0.6324470586176961
1686426758845363700,2.01736376953125,2.4327156613372263,0.20064006124436853,-1.545276846627891
1686426758855308500,2.02730859375,1.8773878635615109,-2.110369520962238,-1.0817749535039067
1686426758865253400,2.03725341796875,0.24452128854691982,-1.9919547384619711,0.6253526433773339
1686426758875198700,2.04719873046875,-0.900963920584321,-0.6849199539810419,0.7360196612950414
1686426758885143600,2.0571435546875,-1.3205880935370922,0.17112813555598258,0.9608619244471192
1686426758895088400,2.06708837890625,-0.6451449929535389,0.17412205667495725,1.3354904791146516
1686426758905033500,2.077033447265625,0.28674831890165803,0.260531927627325,1.0303493752364068
1686426758914977500,2.0869775390625,0.8759364468336105,0.3784136261641979,0.8875795383542776
1686426758924922400,2.09692236328125,0.8959925619125366,0.6066355218172073,0.46697556058391926
1686426758934867700,2.10686767578125,0.5369390313871204,0.8308826686203479,-0.6082691874336451
1686426758944812500,2.1168125,0.17815818032324313,0.8476198684096335,-1.6073428421795368
1686426758954757400,2.12675732421875,-0.013210048576444387,0.30687165399789806,-0.982913158866018
1686426758964702700,2.13670263671875,-0.13257540979981422,-0.3079635408878326,-0.12407295439243315
1686426758974647600,2.1466474609375,-0.09770824068859219,-0.5160796371012926,0.2783012469433248
1686426758984592400,2.15659228515625,0.04716565580070019,-0.4755658404052257,0.32810967233777044
1686426758994537500,2.166537353515625,0.14737842665612697,-0.31660277441740037,0.35801344688795506
1686426759004481500,2.1764814453125,0.04320785808563232,-0.3909393457382917,0.6955496306754648
1686426759014426400,2.18642626953125,-0.03779343182146549,-0.33032734838724137,0.9354819109316914
1686426759024371700,2.196371826171875,0.040529724917560815,0.04674070838689804,1.2085977180611343
1686426759034316500,2.206316650390625,0.06640007923319935,0.4166086245238781,0.8888043309088796
1686426759044261400,2.216261474609375,0.09434081008210778,0.31979952463209627,0.3677018972095102
1686426759054206700,2.226206787109375,0.060198155853152274,0.0005266542226076126,0.09552359012588858
1686426759064151600,2.236151611328125,-0.04585384254977107,-0.13717968872487543,0.03942782809026539
1686426759074096400,2.246096435546875,-0.16005597579106687,-0.17423077774643897,0.13412578104697168
1686426759084041500,2.25604150390625,-0.22269056501090526,0.020225041905045506,0.044100934467837215
1686426759093985500,2.265985595703125,-0.19811463441997765,0.1848380964785814,-0.06937975263111293
1686426759103930400,2.275930419921875,-0.13625731318295,0.09325228419303894,-0.0008748100731521845
1686426759113875700,2.285875732421875,-0.10169029606208205,-0.07805296149551869,0.1292329675041139
1686426759123820500,2.295820556640625,0.11822072123289108,0.11488894646167755,-0.011062222892791032
1686426759133765400,2.305765380859375,0.1291382749579847,0.06742752258479595,0.3378235493615269
1686426759143710700,2.315710693359375,0.02434051439985633,0.015500351470708846,0.18118132753670216
1686426759153655600,2.325655517578125,-0.06208806125298142,-0.003367430606484413,0.07436682032868265
1686426759163600400,2.335600341796875,-0.12301847690343856,-0.03612053017318249,-0.007983473034575582
1686426759173545500,2.34554541015625,-0.1400261641971767,-0.01368891813457012,-0.05077376329526305
1686426759183489500,2.355489501953125,-0.09006773587279021,0.01642389605641365,-0.10405746358484029
1686426759193434400,2.365434326171875,-0.055243017663806675,0.041727264139056204,-0.16855580084994434
1686426759203379700,2.375379638671875,-0.05528985248021781,0.03391454456150531,-0.18977124203182755
1686426759213324500,2.385324462890625,-0.10086020191349089,0.03532090422809124,-0.1762731702942401
1686426759223269400,2.395269287109375,-0.16148578939847646,0.02182663188278675,-0.17886596326641738
1686426759233214700,2.405214599609375,-0.16280556676015256,0.07881400899589061,-0.15361870928518473
1686426759243159600,2.41515966796875,-0.09108180828616022,0.037737902241945266,-0.10540785528048872
1686426759253104400,2.4251044921875,-0.0589899491071701,0.02756488327383995,0.026294936403259632
1686426759263049700,2.4350498046875,-0.08152494845502078,0.019538813206553457,0.02654123931452632
1686426759272993500,2.44499365234375,-0.10099354596957563,-0.023657938963174818,0.03441898695230484
1686426759282938400,2.4549384765625,-0.13184702246002852,-0.09014204321801662,0.06653254650644957
1686426759292883700,2.4648837890625,-0.12091821668855846,-0.1578992361485958,0.10107742486074567
1686426759302828500,2.47482861328125,-0.07694236990511417,-0.0734030898630619,0.07581219683140515
1686426759312773400,2.4847734375,-0.03707987672463059,0.011436755293607711,0.06902355960458517
1686426759322718700,2.49471875,-0.02387888823747635,-0.002935468930006027,0.058094534637406464
1686426759332663600,2.50466357421875,-0.09564312485232948,0.0058306058496236796,0.046041547141596674
1686426759342608400,2.5146083984375,-0.15541457972601055,-0.00014963760375976562,0.08771649657152593
1686426759352553700,2.5245537109375,-0.13744557311944663,0.003952537018060684,0.0904524243414402
1686426759362498600,2.53449853515625,-0.09086677729599177,0.058523500639200206,0.1044254931796342
1686426759372442400,2.5444423828125,-0.08897234185151755,-0.011248539245128631,0.15370141913257537
1686426759382387700,2.5543876953125,-0.05063187060654163,0.0005593874484300613,0.15595540860444307
1686426759392332500,2.56433251953125,-0.05281330629885196,0.02357201424539089,0.2142124403271824
1686426759402277400,2.57427734375,-0.05586407217159867,0.01611585302054882,0.22938092949502167
1686426759412222700,2.58422265625,-0.018579028263688086,0.055012862169742584,0.2283770862147212
1686426759422167600,2.59416748046875,-0.020688567763566968,0.004541150560975074,0.226428947821632
1686426759432112400,2.6041123046875,0.0014046791661530733,0.13662439292967318,0.12121888013556599
1686426759442057700,2.6140576171875,-0.025146643150970337,-0.02551438048481941,0.21872999081686137
1686426759452002600,2.62400244140625,-0.01868482672572136,-0.02832768433988094,0.20763649600297213
1686426759461946400,2.6339462890625,-0.028901538705080745,-0.06723404583930968,0.16661650335043668
1686426759471891500,2.643891357421875,-0.06292129720672965,-0.0978898808658123,0.22390293647535145
1686426759481836500,2.65383642578125,-0.049279213888570664,-0.13302198452353475,0.25358020879328247
1686426759491781400,2.663781494140625,0.00010587152726948261,-0.20468787533044813,0.30925533426403995
1686426759501726500,2.6737265625,0.05737498819120228,-0.1103641625136137,0.2782317619036883
1686426759511671600,2.683671630859375,0.09041983724609017,-0.04171382013559341,0.32378727909401056
1686426759521616400,2.693616455078125,0.11170812446847557,-0.023920389291644095,0.3675429072555154
1686426759531561500,2.7035615234375,0.1307605423975736,0.0031306992411613463,0.37993024127222597
1686426759541506600,2.713506591796875,0.14276537990272045,0.01106207676231861,0.3760118987847119
1686426759551450400,2.723450439453125,0.11824936280548572,0.030560557958483694,0.3977179730277508
1686426759561395500,2.7333955078125,0.07231339493021369,0.014250643670558928,0.44502829799614846
1686426759571340300,2.74334033203125,0.09273147518932819,0.005672784939408302,0.44426571612581606
1686426759581285400,2.753285400390625,0.09634213996715843,-0.04007423623502254,0.41798217789940534
1686426759591230500,2.76323046875,0.09213993903696537,-0.04233107525110245,0.36336489091850815
1686426759601175600,2.773175537109375,0.08817103540599346,-0.03758183489739895,0.32902978285737333
1686426759611120400,2.783120361328125,0.06359948872923851,-0.05370587122440338,0.30694961460493503
1686426759621065500,2.7930654296875,0.03320435046553612,-0.05612403828203678,0.2499778734523803
1686426759631010600,2.803010498046875,0.004327215549349785,-0.045343116548657414,0.21899485229812563
1686426759640955400,2.812955322265625,-0.03997194490432739,-0.03564882100820541,0.1423423321850598
1686426759650899500,2.8228994140625,-0.030803134542703628,-0.04257657444477081,0.07189663082286715
1686426759660844300,2.83284423828125,-0.019672084197402,-0.03383154245316982,0.0029084347926080227
1686426759670789400,2.842789306640625,-0.016353095842525363,-0.0318500132471323,-0.052271016115695235
1686426759680734500,2.852734375,-0.020311697275191543,-0.0316191271007061,-0.10992387140020728
1686426759690679600,2.862679443359375,-0.043214872348308564,-0.03201718650758266,-0.16014979155436157
1686426759700624400,2.872624267578125,-0.05175108389481902,-0.004162380376458168,-0.21038922877721486
1686426759710569500,2.882569580078125,-0.05623977361619472,0.0031751229047775266,-0.24156053904518485
1686426759720514600,2.8925146484375,-0.04847396192029118,-0.003745616269111633,-0.2652998726814985
1686426759730459400,2.90245947265625,-0.03151464381292462,-0.010756956335902214,-0.2985929243437946
1686426759740403500,2.912403564453125,0.0018675474375486373,-0.0026689269483089447,-0.31152408291362227
1686426759750348300,2.922348388671875,0.021336364147812127,-0.013450433203577994,-0.3184776283785701
1686426759760293400,2.93229345703125,0.03588379880785942,-0.06761456958949566,-0.328220439235866
1686426759770238500,2.942238525390625,0.03703998310565948,-0.01924012252092361,-0.3225601484518498
1686426759780183600,2.95218359375,0.021971593311429023,-0.0345686245560646,-0.2923762417860329
1686426759790128400,2.96212841796875,0.018717559951543807,-0.03278583279252052,-0.2744282049022615
1686426759800073500,2.972073486328125,0.03599953414201736,-0.022521628409624097,-0.2499610684480518
1686426759810018600,2.9820185546875,0.052342181655764576,0.0054500820994377135,-0.21108261786885557
1686426759819963400,2.99196337890625,0.07097498593330383,0.03535831362903118,-0.16222528265416622
1686426759829908500,3.001908447265625,0.08824526968598365,0.05141688350439071,-0.11054156490713357
1686426759839852300,3.011852294921875,0.07274316464960574,0.03987374522686005,-0.06399060693867505
1686426759849797400,3.02179736328125,0.04314531424343586,0.032656653454899785,-0.03609079262204468
1686426759859742500,3.031742431640625,0.07646291582509875,0.05291968928277492,-0.03259389041699469
1686426759869687300,3.041687255859375,0.13576324605569243,0.06308160233497619,-0.02580832193009555
1686426759879632400,3.05163232421875,0.11077508140206337,0.05655541543662548,-0.0003914104703813791
1686426759889577500,3.061577392578125,0.1279137015990913,0.05804594625532627,0.03844568518511951
1686426759899522600,3.0715224609375,0.14712357511222363,0.06340016676485538,0.09888736747056245
1686426759909467400,3.08146728515625,0.1333469786942005,0.05078326177597046,0.15413995668031275
1686426759919412500,3.09141259765625,0.16271204325780272,0.06532149021625519,0.17966653905957936
1686426759929357600,3.101357666015625,0.19265023153424263,0.09192191237211227,0.2150393926706165
1686426759939301400,3.11130126953125,0.14800795673131942,0.08829904569983482,0.25850407506152984
1686426759949246500,3.12124658203125,0.10053367337286472,0.07983341517150401,0.24286840677335858
1686426759959191300,3.13119140625,0.08544175657257437,0.054443537849187845,0.24541882190853356
1686426759969136400,3.141136474609375,0.06406871367618441,0.051069092980027195,0.2622906809281558
1686426759979081500,3.15108154296875,0.04697787814363837,0.057221185868978494,0.26153438266813755
1686426759989026600,3.161026611328125,0.02964928833246231,0.040353053176403045,0.275970977364853
1686426759998971400,3.170971435546875,0.005697334858775139,0.017685878816246985,0.29356961628906425
1686426760008916500,3.18091650390625,0.013044775012135504,0.02467442252933979,0.28611710832603277
1686426760018861600,3.190861572265625,0.020543606334924698,0.025640052691102026,0.2593503166273236
1686426760028806400,3.200806396484375,0.004535743733495474,0.01925122843682766,0.23894041967466473
1686426760038750500,3.21075048828125,-0.0074514850497245785,0.08787176019847392,0.14524243754073976
1686426760048695300,3.2206953125,0.01993577663488686,0.08411036183834075,0.1974182496536523
1686426760058640400,3.230640380859375,0.017634440889954566,-0.009660977792739868,0.11973097966536879
1686426760068585500,3.24058544921875,-0.00676715604737401,-0.03405775242447853,0.08550101247914135
1686426760078530600,3.250530517578125,-0.055287587457895276,-0.07317921797931194,0.12611892713680864
1686426760088475400,3.260475341796875,-0.030379794564098117,-0.04794716156721115,0.129423960031569
1686426760098420500,3.27042041015625,0.010398717482760549,-0.04717617719471454,0.12504852142632006
1686426760108365600,3.280365478515625,0.0011064999371767042,-0.04395253897309303,0.1303717622756958
1686426760118310400,3.290310302734375,-0.04481938493549824,-0.024259996509552,0.10908745710868388
1686426760128255500,3.30025537109375,-0.08288345039188862,0.005405073913931847,0.08602642459273338
1686426760138199300,3.31019921875,-0.0820293908458203,0.031086043137311933,0.061750682524777945
1686426760148144400,3.320144287109375,-0.068448536195606,0.03537234215438366,0.04094966736268252
1686426760158089500,3.33008935546875,-0.06390110202431679,0.029916999357938765,0.03869911195691675
1686426760168034600,3.34003466796875,-0.08615048936381936,0.02767418886721134,0.04435216928254813
1686426760177979400,3.3499794921875,-0.09495265837013721,0.06879822641611098,0.059223502134718
1686426760187924500,3.359924560546875,-0.09841668121889233,0.002174421429634094,0.06187222654521465
1686426760197869600,3.36986962890625,-0.13824761021733284,-0.03930325186252594,0.061674950407445424
1686426760207814400,3.379814453125,-0.15543364975266158,-0.041838907819986344,0.05529975281972438
1686426760217759500,3.389759521484375,-0.12766243025176227,-0.03648001113533973,0.07512757556810974
1686426760227704600,3.39970458984375,-0.11695216260179876,-0.03016074498593807,0.07269380908254533
1686426760237648400,3.4096484375,-0.09931421458050609,-0.0295668707460165,0.08670078019034116
1686426760247593500,3.419593505859375,-0.09081716600060462,-0.039432431200146674,0.07992467365153133
1686426760257538300,3.429538330078125,-0.0853325240444392,-0.01995265470445156,0.0776696612663567
1686426760267483400,3.4394833984375,-0.08022964794747531,-0.016109423279762267,0.06432093487158418
1686426760277428500,3.449428466796875,-0.0634293197941035,-0.0030301614761352536,0.0359194181105122
1686426760287373600,3.45937353515625,-0.06250570214316249,-0.023375030368566512,0.010235416679829358
1686426760297318400,3.469318359375,-0.050285249125957485,-0.043832127463817594,0.01510923326127231
1686426760307263500,3.479263427734375,-0.04024082497358322,-0.044781391012668606,0.004033054908365011
1686426760317208600,3.48920849609375,-0.03453472228646278,-0.037189620709419245,0.027549941433034835
1686426760327153400,3.4991533203125,-0.03265036984458566,-0.0352834948271513,0.0357932344475761
1686426760337097500,3.509097412109375,-0.03910495281144977,-0.01937748516499996,0.04400225986633449
1686426760347042300,3.519042236328125,-0.06751096308454871,0.007519874110817909,0.06237005653213709
1686426760356987400,3.5289873046875,-0.11211699753031133,0.025236148065328597,0.07046221410557628
1686426760366932500,3.538932373046875,-0.12168101775459944,0.04681377362310886,0.06421751102972775
1686426760376877600,3.548877685546875,-0.07665756161436438,0.048450434914231295,0.05915887593328952
1686426760386822400,3.558822509765625,-0.09633929042294621,0.001339139649271965,0.05912800587099045
1686426760396767500,3.568767578125,-0.12508826891481875,-0.016640169155597687,0.07451320652943104
1686426760406712600,3.578712646484375,-0.13688055964782833,-0.02291851877272129,0.09358469448518007
1686426760416657400,3.588657470703125,-0.15762275729477404,0.0013484919995069504,0.09693232441265136
1686426760426602200,3.598602294921875,-0.1346539696395397,0.007644961795210838,0.0977285528242588
1686426760436546300,3.60854638671875,-0.11946809094548225,0.010009937360882758,0.10316146459318697
1686426760446491400,3.618491455078125,-0.09412614441812038,0.011169628790020942,0.10171608809046447
1686426760456436500,3.6284365234375,-0.09875804200246929,0.0004927519530057906,0.10587700716219842
1686426760466381600,3.638381591796875,-0.07968217013254761,-0.017653730112314223,0.106771362186037
1686426760476326400,3.648326416015625,-0.07923837188780307,-0.03288227890431881,0.11545659028179943
1686426760486271500,3.658271484375,-0.08205284478664397,-0.05303776270449161,0.11775398050397634
1686426760496216600,3.668216552734375,-0.0824573339343071,-0.06883855842649936,0.11512133044544606
1686426760506161000,3.678160888671875,-0.07278349665999412,-0.0621007746040821,0.11107245691344142
1686426760516106200,3.688106201171875,-0.050796705779433245,-0.03203998286128044,0.105812052167207
1686426760526051000,3.698051025390625,-0.026413959673047063,-0.007733809122443198,0.09205368552561849
1686426760535995000,3.707994873046875,-0.017607699013501406,0.01275134502351284,0.07624163775723428
1686426760545940200,3.717940185546875,-0.01440963362455368,0.023133038306236267,0.06185129335504025
1686426760555885000,3.727885009765625,-0.017050065130740404,0.02864274163842201,0.04533610228598117
1686426760565830000,3.737829833984375,-0.020291239009052515,0.016159107640385625,-0.00020100246481597421
1686426760575775200,3.747775146484375,-0.03903977862074971,0.02090250277519226,-0.02012479640096426
1686426760585720000,3.757719970703125,-0.09119652070701122,0.024676760616898535,-0.02405848258808255
1686426760595665000,3.767664794921875,-0.12004399113729596,0.03617722879648209,-0.002667429110966623
1686426760605610200,3.7776103515625,-0.1434253051161766,0.01995440827012062,0.016849902916140854
1686426760615555000,3.78755517578125,-0.13677359214201568,-0.0110842885941267,0.03185483555272221
1686426760625500000,3.7975,-0.0948135421603918,-0.05102876096963882,0.05514003221336752
1686426760635444200,3.8074443359375,-0.0660924745887518,-0.09238543823063373,0.08205854387506842
1686426760645389000,3.81738916015625,-0.05896539918780327,-0.09966799645423889,0.12694624480642377
1686426760655334000,3.827333984375,-0.04882321374937892,-0.09709493109583854,0.14002923293709754
1686426760665279200,3.837279296875,-0.026169921784102917,-0.07655716997981071,0.14625899417214094
1686426760675224000,3.84722412109375,-0.0037314416132867333,-0.029656887117028234,0.17095767435990272
1686426760685169000,3.8571689453125,0.013926380152255296,-0.00901858823597431,0.15561623977795241
1686426760695114200,3.8671142578125,0.03762114399448037,0.006264321091771125,0.15513773554600774
1686426760705059000,3.87705908203125,0.0781098062492907,0.0392787019431591,0.13309293086789548
1686426760715004000,3.88700390625,0.07954320005327463,0.05904372512102127,0.11926606556735932
1686426760724949200,3.89694921875,0.09721022803857922,0.10075520716905594,0.11208864821866155
1686426760734894000,3.90689404296875,0.11420052580609917,0.12444003413915633,0.11808847315534948
1686426760744838000,3.916837890625,0.08298691076636314,0.10187047493457793,0.12927527227587998
1686426760754783200,3.926783203125,0.05156345236822962,0.0811760619521141,0.13792780367843807
1686426760764728000,3.93672802734375,0.03778247203603387,0.07455284442007541,0.15395195982754228
1686426760774673000,3.9466728515625,0.027519144435971973,0.05802841059863567,0.17169314902760088
1686426760784618200,3.9566181640625,0.03593406769037247,0.008506547060608863,0.1657856785494834
1686426760794563000,3.96656298828125,0.03989376510158181,0.015364157870411873,0.16921148827970026
1686426760804508000,3.9765078125,0.03689809041693806,0.02114507935941219,0.16504516238048672
1686426760814453200,3.986453369140625,0.04259703271090984,0.02360299390554428,0.1587566566955298
1686426760824398000,3.996398193359375,0.04793561725988984,0.021344401323795316,0.16377229290045797
1686426760834343000,4.006343017578125,0.047853638064861294,0.0065998366564512245,0.1298255265697837
1686426760844288000,4.0162880859375,0.0458284158475697,-0.0040618426114320755,0.12310469388216733
1686426760854232000,4.026232177734375,0.019593758264183997,-0.011369535276293754,0.1017824313249439
1686426760864177000,4.036177001953125,-0.013294511989504099,-0.016032850912213324,0.10178118921592831
1686426760874122200,4.046122314453125,-0.017948767536133527,-0.020659926190972327,0.08020780144184828
1686426760884067000,4.056067138671875,0.03207271608710289,-0.007348609197139739,0.07187047346830368
1686426760894012000,4.066011962890625,0.07851897157207131,-0.017046411868929863,0.09474763731732964
1686426760903957200,4.075957275390625,0.03238207429721951,-0.029130232894420623,0.11360241378247737
1686426760913902000,4.085902099609375,0.006731354081630707,-0.03898936360776424,0.10902772627808154
1686426760923847000,4.095846923828125,-0.02704115166068077,-0.031017654076218603,0.1127810143969953
1686426760933792000,4.1057919921875,-0.01563406085297465,-0.029068273574113845,0.09865976925976574
1686426760943737000,4.115737060546875,0.02466463178768754,-0.012426935374736785,0.09922091027386486
1686426760953681000,4.125680908203125,0.03568871462717652,-0.0027829087167978283,0.09188808316774666
1686426760963626200,4.135626220703125,0.05443009384572506,0.013680150306224822,0.07655432043559848
1686426760973571000,4.145571044921875,0.08252733043059707,0.023615268865227697,0.06328918067105115
1686426760983516000,4.155515869140625,0.08581775027811527,0.035898411855101585,0.08790084016248584
1686426760993461200,4.165461181640625,0.06710355132743716,0.047125908312201495,0.0831871095135808
1686426761003406000,4.175406005859375,0.053887511401623484,0.06352408540546893,0.09916640360765158
1686426761013351000,4.185350830078125,0.03973682097420096,0.06816518920958042,0.12238237095698713
1686426761023296000,4.1952958984375,0.04692600182592869,0.0562362664848566,0.11876352287270128
1686426761033241000,4.205240966796875,0.06971534126102924,0.06097323187887668,0.13429288124218583
1686426761043186000,4.21518603515625,0.09320508405044674,0.05480126524567604,0.1341354256581515
1686426761053131000,4.225131103515625,0.11443185034394264,0.06507306841313838,0.1440301391415298
1686426761063075000,4.235074951171875,0.12739011611640452,0.08793430404067039,0.15641294311359524
1686426761073020000,4.24502001953125,0.12447101379930972,0.08933306492269039,0.13877243780903517
1686426761082965200,4.25496533203125,0.13389116857349873,0.08983633826971053,0.12542195784859358
1686426761092910000,4.26491015625,0.13901099580526352,0.10287526806294918,0.12921002501994372
1686426761102855000,4.27485498046875,0.14302213114276527,0.1079419038027525,0.12273776026591658
1686426761112800000,4.284800048828125,0.12607026568949223,0.08348843054771422,0.1206762246262282
1686426761122745000,4.2947451171875,0.10303323510363697,0.04876666125655174,0.14083930721096694
1686426761132690000,4.30468994140625,0.08428118836060165,0.016660627421736716,0.14846315315291284
1686426761142635000,4.314635009765625,0.08175780736282467,-0.019976035580039023,0.14289412084892392
1686426761152580000,4.324580078125,0.08211845736876129,-0.045510874330997465,0.1395300512433052
1686426761162525200,4.334525146484375,0.0777317667171359,-0.03842296189665794,0.13066621517762542
1686426761172469200,4.34446923828125,0.06427271181568503,-0.00530862780213356,0.12372604065090417
1686426761182414000,4.3544140625,0.05554185447990894,0.00995499230325222,0.11114617973677814
1686426761192359000,4.36435888671875,0.037804391606897116,0.0382417601108551,0.09382394660115241
1686426761202304000,4.374303955078125,0.02525879828855395,0.06753390556871891,0.08476458796337247
1686426761212249000,4.3842490234375,0.01930573510304093,0.06791150670945643,0.06643368924185633
1686426761222194000,4.39419384765625,-0.0020573709212243557,0.060065469384193416,0.04167005405910313
1686426761232139000,4.404138916015625,-0.015052607703208922,0.031790392014384265,0.025367300164327023
1686426761242084000,4.414083984375,-0.025008038397878407,0.010647066220641136,0.009146087073162197
1686426761252029200,4.424029296875,-0.03291676569581031,-0.0120341366648674,-0.01129457034394145
1686426761261974000,4.43397412109375,-0.033300212055444714,-0.01625146209895611,-0.031485490783676504
1686426761271919000,4.443919189453125,-0.037756606942415234,-0.0014496142864227294,-0.0187836839903146
1686426761281863000,4.45386279296875,-0.02458572133257985,-0.054310266858339305,-0.056873614540323615
1686426761291808300,4.463808349609375,-0.044333501114696264,0.010545943933725356,-0.03529014376364648
1686426761301753000,4.473753173828125,-0.03481953057721257,-0.01111176112294197,-0.014469327922537922
1686426761311698000,4.483697998046875,-0.009474515309929847,-0.021366028633713723,-0.029498920076340435
1686426761321643000,4.49364306640625,0.024003975921869276,-0.003614683365821838,-0.046264030785858626
1686426761331588000,4.503588134765625,0.02287935580611229,0.016830723291635513,-0.010781213994324206
1686426761341533000,4.513532958984375,0.01029328434690833,0.031465982365608214,-0.014954992547631264
1686426761351478000,4.52347802734375,0.020422464173287153,0.0302946004986763,-0.01936849814094603
1686426761361423000,4.533423095703125,0.01308963706716895,0.025852818658947944,-0.02560666187815368
1686426761371368200,4.5433681640625,-0.0026579671628773212,0.05732873789668083,-0.030443580515310167
1686426761381313000,4.55331298828125,-0.020347206979990005,0.05524959353506565,-0.026497546303272244
1686426761391257000,4.563257080078125,-0.016596914535760877,0.024950316861271856,-0.034603403608500956
1686426761401202000,4.573201904296875,-0.004091068705916404,0.03609948738515377,-0.023511881555989385
1686426761411147000,4.58314697265625,-0.03465622977428138,0.010474632263183592,0.0032462153796106574
1686426761421092000,4.593092041015625,-0.04633329662978649,-0.030839374899864196,-0.007903320470452307
1686426761431037000,4.603036865234375,-0.040479163774102926,-0.044103930142521855,0.021159692406654357
1686426761440982000,4.61298193359375,-0.03884790931046009,-0.04799509236216545,0.04361081286333501
1686426761450927000,4.622927001953125,0.004538227951526642,-0.04718845215439796,0.047719417225942015
1686426761460872200,4.6328720703125,0.05605572228617966,-0.029452888977527618,0.04547748351804912
1686426761470817000,4.642817138671875,0.06509725300632417,-0.005440145227313041,0.04247618281021714
1686426761480762000,4.65276220703125,0.05617679138258099,0.010370002844929695,0.02887530828528106
1686426761490707200,4.662707275390625,0.03270407279320061,0.016653613159060478,-0.0013977379687130451
1686426761500651000,4.672651123046875,0.00342398309931159,0.004027355819940567,-0.0001901888098567724
1686426761510595800,4.682595947265625,-0.009943886387348175,-0.01972293760180473,-0.023324688420817256
1686426761520540700,4.692540771484375,-0.024718261671066284,-0.01482873581945896,-0.03424129229784011
1686426761530485800,4.70248583984375,0.023211218108981847,0.02435936523079872,-0.024338687768951057
1686426761540430800,4.712430908203125,0.06903846491277217,0.044403789871931075,-0.020978636751323936
1686426761550375700,4.722375732421875,0.07310856389589607,0.09055003949701786,-0.013736556668579578
1686426761560320800,4.73232080078125,0.08658544671498239,0.11985387539267539,-0.013624620726704596
1686426761570265900,4.742265869140625,0.0690736823566258,0.11514029087424278,-0.009277896759286522
1686426761580210700,4.752210693359375,0.05365735590755939,0.0642968233436346,-0.00769749570004642
1686426761590155800,4.76215576171875,0.04593004959113896,0.011245032113790512,-0.020317761689797043
1686426761600100900,4.772100830078125,0.006072817107662558,-0.039464579904079436,-0.020972426206246016
1686426761610044700,4.782044677734375,-0.0022591771036386487,-0.07019289564490318,-0.03099858404956758
1686426761619989800,4.79198974609375,0.013173442893102764,-0.07333996149897574,-0.030577582158520817
1686426761629934800,4.801934814453125,0.03961246394217014,-0.0556523291170597,-0.03948832610584795
1686426761639879700,4.811879638671875,0.059369961400702595,-0.04682254145145416,-0.042005861884728074
1686426761649824800,4.82182470703125,0.05678630158305168,-0.04229249680638313,-0.02837809935286641
1686426761659769900,4.831769775390625,0.020917115822434423,-0.06266659179329871,-0.01161781094893813
1686426761669714700,4.841714599609375,-0.008099719825387,-0.051965749558806416,-0.022455358240380884
1686426761679659800,4.85165966796875,-0.018604747226834296,-0.03708148415982723,-0.03543240177854896
1686426761689604900,4.86160498046875,-0.002323474511504173,0.016905542093515396,-0.02896386335156858
1686426761699549700,4.8715498046875,0.007434972306340932,0.053802317336201666,-0.02543715053014457
1686426761709494800,4.881494873046875,0.004663900157809257,0.04592705391645431,-0.03535159162729978
1686426761719438800,4.89143896484375,-0.028628128591179847,0.023940263035893437,-0.03309584858976304
1686426761729383700,4.9013837890625,-0.018338935897499322,0.04292202688157558,-0.029536987064406273
1686426761739328800,4.911328857421875,-0.005117489144206047,0.05254851788282394,-0.028494784535095095
1686426761749273900,4.92127392578125,-0.023273908081650734,0.060946928393840784,-0.021598887541517613
1686426761759218700,4.93121875,-0.011191256099939345,0.07163666471242905,-0.023651728418096898
1686426761769163800,4.941163818359375,-0.01978138979077339,0.04143851032555103,-0.018925065222382544
1686426761779108900,4.95110888671875,-0.021275354675576088,0.007780570873618125,-0.023731113797239956
1686426761789053700,4.9610537109375,-0.021344401323795316,-0.032545009773969645,-0.007919906279072166
1686426761798998800,4.970998779296875,-0.033170448195934295,-0.08486264151036739,-0.010651413602195679
1686426761808943900,4.98094384765625,-0.04493628931343555,-0.10235913523435593,-0.017596264304034413
1686426761818888700,4.990888671875,-0.02597615277767181,-0.09300035525858402,-0.025407120718061924
1686426761828833800,5.000833740234375,-0.01073890922255814,-0.07249357380270957,-0.017456527039781213
1686426761838777900,5.01077783203125,-0.003881809869408607,-0.030558804392814633,-0.004411277103610336
1686426761848722700,5.02072265625,0.004680778227373957,-0.009120295044779778,-0.013378354348056018
1686426761858667800,5.030667724609375,0.015445917869731783,0.02948503768146038,-0.028650998010113834
1686426761868612900,5.04061279296875,0.0224426448892802,0.07594108390808105,-0.02656852918025106
1686426761878557700,5.0505576171875,0.020569398363307116,0.09610299744904041,-0.0438254054620862
1686426761888502800,5.060502685546875,-0.03481061661839485,0.06878419789075851,-0.03260645763762295
1686426761898448000,5.07044775390625,-0.09205686386339366,0.043703532648086546,-0.023973251990042625
1686426761908392700,5.080392822265625,-0.08732698579728602,-0.0020019874721765515,-0.020858919361792502
1686426761918337800,5.090337890625,-0.12968955216519534,-0.05539923113882542,-0.029949805648997425
1686426761928282600,5.10028271484375,-0.10601422367580235,-0.09479249937236309,-0.024815803761407733
1686426761938227700,5.110227783203125,-0.07773797726221382,-0.09560849193036555,-0.012246171980351208
1686426761948172800,5.1201728515625,-0.054445291414856906,-0.08048048090338707,-0.000680091218650341
1686426761958116900,5.130116943359375,-0.013881298901513218,-0.049481531527638435,0.029505276751890776
1686426761968061700,5.140061767578125,-0.005861000987887382,-0.03745616269111633,0.04469747558888048
1686426761978006800,5.1500068359375,-0.02601414670050144,-0.030899580654501914,0.05058046921286732
1686426761987951900,5.159951904296875,-0.05818097081184387,-0.03027180414497852,0.0367579147612676
1686426761997896700,5.169896728515625,-0.0768142865460366,-0.01591886914372444,0.02656089386306703
1686426762007841800,5.179841796875,-0.07069441542625426,-0.028017303216457366,0.027200251212529836
1686426762017786600,5.18978662109375,-0.06875789440572261,-0.03472469190061092,0.010032660649344324
1686426762027731700,5.199731689453125,-0.06843757641017437,-0.018572598522901534,-0.006058130995184183
1686426762037676800,5.2096767578125,-0.04648410327732563,-0.03238192816674709,-0.006897467896156012
1686426762047621600,5.21962158203125,-0.028824016489461063,-0.03181260384619236,-0.01363287709839642
1686426762057567000,5.22956689453125,-0.012899813583493232,-0.023297873479127883,-0.0014833704255521297
1686426762067510800,5.2395107421875,0.0026631547946482895,-0.026413375151157378,-0.007261003978922963
1686426762077456000,5.249455810546875,-0.009862053322792053,-0.027572482058405876,-0.004554448433965444
1686426762087400700,5.259400634765625,-0.017953662906959652,0.008826280534267424,-0.014541662506386636
1686426762097345800,5.269345703125,-0.006772928201034665,-0.006516250026226043,-0.013189553777687251
1686426762107290600,5.27929052734375,-0.009193944802880287,-0.019123218142986297,-0.006895093275979161
1686426762117235700,5.289235595703125,-0.007187354220822453,-0.026917233020067214,0.0016980726221576333
1686426762127180800,5.299180908203125,-0.013202595922350882,-0.058787120011448854,0.0005563187085092067
1686426762137125600,5.309125732421875,-0.0027787439983338116,-0.0545896683216095,0.011793569374643266
1686426762147071000,5.319071044921875,-0.03288461699187755,-0.06306991189718246,0.05380469195637852
1686426762157015800,5.329015869140625,-0.031412206351757045,-0.05381693038344383,0.06433478073384613
1686426762166960600,5.338960693359375,-0.012614055444672702,-0.0887397752046585,0.07574925113040953
1686426762176906000,5.348906005859375,-0.001558408423140645,-0.11056640708744525,0.07710873944796622
1686426762186849800,5.358849853515625,0.011005378139019011,-0.1296300039976835,0.08469904844649136
1686426762196794600,5.368794677734375,0.015972645157575606,-0.13710603896677492,0.09289539704676716
1686426762206739700,5.37873974609375,0.07987550074756145,-0.11387246289551257,0.09480777000673114
1686426762216684800,5.388684814453125,0.08699789997339248,-0.08777940573990345,0.0937941359847784
1686426762226629600,5.398629638671875,0.08814816598705946,-0.06092939273715019,0.07759374648593366
1686426762236575000,5.408574951171875,0.07848134297542274,-0.05033727157413959,0.059911411333642896
1686426762246519800,5.418519775390625,0.0761000738620758,-0.012605214551091194,0.056185376547835765
1686426762256464600,5.428464599609375,0.07441146318800747,0.0018435820400714872,0.05445924687497317
1686426762266410000,5.438409912109375,0.08055712633617222,0.003322422420978546,0.06343490928467363
1686426762276354800,5.448354736328125,0.07991882843263447,0.02501636783480644,0.06158445911239832
1686426762286299600,5.458299560546875,0.09079444271214306,0.04036065196096897,0.07207330256402492
1686426762296244700,5.46824462890625,0.14013093974590302,0.06992752270698548,0.08385784838199616
1686426762306189800,5.47818994140625,0.16151340805776415,0.06026011517345905,0.10480440949462354
1686426762316133600,5.488133544921875,0.13103994386084378,0.039698973181843754,0.11592734959870576
1686426762326078700,5.49807861328125,0.061837082166597244,0.07023731930851936,0.11101268955022096
1686426762336023800,5.50802392578125,0.023469138392806052,0.11628829186558723,0.09777688547801226
1686426762345968600,5.51796875,0.003099792646244168,0.16422551656067372,0.0789522849554196
1686426762355914000,5.5279140625,-0.02011515178978443,0.16498305692970752,0.06544869679249822
1686426762365858800,5.53785888671875,-0.03352985609285533,0.11592530377209186,0.057396030979230996
1686426762375803600,5.5478037109375,-0.03490640514306724,0.028727497312426565,0.05111410116553306
1686426762385748700,5.557748779296875,-0.04811199674010277,-0.07039163308739661,0.04716499821357429
1686426762395693800,5.56769384765625,-0.0503899516094476,-0.14501286656856535,0.04104450603928417
1686426762405638700,5.577638671875,-0.003429389926791191,-0.12813362796008587,0.04509557152837514
1686426762415583700,5.587583740234375,0.08660400528497994,-0.0879249516904354,0.05154142319951206
1686426762425528800,5.59752880859375,0.0965134048808366,-0.03934124578535556,0.05644088567886501
1686426762435472600,5.60747265625,0.08138597837574779,-0.019201544076204297,0.05580879832040518
1686426762445418000,5.61741796875,0.07759118920266628,0.0403068759471178,0.06714198364168406
1686426762455362800,5.62736279296875,0.033613661918789145,0.041453123372793194,0.0755302746174857
1686426762465307600,5.6373076171875,0.03083710987754166,0.011325111612677574,0.0543459957588464
1686426762475253000,5.6472529296875,0.05210596174709498,0.004051905739307403,0.03989058676380664
1686426762485197800,5.65719775390625,0.020356486264988777,0.004495557853579521,0.02182250369694084
1686426762495142700,5.667142578125,0.019833339173719287,0.033707039290666575,0.005778510336205363
1686426762505087500,5.67708740234375,0.011519684336706996,0.06779226424396037,0.0026093422481790183
1686426762515032600,5.687032470703125,-0.008648001357913018,0.06581482669115066,0.012668050654232502
1686426762524977700,5.696977783203125,-0.045689080442115663,0.046777533265948294,0.0118721145035699
1686426762534922500,5.706922607421875,-0.06745842917971312,0.041841830429434776,0.015470686984807252
1686426762544867800,5.716867919921875,-0.054798342636227605,0.015840543210506437,0.015403540032729505
1686426762554811600,5.726811767578125,-0.037805633715912695,0.0031657705545425413,0.032475524734333155
1686426762564756700,5.7367568359375,-0.018563757629320023,-0.011707973450422286,0.041316272185370324
1686426762574701600,5.74670166015625,0.010135609567165374,-0.003701777127385139,0.04604045116305351
1686426762584646700,5.756646728515625,0.022011925321817397,0.019233108258247374,0.05476743604131042
1686426762594591700,5.766591796875,0.020468276076391338,0.025089433071017263,0.026508067697286603
1686426762604536600,5.77653662109375,0.023412366704270243,0.01047521678507328,0.025530674032494424
1686426762614481700,5.786481689453125,0.02696742883734405,0.01728080514669418,0.014777188295312224
1686426762624426500,5.796426513671875,0.030837548268958924,-0.004011573728919029,0.0100149423295632
1686426762634371800,5.806371826171875,0.04328033879995346,0.006105915659666061,-0.00022825579792261122
1686426762644316700,5.816316650390625,0.06820318313241004,-0.007315875971317291,0.009725567461550235
1686426762654261500,5.826261474609375,0.06621230157613754,-0.007487725406885147,0.03934398573171347
1686426762664206800,5.836206787109375,0.03143032653033733,-0.038649756389856335,0.04451360692195594
1686426762674150700,5.846150634765625,0.011011296423152088,-0.050449499776959415,0.05680022051054984
1686426762684095700,5.856095703125,0.003020151538774371,-0.049643444091081616,0.07088464076872915
1686426762694040600,5.86604052734375,-0.005841784830763936,-0.05222060110270977,0.06785663471706212
1686426762703985700,5.875985595703125,-0.0013888970751315354,-0.02663549346923828,0.06240764859616756
1686426762713930500,5.885930419921875,-0.02239062244109809,-0.04405599934756756,0.06060454469695687
1686426762723875800,5.895875732421875,-0.027924948757886883,-0.05928747074902057,0.03321563904453069
1686426762733820700,5.905820556640625,-0.009909399595856665,-0.002221183180809021,0.02425506460610777
1686426762743765500,5.915765625,0.013850246176123618,0.016985621592402456,0.02368530189413577
1686426762753710800,5.9257109375,0.017387261195853352,0.03855038766860962,0.007729754001833498
1686426762763655700,5.93565576171875,0.03580729950554669,0.08006839297115802,0.0348866044640541
1686426762773600500,5.9456005859375,0.030786256473138925,0.07644844890832901,0.03249729817472398
1686426762783545900,5.9555458984375,0.03395487657189369,0.06227437760531902,0.03435089015215635
1686426762793490700,5.96549072265625,0.038591815657541155,0.05121989962756633,0.04915142279043793
1686426762803435500,5.975435546875,0.04467785757295787,0.02531564304232597,0.053970221249014134
1686426762813379600,5.985379638671875,0.04569149159491062,-0.003940846580266952,0.038003859701752664
1686426762823324700,5.99532470703125,0.04239595718085765,-0.016005962905287743,0.04894771691188216
1686426762833269500,6.00526953125,0.03016249855160713,-0.019946809485554693,0.04776760374922305
1686426762843214800,6.01521484375,0.0375876070510596,-0.018669629156589505,0.042719709242507814
1686426762853159700,6.02515966796875,0.050125090128183364,-0.005971475625038147,0.022936090962029993
1686426762863104500,6.0351044921875,0.03483049036264419,-0.014030863440036774,0.024682715433649718
1686426762873049900,6.0450498046875,0.010633037695288658,-0.002434533670544624,0.01398797414638102
1686426762882994700,6.05499462890625,-0.010183467296883464,-0.024933950248360634,0.0016449176628142595
1686426762892939500,6.064939453125,-0.029569793355464932,-0.018091537007689475,0.0037461277257651087
1686426762902884600,6.074884521484375,-0.021041545919701456,-0.01409808345735073,0.0034610271740704774
1686426762912829700,6.08482958984375,0.017267434208467602,-0.033435236611962314,-0.00962561421841383
1686426762922774500,6.0947744140625,0.04541267465353012,-0.022982231658697127,-0.003922397608123719
1686426762932718800,6.10471875,0.018742182936146854,0.003907528832554817,0.010624744790978729
1686426762942663700,6.11466357421875,0.030409020658582447,0.014448212069272994,0.0055874082108959555
1686426762952608500,6.1246083984375,0.036439094603061675,0.03158464030921459,0.022730266191624104
1686426762962553900,6.134553955078125,-0.0014829320341348648,0.023470307436585423,0.040325580647587775
1686426762972498700,6.144498779296875,-0.007861381024867296,0.007176175239682197,0.03440126863252371
1686426762982443500,6.154443603515625,0.002202916871756315,0.0069242463052272794,0.027036475485563278
1686426762992388600,6.164388671875,0.0033014526981860397,0.002810381245613098,0.025879341339692472
1686426763002333700,6.174333740234375,0.01441664788722992,0.002104278802871704,0.03599832856561988
1686426763012278500,6.184278564453125,-0.0035476094789803026,-0.004269932404160499,0.04916114046685397
1686426763022223600,6.1942236328125,-0.00671571812108159,0.0059545244902372355,0.029416173696331677
1686426763032168700,6.204168701171875,-0.031590047136694194,-0.0027267946153879162,0.03422810402270406
1686426763042113500,6.214113525390625,-0.04016016095280647,0.0025175357788801193,0.043994624549150464
1686426763052058600,6.22405859375,-0.0031144787587225435,0.028493104034662244,0.04496383490748703
1686426763062002700,6.234002685546875,0.036669250097125766,0.04669043950438499,0.04203453998994082
1686426763071947500,6.243947509765625,-0.003817074070125818,-0.00034720600247383117,0.032488420748524365
1686426763081892600,6.253892578125,-0.07666413748562335,-0.05546411306858062,0.016770590602234004
1686426763091837700,6.263837646484375,-0.07668240379467606,-0.029199790999293325,-0.021261545345932244
1686426763101782500,6.273782470703125,0.0187357531953603,0.03826864811778068,-0.03480542898662388
1686426763111727600,6.2837275390625,0.06371931571662426,0.07991524823606014,-0.045174737711809576
1686426763121672700,6.293672607421875,0.014669161343574523,0.05741057096123695,-0.06288918503541499
1686426763131617500,6.303617431640625,-0.05912256251089275,0.023229484418034553,-0.08224350852053612
1686426763141562600,6.313562744140625,-0.07754376986436545,-0.02105857011973858,-0.10944971454981714
1686426763151507700,6.3235078125,-0.04230060704760253,0.01969955672621727,-0.11029317963663487
1686426763161452500,6.33345263671875,-0.01462532220184803,0.009179331755638122,-0.10312873136736452
1686426763171397600,6.343397705078125,-0.05195807770900428,-0.0860211638957262,-0.06090604839418083
1686426763181342700,6.3533427734375,-0.13889927905909716,-0.15047756171524523,-0.0625577245913446
1686426763191286500,6.36328662109375,-0.13867431119680404,-0.12447861258387564,-0.05672328281681984
1686426763201231600,6.373231689453125,-0.038541035318374633,-0.06080138244330883,-0.03363335299994796
1686426763211176700,6.3831767578125,0.024430530770868063,-0.02434066053032875,-0.035679618005268275
1686426763221121500,6.39312158203125,0.02184460593089461,-0.00106616792678833,-0.023132271121256053
1686426763231066600,6.403066650390625,-0.014722352835536003,0.008546879070997238,-0.011321166089922188
1686426763241011700,6.41301171875,-0.007014993328601122,0.021869886502623555,-0.034746940265037114
1686426763250956500,6.42295654296875,0.023316578179597855,0.026924831804633138,-0.03660553721114993
1686426763260901600,6.432901611328125,0.03780322256311774,0.03137479695081711,0.005440035629458725
1686426763270846700,6.4428466796875,0.02307210189923644,0.043348143339157104,0.010984919872879981
1686426763280791800,6.452791748046875,0.02055719646885991,0.0542407087534666,0.0037746962331235406
1686426763290736600,6.462736572265625,-0.005706687209010124,0.06395604708194733,0.01846767684370279
1686426763300681500,6.472681396484375,-0.0036876755367964502,0.026488778474926946,0.009200301478430628
1686426763310626800,6.482626708984375,0.0007879355072975159,0.022539164066314697,0.012820026345551013
1686426763320571600,6.492571533203125,0.011523410663753748,0.027816812208294867,-0.027167408388853072
1686426763330515700,6.502515625,0.022994652748852967,0.024328970092535016,-0.0417738066945225
1686426763340460500,6.51246044921875,0.009036781479790807,0.02482990535199642,-0.04018178826272487
1686426763350405600,6.522405517578125,0.017251725182682275,0.024442367339134213,-0.07188431933056563
1686426763360350700,6.532350830078125,0.013576689931750296,0.0041284781068563455,-0.048428405745513735
1686426763370295800,6.5422958984375,-0.003131210697814822,-0.01049041435420513,-0.023207893640734254
1686426763380240600,6.55224072265625,-0.03259118700325489,-0.035839959666132924,-0.011146905501559376
1686426763390185500,6.562185546875,-0.05134966348707676,-0.047402387166023255,-0.007071436223573983
1686426763400130800,6.572130859375,-0.048123687177896494,-0.023656185397505757,-0.007455320974625646
1686426763410075600,6.58207568359375,-0.03454984679035842,-0.012812135300040245,-0.007170878010056912
1686426763420020500,6.5920205078125,0.015190993260592221,-0.004339490509033203,-0.010051621078141034
1686426763429965800,6.6019658203125,-0.0030775077491998672,-0.012250409764051437,-0.013047770686820148
1686426763439910700,6.61191064453125,-0.028113091741129755,-0.012072130587697029,-0.009739632519520819
1686426763449855500,6.62185546875,0.027172157629206776,0.03444587495923042,0.0003687237145379185
1686426763459799600,6.631799560546875,0.06254866450205444,0.024347674793004988,0.025141893910616636
1686426763469744600,6.64174462890625,0.06941957318484783,0.006177811852097511,0.024692615773156283
1686426763479689500,6.651689453125,0.04581774832308292,0.019195698857307434,0.03661324559357017
1686426763489634800,6.661634765625,0.00629223201200366,0.013206687575578689,0.03015318273399025
1686426763499579600,6.67157958984375,-0.021083266169577834,-0.011019991186261176,0.010035364063084124
1686426763509525000,6.68152490234375,-0.03443535356521606,-0.05026654442548752,-0.018185900760255752
1686426763519470300,6.69147021484375,-0.06537994240522384,-0.05350947186946869,-0.031923845668323333
1686426763529415200,6.701415283203125,-0.09086056675091385,-0.03340834860503673,-0.03760401019658893
1686426763539360000,6.711360107421875,-0.09699322428703308,-0.010158990442752838,-0.04489055047556758
1686426763549305000,6.72130517578125,-0.06540493071600795,0.008187398108839988,-0.028630539743974802
1686426763559250200,6.731250244140625,-0.041512744605541226,0.01864683280289173,-0.02389868891648948
1686426763569195000,6.741195068359375,-0.028888240832090375,0.014981880554556846,0.0048428734539076685
1686426763579140000,6.75114013671875,-0.02221351230852306,0.001329202777147293,0.01366758308559656
1686426763589085200,6.761085205078125,0.00548347291238606,0.009237783944606781,-0.0049440322734415525
1686426763599029000,6.771029052734375,0.0342898076146841,0.0356669411867857,0.001017068088054657
1686426763608974300,6.780974365234375,0.0462239910364151,0.03674421502947807,-0.0003087371556088328
1686426763618919200,6.790919189453125,0.03822656254172325,0.022376082459092138,0.008989179478399455
1686426763628864000,6.800864013671875,0.014532821612805127,-0.0036760581642389296,0.025074381632357836
1686426763638809000,6.81080908203125,-0.027146365600824354,-0.028947862064838407,0.01226710517052561
1686426763648754200,6.820754150390625,-0.033871289941668506,-0.02424830607175827,0.00482661643885076
1686426763658699000,6.830698974609375,-0.031956396231055256,-0.023581366595625874,-0.006127689100056886
1686426763668644000,6.84064404296875,-0.017138766327500343,0.01680558885037899,-0.02143555020596832
1686426763678589200,6.850589111328125,-0.0050660512179136275,0.023685996013879773,-0.016971812262758613
1686426763688534300,6.8605341796875,-0.04375131731256842,-0.013112579551339149,0.008825476816669106
1686426763698479000,6.87047900390625,-0.07512092663161456,-0.0620183570176363,0.004165668312087655
1686426763708424200,6.880424072265625,-0.034500235494971276,-0.07892857528626919,0.006032302434183657
1686426763718369300,6.890369384765625,0.04493219766020774,-0.02178571535050869,-0.005134769072569907
1686426763728313000,6.90031298828125,0.0739087012976408,-0.0015296937853097915,0.02771327876858413
1686426763738258200,6.910258056640625,0.06745733320116996,0.04002279830873012,0.04591002971641719
1686426763748203000,6.920203125,0.02562251703441143,0.046104164049029346,0.06570289074927568
1686426763758148000,6.930148193359375,-0.014926935496926306,0.03739420337080955,0.0735165236422792
1686426763768093200,6.94009326171875,-0.0033680151283740994,0.03785071496665478,0.0682677362686023
1686426763778038300,6.950038330078125,-0.0030686668556183577,0.04596855497062206,0.06757818310186267
1686426763787983000,6.959983154296875,-0.010994199157878757,0.0248830968439579,0.05754888345338404
1686426763797928200,6.96992822265625,-0.001958586721867323,0.009742226335406303,0.05618844528775662
1686426763807873300,6.979873291015625,-0.005921718199178576,-0.014698971959948539,0.04842245092876255
1686426763817818000,6.989818115234375,0.002585340318083763,-0.027324060255289075,0.033154410376586015
1686426763827763200,6.99976318359375,0.010294014999270438,-0.041266076368093485,0.03127528209909797
1686426763837708300,7.009708251953125,0.0005120411753654479,-0.04592705391645431,0.018347594127990304
1686426763847653000,7.019653076171875,-0.004881342300772667,-0.04702946220040321,0.030386991489864883
1686426763857598000,7.029597900390625,0.00599134936928749,-0.025295184776186943,0.04842913639787584
1686426763867542000,7.0395419921875,0.019321955585479736,-0.014989479339122772,0.0362043359991163
1686426763877487000,7.049487060546875,0.03962824603319168,0.015762217277288437,0.04321790455561131
1686426763887432200,7.05943212890625,0.01787175677716732,0.02358428920507431,0.0214469118501991
1686426763897377300,7.069377197265625,-0.022641966853663324,0.025428455767035483,0.014398345045559107
1686426763907322000,7.079322021484375,-0.013371522748470305,0.036570612028241155,-0.014173742509447038
1686426763917267200,7.08926708984375,0.02087254602834582,0.03336275589764118,-0.005073028947971761
1686426763927212300,7.09921240234375,0.005886719951033592,0.0471954664170742,-0.012131496092118322
1686426763937157000,7.1091572265625,-0.0322388664342463,0.025737667846679687,-0.0002675283623859286
1686426763947102000,7.11910205078125,-0.045267713224887846,-0.005254267266392707,0.0037210663497447964
1686426763957047300,7.12904736328125,-0.04176401595287025,-0.010178279665112495,0.013429098154604434
1686426763966992100,7.1389921875,-0.006014145722985267,-0.030781507232785225,0.01954060330484062
1686426763976937000,7.14893701171875,0.008211948028206824,-0.02922317187488079,0.04068462321832776
1686426763986882300,7.15888232421875,0.004760346269607543,0.007504092019796371,0.04105119150839746
1686426763996827100,7.1688271484375,-0.013916297149658202,-0.0208703540712595,0.027836649419926106
1686426764006772000,7.17877197265625,-0.05183189404606819,-0.04514204101860523,0.000023563538677990436
1686426764016716300,7.18871630859375,-0.05592530083954334,-0.03519932367503643,0.000011178981140255927
1686426764026661000,7.1986611328125,-0.06474398258924484,-0.018921558091044424,0.008403853871114551
1686426764036606000,7.20860595703125,-0.03020940643325448,-0.00979249521791935,0.0018260463833808898
1686426764046551300,7.21855126953125,-0.008652093011140822,0.029517770907282827,0.03094762104731053
1686426764056496000,7.22849609375,-0.005737082347273826,0.038167525830864905,0.047814730826579034
1686426764066441000,7.23844091796875,0.02436469899304211,0.0771241562128067,0.06504698412381112
1686426764076386300,7.24838623046875,0.027311858360841868,0.11238836181759834,0.07191464140359312
1686426764086331100,7.2583310546875,0.017310104306414723,0.09458499410152435,0.07456321968361734
1686426764096276000,7.26827587890625,-0.02653254455141723,0.03782499600350857,0.05649013164807111
1686426764106221300,7.27822119140625,-0.04714402849078178,-0.025939327898621557,0.05884319758024066
1686426764116166100,7.288166259765625,-0.05914535886459052,-0.07021861460804939,0.03159633074700832
1686426764126111000,7.298111083984375,-0.03821647953912616,-0.03656768941879272,-0.0036151217572391032
1686426764136056000,7.30805615234375,-0.019420155262947082,-0.013127192598581314,-0.006697890203446149
1686426764146001200,7.318001220703125,-0.014905308187007903,0.01294131463766098,-0.027393727958016097
1686426764155945000,7.327945068359375,-0.0376753583997488,-0.016761165186762808,-0.04454418472331017
1686426764165890300,7.337890380859375,-0.04306581926643848,0.0001204115092754364,-0.07516264688149094
1686426764175835100,7.347835205078125,-0.03136895173192024,0.0021305822879076003,-0.04892634533029049
1686426764185780000,7.357780029296875,-0.020974983489513398,-0.025545944666862486,-0.02538436089698225
1686426764195725300,7.367725341796875,-0.01673011246137321,-0.033111996006965634,-0.015333178210258484
1686426764205670100,7.377670166015625,-0.0028594080191105603,-0.004326631027460098,-0.0018973945865407584
1686426764215615000,7.387614990234375,-0.006869885769486427,0.030075989311933515,0.018819412890821695
1686426764225560000,7.39756005859375,0.0014057751446962356,0.024072364982962606,0.006927863034419715
1686426764235505200,7.407505126953125,-0.02330021156668663,-0.016826631638407707,0.011384586714953184
1686426764245450200,7.4174501953125,-0.031224720955640075,-0.024670915398001668,0.00028400457315146924
1686426764255395000,7.42739501953125,0.006581131955981254,0.015475217029452324,-0.00009648264441639185
1686426764265340200,7.437340087890625,0.0426250897616148,0.059653381451964374,-0.0004401084503158927
1686426764275285200,7.44728515625,0.041118630721420045,0.048348728105425835,-0.001331686995178461
1686426764285230000,7.45722998046875,-0.000504588521271944,0.031604514053463935,-0.002499780926480889
1686426764295175200,7.467175048828125,-0.04270297730341553,0.006365443378686905,0.0035418007927015423
1686426764305119000,7.477118896484375,-0.05310498272180557,-0.025980244430899618,0.0029017127908766266
1686426764315064000,7.48706396484375,-0.029778467670083044,-0.07203355507552624,-0.009039667556621134
1686426764325009200,7.497009033203125,-0.030864436275884508,-0.08657178351581096,-0.03420775535441935
1686426764334954200,7.506954345703125,-0.017762305053323508,-0.10705401505231857,-0.04842186640687286
1686426764344899000,7.516899169921875,0.013150719604641198,-0.10156418546438216,-0.05091331789642572
1686426764354844200,7.52684423828125,0.016448519041016695,-0.08775836295187472,-0.04238992929887026
1686426764364789200,7.536789306640625,0.036501126988604665,-0.010025719451904296,-0.04377696321047842
1686426764374734000,7.546734130859375,0.04728555585332215,0.0408691860049963,-0.0217662069324404
1686426764384679200,7.55667919921875,0.021112419198825953,0.028524083694815634,-0.011090462606586516
1686426764394624300,7.566624267578125,-0.032657237976789474,0.013958967247605323,-0.016165318185463545
1686426764404569000,7.576569091796875,-0.04357040778771042,0.028016718694567677,-0.040487091352231795
1686426764414514200,7.58651416015625,0.029200813912600276,0.046831893801689145,-0.041776400510407985
1686426764424459300,7.596459228515625,0.0300637143522501,0.04444704449176788,-0.03879975931979716
1686426764434404000,7.606404052734375,0.0017963818974792956,0.05351180995702743,-0.04127429620716721
1686426764444349000,7.616348876953125,0.004818213936686516,0.07537585124075412,-0.01435684399139136
1686426764454293200,7.626293212890625,-0.0005593874484300613,0.05978139174580574,0.020465426532179115
1686426764464238000,7.636238037109375,0.011002309399098157,0.017095511707663536,0.030105361536890266
1686426764474183200,7.64618310546875,-0.013809841100499032,-0.02327449260354042,0.026370339727029204
1686426764484128300,7.656128173828125,-0.048096141583845016,-0.05051438170671463,0.04035049589313566
1686426764494073000,7.666072998046875,-0.058531537815183395,-0.06873392900824546,0.015710815883614122
1686426764504018200,7.67601806640625,-0.03670169106200337,-0.03696750239133834,0.01450341285523027
1686426764513962500,7.68596240234375,-0.004757569790631532,-0.07105097377896308,0.01781396217532456
1686426764523907300,7.6959072265625,-0.0181079036206007,-0.013090367719531058,-0.005223287606239318
1686426764533852700,7.705852783203125,-0.023039953195303678,-0.03377425930798054,-0.040376543649844825
1686426764543797500,7.715797607421875,0.011461889734864235,-0.002233458140492439,-0.02026036894675344
1686426764553742300,7.725742431640625,0.06742693806290626,0.017122399714589117,-0.01741992135643959
1686426764563687700,7.735687744140625,0.10190795740075409,0.06930383785068989,0.0019794468468055126
1686426764573632500,7.745632568359375,0.0891373231548816,0.09054419427812099,0.017843991987407208
1686426764583577600,7.75557763671875,0.0674522186346352,0.06604162118434906,0.019158179858513175
1686426764593522400,7.7655224609375,0.03532908753454685,0.04583528397977352,0.0038269013443961736
1686426764603466500,7.775466552734375,0.021798574832081793,-0.00040039749443531033,0.0159246778300032
1686426764613411300,7.785411376953125,0.015093524235486983,-0.04004617918431758,-0.014287212821282445
1686426764623356700,7.795356689453125,0.01968618578799069,-0.03726911568641662,-0.016302973090484736
1686426764633301500,7.805301513671875,0.0034282939482480285,-0.05633095903098583,-0.03183627698272466
1686426764643246300,7.815246337890625,-0.02391739361695945,-0.06783844147324562,-0.035185806606337425
1686426764653191700,7.825191650390625,-0.024799364083260295,-0.07016834572553635,-0.03482954051457345
1686426764663136500,7.835136474609375,-0.027822072905302045,-0.04072013292312622,-0.018670761667750776
1686426764673081600,7.84508154296875,-0.03567410157993436,-0.0047393034815788266,-0.003071735595539212
1686426764683026400,7.8550263671875,-0.036789223214983936,-0.01179798982143402,0.0298031271873042
1686426764692971500,7.864971435546875,-0.04016717521548271,-0.04931260470151901,0.0431388479700312
1686426764702916600,7.87491650390625,-0.023653262788057326,-0.06622925271093845,0.07410703688133508
1686426764712861400,7.884861328125,-0.013307371471077203,-0.05702887816727161,0.08336575401611626
1686426764722806500,7.894806640625,0.003686579558253288,-0.013539280530810355,0.07018080334831028
1686426764732751600,7.904751708984375,-0.0025930852331221103,0.034111528438329694,0.046800914141535754
1686426764742696400,7.914696533203125,-0.008431143736839295,0.05165653747916221,0.05535046009365469
1686426764752641500,7.9246416015625,-0.01604907139465213,0.01996960583925247,0.04632113126795739
1686426764762585300,7.93458544921875,-0.004636281498521566,0.00490296961069107,0.03473313093539327
1686426764772530400,7.944530517578125,0.02329246665164828,0.018103811967372894,0.028748832361400127
1686426764782475500,7.9544755859375,0.04732413429804146,0.024474516043066975,0.02275616781786084
1686426764792420600,7.964420654296875,0.05300042636878788,0.007145780101418495,0.02126976518500596
1686426764802365400,7.974365478515625,0.046124622315168375,-0.005294599276781082,0.03796045895144343
1686426764812310500,7.984310546875,0.027956147613748906,-0.011181903749704361,0.05254734883904457
1686426764822255600,7.994255615234375,0.027744916015863416,0.001315174251794815,0.055665079000778495
1686426764832200400,8.004200439453125,0.033630466923117636,0.007055763730406761,0.04674100064784288
1686426764842145500,8.0141455078125,0.03053717708289623,0.01950432641506195,0.04238485126495361
1686426764852090600,8.024090576171876,0.03683598496615886,0.04701426463127136,0.027087694216147064
1686426764862035500,8.034035400390625,0.05202887792289257,0.05515957716405391,-0.004179989098384976
1686426764871980500,8.04398046875,0.0330631153639406,0.03755319332480431,-0.015583243981190025
1686426764881925600,8.053925537109375,-0.011010784966498613,0.029537060129642485,-0.027403299503959713
1686426764891870500,8.063870361328124,-0.045798020709306,0.00943476782143116,-0.018057159814052284
1686426764901815300,8.073815185546875,-0.052511839134246105,-0.002451484805345535,-0.04670673305206
1686426764911759600,8.083759521484374,-0.013047697621583938,0.018991700717806814,-0.0629614830866456
1686426764921704400,8.093704345703125,-0.028229484662413595,0.026142741516232488,-0.0521708802094683
1686426764931649500,8.1036494140625,-0.018985270977020262,0.030265958926081655,-0.03317380919679999
1686426764941594600,8.1135947265625,0.002154620750620961,0.013922726890444754,-0.023727570133283735
1686426764951539500,8.12353955078125,-0.012052987495809792,-0.022217677026987074,-0.005933225973881781
1686426764961484500,8.133484619140624,-0.005883797341585159,-0.07257014617025852,-0.0037862040078267454
1686426764971429600,8.1434296875,-0.015464111113548278,-0.09733224698305129,-0.007643902349285781
1686426764981374500,8.15337451171875,-0.016223916504904626,-0.06859013662338256,-0.018288849678076802
1686426764991319300,8.1633193359375,0.018405863653868437,-0.03366495371460915,-0.013055479069240391
1686426765001264600,8.1732646484375,0.0413572617828846,0.014203881919384001,-0.019710260783322154
1686426765011209500,8.18320947265625,0.044650896500796074,0.04980711022019386,0.0018291881885379553
1686426765021154300,8.193154296875,0.022061755812913177,0.07287994277179241,0.02467025781087577
1686426765031099600,8.203099609375,-0.013733341798186301,0.05852700777053833,0.050127318617887794
1686426765041044500,8.21304443359375,-0.032791678011417386,0.0493827473282814,0.07658325426913798
1686426765050989600,8.222989501953125,-0.0024413287375122305,0.07744388968646526,0.06947086498066783
1686426765060934700,8.2329345703125,0.0035727439202368257,0.020823007798194883,0.08402706746906041
1686426765070879500,8.24287939453125,-0.02608428932726383,0.02475800915956497,0.10435414497647434
1686426765080823300,8.2528232421875,-0.06071034315899014,-0.002377250525355339,0.09526018994934857
1686426765090768600,8.2627685546875,-0.0800837366707623,-0.05918810202777385,0.09508143584895878
1686426765100713500,8.27271337890625,-0.051257309028506275,-0.07690262241661548,0.04974756205268204
1686426765110658300,8.282658203125,-0.0073895257294178006,-0.04763035070300102,0.030930998706072566
1686426765120603600,8.292603759765624,0.00282031811773777,-0.03407294999361038,0.011574410198628902
1686426765130548500,8.302548583984375,0.014486205992102623,-0.018435820400714873,-0.001246200668811798
1686426765140493600,8.31249365234375,0.028568507358431815,-0.014792495462298392,-0.00648267655018717
1686426765150438700,8.322438720703126,0.03871814545094967,-0.015816577813029288,-0.03356032429635525
1686426765160383500,8.332383544921875,0.024244360549002884,-0.015037410134077072,-0.04403970579989254
1686426765170328600,8.34232861328125,0.02675824306607246,-0.02124678616821766,-0.04199581541474908
1686426765180273400,8.3522734375,0.022971710264682768,-0.025989012259244916,-0.04424688227716833
1686426765190218500,8.362218505859374,0.030984336328506466,-0.008354571369290352,-0.04314520464558154
1686426765200163600,8.37216357421875,0.03717544605359435,0.011923662027716636,-0.029657362041063604
1686426765210108400,8.3821083984375,-0.006217559340596199,0.03145663001537323,-0.013008205861411989
1686426765220053500,8.392053466796876,-0.03907704189121723,0.05473229166269302,-0.01069320691730827
1686426765229998600,8.40199853515625,-0.0481365466594696,0.0791980398774147,0.0038530586989596483
1686426765239942700,8.411942626953126,-0.060373658550530666,0.06998948202729224,0.006801423643156885
1686426765249887500,8.421887451171875,-0.06337561684548855,0.049368134281039235,0.013850282708741724
1686426765259832600,8.43183251953125,-0.08545651575028895,-0.00751285984814167,0.007255999010242521
1686426765269777700,8.441777587890625,-0.10568228830769658,-0.07611644047498703,-0.018310988444648683
1686426765279722500,8.451722412109374,-0.11457155107557773,-0.12960253146886824,-0.0033847836000844836
1686426765289667600,8.46166748046875,-0.11606617354750633,-0.15606792906820774,-0.017349084609933195
1686426765299612400,8.4716123046875,-0.060120414441823956,-0.1138975973367691,-0.03456599420756101
1686426765309557500,8.4815576171875,-0.005013298117369413,-0.054120881766080854,-0.040327407278493044
1686426765319502600,8.491502685546875,0.027277298504114148,-0.011027589970827102,-0.028540559905581176
1686426765329447400,8.501447509765624,0.04832578562125563,0.021974515920877454,-0.007532879722863435
1686426765339392500,8.511392578125,0.05821721116900444,0.024680267748236655,0.001552380541153252
1686426765349337600,8.521337646484374,0.06297989552617073,0.041269583499431606,0.005718414179421961
1686426765359282400,8.531282470703125,0.06943886240720748,0.061083706516027444,-0.017975619010441004
1686426765369227500,8.5412275390625,0.04687675585672259,0.07110942596793174,-0.012367241076752543
1686426765379172600,8.551172607421876,0.012450900772213934,0.09270575622618198,-0.006918547216802835
1686426765389117400,8.561117431640625,-0.028480756009742616,0.08117489290833473,-0.020701682973466813
1686426765399062500,8.5710625,-0.022332097186893222,0.05330664277374744,-0.023522001091204583
1686426765409006600,8.581006591796875,-0.012693038965016603,0.010891980892419814,-0.00624430121704936
1686426765418951400,8.590951416015624,-0.06382409126535057,-0.03552899402081966,0.010954342071525751
1686426765428896500,8.600896484375,-0.08004851922690868,-0.022031214544177054,0.029299634644575415
1686426765438841600,8.610841552734374,-0.07168802957348525,-0.0068108490586280815,0.04688435464128852
1686426765448786400,8.620786376953125,-0.04849252049028873,-0.01221066227555275,0.054695247587934134
1686426765458731500,8.6307314453125,-0.03446589483395219,-0.017256255227327346,0.04564962521456182
1686426765468676600,8.640676513671876,-0.027443887242674825,-0.022036475241184232,0.04163483661524951
1686426765478621400,8.650621337890625,-0.008713613940030335,-0.04036182100474834,0.029320421704277396
1686426765488566500,8.66056640625,0.0036228666722774505,-0.041937107497453684,0.01813512042108923
1686426765498511600,8.67051171875,0.013345803785324096,-0.03063654580414295,-0.013138663840666413
1686426765508457000,8.68045703125,0.014448650460690259,-0.023698270973563192,-0.03375274159591645
1686426765518401800,8.69040185546875,-0.005872691425681114,0.00997720413506031,-0.03933463338147849
1686426765528347000,8.700346923828125,-0.001010492216795683,0.033543373161554334,-0.043015586916543544
1686426765538292000,8.7102919921875,0.021446254263073204,0.03933481604456901,-0.0523990264095366
1686426765548236800,8.72023681640625,0.05032850374579429,0.04443652309775352,-0.04569196651894599
1686426765558182000,8.730181884765624,0.04030219977200031,0.04304126934707164,-0.03805902395509183
1686426765568127000,8.740126953125,0.047025370547175406,0.029800094980001447,-0.04001987569928169
1686426765578070800,8.75007080078125,0.023933833295106885,0.029879589956998822,-0.04694854245129972
1686426765588015900,8.760015869140625,-0.013591449109464884,0.021200608938932417,-0.03431629376281053
1686426765597961000,8.7699609375,-0.017625599996373056,0.0025648820519447325,-0.024952801079303026
1686426765607905800,8.77990576171875,-0.020157164300605653,-0.016187164691090584,-0.011819471000880002
1686426765617851000,8.789850830078125,-0.010427432120591402,-0.008919219514727591,0.00905760507211089
1686426765627796000,8.7997958984375,-0.021926585125923156,-0.0037578912287950512,0.041202801873534915
1686426765637740800,8.80974072265625,-0.04171557370126247,-0.013964227944612502,0.061169923494756216
1686426765647686000,8.819685791015624,-0.0483991431184113,-0.02366612226963043,0.08258388292342424
1686426765657631000,8.829630859375,-0.0453228044129908,-0.01237315936088562,0.10243154288344085
1686426765667575800,8.839575927734375,-0.009543488892912864,-0.012890461233258247,0.10948449360225349
1686426765677521000,8.84952099609375,0.010898995155096054,-0.014307926815748214,0.12171349525209516
1686426765687466000,8.859466064453125,0.028054712617397306,-0.009418401208519936,0.12135229725688695
1686426765697410800,8.869410888671876,0.035306291180849075,-0.0029319617986679077,0.09424980733040719
1686426765707356000,8.87935595703125,0.04798223288059234,-0.005319733718037605,0.06936291109416634
1686426765717301000,8.889301025390624,0.034992549056559796,-0.008750292688608169,0.04725749880261719
1686426765727245800,8.899245849609375,0.021486440142989158,-0.009476853397488593,0.024451135167479515
1686426765737191000,8.90919091796875,0.011505144354701041,-0.003921557357907295,0.0029212212089449164
1686426765747135000,8.919135009765625,-0.008682488149404526,0.015353636476397514,-0.016307539667747915
1686426765757079800,8.929079833984375,0.008044774767756462,0.03518997132480144,-0.037361068286187946
1686426765767025000,8.93902490234375,0.02253682597875595,0.050204585105180735,-0.053095630371570585
1686426765776970000,8.948969970703125,0.025457097339630124,0.05516133072972297,-0.033733561971411107
1686426765786914800,8.958914794921874,-0.01979015761911869,0.02020925981402397,0.004101845828257501
1686426765796860000,8.96885986328125,-0.05996485855393111,-0.008036591461300849,0.045780923444032666
1686426765806805000,8.978804931640624,-0.07414017196595668,-0.020310382100939748,0.08067589387763291
1686426765816749800,8.988749755859375,-0.09354761387780308,-0.012479542344808577,0.08062697670198976
1686426765826695000,8.99869482421875,-0.07740428832843899,-0.013897007927298545,0.07454714533165097
1686426765836640000,9.008639892578126,-0.06328223947361111,-0.02367138296663761,0.05690046601463109
1686426765846584800,9.018584716796875,-0.06591843319609761,-0.029511341166496275,0.03648932695295661
1686426765856530000,9.028530029296874,-0.04341010265946388,-0.044779637446999546,0.007216178456507623
1686426765866474800,9.038474853515625,-0.039210897403955454,-0.014625906723737717,-0.03013009411934763
1686426765876419800,9.048419921875,-0.03687237145379185,0.005275894576311111,-0.04441577257066965
1686426765886365000,9.058364990234375,-0.07148403143398463,0.011802665996551514,-0.05486256697885692
1686426765896309800,9.068309814453125,-0.04657353512644768,0.00709025052189827,-0.05971329494565725
1686426765906255000,9.078255126953126,0.0156985043913126,0.0038736265629529952,-0.060170391063392156
1686426765916200000,9.088199951171875,0.00844677969738841,-0.005747603741288185,-0.05794548155553639
1686426765926144000,9.09814404296875,-0.010979805306345224,-0.006653028148412704,-0.05149024100154638
1686426765936088800,9.1080888671875,-0.026379472881555555,0.02000876880586147,-0.012344152462109922
1686426765946034000,9.118033935546874,-0.037651977524161336,0.025750527328252792,-0.005295183798670769
1686426765955978800,9.127978759765625,-0.024851678792387245,-0.015516133561730384,-0.007774652589485048
1686426765965923800,9.137923828125,-0.04021583666279912,-0.012166238611936568,-0.024986959077231585
1686426765975869000,9.147868896484376,-0.04176350449621677,0.0017898060262203216,-0.0040053266512230035
1686426765985813800,9.157813720703125,-0.05756598071865737,0.014506079736351965,0.012059746030159293
1686426765995759000,9.167759033203126,-0.07068265192322433,0.00623100334405899,0.011373371201194821
1686426766005704000,9.177703857421875,-0.08050108529999851,0.005150222370028495,-0.00499389929715544
1686426766015648800,9.187648681640624,-0.0931798034787178,0.018267478096485136,-0.017907303014583886
1686426766025594000,9.197593994140625,-0.06035787645950913,0.04360182583928108,-0.0324353023217991
1686426766035539000,9.2075390625,-0.035993250531703234,0.03770049284100532,-0.03762432233225554
1686426766045483800,9.21748388671875,-0.014387567923218011,0.014829904863238335,-0.05262256949972361
1686426766055428900,9.227428955078125,-0.006364420465379953,-0.009132570004463195,-0.05340407526623457
1686426766065374000,9.2373740234375,0.0009206950414925813,-0.02801496512889862,-0.042666810011491176
1686426766075318800,9.24731884765625,-0.01329728846848011,-0.03235153302848339,-0.03581836888883263
1686426766085264000,9.257263916015624,-0.02975676729492843,-0.041726679617166515,-0.03701802700217813
1686426766095209000,9.267208984375,-0.03432597490660846,-0.03923194019198417,-0.03357453548479825
1686426766105152800,9.27715283203125,-0.022996844705939292,-0.023441665863990782,-0.05440046589244157
1686426766115098000,9.28709814453125,-0.027009587478637694,0.002495323947072029,-0.058088725951127705
1686426766125043000,9.29704296875,-0.04001052334904671,0.023334698358178137,-0.04667754349019378
1686426766134987800,9.30698779296875,-0.05912782320789992,0.02322480824291706,-0.05029083861652761
1686426766144932900,9.316932861328125,-0.07002791434153914,0.016814941200613973,-0.0534076554628089
1686426766154878000,9.3268779296875,-0.07157587443590163,0.009986556485295296,-0.041007206236198544
1686426766164822800,9.33682275390625,-0.07163133095018565,0.007812135055661201,-0.033856932622753085
1686426766174767900,9.346767822265624,-0.047774654544517396,-0.012822656694054602,-0.026617263692803678
1686426766184713000,9.356712890625,-0.02752506272010505,-0.015577508360147475,-0.019438531169854105
1686426766194657800,9.36665771484375,-0.043309126503020524,-0.004902385088801383,-0.011231916903890669
1686426766204603000,9.376602783203126,-0.03773454124107957,-0.017298925325274467,-0.003328925227001309
1686426766214548000,9.3865478515625,-0.044217327389121056,-0.020310382100939748,-0.0022031360674649478
1686426766224492800,9.396492919921876,-0.04894610947668552,-0.071547232863307,-0.029665253086574375
1686426766234438000,9.40643798828125,-0.030355536905676123,0.015029226827621459,-0.027648287240974602
1686426766244383000,9.416383056640624,-0.007537994289398193,0.08708265564739703,-0.017928090074285863
1686426766254328000,9.426328125,0.006143325060606003,0.021906126859784124,-0.030420747628994285
1686426766264273000,9.43627294921875,-0.011687661314755678,0.06277239025533199,-0.039351182657480235
1686426766274217700,9.4462177734375,0.013888240098953246,0.07609013698995112,-0.00490161790382117
1686426766284163000,9.4561630859375,-0.02564049108251929,0.05937164190113544,0.04363342655394226
1686426766294107000,9.46610693359375,-0.06082235216610133,0.023536942932009697,0.07516472924072296
1686426766304052000,9.476052001953125,-0.05335398904681205,-0.008365677285194396,0.08473225659634917
1686426766313996800,9.485996826171874,-0.041833062601089474,-0.052130584731698036,0.08730725818350911
1686426766323942000,9.49594189453125,-0.03720423375666141,-0.06383797366023063,0.08532156425900757
1686426766333887000,9.505886962890624,-0.028190321695804595,-0.08816869731843471,0.0880755026096478
1686426766343831800,9.515831787109375,-0.014454787940531968,-0.09626491001248359,0.06232256412860006
1686426766353777000,9.52577685546875,0.008442834174633025,-0.07805529958307743,0.043890068196132774
1686426766363721700,9.5357216796875,0.0325602073431015,-0.06343640712201595,0.013600436133518815
1686426766373667000,9.5456669921875,0.014082301366329193,-0.035221535506844516,-0.024378764051012695
1686426766383612000,9.55561181640625,0.004827639352157712,-0.0025485154390335082,-0.05299344863872975
1686426766393556700,9.565556640625,0.03318747239597142,0.008833879318833351,-0.07775164046138525
1686426766403502000,9.575502197265624,0.07306172907948494,-0.01329027420580387,-0.08148750252146274
1686426766413447000,9.585447021484375,0.047648470881581306,-0.03685118253529072,-0.06420439581982791
1686426766423391700,9.595391845703125,-0.0035071313381195065,-0.023331191226840017,-0.05623389186467975
1686426766433337000,9.605337158203126,-0.006437924093008041,0.03339724268913269,-0.0279027734586969
1686426766443282000,9.615281982421875,-0.01693184557855129,0.030348376512527465,0.006018529637157917
1686426766453226800,9.625226806640624,-0.011571706784889101,0.0062730889201164245,0.028334662069939075
1686426766463171800,9.635171875,-0.016936375623196363,0.020973814445734023,0.03193429399710149
1686426766473117000,9.645116943359374,-0.02477722531668842,0.04027472724318504,0.03537270748056471
1686426766483060700,9.655060791015625,-0.03366612275838852,0.031252047353982924,0.029323125118017195
1686426766493006000,9.665006103515625,-0.041766573236137625,0.028029578176140782,0.030109416657499968
1686426766502951000,9.674950927734375,-0.03757642806991934,0.021669980016350746,0.0034364041894674297
1686426766512895700,9.684895751953125,-0.03619023440852761,0.011109423035383224,-0.014704561450518667
1686426766522841000,9.694841064453126,-0.039611221833154554,0.0021837737798690794,-0.037194589145481585
1686426766532786000,9.704785888671875,-0.02381634439527988,0.00012859481573104857,-0.04212035510987043
1686426766542730800,9.714730712890624,0.004968436062335968,-0.002973462852835655,-0.05190912400074303
1686426766552675800,9.72467578125,0.01913965782113373,0.012013093876838684,-0.03868018806073814
1686426766562621000,9.734620849609374,0.02137318902686238,0.02380465395748615,-0.04896046679560095
1686426766572565800,9.744565673828125,0.008029065741971134,0.053822191080451005,-0.019854381961748
1686426766582510800,9.7545107421875,-0.011083119550347327,0.05693535466492176,0.0008806918246671557
1686426766592456000,9.7644560546875,-0.013685995525121689,0.042083237969875335,-0.00003693447690457105
1686426766602400800,9.77440087890625,-0.011881722582131623,0.03231704623699188,-0.00950761386193335
1686426766612345900,9.784345947265624,0.002648468682169914,0.0023106150299310683,-0.016448738236725328
1686426766622291000,9.794291015625,-0.011495792004466055,-0.024733459240198135,-0.020207725444063542
1686426766632236000,9.804236083984375,-0.011337386572360992,-0.04625672426223754,-0.010364486419595777
1686426766642180900,9.814180908203125,-0.010564210242778063,-0.052014264875650404,0.0003147285049781203
1686426766652126000,9.8241259765625,-0.015147884771227835,-0.0357364992916584,0.003757416304759681
1686426766662071000,9.834071044921876,-0.0020243454344570635,-0.01867079820036888,-0.00335917423479259
1686426766672016000,9.844015869140625,0.010367664757370948,-0.0069826984941959375,-0.0005877002274617552
1686426766681960000,9.8539599609375,0.018750293177366255,0.017409984484314918,0.012914682359062134
1686426766691904800,9.86390478515625,0.02554638305827975,0.01664484533071518,0.01693473165538162
1686426766701849900,9.873849853515624,0.037911066851764916,0.01005085389316082,0.030632271487824617
1686426766711795000,9.883794921875,0.018044775256514548,-0.0023655600875616073,0.03481540239136666
1686426766721740000,9.893739990234375,0.025171266135573387,-0.0056552492827177045,0.028998496273532508
1686426766731684900,9.903684814453126,0.02700388839021325,0.010385784935951232,0.030246633171103893
1686426766741630000,9.9136298828125,0.03587861117608845,0.03658814768493175,0.030017683253437278
1686426766751575000,9.923574951171876,0.034375293941050766,0.035660511445999146,0.030051548990420996
1686426766761519900,9.933519775390625,0.03117730161733925,0.0482715712159872,0.0320815569806844
1686426766771464700,9.943464599609374,0.029345921471714973,0.06812953337430953,0.044548605170100924
1686426766781410000,9.95341015625,0.019739158084243535,0.057846624290943144,0.04345905636772513
1686426766791355000,9.96335498046875,0.018421207353472708,0.04606617012619972,0.04058781178034842
1686426766801299700,9.9732998046875,0.032715105643868446,0.009408464336395262,0.04480451615992933
1686426766811245000,9.9832451171875,0.03247486714720726,-0.011277180817723274,0.042277080041542646
1686426766821190000,9.99318994140625,0.030185294905304905,-0.03718611357808113,0.04725187277942896
1686426766831134700,10.003134765625,0.01377937289699912,-0.06406009197831153,0.061854179431870576
1686426766841080000,10.013080078125,0.02338730532824993,-0.06181026722490787,0.0686632749248296
1686426766851025000,10.02302490234375,0.029252982491254804,-0.053362172353267665,0.0785264242261648
1686426766860969700,10.0329697265625,0.025552812799066304,-0.03661971186697483,0.08633691531401128
1686426766870914800,10.042914794921876,0.018733342042565344,-0.0029617724150419232,0.08765702146925032
1686426766880859000,10.05285888671875,-0.006026420682668686,0.04052198000252247,0.06805044025611132
1686426766890803700,10.0628037109375,-0.011154577351361512,0.06838263135254383,0.05042955296747386
1686426766900749000,10.0727490234375,0.005209916668012738,0.06309796894788741,0.03504296406954527
1686426766910694000,10.08269384765625,0.014628244811296463,0.06370996336638927,0.031321641991473734
1686426766920638700,10.092638671875,0.0029477438896894454,0.062302434656023975,0.03101316056419164
1686426766930584000,10.102583984375,0.020983605187386272,0.03558627716600895,0.06287347600962967
1686426766940529000,10.11252880859375,0.0022317045748233796,0.009086392775177955,0.07325633833613246
1686426766950473700,10.1224736328125,0.018489596414566038,-0.02914601498544216,0.0927653409263119
1686426766960418800,10.132418701171876,0.03266132963001728,-0.03650923722982406,0.09605766046997159
1686426766970364000,10.142364013671875,0.04932078800797462,-0.0021820202142000195,0.08840382124856114
1686426766980309000,10.15230908203125,0.045158992153406144,0.0011029928058385848,0.0760947035672143
1686426766990253800,10.16225390625,0.011175474008917809,-0.023589549902081487,0.08804930872246622
1686426767000199000,10.172198974609374,-0.03757942374460399,-0.021620880177617072,0.07259933573212474
1686426767010144000,10.18214404296875,-0.0514599919937551,0.0027542671442031858,0.06860628404058515
1686426767020088800,10.1920888671875,-0.06215915372781455,0.009623568391799927,0.04584580537378788
1686426767030034000,10.202033935546876,-0.04265307374708354,-0.00028349311649799344,0.012465258091129363
1686426767039979000,10.21197900390625,-0.0013638356991112232,-0.04365735541880131,-0.007884396574273705
1686426767049923800,10.221923828125,0.03143368753120303,-0.05423252544701099,-0.018925247885473073
1686426767059869000,10.231868896484375,0.07327800217866898,-0.05342646976113319,-0.03545311577301472
1686426767069814000,10.24181396484375,0.08118366073668003,-0.0929489173322916,-0.03167407215833664
1686426767079758800,10.2517587890625,0.011859949141740798,-0.10014905796945095,-0.021439714924432335
1686426767089703000,10.261702880859374,-0.033837387672066684,-0.07146013910174369,-0.0191995347822085
1686426767099648000,10.27164794921875,-0.04445683523342013,-0.028147651597857475,-0.017829378940165043
1686426767109592800,10.2815927734375,-0.048524011607095595,-0.0011246201157569884,-0.02060750188399106
1686426767119538000,10.291537841796876,-0.0340197585016489,0.01362228263914585,-0.01938022511135787
1686426767129483000,10.30148291015625,-0.032712183034420014,0.023121347868442534,-0.03913651699349284
1686426767139427800,10.311427734375,-0.03741933781206608,0.020151976668834684,-0.06402155006621033
1686426767149373000,10.321373046875,-0.0344390068270266,0.007134089663624763,-0.06379102924596518
1686426767159318000,10.331318115234374,-0.03810629716292024,-0.018871873730421065,-0.05277757739834487
1686426767169262800,10.341262939453125,-0.03148059541285038,-0.0439496163636446,-0.04269132339823991
1686426767179207700,10.351207763671875,-0.02017886467576027,-0.04614040440618992,-0.04528422596827149
1686426767189153000,10.361153076171876,0.00020516718327999114,-0.037999768048524854,-0.04958195969481021
1686426767199097900,10.371097900390625,0.026870325138419866,-0.03077683105766773,-0.05251834194026887
1686426767209042700,10.381042724609374,0.02915931285843253,0.003215454915165901,-0.0541319876819849
1686426767218988000,10.390988037109375,0.04585501159355044,0.022515783190727234,-0.07945968648828565
1686426767228932900,10.400932861328124,0.040597967848181725,0.03474222755730152,-0.0940398178415373
1686426767238878000,10.4108779296875,0.02373692248351872,0.0248527017056942,-0.10214929187595843
1686426767248823000,10.420822998046875,-0.0018780688315629959,-0.028355741390585897,-0.11528704240117221
1686426767258768000,10.430767822265626,-0.0037490503352135417,-0.017184359034895895,-0.10744327009823172
1686426767268713000,10.440712890625,0.03433700775727629,0.002475450202822685,-0.09025847267191857
1686426767278657800,10.45065771484375,0.05720321182087063,0.019936872613430023,-0.07136690786033868
1686426767288603000,10.460602783203125,0.0413309582978487,0.05253682744503021,-0.05877404133416712
1686426767298546700,10.470546630859374,0.01417706697769463,0.054229018315672874,-0.047125031529366965
1686426767308492000,10.480491943359375,-0.03030921354591846,0.031234511697292328,-0.03934877150468528
1686426767318436900,10.490436767578124,-0.04882452892363071,0.008303717964887618,-0.05815196391306817
1686426767328381700,10.500381591796875,-0.04518997181355953,-0.020513795718550682,-0.06777977008856832
1686426767338327000,10.5103271484375,-0.01509425488784909,0.003972410762310028,-0.05847085713651031
1686426767348271900,10.52027197265625,0.001568710621446371,-0.007868249157071114,-0.021856990488432346
1686426767358217000,10.530217041015625,0.00039228725321590897,-0.03580430383086204,0.005076353416219354
1686426767368161800,10.540161865234374,-0.004746171613782644,-0.0372048182785511,0.018940080128423867
1686426767378107000,10.55010693359375,-0.00419452908039093,0.004641688326001167,0.03923676249757409
1686426767388052000,10.560052001953125,0.00810673408806324,0.06261340030133723,0.05282601964995265
1686426767397996800,10.569996826171876,0.06573299362659454,0.08054653187692165,0.057247124027833336
1686426767407942000,10.57994189453125,0.07229308279454708,0.04304185386896133,0.06911237039919942
1686426767417887000,10.589886962890626,0.029049641938880086,0.013699439528584479,0.06011146395038813
1686426767427831800,10.599831787109375,0.025455928295850753,0.024716508105397224,0.0626989596929401
1686426767437777000,10.60977685546875,0.005557049605250358,0.01182020165324211,0.06198087455146015
1686426767447722000,10.619721923828125,0.041319267860054965,0.01412204885482788,0.042021095986478026
1686426767457666800,10.629666748046875,0.08591697286888957,0.028871289697289464,0.04353288878891617
1686426767467612000,10.63961181640625,0.07436755098104476,0.05006313080787658,0.038816710454598065
1686426767477557000,10.649556884765625,0.044374563777446745,0.0304600201934576,0.0514329578563571
1686426767487501800,10.659501708984376,-0.008859013760089874,-0.027067455145716665,0.04965641317050904
1686426767497447000,10.669447021484375,-0.032854660245031114,-0.03298632380068302,0.06078355452567338
1686426767507392000,10.67939208984375,-0.0030417788486927747,-0.03661269760429859,0.09316073345206677
1686426767517337000,10.689337158203125,-0.002351969953626394,-0.07240063482224941,0.1251992915412411
1686426767527281200,10.69928125,-0.039565117669105525,-0.07119125903248787,0.12798833773788065
1686426767537226000,10.70922607421875,-0.029409195966273543,-0.012861235138773918,0.10026968867443502
1686426767547171000,10.719171142578125,0.004043722432851791,0.02240706211924553,0.08201444900501519
1686426767557116000,10.729115966796876,-0.009485036703944206,0.016301730981469153,0.07308222387824208
1686426767567061000,10.73906103515625,-0.038882834493368865,0.008045943811535835,0.0675932345405221
1686426767577006000,10.749006103515624,-0.009876666370034218,0.03137888860404491,0.03871438259128481
1686426767586951000,10.758950927734375,0.008440496087074279,0.03262450475096702,0.036828532312065364
1686426767596896300,10.768896240234374,-0.01659508790485561,0.02829670467972755,0.033521161329746245
1686426767606841000,10.778841064453125,-0.036572950115799904,0.020876199290156362,0.0205388936271891
1686426767616786000,10.788785888671875,-0.0307563727915287,0.012854220876097678,0.012156959326937795
1686426767626731300,10.798731201171876,-0.02743095469586551,-0.005198153164982795,0.01643854563627392
1686426767636676000,10.808676025390625,-0.03534771916978061,-0.024091069683432578,0.009069295509904622
1686426767646621000,10.818620849609376,-0.029198037433624265,-0.029631168153882025,-0.003406045583821833
1686426767656566000,10.82856591796875,-0.012896890974044799,-0.026660043388605115,-0.020545031107030806
1686426767666511000,10.838510986328124,-0.004388736478239298,-0.036759997120499606,-0.028746750002168118
1686426767676456000,10.8484560546875,-0.004228577480465174,-0.03215864080488682,-0.0474506467545405
1686426767686401000,10.858401123046875,0.010697919625043868,-0.03157411891520023,-0.07125986728928983
1686426767696346000,10.86834619140625,0.01972710232026875,-0.019313772279024123,-0.09250223301071674
1686426767706291000,10.878291015625,0.011625555863976478,-0.007400047123432159,-0.09899601547680795
1686426767716236000,10.888236083984374,-0.0054383185964077705,-0.006154430976510048,-0.10537541431561112
1686426767726181000,10.89818115234375,-0.006071355802938341,-0.0032002573460340497,-0.12696283061504363
1686426767736126000,10.9081259765625,-0.01861658379510045,0.01729834080338478,-0.1314302948853001
1686426767746071000,10.918071044921875,-0.03741926474682986,0.037305356043577195,-0.13130239418931305
1686426767756015000,10.92801513671875,-0.04903028062880039,0.041655367946624756,-0.12737853527646512
1686426767765960000,10.9379599609375,-0.03022621143758297,0.06730068133473396,-0.1287347721910104
1686426767775905000,10.947905029296875,-0.02211786991432309,-0.015419687449932098,-0.12471892414577304
1686426767785850000,10.95785009765625,-0.05930500640571117,-0.14011223504543305,-0.09434676489885896
1686426767795795000,10.967794921875,-0.06784735543206334,-0.17286942626535892,-0.042760479644313454
1686426767805740000,10.977739990234374,-0.019201105684787032,-0.13009995959699153,0.016561989352852104
1686426767815685000,10.98768505859375,0.010282909083366393,-0.041055648487806316,0.0517995626790449
1686426767825630000,10.9976298828125,0.010708514084294438,0.024245383462309835,0.06829155553560703
1686426767835575000,11.007574951171875,0.004125628562644124,0.11107084947824478,0.07642868476193397
1686426767845520100,11.01752001953125,0.01049574811644852,0.14769699108600615,0.09592080928254872
1686426767855465200,11.02746533203125,-0.03899097104296088,0.13151625613570211,0.11860698060411959
1686426767865410000,11.03741015625,-0.0997923534862697,0.10222644876539706,0.13185524229910223
1686426767875355000,11.04735498046875,-0.13287395435497165,0.06800678377747535,0.15070092214234174
1686426767885300200,11.05730029296875,-0.136018170664832,0.041155017209053034,0.14174944432582706
1686426767895245000,11.0672451171875,-0.07443871652111411,0.0014665654212236404,0.11366956073455511
1686426767905190000,11.07718994140625,-0.0037309301566332575,-0.06197334883213043,0.07755779838971794
1686426767915135200,11.08713525390625,0.023036080737784504,-0.08986439532041549,0.05605806037373841
1686426767925080000,11.097080078125,0.07774258037209511,-0.09471709604859352,0.04845434390436858
1686426767935025000,11.10702490234375,0.09506086798496544,-0.08407470600306988,0.04845814329665154
1686426767944970200,11.11697021484375,0.10841595105528831,-0.1035796169400215,0.042255343133769926
1686426767954915000,11.1269150390625,0.11898410682082175,-0.09326397463083266,0.0279648789094761
1686426767964860000,11.13685986328125,0.10434124896228313,-0.03473696686029434,0.02555084003768861
1686426767974805000,11.146804931640625,0.07472980842217802,0.005362403815984726,0.018056904085725543
1686426767984750000,11.15675,0.021374650331586597,0.011207038190960883,0.009770539114437997
1686426767994695000,11.16669482421875,0.01075929442346096,0.017797522497177122,0.019658165269903837
1686426768004639200,11.17663916015625,0.0021855273455381394,0.037442134165763856,0.018977197268418965
1686426768014584000,11.186583984375,-0.01740399313494563,0.04381634537279606,-0.0011736103566363453
1686426768024529000,11.19652880859375,-0.023248116053268313,0.05341419480144977,-0.027250812355987725
1686426768034474200,11.20647412109375,-0.008181114498525857,0.04667524193525314,-0.044951158089004455
1686426768044419000,11.216419189453125,0.010288169780373573,0.045156654065847394,-0.07815382805410773
1686426768054364000,11.226364013671875,0.03411810430958867,0.02942717001438141,-0.11392101474497467
1686426768064309200,11.236309326171876,0.043243513920903205,-0.01323883627951145,-0.12016129737403243
1686426768074254000,11.246254150390625,0.04441942583248019,-0.026549568751454353,-0.1491985912879929
1686426768084199000,11.256198974609376,0.0226614022064954,-0.03416705801784992,-0.19074651680476962
1686426768094144000,11.26614404296875,0.017864596384018657,-0.005552373430132865,-0.23668369025643912
1686426768104089000,11.276089111328124,0.042200580739229915,-0.0019411971956491468,-0.2719040567195043
1686426768114034200,11.2860341796875,0.051456704058125614,0.00042903906702995297,-0.28423757818974554
1686426768123979000,11.29597900390625,0.06683664401955902,0.02131342166364193,-0.26695856314133853
1686426768133924000,11.305924072265626,0.061601592910289764,0.03224515004456043,-0.23147234881632028
1686426768143869200,11.315869140625,0.009453326391428709,0.04131692977249622,-0.18936901790648697
1686426768153814000,11.32581396484375,-0.06372223832607268,0.05129764103889465,-0.14440514646638183
1686426768163759000,11.335759033203125,-0.12217983412221073,0.07361117965579032,-0.04633077587913721
1686426768173704200,11.3457041015625,-0.16366262198090553,0.08495674953460693,0.03187982386350632
1686426768183649000,11.35564892578125,-0.17561083392798899,0.09407996718883514,0.11238956739399582
1686426768193593900,11.36559375,-0.16698285244479774,0.08806348337829112,0.176115093655698
1686426768203539200,11.375539306640626,-0.15899572614841162,0.0514917023062706,0.20941819178797302
1686426768213484000,11.385484130859375,-0.1647609386116266,-0.006081365740299225,0.22159571897890418
1686426768223428900,11.395428955078126,-0.15396496543958782,-0.03568681493103504,0.21421065022889524
1686426768233374200,11.405374267578125,-0.13039097843281924,-0.050184711360931396,0.18217665871698407
1686426768243319000,11.415319091796874,-0.08112769276574254,-0.07188450199365616,0.14277221150230615
1686426768253263000,11.42526318359375,-0.02804872126802802,-0.08640110312402248,0.1299824341645464
1686426768263208200,11.435208251953124,0.0280647956199944,-0.09853694659769534,0.11623941122256219
1686426768273153000,11.445153076171875,0.06831614198759198,-0.07685761423110961,0.11094842867497354
1686426768283097900,11.455097900390625,0.08352160216495394,-0.04978489838838577,0.10256590985283255
1686426768293043200,11.465043212890626,0.1015840592086315,-0.045859249377250666,0.10699066749252378
1686426768302988000,11.474988037109375,0.11210019252598286,-0.026210546055436133,0.11499883657693863
1686426768312932900,11.484932861328126,0.12380524336695671,0.006087795481085777,0.12377437330465763
1686426768322878200,11.494878173828125,0.1046036992907524,0.028856092128157613,0.13482048531286417
1686426768332823000,11.504822998046874,0.07372340785861015,0.049988896527886385,0.14298570812251418
1686426768342767900,11.514767822265625,0.043804070413112635,0.06755261026918888,0.15674944505896418
1686426768352713200,11.524713134765625,-0.0025223580844700336,0.07873100688755512,0.17793792516868562
1686426768362658000,11.534657958984376,-0.022800006959587334,0.06800678377747535,0.1684474816372618
1686426768372603100,11.54460302734375,-0.04719970420077443,0.044484453892707825,0.15704163293857126
1686426768382548000,11.5545478515625,-0.0997990754880011,0.011655366480350494,0.15239216316491364
1686426768392493000,11.5644931640625,-0.1500404854722321,-0.009181085321307183,0.1344318147888407
1686426768402438100,11.574438232421874,-0.13485402225628496,-0.012174421918392181,0.10358875009454786
1686426768412383000,11.584383056640625,-0.08731471083760262,0.008774842607975005,0.09031988400295377
1686426768422328000,11.594328125,-0.0925567031443119,0.01685001251399517,0.0874463013280183
1686426768432273200,11.604273193359376,-0.07287628950998187,0.04024959280192852,0.08539053784199059
1686426768442218000,11.614218017578125,-0.08367365092150866,0.05589022952616214,0.08094634484946728
1686426768452163000,11.6241630859375,-0.06104213239662349,0.033684827458858486,0.054758522082492704
1686426768462108200,11.634108154296875,-0.03784187407307327,0.023998715224862098,0.0010129399022087455
1686426768472053000,11.644052978515624,-0.026958076487109062,0.0002671265035867691,-0.018579905046522616
1686426768481998000,11.653998046875,-0.06136413089260458,-0.06393675785958766,-0.06954776614177971
1686426768491943200,11.663943115234375,-0.05683006765954196,-0.0764747523933649,-0.12671141313724218
1686426768501888000,11.673887939453126,-0.03372157927267253,-0.062329907184839245,-0.15889303295891732
1686426768511831800,11.683831787109375,-0.04101473195552826,-0.060765142086148256,-0.18777572083305566
1686426768521776600,11.693776611328126,-0.05357669188678264,-0.05905716912448406,-0.21496629090178757
1686426768531721700,11.7037216796875,-0.0567722730576992,-0.04706687160134315,-0.24625454208031294
1686426768541666800,11.713666748046874,-0.06207622468471527,-0.03707914607226848,-0.25745887685753405
1686426768551611600,11.723611572265625,-0.06602583909332752,-0.026955226942896843,-0.2641454784819856
1686426768561556700,11.733556640625,-0.04717398523762822,-0.013625205248594284,-0.27610001057200134
1686426768571501800,11.743501708984375,-0.028906945532560346,0.0028559739530086515,-0.27094186062384396
1686426768581447000,11.753447021484375,-0.029324878683686256,0.00942950712442398,-0.27163598036784675
1686426768591391700,11.763391845703126,-0.020953283114358782,0.023201427367329597,-0.26950908787436784
1686426768601336800,11.7733369140625,-0.023634558087587354,0.012897475495934486,-0.266352231278643
1686426768611282000,11.783281982421874,-0.030423779836297033,0.0008317746490240096,-0.24815562646128236
1686426768621226800,11.793226806640625,-0.01791632657125592,-0.00015606734454631804,-0.22700623625293373
1686426768631171600,11.803171630859374,-0.026094226199388504,-0.010987257960438727,-0.19645572476442902
1686426768641117000,11.813116943359375,-0.044565702435374256,0.000173018479347229,-0.15891911724824456
1686426768651061800,11.823061767578125,-0.03933247795701027,0.004144260197877884,-0.12147837132196873
1686426768661006600,11.833006591796876,-0.03979074311852455,0.00917114844918251,-0.09151545046307145
1686426768670952000,11.842951904296875,-0.04477437674999237,0.026172552132606504,-0.06486980092599988
1686426768680896800,11.852896728515624,-0.02017725724056363,0.026013562178611754,-0.0482965229941532
1686426768690841600,11.862841552734375,-0.003911620485782623,-0.0013309563428163527,-0.013833185443468392
1686426768700787000,11.872786865234374,0.04358202516026795,0.008421791386604309,0.027187939720228312
1686426768710731800,11.882731689453125,0.06942841407842934,0.016789222237467764,0.05011942757237702
1686426768720676600,11.892676513671875,0.07017367948777974,0.01615852311849594,0.09053217504676431
1686426768730621700,11.90262158203125,0.04098492133915424,0.013895838883519172,0.1294327643925324
1686426768740566800,11.91256689453125,0.015703618957847356,0.018976503148674963,0.15800178320761768
1686426768750511900,11.922511962890624,0.02967515342608094,0.023889994153380393,0.1641627169901505
1686426768760456700,11.932456787109375,0.03145494951494038,0.02457505380809307,0.16819116878863424
1686426768770401800,11.94240185546875,0.025229718324542044,-0.0006587561696767807,0.15589366847984493
1686426768780347000,11.952346923828125,0.028720629180222747,-0.026835399955511093,0.13330547764003275
1686426768790291700,11.962291748046875,0.03202946146726608,-0.06186345871686935,0.11735307155288756
1686426768800235800,11.97223583984375,0.041982188748195766,-0.07325345225930213,0.09998824138455092
1686426768810180600,11.9821806640625,0.04058963841125369,-0.06620411826968192,0.07650006949771196
1686426768820125700,11.992125732421876,0.02901025977656245,-0.05000760122835636,0.06401471846662461
1686426768830070800,12.00207080078125,-0.00917114844918251,-0.010318564918637274,0.051772784269973636
1686426768840016000,12.012015869140624,-0.0350127881269902,0.01320142687857151,0.02545307875163853
1686426768849960700,12.021960693359375,-0.03700651922747492,0.023226561808586118,-0.009455591413751244
1686426768859905800,12.03190576171875,-0.026089988415688273,0.04996785373985767,-0.044415699505433434
1686426768869851000,12.041850830078126,-0.04936418875828385,0.07249123571515083,-0.07202423925790935
1686426768879795700,12.051795654296875,-0.0801473034262657,0.09319090939462184,-0.09203319072686135
1686426768889740800,12.06174072265625,-0.0968617068618536,0.0914110402405262,-0.09540591856297105
1686426768899686000,12.071685791015625,-0.11413096770122647,0.0650549482345581,-0.10195848201159387
1686426768909630700,12.081630615234374,-0.11396671705022454,0.025687983486056325,-0.1082383294660598
1686426768919575800,12.091575927734375,-0.05911284483447671,0.008019640326499938,-0.08862458785977215
1686426768929521000,12.10152099609375,-0.0331738822620362,-0.02223579720556736,-0.05028046335298568
1686426768939465700,12.1114658203125,-0.02432655893974006,-0.037811552000045774,-0.0018759864723309873
1686426768949410600,12.12141064453125,-0.009144844964146614,-0.016494623205065725,0.05811543129496276
