time,seconds_elapsed,z,y,x
1686426756921027600,0.093027587890625,-0.9087066650390625,-0.3704071044921875,0.01226806640625
1686426756930973000,0.102972900390625,-0.8921661376953125,-0.381195068359375,0.0092620849609375
1686426756940916700,0.112916748046875,-0.8812255859375,-0.3902587890625,0.0053253173828125
1686426756950861600,0.122861572265625,-0.864654541015625,-0.3938446044921875,0.004425048828125
1686426756960807000,0.132806884765625,-0.8556365966796875,-0.4012603759765625,0.008026123046875
1686426756970751700,0.142751708984375,-0.838958740234375,-0.4168548583984375,0.027069091796875
1686426756980696600,0.152696533203125,-0.8111724853515625,-0.4459075927734375,0.0560455322265625
1686426756990642000,0.162641845703125,-0.7857666015625,-0.4607696533203125,0.0904083251953125
1686426757000586800,0.172586669921875,-0.7762298583984375,-0.467864990234375,0.122314453125
1686426757010531600,0.182531494140625,-0.7635345458984375,-0.4678497314453125,0.1360626220703125
1686426757020477000,0.192476806640625,-0.7610321044921875,-0.4651336669921875,0.139678955078125
1686426757030420700,0.202420654296875,-0.7621612548828125,-0.451629638671875,0.132598876953125
1686426757040365600,0.212365478515625,-0.7764434814453125,-0.4591827392578125,0.1268463134765625
1686426757050311000,0.222310791015625,-0.78607177734375,-0.5052032470703125,0.101959228515625
1686426757060255700,0.232255859375,-0.76495361328125,-0.5123748779296875,0.0731201171875
1686426757070200600,0.24220068359375,-0.743988037109375,-0.44451904296875,0.093353271484375
1686426757080146000,0.25214599609375,-0.777435302734375,-0.40228271484375,0.2157745361328125
1686426757090090800,0.2620908203125,-0.8336334228515625,-0.4483184814453125,0.277435302734375
1686426757100035600,0.27203564453125,-0.82647705078125,-0.437469482421875,0.205596923828125
1686426757109980000,0.28197998046875,-0.826812744140625,-0.432769775390625,0.22296142578125
1686426757119924700,0.2919248046875,-0.828155517578125,-0.4478607177734375,0.1986083984375
1686426757129869800,0.301869873046875,-0.805694580078125,-0.4287872314453125,0.1888885498046875
1686426757139815000,0.31181494140625,-0.8001556396484375,-0.404296875,0.1984405517578125
1686426757149759700,0.321759765625,-0.7944488525390625,-0.399322509765625,0.2225494384765625
1686426757159704600,0.33170458984375,-0.7629852294921875,-0.39691162109375,0.2736663818359375
1686426757169650000,0.34164990234375,-0.73150634765625,-0.3929595947265625,0.31890869140625
1686426757179594800,0.3515947265625,-0.7042388916015625,-0.3660125732421875,0.3464508056640625
1686426757189539600,0.36153955078125,-0.685455322265625,-0.3202056884765625,0.3593597412109375
1686426757199484000,0.37148388671875,-0.698822021484375,-0.3040771484375,0.3712921142578125
1686426757209428700,0.3814287109375,-0.713348388671875,-0.2955474853515625,0.4012451171875
1686426757219373800,0.391373779296875,-0.712158203125,-0.294158935546875,0.43505859375
1686426757229319000,0.40131884765625,-0.6987762451171875,-0.2949676513671875,0.447479248046875
1686426757239263700,0.411263671875,-0.673736572265625,-0.2978057861328125,0.4588623046875
1686426757249208600,0.42120849609375,-0.653076171875,-0.300750732421875,0.49639892578125
1686426757259154000,0.43115380859375,-0.6159210205078125,-0.2974090576171875,0.53485107421875
1686426757269098800,0.4410986328125,-0.5640716552734375,-0.280426025390625,0.556976318359375
1686426757279042800,0.451042724609375,-0.513458251953125,-0.2729949951171875,0.5832061767578125
1686426757288988000,0.46098779296875,-0.4602203369140625,-0.263885498046875,0.6011962890625
1686426757298932700,0.4709326171875,-0.43658447265625,-0.2553253173828125,0.6249847412109375
1686426757308877800,0.4808779296875,-0.4279327392578125,-0.2550048828125,0.6537017822265625
1686426757318823000,0.490822998046875,-0.3914794921875,-0.2288665771484375,0.66253662109375
1686426757328767700,0.500767822265625,-0.3230438232421875,-0.1904754638671875,0.701019287109375
1686426757338712600,0.510712646484375,-0.25390625,-0.16558837890625,0.7619476318359375
1686426757348658000,0.520657958984375,-0.1805267333984375,-0.1537933349609375,0.8065032958984375
1686426757358602800,0.530602783203125,-0.1014404296875,-0.1549072265625,0.8606109619140625
1686426757368546800,0.540546875,-0.0423126220703125,-0.1767425537109375,0.9078216552734375
1686426757378492000,0.550491943359375,-0.010040283203125,-0.207275390625,0.935089111328125
1686426757388436700,0.560436767578125,-0.0027008056640625,-0.21722412109375,0.9063720703125
1686426757398381800,0.5703818359375,-0.0254364013671875,-0.240570068359375,0.853302001953125
1686426757408327000,0.580326904296875,-0.103363037109375,-0.3145294189453125,0.80419921875
1686426757418271700,0.590271728515625,-0.149078369140625,-0.349578857421875,0.7712554931640625
1686426757428216600,0.600216552734375,-0.169036865234375,-0.332244873046875,0.7635498046875
1686426757438162000,0.610161865234375,-0.166656494140625,-0.2598724365234375,0.8064422607421875
1686426757448106800,0.620106689453125,-0.148529052734375,-0.170257568359375,0.8647918701171875
1686426757458050800,0.63005078125,-0.1261138916015625,-0.0908660888671875,0.9176177978515625
1686426757467996000,0.639995849609375,-0.043609619140625,-0.0205230712890625,0.9935455322265625
1686426757477940700,0.649940673828125,0.0449676513671875,0.0207366943359375,1.096893310546875
1686426757487885800,0.6598857421875,0.075653076171875,0.0525360107421875,1.16729736328125
1686426757497831000,0.669830810546875,0.06005859375,0.0886688232421875,1.2039947509765625
1686426757507775500,0.679775390625,0.0235443115234375,0.1454925537109375,1.2081146240234375
1686426757517720600,0.689720458984375,-0.027923583984375,0.1968231201171875,1.1882171630859375
1686426757527665700,0.699665771484375,-0.042144775390625,0.2312774658203125,1.19378662109375
1686426757537609500,0.709609375,-0.0391387939453125,0.2613525390625,1.2239837646484375
1686426757547554600,0.719554443359375,-0.0186309814453125,0.2707977294921875,1.270355224609375
1686426757557499400,0.72949951171875,0.0063629150390625,0.2592010498046875,1.301025390625
1686426757567444500,0.739444580078125,0.035247802734375,0.205657958984375,1.2975921630859375
1686426757577389600,0.7493896484375,0.07879638671875,0.1505126953125,1.2899627685546875
1686426757587334700,0.759334716796875,0.1078643798828125,0.1393280029296875,1.284423828125
1686426757597279500,0.769279541015625,0.137298583984375,0.127655029296875,1.3113250732421875
1686426757607224600,0.779224609375,0.1638946533203125,0.0722198486328125,1.3902587890625
1686426757617169700,0.789169677734375,0.1923675537109375,0.0245361328125,1.48272705078125
1686426757627113500,0.799113525390625,0.2191619873046875,-0.0000762939453125,1.56817626953125
1686426757637058600,0.80905859375,0.258575439453125,-0.0316009521484375,1.6253662109375
1686426757647003400,0.81900341796875,0.294403076171875,-0.0869293212890625,1.6649627685546875
1686426757656948500,0.828948486328125,0.3378448486328125,-0.1561737060546875,1.682403564453125
1686426757666893600,0.8388935546875,0.39300537109375,-0.2109222412109375,1.6498870849609375
1686426757676838700,0.848838623046875,0.439239501953125,-0.2324981689453125,1.5798187255859375
1686426757686783500,0.858783447265625,0.4664154052734375,-0.2322998046875,1.49737548828125
1686426757696728600,0.868728515625,0.46917724609375,-0.2200775146484375,1.4063873291015625
1686426757706673700,0.878673583984375,0.444793701171875,-0.1833038330078125,1.323211669921875
1686426757716617500,0.888617431640625,0.38494873046875,-0.1415863037109375,1.261993408203125
1686426757726562600,0.8985625,0.3207244873046875,-0.1131134033203125,1.2289581298828125
1686426757736507400,0.90850732421875,0.2497406005859375,-0.0813446044921875,1.207611083984375
1686426757746452500,0.918452392578125,0.1880340576171875,-0.042266845703125,1.183502197265625
1686426757756397600,0.9283974609375,0.154998779296875,-0.0076751708984375,1.151397705078125
1686426757766342400,0.93834228515625,0.130859375,0.02972412109375,1.108154296875
1686426757776287500,0.94828759765625,0.0926055908203125,0.0672454833984375,1.0412445068359375
1686426757786232600,0.958232666015625,0.0851593017578125,0.1127777099609375,0.9442138671875
1686426757796177700,0.968177734375,0.18133544921875,0.174468994140625,0.812774658203125
1686426757806121500,0.97812158203125,0.3770751953125,0.235382080078125,0.6613922119140625
1686426757816066600,0.988066650390625,0.547576904296875,0.2740478515625,0.574615478515625
1686426757826011400,0.998011474609375,0.5859527587890625,0.3414306640625,0.5214691162109375
1686426757835956500,1.00795654296875,0.333770751953125,0.4083251953125,0.4919281005859375
1686426757845901600,1.017901611328125,0.159027099609375,0.436370849609375,0.5902099609375
1686426757855846400,1.027846435546875,0.1805572509765625,0.47662353515625,0.8061981201171875
1686426757865791500,1.03779150390625,0.0277862548828125,0.435546875,0.949615478515625
1686426757875736600,1.047736572265625,0.0096282958984375,0.303192138671875,0.9626312255859375
1686426757885681700,1.057681640625,0.0655670166015625,0.202667236328125,1.0000762939453125
1686426757895625500,1.06762548828125,0.0035400390625,0.17919921875,1.0034332275390625
1686426757905570600,1.077570556640625,0.0491943359375,0.241729736328125,0.908355712890625
1686426757915515400,1.087515380859375,0.0459442138671875,0.1858978271484375,0.8476715087890625
1686426757925460500,1.09746044921875,-0.0233306884765625,0.1309051513671875,0.87725830078125
1686426757935405600,1.107405517578125,0.0166168212890625,0.124237060546875,0.902801513671875
1686426757945350400,1.117350341796875,0.1123046875,0.080596923828125,0.9308624267578125
1686426757955295500,1.12729541015625,0.1625518798828125,-0.0257415771484375,0.941741943359375
1686426757965240600,1.137240478515625,0.283721923828125,-0.0134735107421875,0.992889404296875
1686426757975185700,1.147185546875,0.256439208984375,-0.009490966796875,1.0441436767578125
1686426757985129500,1.15712939453125,0.1916656494140625,0.0026092529296875,1.05096435546875
1686426757995074600,1.167074462890625,0.24139404296875,-0.0117034912109375,0.963897705078125
1686426758005019400,1.177019287109375,0.186492919921875,-0.0038909912109375,0.938079833984375
1686426758014964500,1.186964599609375,0.24896240234375,-0.011016845703125,0.9227294921875
1686426758024909600,1.19690966796875,0.2308502197265625,-0.0090789794921875,0.8766326904296875
1686426758034854400,1.2068544921875,0.1593780517578125,0.025604248046875,0.91998291015625
1686426758044799500,1.216799560546875,0.1253509521484375,0.151580810546875,1.066986083984375
1686426758054744600,1.22674462890625,0.11767578125,0.15509033203125,1.125579833984375
1686426758064689700,1.236689697265625,0.142730712890625,0.1224365234375,1.081024169921875
1686426758074633500,1.246633544921875,0.1417999267578125,0.1004486083984375,0.9844512939453125
1686426758084578600,1.25657861328125,0.1441802978515625,0.114776611328125,0.84039306640625
1686426758094523400,1.2665234375,0.1309661865234375,0.19671630859375,0.746124267578125
1686426758104468500,1.276468505859375,0.201568603515625,0.2359771728515625,0.7099151611328125
1686426758114413600,1.28641357421875,0.26593017578125,0.3022918701171875,0.68438720703125
1686426758124358400,1.2963583984375,0.1469879150390625,0.4528656005859375,0.68023681640625
1686426758134303500,1.306303466796875,-0.0027923583984375,0.7465057373046875,0.7220458984375
1686426758144248600,1.31624853515625,-0.0221099853515625,0.963165283203125,0.7114410400390625
1686426758154192400,1.3261923828125,0.03619384765625,1.066925048828125,0.7244415283203125
1686426758164137700,1.3361376953125,0.070343017578125,1.0478668212890625,0.7707366943359375
1686426758174082600,1.34608251953125,0.1189727783203125,0.955718994140625,0.822235107421875
1686426758184027400,1.35602734375,0.1914215087890625,0.93310546875,0.9795379638671875
1686426758193972500,1.365972412109375,0.1953582763671875,0.850189208984375,1.0597381591796875
1686426758203917600,1.37591748046875,0.19097900390625,0.6474761962890625,1.1262359619140625
1686426758213862400,1.3858623046875,0.1686859130859375,0.544647216796875,1.138031005859375
1686426758223807500,1.395807373046875,0.1590728759765625,0.410888671875,1.031341552734375
1686426758233752600,1.405752685546875,0.1710052490234375,0.316375732421875,0.9571380615234375
1686426758243696400,1.4156962890625,0.1597900390625,0.363006591796875,0.815155029296875
1686426758253641700,1.425641845703125,0.1344757080078125,0.4424896240234375,0.72723388671875
1686426758263586600,1.435586669921875,0.0983428955078125,0.49822998046875,0.7159271240234375
1686426758273531400,1.445531494140625,0.0354461669921875,0.437469482421875,0.7646026611328125
1686426758283476500,1.4554765625,0.0995330810546875,0.5070648193359375,0.7427825927734375
1686426758293421600,1.465421630859375,0.109161376953125,0.5757598876953125,0.7624053955078125
1686426758303366400,1.475366455078125,0.0841827392578125,0.62353515625,0.7797393798828125
1686426758313311500,1.4853115234375,0.0966949462890625,0.6877288818359375,0.76275634765625
1686426758323256600,1.495256591796875,0.1143951416015625,0.74200439453125,0.7515411376953125
1686426758333200400,1.505200439453125,0.1069488525390625,0.7502899169921875,0.7667236328125
1686426758343145700,1.515145751953125,0.1174468994140625,0.7205657958984375,0.793487548828125
1686426758353090600,1.525090576171875,0.0748138427734375,0.711700439453125,0.80047607421875
1686426758363035400,1.535035400390625,0.110870361328125,0.6839141845703125,0.848846435546875
1686426758372980500,1.54498046875,0.119415283203125,0.697235107421875,0.825439453125
1686426758382925600,1.554925537109375,0.1112213134765625,0.707672119140625,0.7975006103515625
1686426758392870400,1.564870361328125,0.0879669189453125,0.6758880615234375,0.7693328857421875
1686426758402815500,1.5748154296875,0.060333251953125,0.6522674560546875,0.754638671875
1686426758412760600,1.584760498046875,0.05841064453125,0.56683349609375,0.7327423095703125
1686426758422704400,1.594704345703125,0.0671539306640625,0.416534423828125,0.7176055908203125
1686426758432649700,1.604649658203125,0.0633544921875,0.3354339599609375,0.70001220703125
1686426758442594600,1.614594482421875,0.0333099365234375,0.3487701416015625,0.6557769775390625
1686426758452539400,1.624539306640625,0.013397216796875,0.42584228515625,0.60552978515625
1686426758462484500,1.634484375,0.0628662109375,0.591583251953125,0.532440185546875
1686426758472429600,1.6444296875,0.1067352294921875,0.828948974609375,0.4422760009765625
1686426758482374400,1.65437451171875,0.1103363037109375,1.01788330078125,0.388427734375
1686426758492319500,1.664319580078125,0.0596160888671875,1.061614990234375,0.36566162109375
1686426758502265300,1.674265380859375,-0.0088043212890625,1.0424041748046875,0.3673858642578125
1686426758512209400,1.68420947265625,-0.03948974609375,0.992279052734375,0.341522216796875
1686426758522154500,1.694154541015625,-0.0248870849609375,0.9284210205078125,0.3154449462890625
1686426758532099600,1.704099609375,0.0017242431640625,0.8650360107421875,0.31072998046875
1686426758542044400,1.71404443359375,0.024261474609375,0.752288818359375,0.3489532470703125
1686426758551989500,1.723989501953125,0.0217742919921875,0.7353515625,0.378082275390625
1686426758561934600,1.7339345703125,-0.0190887451171875,0.796142578125,0.3825225830078125
1686426758571879700,1.743879638671875,-0.065826416015625,0.8809814453125,0.368377685546875
1686426758581824500,1.753824462890625,-0.0785369873046875,0.9573211669921875,0.36822509765625
1686426758591769300,1.763769287109375,-0.0573883056640625,0.9927825927734375,0.381866455078125
1686426758601713400,1.77371337890625,-0.017425537109375,0.97882080078125,0.3804779052734375
1686426758611658500,1.783658447265625,0.0200653076171875,0.994720458984375,0.3451385498046875
1686426758621603600,1.793603515625,0.0534210205078125,1.03912353515625,0.3075714111328125
1686426758631548400,1.80354833984375,0.02862548828125,1.0732269287109375,0.272430419921875
1686426758641493500,1.813493408203125,-0.010101318359375,1.066375732421875,0.2305755615234375
1686426758651438600,1.8234384765625,-0.0392913818359375,1.0695648193359375,0.171844482421875
1686426758661383700,1.8333837890625,-0.04583740234375,1.090240478515625,0.0995330810546875
1686426758671328500,1.84332861328125,-0.0337677001953125,1.07208251953125,0.09326171875
1686426758681273300,1.8532734375,-0.013397216796875,0.8217315673828125,0.1703948974609375
1686426758691217400,1.863217529296875,-0.0549468994140625,0.75408935546875,0.137542724609375
1686426758701162500,1.87316259765625,-0.1074676513671875,0.903076171875,0.061737060546875
1686426758711107600,1.883107666015625,-0.0803985595703125,1.0012969970703125,0.0184783935546875
1686426758721052400,1.893052490234375,-0.029998779296875,1.0194549560546875,-0.0130157470703125
1686426758730997500,1.90299755859375,-0.0223236083984375,1.0050506591796875,-0.024810791015625
1686426758740942600,1.912942626953125,-0.05670166015625,0.9461669921875,-0.0308990478515625
1686426758750887700,1.9228876953125,-0.0904541015625,0.853271484375,-0.0255126953125
1686426758760832500,1.93283251953125,-0.121795654296875,0.7800140380859375,-0.007110595703125
1686426758770777300,1.94277734375,-0.1751861572265625,0.7513275146484375,0.0206451416015625
1686426758780721400,1.952721435546875,-0.2138519287109375,0.760406494140625,0.0543670654296875
1686426758790666500,1.96266650390625,-0.179779052734375,0.8617706298828125,0.11163330078125
1686426758800611600,1.972611572265625,-0.1734619140625,1.668304443359375,0.280426025390625
1686426758810556400,1.982556396484375,-0.146484375,2.204010009765625,0.0083160400390625
1686426758820501500,1.99250146484375,-0.1040191650390625,1.947021484375,-0.3319854736328125
1686426758830446600,2.002446533203125,0.0115509033203125,1.5359954833984375,-0.2191162109375
1686426758840391700,2.0123916015625,0.0736236572265625,1.1198272705078125,-0.22479248046875
1686426758850336500,2.02233642578125,0.05609130859375,0.826019287109375,-0.279449462890625
1686426758860281300,2.03228125,-0.084503173828125,0.74554443359375,-0.1080322265625
1686426758870225400,2.042225341796875,-0.233062744140625,0.85400390625,-0.029205322265625
1686426758880170500,2.05217041015625,-0.308135986328125,0.977386474609375,-0.039947509765625
1686426758890115600,2.062115478515625,-0.28131103515625,0.995452880859375,0.015106201171875
1686426758900060400,2.072060302734375,-0.1901702880859375,0.99761962890625,-0.000732421875
1686426758910005500,2.082005615234375,-0.1155242919921875,1.007781982421875,-0.0247955322265625
1686426758919950600,2.09195068359375,-0.09368896484375,1.02703857421875,-0.0518646240234375
1686426758929895400,2.1018955078125,-0.117279052734375,1.050445556640625,-0.1332244873046875
1686426758939840500,2.111840576171875,-0.156341552734375,1.0674591064453125,-0.2652740478515625
1686426758949785300,2.121785400390625,-0.177276611328125,1.0335540771484375,-0.2557220458984375
1686426758959729400,2.1317294921875,-0.187774658203125,0.9641571044921875,-0.1572723388671875
1686426758969674500,2.141674560546875,-0.187103271484375,0.930023193359375,-0.0987548828125
1686426758979619600,2.15161962890625,-0.1670074462890625,0.9270172119140625,-0.077423095703125
1686426758989564400,2.161564453125,-0.1457977294921875,0.943267822265625,-0.0784759521484375
1686426758999509500,2.171509521484375,-0.1415863037109375,0.9469451904296875,-0.0496673583984375
1686426759009454600,2.18145458984375,-0.1498870849609375,0.944793701171875,-0.0194549560546875
1686426759019399400,2.1913994140625,-0.14111328125,0.970428466796875,0.01214599609375
1686426759029344500,2.201344482421875,-0.1341400146484375,1.0177764892578125,0.0086212158203125
1686426759039289600,2.21128955078125,-0.128753662109375,1.02728271484375,-0.047637939453125
1686426759049233400,2.2212333984375,-0.1291351318359375,0.9963836669921875,-0.0817718505859375
1686426759059178500,2.231178466796875,-0.13690185546875,0.9754791259765625,-0.096954345703125
1686426759069123600,2.24112353515625,-0.1471710205078125,0.9674530029296875,-0.0857696533203125
1686426759079068400,2.251068359375,-0.1553497314453125,0.979095458984375,-0.0863037109375
1686426759089013500,2.261013427734375,-0.15362548828125,1.0019989013671875,-0.1000823974609375
1686426759098958600,2.27095849609375,-0.1461944580078125,1.003143310546875,-0.09967041015625
1686426759108903400,2.2809033203125,-0.1423797607421875,0.9828338623046875,-0.0806121826171875
1686426759118848500,2.2908486328125,-0.125244140625,0.9904937744140625,-0.0934600830078125
1686426759128793600,2.300793701171875,-0.112457275390625,0.9993896484375,-0.06768798828125
1686426759138737400,2.3107373046875,-0.119964599609375,0.9897613525390625,-0.063934326171875
1686426759148682500,2.3206826171875,-0.128753662109375,0.988861083984375,-0.079986572265625
1686426759158627600,2.330627685546875,-0.1345977783203125,0.985321044921875,-0.08740234375
1686426759168572400,2.340572509765625,-0.1376953125,0.9857635498046875,-0.0925445556640625
1686426759178517500,2.350517578125,-0.1334228515625,0.98919677734375,-0.09649658203125
1686426759188462600,2.360462646484375,-0.1284027099609375,0.9917755126953125,-0.1025543212890625
1686426759198407400,2.370407470703125,-0.12554931640625,0.9931640625,-0.1060028076171875
1686426759208352500,2.3803525390625,-0.127593994140625,0.9930419921875,-0.105743408203125
1686426759218297600,2.390297607421875,-0.132720947265625,0.990142822265625,-0.1005096435546875
1686426759228241400,2.400241455078125,-0.1354827880859375,0.9967803955078125,-0.1035308837890625
1686426759238186500,2.4101865234375,-0.12957763671875,0.9952545166015625,-0.0977325439453125
1686426759248131600,2.420131591796875,-0.1234283447265625,0.9926605224609375,-0.0853118896484375
1686426759258076400,2.430076416015625,-0.1231842041015625,0.99224853515625,-0.080810546875
1686426759268021500,2.440021484375,-0.12457275390625,0.989532470703125,-0.0802001953125
1686426759277966600,2.449966552734375,-0.1263580322265625,0.98382568359375,-0.078826904296875
1686426759287911400,2.459911376953125,-0.1266632080078125,0.975494384765625,-0.0731201171875
1686426759297856500,2.4698564453125,-0.122467041015625,0.9776458740234375,-0.0744781494140625
1686426759307801600,2.479801513671875,-0.1176910400390625,0.989471435546875,-0.0756378173828125
1686426759317746400,2.489746337890625,-0.113739013671875,0.99127197265625,-0.0761871337890625
1686426759327690500,2.4996904296875,-0.1176605224609375,0.989898681640625,-0.0778961181640625
1686426759337635600,2.509635498046875,-0.1251678466796875,0.991546630859375,-0.0749053955078125
1686426759347580400,2.519580322265625,-0.1256866455078125,0.989288330078125,-0.07147216796875
1686426759357525500,2.529525390625,-0.119964599609375,0.9958953857421875,-0.0724639892578125
1686426759367470600,2.539470703125,-0.1178436279296875,0.9929351806640625,-0.06549072265625
1686426759377415400,2.54941552734375,-0.1143646240234375,0.988983154296875,-0.06524658203125
1686426759387360500,2.559360595703125,-0.1121063232421875,0.993560791015625,-0.0597686767578125
1686426759397305600,2.5693056640625,-0.112548828125,0.992340087890625,-0.0558929443359375
1686426759407250400,2.57925048828125,-0.1099395751953125,0.9965667724609375,-0.0561676025390625
1686426759417194500,2.589194580078125,-0.107421875,0.9905242919921875,-0.05078125
1686426759427139600,2.5991396484375,-0.1056976318359375,1.0045928955078125,-0.06640625
1686426759437084400,2.60908447265625,-0.1060333251953125,0.993621826171875,-0.0578765869140625
1686426759447029500,2.619029541015625,-0.1064910888671875,0.9885406494140625,-0.05413818359375
1686426759456974600,2.628974609375,-0.1045684814453125,0.9864654541015625,-0.0590057373046875
1686426759466919400,2.63891943359375,-0.1082305908203125,0.9828643798828125,-0.0563507080078125
1686426759476864500,2.648864501953125,-0.1082611083984375,0.979827880859375,-0.0510406494140625
1686426759486809600,2.6588095703125,-0.1045379638671875,0.9734344482421875,-0.0458526611328125
1686426759496754400,2.66875439453125,-0.0981903076171875,0.9751434326171875,-0.0457611083984375
1686426759506698500,2.678698486328125,-0.0936431884765625,0.98663330078125,-0.0447845458984375
1686426759516643600,2.6886435546875,-0.0912322998046875,0.9883270263671875,-0.038543701171875
1686426759526588400,2.69858837890625,-0.08905029296875,0.9917449951171875,-0.0357513427734375
1686426759536533200,2.708533203125,-0.08746337890625,0.9926605224609375,-0.035369873046875
1686426759546478600,2.718478515625,-0.087615966796875,0.99456787109375,-0.03472900390625
1686426759556423400,2.72842333984375,-0.093536376953125,0.994659423828125,-0.0297393798828125
1686426759566368300,2.7383681640625,-0.0930938720703125,0.9926605224609375,-0.0273284912109375
1686426759576313600,2.748313720703125,-0.0917205810546875,0.99017333984375,-0.02789306640625
1686426759586258400,2.758258544921875,-0.09228515625,0.9871978759765625,-0.0333251953125
1686426759596203300,2.768203369140625,-0.092529296875,0.9889373779296875,-0.03753662109375
1686426759606147600,2.778147705078125,-0.0939178466796875,0.9870758056640625,-0.0385894775390625
1686426759616092400,2.788092529296875,-0.097686767578125,0.9869842529296875,-0.043853759765625
1686426759626037200,2.798037353515625,-0.1001434326171875,0.986968994140625,-0.0462493896484375
1686426759635982600,2.807982666015625,-0.1058349609375,0.988616943359375,-0.0520172119140625
1686426759645927400,2.817927490234375,-0.1071624755859375,0.988067626953125,-0.0588226318359375
1686426759655872300,2.827872314453125,-0.106536865234375,0.98846435546875,-0.0655670166015625
1686426759665817600,2.837817626953125,-0.1058349609375,0.988677978515625,-0.0704345703125
1686426759675762400,2.847762451171875,-0.107086181640625,0.989166259765625,-0.0756988525390625
1686426759685707300,2.857707275390625,-0.1093292236328125,0.9883880615234375,-0.080535888671875
1686426759695651600,2.867651611328125,-0.111175537109375,0.9907379150390625,-0.0850372314453125
1686426759705596400,2.877596435546875,-0.1126861572265625,0.9924468994140625,-0.0883636474609375
1686426759715541200,2.887541259765625,-0.1132049560546875,0.9919891357421875,-0.0903472900390625
1686426759725486600,2.897486572265625,-0.1128692626953125,0.99102783203125,-0.0932769775390625
1686426759735431400,2.907431396484375,-0.1099853515625,0.9911346435546875,-0.094879150390625
1686426759745376300,2.917376220703125,-0.1088409423828125,0.9922027587890625,-0.0963134765625
1686426759755321600,2.927321533203125,-0.1073760986328125,0.9857940673828125,-0.0955352783203125
1686426759765266400,2.937266357421875,-0.107696533203125,0.9879608154296875,-0.0967254638671875
1686426759775211300,2.947211181640625,-0.109039306640625,0.989227294921875,-0.093994140625
1686426759785156600,2.957156494140625,-0.111083984375,0.987823486328125,-0.0913848876953125
1686426759795100400,2.967100341796875,-0.1103057861328125,0.9886322021484375,-0.089752197265625
1686426759805045200,2.977045166015625,-0.1090850830078125,0.9909820556640625,-0.0863494873046875
1686426759814990600,2.986990478515625,-0.10870361328125,0.9940185546875,-0.08154296875
1686426759824935400,2.996935302734375,-0.1065826416015625,0.996337890625,-0.0765380859375
1686426759834880300,3.00688037109375,-0.107666015625,0.99603271484375,-0.07159423828125
1686426759844825600,3.01682568359375,-0.1113739013671875,0.994171142578125,-0.068206787109375
1686426759854770400,3.0267705078125,-0.1114501953125,0.995880126953125,-0.067291259765625
1686426759864715300,3.03671533203125,-0.1047515869140625,0.996978759765625,-0.0670623779296875
1686426759874660600,3.04666064453125,-0.1054840087890625,0.99737548828125,-0.06536865234375
1686426759884605400,3.05660546875,-0.10614013671875,0.9965057373046875,-0.0623931884765625
1686426759894549200,3.06654931640625,-0.10333251953125,0.997467041015625,-0.05694580078125
1686426759904494600,3.07649462890625,-0.10455322265625,0.9966888427734375,-0.0510101318359375
1686426759914439400,3.086439453125,-0.1043243408203125,0.9960784912109375,-0.0465545654296875
1686426759924384300,3.09638427734375,-0.0997772216796875,0.99981689453125,-0.045928955078125
1686426759934329600,3.10632958984375,-0.1016845703125,0.9998779296875,-0.0390472412109375
1686426759944274400,3.1162744140625,-0.1075897216796875,0.9993743896484375,-0.0399322509765625
1686426759954219300,3.12621923828125,-0.1098175048828125,0.9971160888671875,-0.0411224365234375
1686426759964164600,3.13616455078125,-0.112213134765625,0.995941162109375,-0.0388946533203125
1686426759974109400,3.146109375,-0.11419677734375,0.99609375,-0.038848876953125
1686426759984054300,3.15605419921875,-0.1153717041015625,0.9959869384765625,-0.03839111328125
1686426759993998600,3.16599853515625,-0.1180572509765625,0.9928436279296875,-0.035675048828125
1686426760003943400,3.175943359375,-0.1181488037109375,0.9929962158203125,-0.0357666015625
1686426760013888300,3.18588818359375,-0.116485595703125,0.9930267333984375,-0.036529541015625
1686426760023833600,3.19583349609375,-0.1165313720703125,0.9937896728515625,-0.040069580078125
1686426760033778400,3.2057783203125,-0.119415283203125,0.995697021484375,-0.0459442138671875
1686426760043723300,3.21572314453125,-0.1164703369140625,1.0024261474609375,-0.046630859375
1686426760053668600,3.225668701171875,-0.1153717041015625,0.992523193359375,-0.0470123291015625
1686426760063613400,3.235613525390625,-0.116455078125,0.988861083984375,-0.0546722412109375
1686426760073558300,3.245558349609375,-0.1210784912109375,0.98431396484375,-0.0525970458984375
1686426760083502600,3.255502685546875,-0.1222991943359375,0.9851531982421875,-0.0490264892578125
1686426760093447400,3.265447509765625,-0.1166229248046875,0.98681640625,-0.050537109375
1686426760103392300,3.275392333984375,-0.116302490234375,0.986114501953125,-0.0492706298828125
1686426760113337600,3.285337646484375,-0.1190032958984375,0.987823486328125,-0.0503082275390625
1686426760123282400,3.295282470703125,-0.1238861083984375,0.990447998046875,-0.052520751953125
1686426760133227300,3.305227294921875,-0.1245574951171875,0.993988037109375,-0.05462646484375
1686426760143172600,3.315172607421875,-0.12371826171875,0.9947662353515625,-0.05743408203125
1686426760153117400,3.325117431640625,-0.12176513671875,0.9945220947265625,-0.057342529296875
1686426760163062300,3.335062255859375,-0.1235809326171875,0.9940338134765625,-0.05712890625
1686426760173007600,3.345007568359375,-0.124725341796875,0.997222900390625,-0.0563507080078125
1686426760182951400,3.354951416015625,-0.1240997314453125,0.9953460693359375,-0.0543060302734375
1686426760192896300,3.364896240234375,-0.1263275146484375,0.9883880615234375,-0.05517578125
1686426760202841600,3.374841552734375,-0.1297760009765625,0.9869384765625,-0.0545501708984375
1686426760212786400,3.384786376953125,-0.1278839111328125,0.9879150390625,-0.0542144775390625
1686426760222731300,3.394731201171875,-0.12591552734375,0.9880523681640625,-0.0526123046875
1686426760232676600,3.404676513671875,-0.1244964599609375,0.9888153076171875,-0.0526123046875
1686426760242621400,3.414621337890625,-0.122802734375,0.9881591796875,-0.0516510009765625
1686426760252566300,3.424566162109375,-0.1222991943359375,0.9887542724609375,-0.052459716796875
1686426760262511600,3.43451171875,-0.121978759765625,0.98980712890625,-0.053619384765625
1686426760272456400,3.44445654296875,-0.12054443359375,0.991302490234375,-0.054718017578125
1686426760282400300,3.454400146484375,-0.1200103759765625,0.990692138671875,-0.0588836669921875
1686426760292345600,3.464345703125,-0.1200103759765625,0.987091064453125,-0.0576171875
1686426760302290400,3.47429052734375,-0.118560791015625,0.9873199462890625,-0.05963134765625
1686426760312235300,3.4842353515625,-0.1184234619140625,0.987274169921875,-0.05718994140625
1686426760322180600,3.4941806640625,-0.118072509765625,0.9881134033203125,-0.0560455322265625
1686426760332125400,3.50412548828125,-0.1190948486328125,0.9890594482421875,-0.0552825927734375
1686426760342070300,3.5140703125,-0.120330810546875,0.991119384765625,-0.05316162109375
1686426760352015600,3.524015625,-0.12579345703125,0.993804931640625,-0.05218505859375
1686426760361960400,3.53396044921875,-0.1282501220703125,0.9954833984375,-0.052459716796875
1686426760371905300,3.5439052734375,-0.12506103515625,0.996978759765625,-0.0525665283203125
1686426760381850400,3.553850341796875,-0.1231689453125,0.9934539794921875,-0.053436279296875
1686426760391794400,3.56379443359375,-0.1280517578125,0.990325927734375,-0.052032470703125
1686426760401739300,3.5737392578125,-0.128814697265625,0.9886627197265625,-0.0501708984375
1686426760411684600,3.5836845703125,-0.1319122314453125,0.9909210205078125,-0.0494232177734375
1686426760421629400,3.59362939453125,-0.1314544677734375,0.9916839599609375,-0.048919677734375
1686426760431574300,3.60357421875,-0.129913330078125,0.9924774169921875,-0.0491790771484375
1686426760441519600,3.61351953125,-0.1277923583984375,0.9923553466796875,-0.049102783203125
1686426760451464400,3.62346435546875,-0.128173828125,0.991790771484375,-0.048431396484375
1686426760461409300,3.6334091796875,-0.1273040771484375,0.990264892578125,-0.049163818359375
1686426760471354400,3.643354248046875,-0.1275482177734375,0.988006591796875,-0.048583984375
1686426760481299500,3.653299560546875,-0.12823486328125,0.986602783203125,-0.0475616455078125
1686426760491243300,3.6632431640625,-0.128692626953125,0.9841766357421875,-0.0481719970703125
1686426760501188600,3.673188720703125,-0.129241943359375,0.9840240478515625,-0.0483856201171875
1686426760511133000,3.6831328125,-0.127716064453125,0.986358642578125,-0.0493011474609375
1686426760521078000,3.693078125,-0.1258087158203125,0.98876953125,-0.0499114990234375
1686426760531023000,3.703023193359375,-0.1245269775390625,0.991302490234375,-0.0518951416015625
1686426760540968200,3.71296826171875,-0.1248016357421875,0.9921112060546875,-0.0540618896484375
1686426760550913000,3.7229130859375,-0.1248779296875,0.993743896484375,-0.0544891357421875
1686426760560858000,3.732858154296875,-0.1256866455078125,0.9923553466796875,-0.05908203125
1686426760570803200,3.74280322265625,-0.1267242431640625,0.99261474609375,-0.0619659423828125
1686426760580748000,3.752748046875,-0.1316986083984375,0.992340087890625,-0.063385009765625
1686426760590692000,3.762692138671875,-0.1360015869140625,0.9939422607421875,-0.061981201171875
1686426760600637000,3.772636962890625,-0.1386260986328125,0.99298095703125,-0.0602569580078125
1686426760610582000,3.78258203125,-0.1406097412109375,0.9906005859375,-0.0585174560546875
1686426760620527000,3.792527099609375,-0.1379852294921875,0.9863128662109375,-0.0568695068359375
1686426760630472000,3.802471923828125,-0.134307861328125,0.9818572998046875,-0.0545501708984375
1686426760640417000,3.8124169921875,-0.1337738037109375,0.97955322265625,-0.0505523681640625
1686426760650362000,3.822362060546875,-0.1342315673828125,0.9798126220703125,-0.0478973388671875
1686426760660307200,3.83230712890625,-0.1329498291015625,0.9806060791015625,-0.0485076904296875
1686426760670252000,3.842251953125,-0.1313934326171875,0.984466552734375,-0.04595947265625
1686426760680197000,3.852197021484375,-0.130218505859375,0.9882049560546875,-0.0466156005859375
1686426760690141000,3.862140869140625,-0.1294403076171875,0.9888763427734375,-0.0474090576171875
1686426760700086000,3.8720859375,-0.1268310546875,0.9919891357421875,-0.0491790771484375
1686426760710031000,3.882031005859375,-0.1258697509765625,0.993743896484375,-0.0517578125
1686426760719976000,3.891975830078125,-0.1261138916015625,0.99749755859375,-0.0522308349609375
1686426760729921000,3.901921142578125,-0.124359130859375,1.001007080078125,-0.0530548095703125
1686426760739866000,3.9118662109375,-0.126068115234375,1.0001678466796875,-0.051513671875
1686426760749811200,3.921811279296875,-0.13092041015625,0.9975738525390625,-0.051055908203125
1686426760759756000,3.931756103515625,-0.1324005126953125,0.99591064453125,-0.0499267578125
1686426760769701000,3.941701171875,-0.1344757080078125,0.9955902099609375,-0.0474853515625
1686426760779646200,3.951646240234375,-0.1342620849609375,0.99102783203125,-0.04766845703125
1686426760789591000,3.961591064453125,-0.13336181640625,0.989044189453125,-0.048431396484375
1686426760799535000,3.97153515625,-0.1338348388671875,0.990692138671875,-0.047882080078125
1686426760809480000,3.98147998046875,-0.1338653564453125,0.990509033203125,-0.04931640625
1686426760819425000,3.991425048828125,-0.1331329345703125,0.9908294677734375,-0.0487518310546875
1686426760829370000,4.0013701171875,-0.1330718994140625,0.9895172119140625,-0.0516204833984375
1686426760839315200,4.011315185546875,-0.1331939697265625,0.9880218505859375,-0.053192138671875
1686426760849260000,4.021260009765625,-0.1350250244140625,0.9875030517578125,-0.055633544921875
1686426760859205000,4.031205078125,-0.1385955810546875,0.98614501953125,-0.0561370849609375
1686426760869150200,4.041150146484375,-0.1414947509765625,0.9861907958984375,-0.0578155517578125
1686426760879095000,4.051094970703125,-0.138031005859375,0.9868316650390625,-0.0597381591796875
1686426760889040000,4.061039794921875,-0.1321258544921875,0.98699951171875,-0.0583343505859375
1686426760898985200,4.070985107421875,-0.134307861328125,0.9852294921875,-0.05694580078125
1686426760908929000,4.080928955078125,-0.1385498046875,0.9841461181640625,-0.056182861328125
1686426760918874000,4.0908740234375,-0.141998291015625,0.98455810546875,-0.0564117431640625
1686426760928819200,4.100819091796875,-0.1438446044921875,0.9846343994140625,-0.0576934814453125
1686426760938764000,4.110763916015625,-0.1402130126953125,0.9858245849609375,-0.0580902099609375
1686426760948709000,4.120709228515625,-0.1385345458984375,0.986572265625,-0.0594940185546875
1686426760958654200,4.130654296875,-0.138031005859375,0.9882659912109375,-0.060394287109375
1686426760968599000,4.14059912109375,-0.135650634765625,0.989288330078125,-0.0626983642578125
1686426760978543900,4.1505439453125,-0.134521484375,0.990570068359375,-0.06170654296875
1686426760988489200,4.1604892578125,-0.136322021484375,0.99139404296875,-0.0605316162109375
1686426760998434000,4.17043408203125,-0.138275146484375,0.992889404296875,-0.06103515625
1686426761008379000,4.18037890625,-0.1403656005859375,0.993743896484375,-0.0578155517578125
1686426761018323000,4.190322998046875,-0.1407318115234375,0.9929046630859375,-0.058013916015625
1686426761028268000,4.20026806640625,-0.13916015625,0.992950439453125,-0.0570526123046875
1686426761038213000,4.210213134765625,-0.136871337890625,0.9927520751953125,-0.0568695068359375
1686426761048158200,4.220158203125,-0.1345367431640625,0.9925689697265625,-0.0558624267578125
1686426761058103000,4.23010302734375,-0.1328277587890625,0.995269775390625,-0.0549163818359375
1686426761068048100,4.240048095703125,-0.1328125,0.9959716796875,-0.05511474609375
1686426761077993200,4.2499931640625,-0.131927490234375,0.996063232421875,-0.0575103759765625
1686426761087938000,4.25993798828125,-0.1311187744140625,0.9969024658203125,-0.0569610595703125
1686426761097883000,4.2698828125,-0.130462646484375,0.99798583984375,-0.057281494140625
1686426761107828200,4.279828125,-0.1303863525390625,0.9970245361328125,-0.0575408935546875
1686426761117772000,4.28977197265625,-0.1329803466796875,0.993133544921875,-0.056365966796875
1686426761127717000,4.299717041015625,-0.1342010498046875,0.99053955078125,-0.0544891357421875
1686426761137662200,4.309662109375,-0.134368896484375,0.9864349365234375,-0.054901123046875
1686426761147607000,4.31960693359375,-0.1338043212890625,0.98394775390625,-0.0546722412109375
1686426761157552000,4.32955224609375,-0.1333465576171875,0.982574462890625,-0.0556488037109375
1686426761167497200,4.339497314453125,-0.13385009765625,0.985992431640625,-0.0555419921875
1686426761177442000,4.349442138671875,-0.1338958740234375,0.98846435546875,-0.0569305419921875
1686426761187387000,4.359386962890625,-0.13494873046875,0.9900970458984375,-0.0580291748046875
1686426761197332200,4.369332275390625,-0.1358795166015625,0.994415283203125,-0.0591583251953125
1686426761207277000,4.379277099609375,-0.135772705078125,0.9951934814453125,-0.0605621337890625
1686426761217222000,4.389221923828125,-0.1363983154296875,0.9946136474609375,-0.0626220703125
1686426761227166200,4.399166259765625,-0.1379547119140625,0.9929046630859375,-0.064971923828125
1686426761237111000,4.409111083984375,-0.1382904052734375,0.9900665283203125,-0.0659332275390625
1686426761247056100,4.41905615234375,-0.1385955810546875,0.98779296875,-0.068023681640625
1686426761257001200,4.429001220703125,-0.1380157470703125,0.9869537353515625,-0.0699310302734375
1686426761266946000,4.438946044921875,-0.1380615234375,0.988250732421875,-0.0699615478515625
1686426761276891000,4.448890869140625,-0.1366119384765625,0.9841156005859375,-0.072418212890625
1686426761286836200,4.458836181640625,-0.137237548828125,0.9882965087890625,-0.070220947265625
1686426761296781000,4.468781005859375,-0.136871337890625,0.989044189453125,-0.0706939697265625
1686426761306726000,4.478725830078125,-0.134552001953125,0.9866943359375,-0.06817626953125
1686426761316671200,4.488671142578125,-0.130340576171875,0.987579345703125,-0.0723114013671875
1686426761326616000,4.498615966796875,-0.1283416748046875,0.99041748046875,-0.069183349609375
1686426761336560000,4.50856005859375,-0.12884521484375,0.9920196533203125,-0.0678863525390625
1686426761346505200,4.518505126953125,-0.1280517578125,0.9927215576171875,-0.0695037841796875
1686426761356450000,4.528449951171875,-0.1270904541015625,0.9915313720703125,-0.0693206787109375
1686426761366395000,4.538394775390625,-0.12774658203125,0.9939422607421875,-0.070709228515625
1686426761376340200,4.54834033203125,-0.128570556640625,0.996002197265625,-0.06982421875
1686426761386285000,4.55828515625,-0.1285552978515625,0.9929962158203125,-0.0705413818359375
1686426761396230000,4.56822998046875,-0.1262054443359375,0.9929656982421875,-0.0705108642578125
1686426761406175200,4.57817529296875,-0.12603759765625,0.9925537109375,-0.0677490234375
1686426761416120000,4.5881201171875,-0.1283111572265625,0.9882049560546875,-0.06744384765625
1686426761426065000,4.59806494140625,-0.1261138916015625,0.9857177734375,-0.0662994384765625
1686426761436010200,4.60801025390625,-0.1257781982421875,0.985565185546875,-0.063079833984375
1686426761445954000,4.6179541015625,-0.1218109130859375,0.9857025146484375,-0.062408447265625
1686426761455899000,4.62789892578125,-0.1154632568359375,0.986236572265625,-0.0619964599609375
1686426761465844200,4.63784423828125,-0.1117095947265625,0.9893951416015625,-0.0625762939453125
1686426761475789000,4.6477890625,-0.11126708984375,0.9914703369140625,-0.0627593994140625
1686426761485734000,4.65773388671875,-0.112335205078125,0.99224853515625,-0.0665740966796875
1686426761495679200,4.66767919921875,-0.1144561767578125,0.992279052734375,-0.0664520263671875
1686426761505623800,4.677623779296875,-0.1157379150390625,0.9898223876953125,-0.0677947998046875
1686426761515568600,4.687568603515625,-0.116973876953125,0.9889068603515625,-0.0702362060546875
1686426761525514000,4.697513916015625,-0.1135406494140625,0.99249267578125,-0.06890869140625
1686426761535458800,4.707458740234375,-0.10711669921875,0.994873046875,-0.0689544677734375
1686426761545403600,4.717403564453125,-0.104949951171875,0.9990234375,-0.0675201416015625
1686426761555347700,4.72734765625,-0.102294921875,1.00286865234375,-0.0672607421875
1686426761565292800,4.737292724609375,-0.10198974609375,1.0041656494140625,-0.0667572021484375
1686426761575237600,4.747237548828125,-0.1028289794921875,1.00048828125,-0.066619873046875
1686426761585182700,4.7571826171875,-0.102691650390625,0.9952239990234375,-0.0674896240234375
1686426761595127800,4.7671279296875,-0.1042022705078125,0.989898681640625,-0.0677337646484375
1686426761605072600,4.77707275390625,-0.1060943603515625,0.9860076904296875,-0.0681915283203125
1686426761615017700,4.787017822265625,-0.1037139892578125,0.98492431640625,-0.068572998046875
1686426761624962800,4.796962890625,-0.1009063720703125,0.9855804443359375,-0.0688629150390625
1686426761634907600,4.80690771484375,-0.0971832275390625,0.9879913330078125,-0.069488525390625
1686426761644853000,4.81685302734375,-0.0955657958984375,0.988311767578125,-0.068511962890625
1686426761654797800,4.8267978515625,-0.0973052978515625,0.9871826171875,-0.0661468505859375
1686426761664741600,4.83674169921875,-0.10052490234375,0.98699951171875,-0.0662841796875
1686426761674686700,4.846686767578125,-0.1013336181640625,0.988006591796875,-0.067626953125
1686426761684631800,4.8566318359375,-0.100189208984375,0.9923095703125,-0.0672760009765625
1686426761694576600,4.86657666015625,-0.09796142578125,0.99774169921875,-0.0664520263671875
1686426761704521700,4.876521728515625,-0.097320556640625,0.998809814453125,-0.06719970703125
1686426761714466800,4.886466796875,-0.09912109375,0.9962005615234375,-0.067047119140625
1686426761724411600,4.89641162109375,-0.09942626953125,0.9964752197265625,-0.06671142578125
1686426761734357000,4.90635693359375,-0.0964813232421875,0.9989166259765625,-0.0662841796875
1686426761744301800,4.9163017578125,-0.09716796875,0.9988250732421875,-0.065643310546875
1686426761754246700,4.92624658203125,-0.0959320068359375,1.001251220703125,-0.06494140625
1686426761764191700,4.936191650390625,-0.0950469970703125,0.9990081787109375,-0.0650787353515625
1686426761774136800,4.94613671875,-0.0948028564453125,0.9961395263671875,-0.06439208984375
1686426761784080600,4.95608056640625,-0.0930328369140625,0.99200439453125,-0.0639801025390625
1686426761794025700,4.966025634765625,-0.0933685302734375,0.987213134765625,-0.0627288818359375
1686426761803970800,4.975970703125,-0.0941162109375,0.9839935302734375,-0.063507080078125
1686426761813915600,4.98591552734375,-0.09259033203125,0.983673095703125,-0.06414794921875
1686426761823861000,4.995861083984375,-0.089813232421875,0.98602294921875,-0.0642852783203125
1686426761833805800,5.005805908203125,-0.0888214111328125,0.98974609375,-0.062286376953125
1686426761843750700,5.015750732421875,-0.0872955322265625,0.992584228515625,-0.061859130859375
1686426761853695700,5.02569580078125,-0.0859222412109375,0.995574951171875,-0.063568115234375
1686426761863640800,5.035640869140625,-0.0840301513671875,1.0002899169921875,-0.0638580322265625
1686426761873585700,5.045585693359375,-0.0830535888671875,1.00439453125,-0.0645904541015625
1686426761883530800,5.05553076171875,-0.0850982666015625,1.00262451171875,-0.0643768310546875
1686426761893474800,5.065474853515625,-0.09185791015625,1.0001220703125,-0.0633544921875
1686426761903419600,5.075419677734375,-0.0916748046875,0.9967498779296875,-0.0626068115234375
1686426761913365000,5.085364990234375,-0.0930633544921875,0.9911041259765625,-0.06341552734375
1686426761923309800,5.095309814453125,-0.0937957763671875,0.986419677734375,-0.06341552734375
1686426761933254700,5.105254638671875,-0.088653564453125,0.984893798828125,-0.061920166015625
1686426761943200000,5.115199951171875,-0.086822509765625,0.9855499267578125,-0.0611114501953125
1686426761953144800,5.125144775390625,-0.08172607421875,0.9896697998046875,-0.0583648681640625
1686426761963089700,5.135089599609375,-0.0792236328125,0.9904022216796875,-0.0560760498046875
1686426761973034800,5.14503466796875,-0.0796356201171875,0.99200439453125,-0.0551605224609375
1686426761982979800,5.154979736328125,-0.08282470703125,0.9918060302734375,-0.0556793212890625
1686426761992924700,5.164924560546875,-0.084808349609375,0.993255615234375,-0.057464599609375
1686426762002869800,5.174869873046875,-0.08544921875,0.9929046630859375,-0.0569610595703125
1686426762012813800,5.184813720703125,-0.0841217041015625,0.9917755126953125,-0.058624267578125
1686426762022758700,5.194758544921875,-0.0843353271484375,0.9928436279296875,-0.0604095458984375
1686426762032704000,5.2047041015625,-0.0827178955078125,0.992767333984375,-0.060882568359375
1686426762042648800,5.21464892578125,-0.080291748046875,0.99169921875,-0.060882568359375
1686426762052593700,5.22459375,-0.0784454345703125,0.9920501708984375,-0.060882568359375
1686426762062538800,5.234538818359375,-0.076904296875,0.9934234619140625,-0.0600128173828125
1686426762072483800,5.24448388671875,-0.07684326171875,0.991485595703125,-0.0602874755859375
1686426762082428700,5.2544287109375,-0.0778350830078125,0.9955596923828125,-0.060577392578125
1686426762092373800,5.264373779296875,-0.07794189453125,0.9955902099609375,-0.060760498046875
1686426762102318800,5.27431884765625,-0.07708740234375,0.9935455322265625,-0.060089111328125
1686426762112263700,5.284263671875,-0.0774688720703125,0.9930572509765625,-0.0594024658203125
1686426762122208800,5.294208740234375,-0.077667236328125,0.990509033203125,-0.058807373046875
1686426762132152800,5.30415283203125,-0.0774383544921875,0.98944091796875,-0.058319091796875
1686426762142097700,5.31409765625,-0.0781707763671875,0.989166259765625,-0.0554046630859375
1686426762152042800,5.324042724609375,-0.0811767578125,0.9891357421875,-0.0520782470703125
1686426762161987800,5.33398779296875,-0.0783843994140625,0.98828125,-0.051666259765625
1686426762171932700,5.3439326171875,-0.0787353515625,0.984100341796875,-0.0512847900390625
1686426762181877800,5.353877685546875,-0.0768890380859375,0.9832763671875,-0.0507049560546875
1686426762191822800,5.36382275390625,-0.0780029296875,0.9806365966796875,-0.049713134765625
1686426762201767700,5.373767578125,-0.073211669921875,0.9828338623046875,-0.0491790771484375
1686426762211712800,5.383712646484375,-0.0703582763671875,0.984649658203125,-0.049285888671875
1686426762221657900,5.393657958984375,-0.0713348388671875,0.9882354736328125,-0.050628662109375
1686426762231602700,5.403602783203125,-0.072723388671875,0.9890899658203125,-0.05206298828125
1686426762241547800,5.4135478515625,-0.0739593505859375,0.99249267578125,-0.053314208984375
1686426762251491800,5.423491943359375,-0.0750579833984375,0.9946136474609375,-0.0534820556640625
1686426762261436700,5.433436767578125,-0.0754852294921875,0.9952545166015625,-0.0528106689453125
1686426762271381800,5.4433818359375,-0.0760040283203125,0.9959716796875,-0.052490234375
1686426762281326800,5.453326904296875,-0.0771636962890625,0.99810791015625,-0.0519256591796875
1686426762291271700,5.463271728515625,-0.073822021484375,1.001068115234375,-0.050750732421875
1686426762301216800,5.473216796875,-0.0702972412109375,1.0013580322265625,-0.0487823486328125
1686426762311161900,5.483161865234375,-0.07177734375,0.9990081787109375,-0.0470733642578125
1686426762321106700,5.493106689453125,-0.078369140625,1.0000152587890625,-0.0471038818359375
1686426762331051800,5.5030517578125,-0.0836639404296875,1.0041961669921875,-0.048492431640625
1686426762340996900,5.512996826171875,-0.0865631103515625,1.009674072265625,-0.049591064453125
1686426762350941700,5.522941650390625,-0.0886077880859375,1.0118255615234375,-0.0518951416015625
1686426762360886800,5.53288671875,-0.090423583984375,1.00885009765625,-0.0524139404296875
1686426762370830800,5.542830810546875,-0.0912017822265625,1.0008392333984375,-0.053131103515625
1686426762380775700,5.552775634765625,-0.0921173095703125,0.991119384765625,-0.0533599853515625
1686426762390720800,5.562720703125,-0.0936737060546875,0.98162841796875,-0.053985595703125
1686426762400665900,5.572665771484375,-0.091094970703125,0.979766845703125,-0.0537872314453125
1686426762410610700,5.582610595703125,-0.083160400390625,0.9835968017578125,-0.052978515625
1686426762420555800,5.5925556640625,-0.078399658203125,0.9891815185546875,-0.052215576171875
1686426762430500900,5.6025009765625,-0.0810394287109375,0.99072265625,-0.05255126953125
1686426762440445700,5.61244580078125,-0.08135986328125,0.9965972900390625,-0.051788330078125
1686426762450390800,5.622390869140625,-0.0843353271484375,0.99908447265625,-0.050537109375
1686426762460335600,5.632335693359375,-0.08782958984375,0.9963531494140625,-0.0514678955078125
1686426762470281000,5.642281005859375,-0.0853729248046875,0.994720458984375,-0.0540924072265625
1686426762480225800,5.652225830078125,-0.08685302734375,0.9945526123046875,-0.0550537109375
1686426762490170600,5.662170654296875,-0.0889129638671875,0.996063232421875,-0.0572662353515625
1686426762500114700,5.67211474609375,-0.088653564453125,1.0002899169921875,-0.0583038330078125
1686426762510059500,5.6820595703125,-0.0901031494140625,1.0010223388671875,-0.0574951171875
1686426762520004900,5.6920048828125,-0.0937957763671875,1.0000457763671875,-0.056854248046875
1686426762529949700,5.70194970703125,-0.0965423583984375,0.9984283447265625,-0.0568084716796875
1686426762539894500,5.71189453125,-0.096923828125,0.9969024658203125,-0.0572509765625
1686426762549839600,5.721839599609375,-0.095062255859375,0.994903564453125,-0.0557403564453125
1686426762559784700,5.73178466796875,-0.0928955078125,0.9937286376953125,-0.0544891357421875
1686426762569729500,5.7417294921875,-0.0908050537109375,0.9930877685546875,-0.0542755126953125
1686426762579674600,5.751674560546875,-0.0884857177734375,0.995330810546875,-0.0529022216796875
1686426762589619700,5.76161962890625,-0.08880615234375,0.996826171875,-0.0546722412109375
1686426762599564500,5.771564453125,-0.0886993408203125,0.99554443359375,-0.05596923828125
1686426762609509600,5.781509521484375,-0.0881805419921875,0.9961090087890625,-0.0561065673828125
1686426762619453700,5.79145361328125,-0.0881500244140625,0.994354248046875,-0.0572052001953125
1686426762629398500,5.8013984375,-0.087677001953125,0.9943695068359375,-0.05792236328125
1686426762639343600,5.811343505859375,-0.0849761962890625,0.994110107421875,-0.0579986572265625
1686426762649288700,5.821288818359375,-0.0839080810546875,0.9931640625,-0.0551300048828125
1686426762659233500,5.831233642578125,-0.0865936279296875,0.9918060302734375,-0.053741455078125
1686426762669178600,5.8411787109375,-0.08984375,0.9887847900390625,-0.0527496337890625
1686426762679123700,5.851123779296875,-0.0907440185546875,0.988983154296875,-0.0514984130859375
1686426762689068500,5.861068603515625,-0.0917205810546875,0.9888763427734375,-0.05096435546875
1686426762699013600,5.871013671875,-0.091461181640625,0.990081787109375,-0.0519561767578125
1686426762708958700,5.880958740234375,-0.0930023193359375,0.99127197265625,-0.0521392822265625
1686426762718903600,5.890903564453125,-0.0947723388671875,0.9874267578125,-0.0537261962890625
1686426762728848600,5.9008486328125,-0.09442138671875,0.99114990234375,-0.0562744140625
1686426762738793700,5.910793701171875,-0.0919189453125,0.9959869384765625,-0.0555572509765625
1686426762748737500,5.920737548828125,-0.0916748046875,0.995849609375,-0.0574493408203125
1686426762758682600,5.9306826171875,-0.0900421142578125,1.0012054443359375,-0.0561981201171875
1686426762768627700,5.940627685546875,-0.0903167724609375,1.0024566650390625,-0.05438232421875
1686426762778572500,5.950572509765625,-0.0906829833984375,1.0003204345703125,-0.0549468994140625
1686426762788517600,5.960517578125,-0.089874267578125,0.9998626708984375,-0.054443359375
1686426762798462700,5.970462646484375,-0.089599609375,0.9975433349609375,-0.052337646484375
1686426762808407600,5.980407470703125,-0.0889129638671875,0.994598388671875,-0.054290771484375
1686426762818352600,5.9903525390625,-0.0887298583984375,0.99212646484375,-0.0538482666015625
1686426762828297700,6.000297607421875,-0.0901641845703125,0.992706298828125,-0.053680419921875
1686426762838242600,6.01024267578125,-0.08990478515625,0.9912261962890625,-0.0535430908203125
1686426762848187600,6.020187744140625,-0.0883026123046875,0.9935455322265625,-0.0554351806640625
1686426762858132500,6.030132568359375,-0.0889129638671875,0.9922637939453125,-0.0560760498046875
1686426762868076500,6.04007666015625,-0.091400146484375,0.993865966796875,-0.0565948486328125
1686426762878021600,6.050021728515625,-0.09356689453125,0.9923553466796875,-0.0576934814453125
1686426762887966700,6.059966796875,-0.09552001953125,0.991302490234375,-0.058624267578125
1686426762897911600,6.06991162109375,-0.09649658203125,0.9929351806640625,-0.0579376220703125
1686426762907856600,6.079856689453125,-0.093231201171875,0.9906768798828125,-0.059600830078125
1686426762917801700,6.0898017578125,-0.08990478515625,0.9913787841796875,-0.05950927734375
1686426762927746600,6.09974658203125,-0.090423583984375,0.9927520751953125,-0.0582275390625
1686426762937691600,6.109691650390625,-0.09222412109375,0.9951934814453125,-0.05865478515625
1686426762947636500,6.119636474609375,-0.089324951171875,0.996246337890625,-0.0568389892578125
1686426762957581800,6.129581787109375,-0.0927581787109375,0.997039794921875,-0.055572509765625
1686426762967526700,6.139526611328125,-0.09527587890625,0.9945526123046875,-0.0550994873046875
1686426762977471500,6.149471435546875,-0.09454345703125,0.995086669921875,-0.0561065673828125
1686426762987416800,6.159416748046875,-0.0944061279296875,0.9935760498046875,-0.0565948486328125
1686426762997360600,6.169360595703125,-0.0934906005859375,0.99493408203125,-0.05584716796875
1686426763007305700,6.1793056640625,-0.0947723388671875,0.99310302734375,-0.05377197265625
1686426763017250600,6.18925048828125,-0.095855712890625,0.9942169189453125,-0.0551300048828125
1686426763027195600,6.199195556640625,-0.097747802734375,0.9934539794921875,-0.055908203125
1686426763037140500,6.209140380859375,-0.0994110107421875,0.9934844970703125,-0.054351806640625
1686426763047085800,6.2190859375,-0.0982666015625,0.9954071044921875,-0.054656982421875
1686426763057030700,6.22903076171875,-0.0929412841796875,0.9981689453125,-0.054046630859375
1686426763066975500,6.2389755859375,-0.093292236328125,0.995941162109375,-0.055511474609375
1686426763076920800,6.2489208984375,-0.100860595703125,0.9893341064453125,-0.0565338134765625
1686426763086865700,6.25886572265625,-0.105377197265625,0.988677978515625,-0.059478759765625
1686426763096810500,6.268810546875,-0.0974884033203125,0.9948577880859375,-0.062286376953125
1686426763106755800,6.278755859375,-0.0905609130859375,1.0009002685546875,-0.062835693359375
1686426763116700700,6.28870068359375,-0.0915679931640625,1.0008697509765625,-0.064453125
1686426763126645500,6.2986455078125,-0.09942626953125,0.997222900390625,-0.0660400390625
1686426763136589600,6.308589599609375,-0.1033782958984375,0.99273681640625,-0.069000244140625
1686426763146534700,6.31853466796875,-0.101776123046875,0.993194580078125,-0.0701141357421875
1686426763156479500,6.3284794921875,-0.097412109375,0.99688720703125,-0.0693206787109375
1686426763166424800,6.3384248046875,-0.0981597900390625,0.988616943359375,-0.066497802734375
1686426763176369700,6.34836962890625,-0.1070709228515625,0.980255126953125,-0.064361572265625
1686426763186314500,6.358314453125,-0.111785888671875,0.9788818359375,-0.06524658203125
1686426763196259800,6.368259765625,-0.10528564453125,0.9852294921875,-0.0621185302734375
1686426763206204700,6.37820458984375,-0.096710205078125,0.98956298828125,-0.062042236328125
1686426763216149500,6.3881494140625,-0.0953369140625,0.9929046630859375,-0.0618133544921875
1686426763226094800,6.3980947265625,-0.099273681640625,0.993927001953125,-0.0593719482421875
1686426763236039700,6.408039794921875,-0.1013946533203125,0.995025634765625,-0.0612335205078125
1686426763245984500,6.417984619140625,-0.0992889404296875,0.9958953857421875,-0.062835693359375
1686426763255929600,6.4279296875,-0.09686279296875,0.9959716796875,-0.0595703125
1686426763265873700,6.437873779296875,-0.09869384765625,0.9973907470703125,-0.0569610595703125
1686426763275818500,6.447818603515625,-0.099334716796875,0.9979248046875,-0.05792236328125
1686426763285763800,6.457763916015625,-0.1018524169921875,0.99969482421875,-0.05706787109375
1686426763295708700,6.467708740234375,-0.1025238037109375,0.9973297119140625,-0.0571136474609375
1686426763305653500,6.477653564453125,-0.1023712158203125,0.9951171875,-0.0572052001953125
1686426763315598800,6.487598876953125,-0.1017913818359375,0.995330810546875,-0.05926513671875
1686426763325543700,6.497543701171875,-0.0996856689453125,0.99591064453125,-0.0625152587890625
1686426763335488500,6.507488525390625,-0.1009979248046875,0.9949951171875,-0.0628509521484375
1686426763345433600,6.51743359375,-0.10076904296875,0.9963531494140625,-0.0642242431640625
1686426763355378700,6.527378662109375,-0.1000823974609375,0.994171142578125,-0.0652923583984375
1686426763365323500,6.537323486328125,-0.10150146484375,0.9925689697265625,-0.061737060546875
1686426763375268600,6.5472685546875,-0.1036376953125,0.990631103515625,-0.0602264404296875
1686426763385213700,6.557213623046875,-0.1062774658203125,0.9879913330078125,-0.0592803955078125
1686426763395157500,6.567157470703125,-0.1066436767578125,0.9899444580078125,-0.0596160888671875
1686426763405102800,6.577102783203125,-0.1058197021484375,0.991424560546875,-0.059600830078125
1686426763415047700,6.587047607421875,-0.10162353515625,0.9926300048828125,-0.0596160888671875
1686426763424992500,6.596992431640625,-0.0998077392578125,0.9924468994140625,-0.0604095458984375
1686426763434937600,6.6069375,-0.1046600341796875,0.9910736083984375,-0.059722900390625
1686426763444882700,6.616882568359375,-0.100860595703125,0.995147705078125,-0.0590667724609375
1686426763454827500,6.62682763671875,-0.095794677734375,0.9966888427734375,-0.0567169189453125
1686426763464772600,6.636772705078125,-0.09423828125,0.993621826171875,-0.0558624267578125
1686426763474717700,6.6467177734375,-0.0950927734375,0.9947967529296875,-0.0551300048828125
1686426763484662500,6.65666259765625,-0.0984344482421875,0.99505615234375,-0.05474853515625
1686426763494607600,6.666607666015625,-0.1021728515625,0.993438720703125,-0.0562744140625
1686426763504553000,6.676552978515625,-0.103302001953125,0.9896240234375,-0.0587921142578125
1686426763514498300,6.686498291015625,-0.10565185546875,0.9873809814453125,-0.06134033203125
1686426763524442000,6.696442138671875,-0.1085052490234375,0.989227294921875,-0.061798095703125
1686426763534387200,6.70638720703125,-0.1097412109375,0.9911651611328125,-0.0628662109375
1686426763544332000,6.71633203125,-0.1082611083984375,0.9937286376953125,-0.06182861328125
1686426763554277000,6.726277099609375,-0.1045379638671875,0.994537353515625,-0.060821533203125
1686426763564222200,6.73622216796875,-0.103271484375,0.995147705078125,-0.0596160888671875
1686426763574167300,6.746167236328125,-0.102508544921875,0.9940032958984375,-0.0560150146484375
1686426763584112000,6.756112060546875,-0.10101318359375,0.9937591552734375,-0.0586700439453125
1686426763594057000,6.766056884765625,-0.09747314453125,0.9959564208984375,-0.0585784912109375
1686426763604002300,6.776002197265625,-0.095794677734375,0.9973602294921875,-0.0587005615234375
1686426763613947100,6.785947021484375,-0.0960540771484375,0.996246337890625,-0.0579681396484375
1686426763623892000,6.79589208984375,-0.0974884033203125,0.99420166015625,-0.0565643310546875
1686426763633837300,6.80583740234375,-0.10162353515625,0.9908599853515625,-0.0564117431640625
1686426763643782100,6.8157822265625,-0.1035919189453125,0.991058349609375,-0.0581512451171875
1686426763653727000,6.82572705078125,-0.1038818359375,0.9901580810546875,-0.058380126953125
1686426763663671300,6.83567138671875,-0.1030120849609375,0.9930267333984375,-0.0597991943359375
1686426763673616100,6.8456162109375,-0.100677490234375,0.9959869384765625,-0.060943603515625
1686426763683561000,6.85556103515625,-0.102630615234375,0.993743896484375,-0.0584259033203125
1686426763693506300,6.86550634765625,-0.107208251953125,0.9882965087890625,-0.057464599609375
1686426763703451100,6.875451171875,-0.105926513671875,0.9853668212890625,-0.05816650390625
1686426763713396000,6.88539599609375,-0.098846435546875,0.98846435546875,-0.05865478515625
1686426763723341300,6.89534130859375,-0.093231201171875,0.99224853515625,-0.056884765625
1686426763733286100,6.9052861328125,-0.093048095703125,0.9959564208984375,-0.05438232421875
1686426763743231000,6.91523095703125,-0.0957794189453125,0.9982147216796875,-0.052093505859375
1686426763753176300,6.92517626953125,-0.101226806640625,0.9972076416015625,-0.0509185791015625
1686426763763121200,6.93512109375,-0.100799560546875,0.9968109130859375,-0.051025390625
1686426763773066000,6.94506591796875,-0.100799560546875,0.9979095458984375,-0.0512237548828125
1686426763783011000,6.955010986328125,-0.1010894775390625,0.996490478515625,-0.0515594482421875
1686426763792956200,6.9649560546875,-0.1012115478515625,0.99505615234375,-0.052825927734375
1686426763802900000,6.97489990234375,-0.1010589599609375,0.9927978515625,-0.0526123046875
1686426763812845300,6.98484521484375,-0.1007232666015625,0.9908599853515625,-0.0543212890625
1686426763822790100,6.9947900390625,-0.0998382568359375,0.98956298828125,-0.0545196533203125
1686426763832735000,7.00473486328125,-0.0997161865234375,0.9885406494140625,-0.0554656982421875
1686426763842680300,7.014680419921875,-0.1010589599609375,0.988189697265625,-0.055389404296875
1686426763852625200,7.024625244140625,-0.10028076171875,0.990081787109375,-0.0529022216796875
1686426763862570000,7.034570068359375,-0.099151611328125,0.990936279296875,-0.0532684326171875
1686426763872515300,7.044515380859375,-0.09698486328125,0.9938201904296875,-0.0530853271484375
1686426763882460200,7.054460205078125,-0.0970916748046875,0.995697021484375,-0.0546722412109375
1686426763892405000,7.064405029296875,-0.1007843017578125,0.9957733154296875,-0.055328369140625
1686426763902350000,7.07435009765625,-0.102203369140625,0.996490478515625,-0.0579071044921875
1686426763912295200,7.084295166015625,-0.098419189453125,0.99700927734375,-0.05792236328125
1686426763922240300,7.094240234375,-0.09716796875,0.9975433349609375,-0.058349609375
1686426763932185000,7.10418505859375,-0.101287841796875,0.9972381591796875,-0.05731201171875
1686426763942130200,7.114130126953125,-0.103240966796875,0.9935150146484375,-0.056732177734375
1686426763952074000,7.124073974609375,-0.10382080078125,0.9929656982421875,-0.0563507080078125
1686426763962019300,7.134019287109375,-0.1009521484375,0.9910430908203125,-0.0547943115234375
1686426763971964200,7.143964111328125,-0.0980377197265625,0.9901885986328125,-0.0537109375
1686426763981909000,7.153908935546875,-0.097869873046875,0.992523193359375,-0.052001953125
1686426763991854000,7.16385400390625,-0.098724365234375,0.9938201904296875,-0.0538787841796875
1686426764001799200,7.173799072265625,-0.1024322509765625,0.9883270263671875,-0.0553436279296875
1686426764011744300,7.183744140625,-0.104278564453125,0.99041748046875,-0.0576019287109375
1686426764021689000,7.193689208984375,-0.1048583984375,0.9904937744140625,-0.055816650390625
1686426764031634200,7.20363427734375,-0.1034698486328125,0.9920806884765625,-0.0574951171875
1686426764041579300,7.213579345703125,-0.0997161865234375,0.9952392578125,-0.0546722412109375
1686426764051524000,7.223524169921875,-0.099700927734375,0.9969940185546875,-0.0529327392578125
1686426764061469200,7.23346923828125,-0.097503662109375,0.9995574951171875,-0.0509185791015625
1686426764071414300,7.243414306640625,-0.09576416015625,1.0044403076171875,-0.050689697265625
1686426764081359000,7.253359130859375,-0.09588623046875,1.004150390625,-0.049102783203125
1686426764091303200,7.26330322265625,-0.0997161865234375,0.9995269775390625,-0.0513458251953125
1686426764101248000,7.273248046875,-0.1022186279296875,0.99383544921875,-0.0511322021484375
1686426764111193000,7.283193115234375,-0.1041107177734375,0.986785888671875,-0.0526885986328125
1686426764121138200,7.29313818359375,-0.1028900146484375,0.98809814453125,-0.0567169189453125
1686426764131083300,7.303083251953125,-0.1001434326171875,0.9913177490234375,-0.05816650390625
1686426764141028000,7.313028076171875,-0.0993499755859375,0.99444580078125,-0.058502197265625
1686426764150973200,7.32297314453125,-0.0998992919921875,0.992889404296875,-0.06109619140625
1686426764160918300,7.332918212890625,-0.1019134521484375,0.99273681640625,-0.063934326171875
1686426764170863000,7.342863037109375,-0.1005706787109375,0.9944000244140625,-0.0634918212890625
1686426764180808200,7.35280810546875,-0.099334716796875,0.9918975830078125,-0.060150146484375
1686426764190753300,7.362753173828125,-0.09918212890625,0.9901885986328125,-0.058868408203125
1686426764200698000,7.372697998046875,-0.09747314453125,0.9918670654296875,-0.0581207275390625
1686426764210643000,7.382642822265625,-0.098175048828125,0.9954986572265625,-0.055633544921875
1686426764220588300,7.39258837890625,-0.0968780517578125,0.9972686767578125,-0.056060791015625
1686426764230532000,7.402531982421875,-0.0986328125,0.99298095703125,-0.055999755859375
1686426764240477200,7.412477294921875,-0.100311279296875,0.9909515380859375,-0.0567626953125
1686426764250422300,7.42242236328125,-0.099212646484375,0.9929351806640625,-0.0572052001953125
1686426764260367000,7.4323671875,-0.0938720703125,0.998809814453125,-0.0568695068359375
1686426764270312200,7.442312255859375,-0.092987060546875,0.99908447265625,-0.05718994140625
1686426764280257300,7.45225732421875,-0.09576416015625,0.997528076171875,-0.0569305419921875
1686426764290202000,7.4622021484375,-0.100616455078125,0.995361328125,-0.056884765625
1686426764300147000,7.47214697265625,-0.1030120849609375,0.992218017578125,-0.056121826171875
1686426764310092300,7.48209228515625,-0.1015472412109375,0.987945556640625,-0.057037353515625
1686426764320037000,7.492037109375,-0.100616455078125,0.985107421875,-0.0588836669921875
1686426764329982000,7.50198193359375,-0.10064697265625,0.9834442138671875,-0.0610504150390625
1686426764339927300,7.51192724609375,-0.0978240966796875,0.9827728271484375,-0.06158447265625
1686426764349872000,7.5218720703125,-0.0973358154296875,0.9833984375,-0.0605621337890625
1686426764359817000,7.53181689453125,-0.0965118408203125,0.989227294921875,-0.0606231689453125
1686426764369762300,7.54176220703125,-0.09466552734375,0.99658203125,-0.0587005615234375
1686426764379706000,7.5517060546875,-0.096282958984375,0.9973907470703125,-0.0570220947265625
1686426764389651000,7.56165087890625,-0.1013641357421875,0.99517822265625,-0.0567626953125
1686426764399596300,7.57159619140625,-0.1063079833984375,0.9951934814453125,-0.0587310791015625
1686426764409541000,7.581541015625,-0.1002655029296875,0.99786376953125,-0.060211181640625
1686426764419486000,7.59148583984375,-0.09686279296875,0.997589111328125,-0.05938720703125
1686426764429431300,7.601431396484375,-0.0999298095703125,0.998626708984375,-0.0603790283203125
1686426764439376100,7.611376220703125,-0.1001739501953125,1.00018310546875,-0.058502197265625
1686426764449321000,7.621321044921875,-0.1011199951171875,1.0008392333984375,-0.055419921875
1686426764459266300,7.631266357421875,-0.099456787109375,0.996856689453125,-0.0528717041015625
1686426764469211100,7.641211181640625,-0.1007080078125,0.9921112060546875,-0.05377197265625
1686426764479156200,7.65115625,-0.1043853759765625,0.9890899658203125,-0.0522613525390625
1686426764489101000,7.66110107421875,-0.106536865234375,0.986480712890625,-0.0543975830078125
1686426764499046100,7.671046142578125,-0.1061248779296875,0.989044189453125,-0.0538482666015625
1686426764508990500,7.680990478515625,-0.102325439453125,0.9862823486328125,-0.0557708740234375
1686426764518935600,7.690935546875,-0.1023712158203125,0.9906463623046875,-0.0559234619140625
1686426764528879400,7.70087939453125,-0.1042327880859375,0.9899444580078125,-0.059234619140625
1686426764538824400,7.710824462890625,-0.1025543212890625,0.99212646484375,-0.059600830078125
1686426764548769500,7.72076953125,-0.0975189208984375,0.9937744140625,-0.0574951171875
1686426764558714600,7.730714599609375,-0.0926971435546875,0.99871826171875,-0.0579376220703125
1686426764568659500,7.740659423828125,-0.0930328369140625,1.001861572265625,-0.0542144775390625
1686426764578604500,7.7506044921875,-0.0945587158203125,1.0010986328125,-0.054229736328125
1686426764588549600,7.760549560546875,-0.097686767578125,0.99822998046875,-0.054779052734375
1686426764598494500,7.770494384765625,-0.099639892578125,0.9959869384765625,-0.0549468994140625
1686426764608439600,7.780439453125,-0.100494384765625,0.989593505859375,-0.0557098388671875
1686426764618384600,7.790384521484375,-0.09991455078125,0.9897613525390625,-0.05792236328125
1686426764628329500,7.80032958984375,-0.10064697265625,0.987884521484375,-0.058135986328125
1686426764638274300,7.8102744140625,-0.103057861328125,0.9867095947265625,-0.0600128173828125
1686426764648219600,7.8202197265625,-0.10430908203125,0.9860382080078125,-0.059417724609375
1686426764658164500,7.83016455078125,-0.10406494140625,0.987457275390625,-0.0588836669921875
1686426764668109300,7.840109375,-0.1047515869140625,0.9918975830078125,-0.05712890625
1686426764678053600,7.8500537109375,-0.104949951171875,0.9926605224609375,-0.0542144775390625
1686426764687998500,7.85999853515625,-0.1057281494140625,0.9896392822265625,-0.0527801513671875
1686426764697943600,7.869943603515625,-0.104705810546875,0.9867401123046875,-0.0496368408203125
1686426764707888600,7.879888671875,-0.1038360595703125,0.9866180419921875,-0.04815673828125
1686426764717833500,7.88983349609375,-0.10235595703125,0.99005126953125,-0.04779052734375
1686426764727778600,7.899778564453125,-0.102783203125,0.9947509765625,-0.0514984130859375
1686426764737723600,7.9097236328125,-0.103668212890625,0.9981689453125,-0.0511016845703125
1686426764747668500,7.91966845703125,-0.104827880859375,0.99676513671875,-0.051544189453125
1686426764757613300,7.92961328125,-0.104949951171875,0.9934539794921875,-0.0525970458984375
1686426764767558700,7.93955859375,-0.1028289794921875,0.994384765625,-0.0536041259765625
1686426764777503500,7.94950341796875,-0.100189208984375,0.995330810546875,-0.054290771484375
1686426764787448300,7.9594482421875,-0.09906005859375,0.994354248046875,-0.0543670654296875
1686426764797393700,7.9693935546875,-0.09954833984375,0.9927520751953125,-0.0535430908203125
1686426764807338500,7.97933837890625,-0.1014404296875,0.9921722412109375,-0.05145263671875
1686426764817283600,7.98928369140625,-0.1021270751953125,0.992462158203125,-0.0506439208984375
1686426764827228700,7.999228759765625,-0.10186767578125,0.99346923828125,-0.0513763427734375
1686426764837172500,8.00917236328125,-0.101959228515625,0.9941253662109375,-0.05169677734375
1686426764847117300,8.019117431640625,-0.101654052734375,0.99664306640625,-0.05279541015625
1686426764857062700,8.029062744140624,-0.09991455078125,0.99859619140625,-0.055694580078125
1686426764867007500,8.039007568359375,-0.1003875732421875,0.9973297119140625,-0.057464599609375
1686426764876952300,8.048952392578125,-0.104248046875,0.9962921142578125,-0.059356689453125
1686426764886897700,8.058897705078126,-0.1079864501953125,0.9947052001953125,-0.0583343505859375
1686426764896842500,8.068842529296875,-0.110382080078125,0.9928741455078125,-0.0598602294921875
1686426764906787600,8.07878759765625,-0.107391357421875,0.99395751953125,-0.0626678466796875
1686426764916732700,8.088732666015625,-0.1064453125,0.995208740234375,-0.062408447265625
1686426764926677500,8.098677490234374,-0.1070709228515625,0.996124267578125,-0.060272216796875
1686426764936622600,8.10862255859375,-0.1040802001953125,0.9954071044921875,-0.05950927734375
1686426764946567400,8.1185673828125,-0.1049041748046875,0.992218017578125,-0.0575103759765625
1686426764956512500,8.128512451171876,-0.1047210693359375,0.9874725341796875,-0.0567474365234375
1686426764966457600,8.13845751953125,-0.1048736572265625,0.9832000732421875,-0.0572052001953125
1686426764976402400,8.14840234375,-0.1068115234375,0.9846649169921875,-0.057708740234375
1686426764986347500,8.158347412109375,-0.1040802001953125,0.9881744384765625,-0.05804443359375
1686426764996291600,8.16829150390625,-0.101226806640625,0.9923248291015625,-0.0579376220703125
1686426765006236700,8.178236572265625,-0.10028076171875,0.9968414306640625,-0.0572662353515625
1686426765016181500,8.188181396484374,-0.101470947265625,0.999603271484375,-0.0541839599609375
1686426765026126600,8.198126708984375,-0.1048126220703125,1.000030517578125,-0.0521240234375
1686426765036071400,8.208071533203125,-0.1075592041015625,0.997344970703125,-0.0489044189453125
1686426765046016500,8.2180166015625,-0.1064300537109375,1.0007476806640625,-0.04815673828125
1686426765055961600,8.227961669921875,-0.1030120849609375,0.99749755859375,-0.048858642578125
1686426765065906400,8.237906494140624,-0.1056671142578125,0.9944915771484375,-0.04559326171875
1686426765075851500,8.2478515625,-0.1084442138671875,0.9946441650390625,-0.0461273193359375
1686426765085796600,8.257796630859374,-0.11138916015625,0.9890899658203125,-0.0462799072265625
1686426765095741400,8.267741455078125,-0.110595703125,0.9847412109375,-0.0488433837890625
1686426765105686500,8.2776865234375,-0.1059112548828125,0.98736572265625,-0.0524444580078125
1686426765115631600,8.287631591796876,-0.1037139892578125,0.98876953125,-0.053436279296875
1686426765125576400,8.297576416015625,-0.1025543212890625,0.9908294677734375,-0.0554656982421875
1686426765135521500,8.307521484375,-0.101348876953125,0.991546630859375,-0.0555419921875
1686426765145466600,8.317466552734375,-0.1000518798828125,0.9912109375,-0.057220458984375
1686426765155410400,8.327410400390624,-0.1006317138671875,0.991485595703125,-0.0594635009765625
1686426765165355500,8.33735546875,-0.101165771484375,0.9914093017578125,-0.05908203125
1686426765175300600,8.347300537109374,-0.1013641357421875,0.9901885986328125,-0.0590667724609375
1686426765185245400,8.357245361328125,-0.10089111328125,0.991485595703125,-0.0588226318359375
1686426765195190500,8.3671904296875,-0.0996856689453125,0.993682861328125,-0.0582122802734375
1686426765205135600,8.377135498046876,-0.101776123046875,0.995574951171875,-0.055755615234375
1686426765215080400,8.38708056640625,-0.1066131591796875,0.99761962890625,-0.0552825927734375
1686426765225025500,8.397025634765624,-0.1077728271484375,1.00079345703125,-0.0543365478515625
1686426765234970600,8.406970703125,-0.10894775390625,1.0007171630859375,-0.0529632568359375
1686426765244915500,8.41691552734375,-0.108673095703125,0.9997406005859375,-0.053009033203125
1686426765254860300,8.4268603515625,-0.11004638671875,0.994842529296875,-0.0525970458984375
1686426765264805600,8.4368056640625,-0.1125946044921875,0.9882049560546875,-0.055328369140625
1686426765274750500,8.44675048828125,-0.113372802734375,0.9819488525390625,-0.05487060546875
1686426765284695600,8.456695556640625,-0.11468505859375,0.9777984619140625,-0.0548858642578125
1686426765294640600,8.466640625,-0.1114959716796875,0.9792938232421875,-0.0569000244140625
1686426765304585500,8.47658544921875,-0.1059417724609375,0.985626220703125,-0.058135986328125
1686426765314530600,8.486530517578124,-0.10211181640625,0.990509033203125,-0.0572357177734375
1686426765324474600,8.496474609375,-0.099761962890625,0.99395751953125,-0.055145263671875
1686426765334419500,8.50641943359375,-0.0987396240234375,0.99591064453125,-0.0535430908203125
1686426765344364300,8.5163642578125,-0.0981903076171875,0.996307373046875,-0.0526275634765625
1686426765354309600,8.5263095703125,-0.0975799560546875,0.9990234375,-0.054168701171875
1686426765364254500,8.53625439453125,-0.098663330078125,0.9994659423828125,-0.0550079345703125
1686426765374199600,8.546199462890625,-0.1020355224609375,1.0021209716796875,-0.05413818359375
1686426765384144600,8.55614453125,-0.1060333251953125,1.0019989013671875,-0.0546112060546875
1686426765394089500,8.56608935546875,-0.1071319580078125,0.99969482421875,-0.055938720703125
1686426765404034600,8.57603466796875,-0.1052093505859375,0.9962310791015625,-0.05450439453125
1686426765413979600,8.585979736328126,-0.1080780029296875,0.9909820556640625,-0.0529937744140625
1686426765423924500,8.595924560546875,-0.112030029296875,0.9896392822265625,-0.05108642578125
1686426765433869600,8.60586962890625,-0.110992431640625,0.992401123046875,-0.0494842529296875
1686426765443814400,8.615814453125,-0.1096038818359375,0.99212646484375,-0.0481414794921875
1686426765453759500,8.625759521484374,-0.10723876953125,0.9917755126953125,-0.048797607421875
1686426765463704600,8.63570458984375,-0.106964111328125,0.991058349609375,-0.0493316650390625
1686426765473649400,8.6456494140625,-0.1050567626953125,0.98980712890625,-0.0504150390625
1686426765483594500,8.655594482421876,-0.1039886474609375,0.9884185791015625,-0.051422119140625
1686426765493538600,8.66553857421875,-0.102813720703125,0.9896392822265625,-0.053985595703125
1686426765503483600,8.675483642578126,-0.1023101806640625,0.990234375,-0.0567169189453125
1686426765513429000,8.685428955078125,-0.1043853759765625,0.99267578125,-0.057952880859375
1686426765523373800,8.695373779296874,-0.1051177978515625,0.9958038330078125,-0.0578460693359375
1686426765533319000,8.70531884765625,-0.1034698486328125,0.9969940185546875,-0.0591583251953125
1686426765543264000,8.715263916015624,-0.1001739501953125,0.9974212646484375,-0.058807373046875
1686426765553208800,8.725208740234375,-0.09967041015625,0.997772216796875,-0.05804443359375
1686426765563154000,8.73515380859375,-0.0996246337890625,0.9964599609375,-0.057586669921875
1686426765573099000,8.74509912109375,-0.100006103515625,0.99627685546875,-0.0582733154296875
1686426765583043800,8.7550439453125,-0.103973388671875,0.9958038330078125,-0.057708740234375
1686426765592989000,8.764989013671874,-0.105499267578125,0.9944000244140625,-0.0565032958984375
1686426765602933800,8.774933837890625,-0.1059417724609375,0.9921875,-0.0554046630859375
1686426765612878800,8.78487890625,-0.1046905517578125,0.9916229248046875,-0.053680419921875
1686426765622824000,8.794823974609375,-0.105316162109375,0.99298095703125,-0.0504608154296875
1686426765632768800,8.804768798828125,-0.1070098876953125,0.9921875,-0.0484771728515625
1686426765642713900,8.8147138671875,-0.1081390380859375,0.9904022216796875,-0.046112060546875
1686426765652659000,8.824658935546875,-0.1082763671875,0.9917144775390625,-0.04388427734375
1686426765662603000,8.83460302734375,-0.1061553955078125,0.9918060302734375,-0.0430145263671875
1686426765672547800,8.8445478515625,-0.10302734375,0.991790771484375,-0.042022705078125
1686426765682493000,8.854492919921874,-0.10107421875,0.99212646484375,-0.04119873046875
1686426765692437800,8.864437744140625,-0.1002044677734375,0.99273681640625,-0.043304443359375
1686426765702382800,8.8743828125,-0.0990142822265625,0.9928741455078125,-0.0458984375
1686426765712328000,8.884327880859376,-0.0992584228515625,0.9924163818359375,-0.0482635498046875
1686426765722272800,8.894272705078125,-0.1012115478515625,0.991912841796875,-0.0503997802734375
1686426765732217900,8.9042177734375,-0.102081298828125,0.992462158203125,-0.0526275634765625
1686426765742163000,8.914162841796875,-0.1043243408203125,0.9937286376953125,-0.054595947265625
1686426765752107800,8.924107666015624,-0.1036834716796875,0.995880126953125,-0.0564422607421875
1686426765762053000,8.93405322265625,-0.102630615234375,0.9976959228515625,-0.0584259033203125
1686426765771998000,8.943998046875,-0.1006927490234375,0.99884033203125,-0.057769775390625
1686426765781942800,8.95394287109375,-0.1040191650390625,0.9969635009765625,-0.053924560546875
1686426765791888000,8.963887939453125,-0.10870361328125,0.9930877685546875,-0.050201416015625
1686426765801833000,8.9738330078125,-0.111114501953125,0.991363525390625,-0.0457611083984375
1686426765811777800,8.98377783203125,-0.112762451171875,0.9913482666015625,-0.0443878173828125
1686426765821723000,8.993722900390624,-0.1134033203125,0.992034912109375,-0.045074462890625
1686426765831667000,9.0036669921875,-0.1111602783203125,0.9909820556640625,-0.0464935302734375
1686426765841611800,9.01361181640625,-0.111785888671875,0.9903564453125,-0.048309326171875
1686426765851556900,9.023556884765625,-0.1101837158203125,0.9883880615234375,-0.05133056640625
1686426765861502000,9.033501953125,-0.1095733642578125,0.99017333984375,-0.0548553466796875
1686426765871446800,9.04344677734375,-0.109100341796875,0.9930572509765625,-0.0570068359375
1686426765881392000,9.05339208984375,-0.1116180419921875,0.9939727783203125,-0.05816650390625
1686426765891337000,9.0633369140625,-0.1127166748046875,0.9939727783203125,-0.0584716796875
1686426765901281800,9.07328173828125,-0.1065673828125,0.993438720703125,-0.0584716796875
1686426765911227000,9.083226806640624,-0.1042938232421875,0.992828369140625,-0.0583953857421875
1686426765921172000,9.093171875,-0.10736083984375,0.9917144775390625,-0.0579986572265625
1686426765931116800,9.10311669921875,-0.1082763671875,0.9940185546875,-0.0546417236328125
1686426765941062000,9.113061767578126,-0.111114501953125,0.9960784912109375,-0.0524444580078125
1686426765951007000,9.123007080078125,-0.109893798828125,0.9929962158203125,-0.05255126953125
1686426765960951800,9.132951904296876,-0.11077880859375,0.99072265625,-0.054168701171875
1686426765970897000,9.14289697265625,-0.1115570068359375,0.992645263671875,-0.053009033203125
1686426765980842000,9.152842041015624,-0.1128387451171875,0.9941253662109375,-0.0513153076171875
1686426765990786800,9.162786865234375,-0.1148681640625,0.9936370849609375,-0.05035400390625
1686426766000732000,9.17273193359375,-0.115325927734375,0.9931488037109375,-0.051849365234375
1686426766010676000,9.182676025390625,-0.1173248291015625,0.993927001953125,-0.053497314453125
1686426766020620800,9.192620849609375,-0.115692138671875,0.99609375,-0.0551605224609375
1686426766030566000,9.20256591796875,-0.1121368408203125,0.997650146484375,-0.0554962158203125
1686426766040511000,9.212510986328125,-0.109893798828125,0.995086669921875,-0.05718994140625
1686426766050455800,9.222455810546874,-0.108612060546875,0.9927520751953125,-0.0575714111328125
1686426766060401000,9.23240087890625,-0.107757568359375,0.99053955078125,-0.0570220947265625
1686426766070346000,9.242345947265624,-0.10791015625,0.9897308349609375,-0.0558929443359375
1686426766080290800,9.252290771484375,-0.10968017578125,0.9889068603515625,-0.0555419921875
1686426766090236000,9.26223583984375,-0.1110382080078125,0.98846435546875,-0.0557098388671875
1686426766100181000,9.272180908203126,-0.1097412109375,0.9897918701171875,-0.0566558837890625
1686426766110125800,9.282125732421875,-0.10968017578125,0.9919586181640625,-0.0583343505859375
1686426766120071000,9.29207080078125,-0.1101226806640625,0.9947052001953125,-0.057586669921875
1686426766130015700,9.302015625,-0.112030029296875,0.9954833984375,-0.0566864013671875
1686426766139961000,9.311961181640624,-0.113189697265625,0.9948272705078125,-0.0581207275390625
1686426766149906000,9.321906005859375,-0.11395263671875,0.9939422607421875,-0.0569915771484375
1686426766159850800,9.331850830078125,-0.1139373779296875,0.9935760498046875,-0.056121826171875
1686426766169796000,9.341796142578126,-0.1123046875,0.9929962158203125,-0.055419921875
1686426766179741000,9.351740966796875,-0.1090087890625,0.99072265625,-0.0545196533203125
1686426766189685800,9.361685791015624,-0.1095733642578125,0.9925537109375,-0.0540008544921875
1686426766199629800,9.3716298828125,-0.1097564697265625,0.9916229248046875,-0.0533294677734375
1686426766209575000,9.381574951171874,-0.1092987060546875,0.99114990234375,-0.052642822265625
1686426766219519700,9.391519775390625,-0.11077880859375,0.988311767578125,-0.0540771484375
1686426766229465000,9.401465087890625,-0.108917236328125,0.9886932373046875,-0.055755615234375
1686426766239410000,9.411409912109375,-0.1068878173828125,1.002288818359375,-0.0546417236328125
1686426766249354800,9.421354736328125,-0.1041412353515625,0.9968109130859375,-0.0547027587890625
1686426766259300000,9.431300048828126,-0.1057586669921875,0.99774169921875,-0.056854248046875
1686426766269245000,9.441244873046875,-0.1040496826171875,1.00091552734375,-0.0550384521484375
1686426766279189800,9.451189697265624,-0.1048126220703125,0.9998626708984375,-0.0499114990234375
1686426766289135000,9.461135009765625,-0.108917236328125,0.99725341796875,-0.0460968017578125
1686426766299080000,9.471079833984374,-0.109710693359375,0.9936370849609375,-0.0446624755859375
1686426766309024800,9.481024658203125,-0.107452392578125,0.9891204833984375,-0.0438079833984375
1686426766318969900,9.490969970703125,-0.106231689453125,0.9874114990234375,-0.0445556640625
1686426766328915000,9.5009150390625,-0.1060791015625,0.985382080078125,-0.043975830078125
1686426766338859800,9.51085986328125,-0.1038818359375,0.9833831787109375,-0.0454864501953125
1686426766348804900,9.520804931640624,-0.1022796630859375,0.984649658203125,-0.0479736328125
1686426766358750000,9.53075,-0.0995025634765625,0.986053466796875,-0.050323486328125
1686426766368694800,9.54069482421875,-0.0989837646484375,0.9888763427734375,-0.053802490234375
1686426766378640000,9.550639892578126,-0.101318359375,0.9915771484375,-0.056915283203125
1686426766388584000,9.560583984375,-0.0995635986328125,0.9947357177734375,-0.0594024658203125
1686426766398528800,9.57052880859375,-0.094818115234375,0.9929962158203125,-0.060577392578125
1686426766408473900,9.580473876953125,-0.094696044921875,0.9909515380859375,-0.0591888427734375
1686426766418419000,9.5904189453125,-0.0998687744140625,0.989654541015625,-0.0579071044921875
1686426766428363800,9.60036376953125,-0.101593017578125,0.9950103759765625,-0.055816650390625
1686426766438308900,9.610308837890624,-0.10247802734375,0.9974822998046875,-0.0523223876953125
1686426766448254000,9.62025390625,-0.10302734375,0.9949493408203125,-0.049346923828125
1686426766458198800,9.63019873046875,-0.1030426025390625,0.994354248046875,-0.0482940673828125
1686426766468143900,9.640143798828126,-0.1036834716796875,0.99755859375,-0.0480499267578125
1686426766478089000,9.6500888671875,-0.105255126953125,0.9970703125,-0.04888916015625
1686426766488034000,9.660033935546876,-0.1059112548828125,0.9963226318359375,-0.048248291015625
1686426766497979000,9.669978759765625,-0.1059417724609375,0.9961395263671875,-0.05059814453125
1686426766507924000,9.679924072265624,-0.1059417724609375,0.99481201171875,-0.051971435546875
1686426766517869000,9.689869140625,-0.106231689453125,0.9941253662109375,-0.0550079345703125
1686426766527814000,9.69981396484375,-0.105377197265625,0.9933929443359375,-0.055267333984375
1686426766537758700,9.7097587890625,-0.103118896484375,0.9930419921875,-0.056915283203125
1686426766547704000,9.7197041015625,-0.100799560546875,0.994140625,-0.055084228515625
1686426766557649000,9.72964892578125,-0.1004486083984375,0.9948272705078125,-0.05584716796875
1686426766567593700,9.73959375,-0.100799560546875,0.99798583984375,-0.0547332763671875
1686426766577538000,9.7495380859375,-0.1031036376953125,0.9994354248046875,-0.0505523681640625
1686426766587483000,9.75948291015625,-0.1038665771484375,0.9983062744140625,-0.05078125
1686426766597428000,9.769427978515624,-0.1043701171875,0.996978759765625,-0.051025390625
1686426766607373000,9.779373046875,-0.1027069091796875,0.9950408935546875,-0.0517425537109375
1686426766617318000,9.78931787109375,-0.1026153564453125,0.9918975830078125,-0.052703857421875
1686426766627262700,9.7992626953125,-0.103851318359375,0.9891357421875,-0.05224609375
1686426766637208000,9.8092080078125,-0.10308837890625,0.9884490966796875,-0.050872802734375
1686426766647153000,9.81915283203125,-0.103424072265625,0.9886474609375,-0.0506439208984375
1686426766657097700,9.82909765625,-0.1028289794921875,0.9910125732421875,-0.050628662109375
1686426766667043000,9.83904296875,-0.1013031005859375,0.9920654296875,-0.051300048828125
1686426766676988000,9.84898779296875,-0.1005401611328125,0.994415283203125,-0.049713134765625
1686426766686932700,9.8589326171875,-0.099639892578125,0.9957427978515625,-0.049591064453125
1686426766696878000,9.868878173828126,-0.0985107421875,0.99444580078125,-0.0482330322265625
1686426766706823000,9.878822998046875,-0.0991668701171875,0.9939117431640625,-0.0474853515625
1686426766716767700,9.888767822265624,-0.0999298095703125,0.9932403564453125,-0.0476531982421875
1686426766726712800,9.898712890625,-0.0991363525390625,0.9936065673828125,-0.04803466796875
1686426766736658000,9.908657958984374,-0.0986480712890625,0.9965667724609375,-0.0480194091796875
1686426766746603000,9.91860302734375,-0.09814453125,0.9970245361328125,-0.0478057861328125
1686426766756547800,9.9285478515625,-0.0987396240234375,0.9976654052734375,-0.048065185546875
1686426766766493000,9.938492919921876,-0.0985565185546875,1.000030517578125,-0.046600341796875
1686426766776436700,9.948436767578125,-0.0991058349609375,0.999847412109375,-0.046478271484375
1686426766786382000,9.958382080078126,-0.099853515625,0.99896240234375,-0.0464935302734375
1686426766796327000,9.968326904296875,-0.0975494384765625,0.9961700439453125,-0.0463409423828125
1686426766806271700,9.978271728515624,-0.0977935791015625,0.993072509765625,-0.0463714599609375
1686426766816216800,9.988216796875,-0.097015380859375,0.99114990234375,-0.0461578369140625
1686426766826162000,9.998161865234374,-0.0983428955078125,0.9879608154296875,-0.0448760986328125
1686426766836106800,10.008106689453125,-0.0980987548828125,0.9872283935546875,-0.0440216064453125
1686426766846051800,10.0180517578125,-0.097198486328125,0.98748779296875,-0.0429229736328125
1686426766855997000,10.027996826171876,-0.0971527099609375,0.989288330078125,-0.041961669921875
1686426766865942000,10.03794189453125,-0.09771728515625,0.9919281005859375,-0.0410003662109375
1686426766875886800,10.047886962890624,-0.0997314453125,0.9960784912109375,-0.042694091796875
1686426766885832000,10.05783203125,-0.1014251708984375,1.00018310546875,-0.0443115234375
1686426766895777000,10.067777099609375,-0.1002044677734375,1.00018310546875,-0.046356201171875
1686426766905721900,10.077721923828125,-0.0977630615234375,1.00054931640625,-0.046539306640625
1686426766915667000,10.0876669921875,-0.0992584228515625,1.000030517578125,-0.0472412109375
1686426766925612000,10.097612060546876,-0.09686279296875,0.9986572265625,-0.04498291015625
1686426766935556900,10.107556884765625,-0.097991943359375,0.99603271484375,-0.0423736572265625
1686426766945501700,10.117501708984374,-0.0971221923828125,0.99224853515625,-0.0414581298828125
1686426766955447000,10.127447021484375,-0.0951385498046875,0.9898834228515625,-0.0400848388671875
1686426766965392000,10.137391845703124,-0.0933380126953125,0.9925384521484375,-0.040374755859375
1686426766975336700,10.147336669921875,-0.0921630859375,0.99456787109375,-0.042327880859375
1686426766985281000,10.157281005859375,-0.0946197509765625,0.99224853515625,-0.0416107177734375
1686426766995225900,10.167225830078126,-0.0989837646484375,0.9913330078125,-0.04205322265625
1686426767005171000,10.1771708984375,-0.1013031005859375,0.9933013916015625,-0.043365478515625
1686426767015116000,10.187115966796876,-0.102508544921875,0.9951324462890625,-0.0443572998046875
1686426767025060900,10.197060791015625,-0.1014251708984375,0.99462890625,-0.0475006103515625
1686426767035005700,10.207005615234374,-0.0975799560546875,0.99139404296875,-0.050140380859375
1686426767044951000,10.216950927734375,-0.093780517578125,0.988372802734375,-0.05133056640625
1686426767054895900,10.226895751953125,-0.089324951171875,0.9894866943359375,-0.05230712890625
1686426767064840700,10.2368408203125,-0.086212158203125,0.9859619140625,-0.0533599853515625
1686426767074786000,10.2467861328125,-0.0908966064453125,0.983734130859375,-0.0515899658203125
1686426767084731000,10.25673095703125,-0.0972900390625,0.9854736328125,-0.051239013671875
1686426767094675700,10.26667578125,-0.0998382568359375,0.98968505859375,-0.05078125
1686426767104621000,10.27662109375,-0.1005401611328125,0.993255615234375,-0.0514068603515625
1686426767114566000,10.28656591796875,-0.100189208984375,0.9951171875,-0.0511322021484375
1686426767124511000,10.296510986328125,-0.09930419921875,0.9965667724609375,-0.0523681640625
1686426767134455800,10.306455810546876,-0.100311279296875,0.9963531494140625,-0.0553436279296875
1686426767144401000,10.31640087890625,-0.0997467041015625,0.9953155517578125,-0.05633544921875
1686426767154346000,10.326345947265626,-0.10040283203125,0.9934844970703125,-0.055328369140625
1686426767164290800,10.336290771484375,-0.100341796875,0.99017333984375,-0.0544586181640625
1686426767174236000,10.34623583984375,-0.0996551513671875,0.9893798828125,-0.0543212890625
1686426767184181000,10.356180908203125,-0.0981292724609375,0.989715576171875,-0.054718017578125
1686426767194125000,10.366125,-0.09521484375,0.9904022216796875,-0.0554656982421875
1686426767204070000,10.37606982421875,-0.0943756103515625,0.992950439453125,-0.0550079345703125
1686426767214015000,10.386014892578125,-0.0936279296875,0.9957427978515625,-0.0570068359375
1686426767223959800,10.395959716796876,-0.0930328369140625,0.9971923828125,-0.0591278076171875
1686426767233905000,10.40590478515625,-0.0944976806640625,0.9972686767578125,-0.060394287109375
1686426767243850000,10.41585009765625,-0.0971221923828125,0.9932403564453125,-0.061279296875
1686426767253794800,10.425794921875,-0.0992584228515625,0.9905548095703125,-0.0617828369140625
1686426767263740000,10.435739990234374,-0.0965118408203125,0.993743896484375,-0.059906005859375
1686426767273685000,10.44568505859375,-0.0931243896484375,0.9952545166015625,-0.058441162109375
1686426767283629800,10.4556298828125,-0.0932464599609375,0.998046875,-0.0563201904296875
1686426767293575000,10.465574951171876,-0.0958251953125,0.999908447265625,-0.05609130859375
1686426767303520000,10.47552001953125,-0.0997314453125,0.9977264404296875,-0.0541534423828125
1686426767313464800,10.48546484375,-0.102813720703125,0.99627685546875,-0.0557861328125
1686426767323410000,10.495409912109375,-0.103179931640625,0.9919281005859375,-0.0571746826171875
1686426767333355000,10.50535498046875,-0.1005859375,0.993865966796875,-0.0574493408203125
1686426767343299800,10.5152998046875,-0.0987701416015625,0.9938507080078125,-0.054443359375
1686426767353244700,10.52524462890625,-0.0978851318359375,0.9913482666015625,-0.051300048828125
1686426767363190000,10.53518994140625,-0.0992431640625,0.9893341064453125,-0.0496826171875
1686426767373134800,10.545134765625,-0.09893798828125,0.99224853515625,-0.0479278564453125
1686426767383080000,10.555079833984376,-0.0990447998046875,0.9981842041015625,-0.0461578369140625
1686426767393025000,10.56502490234375,-0.095062255859375,1.00213623046875,-0.0459136962890625
1686426767402969900,10.574969970703124,-0.0901641845703125,1.000030517578125,-0.0449981689453125
1686426767412914000,10.584913818359375,-0.0952606201171875,0.995330810546875,-0.0450897216796875
1686426767422859000,10.59485888671875,-0.096160888671875,0.9959716796875,-0.0455474853515625
1686426767432803800,10.604803955078125,-0.09771728515625,0.9956817626953125,-0.0452117919921875
1686426767442748700,10.614748779296875,-0.096771240234375,0.9947052001953125,-0.0470733642578125
1686426767452694000,10.624694091796876,-0.09075927734375,0.996124267578125,-0.047210693359375
1686426767462638800,10.634638916015625,-0.0900421142578125,0.9982147216796875,-0.0475921630859375
1686426767472584000,10.644583984375,-0.0922393798828125,0.998748779296875,-0.0468597412109375
1686426767482529000,10.654529052734375,-0.0962066650390625,0.993072509765625,-0.046234130859375
1686426767492473900,10.664473876953124,-0.1006622314453125,0.9901580810546875,-0.0456085205078125
1686426767502419000,10.6744189453125,-0.09893798828125,0.9907989501953125,-0.0435638427734375
1686426767512364000,10.684364013671875,-0.096435546875,0.988006591796875,-0.0390777587890625
1686426767522309000,10.69430908203125,-0.0996856689453125,0.9857177734375,-0.0378265380859375
1686426767532254000,10.70425390625,-0.100494384765625,0.9903106689453125,-0.0398101806640625
1686426767542199000,10.714198974609374,-0.0975799560546875,0.9954986572265625,-0.0425262451171875
1686426767552144100,10.72414404296875,-0.0957794189453125,0.9964752197265625,-0.043243408203125
1686426767562089000,10.7340888671875,-0.0994720458984375,0.9943695068359375,-0.044158935546875
1686426767572034000,10.744033935546875,-0.0988616943359375,0.9966278076171875,-0.0461273193359375
1686426767581979100,10.753979248046875,-0.095428466796875,0.997344970703125,-0.04766845703125
1686426767591924000,10.763924072265626,-0.0966033935546875,0.9972991943359375,-0.047271728515625
1686426767601869000,10.773869140625,-0.0993194580078125,0.99615478515625,-0.048248291015625
1686426767611814100,10.783814208984374,-0.0995635986328125,0.99560546875,-0.049591064453125
1686426767621759200,10.79375927734375,-0.0987396240234375,0.9945220947265625,-0.0493011474609375
1686426767631704000,10.8037041015625,-0.0991363525390625,0.9921722412109375,-0.04937744140625
1686426767641648000,10.813648193359375,-0.09967041015625,0.990966796875,-0.050445556640625
1686426767651593000,10.823593017578125,-0.097808837890625,0.991485595703125,-0.0520782470703125
1686426767661538000,10.8335380859375,-0.0965423583984375,0.9904632568359375,-0.0532989501953125
1686426767671483100,10.843483154296875,-0.096649169921875,0.99090576171875,-0.0541839599609375
1686426767681428000,10.853427978515626,-0.0957489013671875,0.9906158447265625,-0.05670166015625
1686426767691373000,10.863373046875,-0.094146728515625,0.9915008544921875,-0.0589752197265625
1686426767701318100,10.873318115234374,-0.094451904296875,0.9930877685546875,-0.0602264404296875
1686426767711263200,10.88326318359375,-0.0959625244140625,0.9936981201171875,-0.0604248046875
1686426767721208000,10.8932080078125,-0.0965728759765625,0.9934539794921875,-0.062103271484375
1686426767731153000,10.90315283203125,-0.09710693359375,0.9950714111328125,-0.0633544921875
1686426767741098200,10.91309814453125,-0.098602294921875,0.9971160888671875,-0.0632476806640625
1686426767751043000,10.92304296875,-0.099945068359375,0.9983062744140625,-0.062896728515625
1686426767760988000,10.93298779296875,-0.0990447998046875,1.000946044921875,-0.0624542236328125
1686426767770933200,10.942933349609374,-0.0966949462890625,0.996978759765625,-0.0626373291015625
1686426767780878000,10.952878173828125,-0.0991363525390625,0.983978271484375,-0.0605316162109375
1686426767790823000,10.962822998046875,-0.1024169921875,0.9766693115234375,-0.0559844970703125
1686426767800768300,10.972768310546876,-0.099395751953125,0.978424072265625,-0.049774169921875
1686426767810713000,10.982713134765625,-0.0954437255859375,0.9866180419921875,-0.0457763671875
1686426767820658000,10.992657958984376,-0.095001220703125,0.9940338134765625,-0.0429229736328125
1686426767830603000,11.00260302734375,-0.096435546875,1.001983642578125,-0.042144775390625
1686426767840548000,11.012548095703124,-0.095794677734375,1.0086669921875,-0.0411529541015625
1686426767850493000,11.022492919921875,-0.099273681640625,1.008514404296875,-0.03857421875
1686426767860438000,11.03243798828125,-0.10601806640625,1.0055999755859375,-0.0370635986328125
1686426767870382000,11.042382080078125,-0.1107635498046875,1.00225830078125,-0.0357208251953125
1686426767880327000,11.052326904296875,-0.1131744384765625,0.9991302490234375,-0.0353851318359375
1686426767890272300,11.062272216796876,-0.1095733642578125,0.996002197265625,-0.0381317138671875
1686426767900217000,11.072217041015625,-0.10186767578125,0.9896087646484375,-0.041656494140625
1686426767910162000,11.082161865234376,-0.0977325439453125,0.985260009765625,-0.0445404052734375
1686426767920107000,11.09210693359375,-0.0933380126953125,0.9838714599609375,-0.0460662841796875
1686426767930052000,11.102052001953124,-0.08984375,0.9851837158203125,-0.045806884765625
1686426767939997000,11.111996826171875,-0.0892333984375,0.9841766357421875,-0.046234130859375
1686426767949942000,11.12194189453125,-0.0877685546875,0.98272705078125,-0.0476226806640625
1686426767959887000,11.13188720703125,-0.088836669921875,0.9876708984375,-0.0481109619140625
1686426767969832000,11.14183203125,-0.09173583984375,0.9934539794921875,-0.0483245849609375
1686426767979777000,11.151777099609374,-0.0968170166015625,0.9944305419921875,-0.0494384765625
1686426767989722000,11.16172216796875,-0.1003265380859375,0.995086669921875,-0.0487823486328125
1686426767999667200,11.171667236328124,-0.1009979248046875,0.9965972900390625,-0.048187255859375
1686426768009612000,11.181612060546875,-0.102813720703125,0.9978485107421875,-0.0491943359375
1686426768019557000,11.19155712890625,-0.104278564453125,0.9985809326171875,-0.0520172119140625
1686426768029502200,11.201502197265626,-0.1036224365234375,0.9987945556640625,-0.0537567138671875
1686426768039447000,11.211447021484375,-0.1015625,0.9980926513671875,-0.055999755859375
1686426768049391900,11.221391845703126,-0.099761962890625,0.99798583984375,-0.060577392578125
1686426768059337200,11.231337158203125,-0.097686767578125,0.99359130859375,-0.06134033203125
1686426768069282000,11.241281982421874,-0.0975494384765625,0.991119384765625,-0.063385009765625
1686426768079227000,11.251226806640625,-0.0988006591796875,0.990020751953125,-0.06689453125
1686426768089172200,11.261172119140625,-0.1011810302734375,0.9918060302734375,-0.0714263916015625
1686426768099117000,11.271116943359376,-0.0987091064453125,0.99359130859375,-0.0753173828125
1686426768109062000,11.281061767578125,-0.097930908203125,0.992950439453125,-0.07745361328125
1686426768119006200,11.291006103515626,-0.09625244140625,0.9950103759765625,-0.0768280029296875
1686426768128951000,11.300950927734375,-0.0955047607421875,0.996185302734375,-0.0731964111328125
1686426768138896000,11.310895751953124,-0.099456787109375,0.9978179931640625,-0.069427490234375
1686426768148841200,11.32084130859375,-0.106231689453125,0.9980316162109375,-0.0650482177734375
1686426768158786000,11.3307861328125,-0.11328125,1.0003662109375,-0.0566864013671875
1686426768168731000,11.34073095703125,-0.118255615234375,1.0018157958984375,-0.0481719970703125
1686426768178676200,11.35067626953125,-0.121246337890625,1.0029449462890625,-0.04022216796875
1686426768188621000,11.36062109375,-0.121002197265625,1.0028076171875,-0.0330047607421875
1686426768198566000,11.37056591796875,-0.1200408935546875,1.0006103515625,-0.0291290283203125
1686426768208511200,11.38051123046875,-0.120849609375,0.994598388671875,-0.027496337890625
1686426768218456000,11.3904560546875,-0.120208740234375,0.990264892578125,-0.0284576416015625
1686426768228401000,11.40040087890625,-0.1185302734375,0.9888763427734375,-0.030975341796875
1686426768238346000,11.410345947265625,-0.1144866943359375,0.98687744140625,-0.0356597900390625
1686426768248291000,11.420291015625,-0.1090545654296875,0.9844818115234375,-0.038055419921875
1686426768258236200,11.430236083984376,-0.103912353515625,0.9836578369140625,-0.0396270751953125
1686426768268181000,11.440180908203125,-0.0987701416015625,0.9839935302734375,-0.0406646728515625
1686426768278126000,11.4501259765625,-0.097198486328125,0.987152099609375,-0.0411529541015625
1686426768288071200,11.4600712890625,-0.0956878662109375,0.9884796142578125,-0.041259765625
1686426768298016000,11.47001611328125,-0.094757080078125,0.988922119140625,-0.040496826171875
1686426768307961000,11.479961181640626,-0.0937347412109375,0.99249267578125,-0.039031982421875
1686426768317906200,11.48990625,-0.094818115234375,0.995025634765625,-0.0379638671875
1686426768327851000,11.49985107421875,-0.098052978515625,0.9972381591796875,-0.0369415283203125
1686426768337796000,11.509796142578125,-0.10089111328125,0.99908447265625,-0.0357666015625
1686426768347741200,11.5197412109375,-0.1049957275390625,1.000701904296875,-0.0333251953125
1686426768357686000,11.52968603515625,-0.1083221435546875,1.0005340576171875,-0.0331878662109375
1686426768367630800,11.539630859375,-0.1096038818359375,0.99859619140625,-0.0339202880859375
1686426768377576200,11.549576171875,-0.113800048828125,0.9958953857421875,-0.035125732421875
1686426768387520000,11.55952001953125,-0.1193695068359375,0.9926300048828125,-0.0355072021484375
1686426768397465000,11.569465087890626,-0.1208648681640625,0.991607666015625,-0.0387115478515625
1686426768407410200,11.57941015625,-0.1150665283203125,0.9934844970703125,-0.0407867431640625
1686426768417355000,11.58935498046875,-0.1145477294921875,0.9946441650390625,-0.04052734375
1686426768427300000,11.599300048828125,-0.1126251220703125,0.9962921142578125,-0.0410614013671875
1686426768437245200,11.6092451171875,-0.113189697265625,0.9988861083984375,-0.0406646728515625
1686426768447190000,11.61918994140625,-0.1120147705078125,0.997650146484375,-0.042205810546875
1686426768457134800,11.629134765625,-0.1092681884765625,0.9958038330078125,-0.0463714599609375
1686426768467080200,11.639080078125,-0.10736083984375,0.9952545166015625,-0.050262451171875
1686426768477025000,11.64902490234375,-0.1091461181640625,0.98883056640625,-0.0523529052734375
1686426768486969900,11.658969970703126,-0.1109619140625,0.985382080078125,-0.0594024658203125
1686426768496915200,11.668915283203125,-0.1083526611328125,0.9866790771484375,-0.0626373291015625
1686426768506860000,11.678860107421874,-0.1082000732421875,0.987152099609375,-0.065887451171875
1686426768516804600,11.6888046875,-0.109527587890625,0.98712158203125,-0.06793212890625
1686426768526750000,11.69875,-0.1103515625,0.988555908203125,-0.07135009765625
1686426768536694800,11.70869482421875,-0.110260009765625,0.9888916015625,-0.0729522705078125
1686426768546639600,11.7186396484375,-0.1112213134765625,0.990447998046875,-0.0732269287109375
1686426768556585000,11.7285849609375,-0.109771728515625,0.991424560546875,-0.0749969482421875
1686426768566529800,11.73852978515625,-0.1074676513671875,0.99322509765625,-0.074737548828125
1686426768576474600,11.748474609375,-0.1067962646484375,0.9939117431640625,-0.074493408203125
1686426768586419700,11.758419677734375,-0.1060943603515625,0.9957427978515625,-0.074554443359375
1686426768596364800,11.76836474609375,-0.1056365966796875,0.995330810546875,-0.074310302734375
1686426768606309600,11.7783095703125,-0.106475830078125,0.993865966796875,-0.0731048583984375
1686426768616254700,11.788254638671875,-0.1055450439453125,0.9935150146484375,-0.071441650390625
1686426768626199800,11.79819970703125,-0.1046600341796875,0.99261474609375,-0.068939208984375
1686426768636145000,11.808144775390625,-0.10699462890625,0.9930419921875,-0.065460205078125
1686426768646089700,11.81808984375,-0.1068572998046875,0.9940338134765625,-0.061553955078125
1686426768656034800,11.828034912109375,-0.1060333251953125,0.994171142578125,-0.05877685546875
1686426768665978600,11.837978515625,-0.1071014404296875,0.9954681396484375,-0.056243896484375
1686426768675923700,11.847923828125,-0.104766845703125,0.9965972900390625,-0.054290771484375
1686426768685868800,11.857868896484375,-0.102996826171875,0.994354248046875,-0.0522613525390625
1686426768695813600,11.867813720703126,-0.099273681640625,0.9935150146484375,-0.047760009765625
1686426768705758700,11.8777587890625,-0.0953521728515625,0.9950714111328125,-0.045196533203125
1686426768715703800,11.887703857421876,-0.0939788818359375,0.995574951171875,-0.042236328125
1686426768725649000,11.89764892578125,-0.09588623046875,0.994873046875,-0.038177490234375
1686426768735593700,11.90759375,-0.0993499755859375,0.9952850341796875,-0.03460693359375
1686426768745538800,11.917538818359375,-0.098968505859375,0.9958953857421875,-0.0333099365234375
1686426768755484000,11.92748388671875,-0.0982208251953125,0.9962310791015625,-0.03302001953125
1686426768765428700,11.9374287109375,-0.0985107421875,0.9943695068359375,-0.0335235595703125
1686426768775373800,11.947373779296875,-0.0983734130859375,0.9920806884765625,-0.0358734130859375
1686426768785319000,11.95731884765625,-0.0977783203125,0.9883880615234375,-0.037506103515625
1686426768795263700,11.967263671875,-0.0972137451171875,0.98663330078125,-0.0390625
1686426768805208600,11.97720849609375,-0.0965423583984375,0.986358642578125,-0.04132080078125
1686426768815154000,11.98715380859375,-0.096923828125,0.9875335693359375,-0.0433197021484375
1686426768825098800,11.9970986328125,-0.1001739501953125,0.9908599853515625,-0.0437164306640625
1686426768835043600,12.007043701171876,-0.1031341552734375,0.9945068359375,-0.04608154296875
1686426768844989000,12.016989013671875,-0.1044921875,0.995269775390625,-0.0490264892578125
1686426768854933800,12.026933837890626,-0.103363037109375,0.9979705810546875,-0.0528564453125
1686426768864878600,12.036878662109375,-0.1040191650390625,1.0000762939453125,-0.05548095703125
1686426768874824000,12.046823974609374,-0.107269287109375,1.0025482177734375,-0.0579986572265625
1686426768884768800,12.056768798828125,-0.1090545654296875,1.003265380859375,-0.0585784912109375
1686426768894713900,12.0667138671875,-0.1107025146484375,1.0018157958984375,-0.0592041015625
1686426768904658700,12.07665869140625,-0.1114959716796875,0.9979248046875,-0.0597381591796875
1686426768914603800,12.086603759765625,-0.1077423095703125,0.9952545166015625,-0.059112548828125
1686426768924548900,12.096548828125,-0.1020965576171875,0.992919921875,-0.0552520751953125
1686426768934493000,12.106492919921875,-0.1017608642578125,0.990264892578125,-0.050933837890625
1686426768944437800,12.116437744140624,-0.0991363525390625,0.9912109375,-0.045318603515625
1686426768954382600,12.126382568359375,-0.0995025634765625,0.99365234375,-0.0386962890625
1686426768964328000,12.136327880859374,-0.0987548828125,0.9915618896484375,-0.034332275390625
1686426768974272800,12.146272705078125,-0.095733642578125,0.9909820556640625,-0.032470703125
1686426768984217900,12.1562177734375,-0.0936431884765625,0.99114990234375,-0.029296875
1686426768994162700,12.16616259765625,-0.09271240234375,0.9911956787109375,-0.0271148681640625
1686426769004107800,12.176107666015625,-0.090240478515625,0.9896697998046875,-0.02618408203125
1686426769014052900,12.186052978515624,-0.0895538330078125,0.9904022216796875,-0.0244293212890625
1686426769023997700,12.195997802734375,-0.0907440185546875,0.9940948486328125,-0.0235595703125
1686426769033942800,12.20594287109375,-0.0914764404296875,0.996673583984375,-0.023956298828125
1686426769043887900,12.215887939453125,-0.090789794921875,1.0001678466796875,-0.024932861328125
1686426769053832700,12.225832763671875,-0.088623046875,1.0021209716796875,-0.02642822265625
1686426769063777800,12.23577783203125,-0.0875701904296875,1.002960205078125,-0.02947998046875
1686426769073723000,12.245722900390625,-0.087646484375,0.9981842041015625,-0.0322265625
1686426769083667700,12.255667724609374,-0.08831787109375,0.9963531494140625,-0.0362701416015625
1686426769093612500,12.265612548828125,-0.0883941650390625,0.9951934814453125,-0.039520263671875
1686426769103558000,12.275557861328124,-0.090484619140625,0.99169921875,-0.0424041748046875
1686426769113502700,12.285502685546875,-0.0925140380859375,0.9920501708984375,-0.045806884765625
1686426769123447600,12.295447509765625,-0.094085693359375,0.9919281005859375,-0.0489654541015625
1686426769133393000,12.305392822265626,-0.0954132080078125,0.991363525390625,-0.0496368408203125
1686426769143337700,12.315337646484375,-0.095306396484375,0.9909820556640625,-0.0511474609375
1686426769153282800,12.32528271484375,-0.0954742431640625,0.990570068359375,-0.0522308349609375
1686426769163228000,12.335227783203125,-0.0955810546875,0.9909210205078125,-0.0518951416015625
1686426769173172700,12.3451728515625,-0.0955047607421875,0.9913482666015625,-0.05255126953125
1686426769183117800,12.355117919921875,-0.0933990478515625,0.9923248291015625,-0.054168701171875
1686426769193062700,12.365062744140625,-0.0925750732421875,0.9933624267578125,-0.0540618896484375
1686426769203007700,12.3750078125,-0.090667724609375,0.9936676025390625,-0.0538330078125
1686426769212952800,12.384952880859375,-0.0906982421875,0.994293212890625,-0.0534210205078125
1686426769222897700,12.394897705078124,-0.0913848876953125,0.9939422607421875,-0.0542144775390625
1686426769232842800,12.4048427734375,-0.0917510986328125,0.994903564453125,-0.054107666015625
1686426769242787800,12.414787841796874,-0.0914764404296875,0.9961395263671875,-0.0550079345703125
1686426769252732700,12.424732666015625,-0.0902252197265625,0.9947509765625,-0.0545501708984375
1686426769262676700,12.4346767578125,-0.0912933349609375,0.9936065673828125,-0.055938720703125
1686426769272621800,12.444621826171876,-0.091705322265625,0.99188232421875,-0.05706787109375
1686426769282567000,12.45456689453125,-0.091400146484375,0.993743896484375,-0.059417724609375
1686426769292511700,12.46451171875,-0.09002685546875,0.9929351806640625,-0.0600433349609375
1686426769302456800,12.474456787109375,-0.0916900634765625,0.9940338134765625,-0.059722900390625
1686426769312401700,12.484401611328124,-0.0913543701171875,0.9942626953125,-0.061126708984375
1686426769322346800,12.4943466796875,-0.0897369384765625,0.994293212890625,-0.0625457763671875
1686426769332291800,12.504291748046874,-0.08837890625,0.9955291748046875,-0.0611572265625
1686426769342236700,12.514236572265625,-0.08587646484375,0.9960784912109375,-0.060394287109375
1686426769352181800,12.524181640625,-0.0855712890625,0.996002197265625,-0.05792236328125
1686426769362126800,12.534126953125,-0.0869293212890625,0.9953765869140625,-0.0551910400390625
1686426769372071700,12.54407177734375,-0.085906982421875,0.994171142578125,-0.0531768798828125
1686426769382016800,12.554016845703124,-0.08465576171875,0.9960784912109375,-0.0516815185546875
1686426769391961900,12.5639619140625,-0.0838775634765625,0.9977874755859375,-0.0485076904296875
1686426769401906700,12.57390673828125,-0.08270263671875,0.997528076171875,-0.0479736328125
1686426769411851800,12.583851806640626,-0.0844573974609375,0.998321533203125,-0.0451202392578125
1686426769421796900,12.593796875,-0.0827484130859375,0.998199462890625,-0.0449981689453125
1686426769431741700,12.60374169921875,-0.0813140869140625,0.99639892578125,-0.04449462890625
1686426769441686800,12.613686767578125,-0.0788726806640625,0.9925079345703125,-0.0413665771484375
1686426769451631900,12.6236318359375,-0.080902099609375,0.989959716796875,-0.040679931640625
1686426769461576700,12.63357666015625,-0.079620361328125,0.9925384521484375,-0.040069580078125
1686426769471521800,12.643521728515625,-0.0778656005859375,0.9918365478515625,-0.037750244140625
1686426769481467000,12.653466796875,-0.0736083984375,0.9932861328125,-0.03802490234375
1686426769491411700,12.66341162109375,-0.0681915283203125,0.9945831298828125,-0.0387115478515625
1686426769501356800,12.673356689453126,-0.0697174072265625,0.995147705078125,-0.037078857421875
1686426769511302100,12.68330224609375,-0.0737457275390625,0.99334716796875,-0.037109375
1686426769521247500,12.69324755859375,-0.0792999267578125,0.9929656982421875,-0.038787841796875
1686426769531192300,12.7031923828125,-0.07891845703125,0.99407958984375,-0.0394439697265625
1686426769541137200,12.71313720703125,-0.0770263671875,0.9957733154296875,-0.0403594970703125
1686426769551082500,12.72308251953125,-0.077728271484375,0.9983062744140625,-0.0408782958984375
1686426769561027300,12.73302734375,-0.080535888671875,0.998687744140625,-0.04278564453125
1686426769570971100,12.74297119140625,-0.07952880859375,0.9988861083984375,-0.043243408203125
1686426769580916500,12.75291650390625,-0.07513427734375,0.9966888427734375,-0.04437255859375
1686426769590861300,12.762861328125,-0.0740203857421875,0.995941162109375,-0.0434417724609375
1686426769600806100,12.77280615234375,-0.0746612548828125,0.9949798583984375,-0.042755126953125
1686426769610751500,12.78275146484375,-0.07757568359375,0.9942779541015625,-0.043609619140625
1686426769620696300,12.7926962890625,-0.079833984375,0.9924774169921875,-0.0420989990234375
1686426769630641200,12.80264111328125,-0.0807647705078125,0.9920196533203125,-0.0404052734375
1686426769640586500,12.81258642578125,-0.0807037353515625,0.9919891357421875,-0.039581298828125
1686426769650531300,12.82253125,-0.0811920166015625,0.9927520751953125,-0.0387420654296875
1686426769660476200,12.83247607421875,-0.08209228515625,0.99493408203125,-0.0386199951171875
1686426769670421200,12.842421142578125,-0.08209228515625,0.995635986328125,-0.038787841796875
1686426769680366300,12.852366455078124,-0.0822906494140625,0.9970855712890625,-0.040802001953125
1686426769690311200,12.862311279296875,-0.0818328857421875,0.997955322265625,-0.04193115234375
1686426769700256300,12.87225634765625,-0.0830230712890625,1.000213623046875,-0.042938232421875
1686426769710201300,12.882201416015626,-0.0821990966796875,0.9993896484375,-0.0437774658203125
