time,seconds_elapsed,z,y,x
1686426756925999900,0.097999755859375,-8.912637213727832,-4.088116285851598,-0.15030577621175906
1686426756935944700,0.10794482421875,-8.88994139779508,-4.138731497584283,-0.10112641510162503
1686426756945889800,0.117889892578125,-8.865827531757951,-4.191070172108709,-0.04914389707110822
1686426756955835000,0.1278349609375,-8.841195194804667,-4.243066024544835,0.006224465147062437
1686426756965779700,0.13777978515625,-8.8165336317569,-4.293532475456595,0.06855594665941316
1686426756975724800,0.147724853515625,-8.792279480466247,-4.341223616436124,0.14136339501715264
1686426756985668600,0.157668701171875,-8.76847541103065,-4.385827312794327,0.22078597349859772
1686426756995613700,0.16761376953125,-8.745282166969776,-4.427038444104791,0.3029053076501936
1686426757005558800,0.177558837890625,-8.72320828232765,-4.464178672714531,0.3835693284269422
1686426757015504000,0.18750390625,-8.703245106229186,-4.495890154273808,0.45921610556356607
1686426757025448700,0.19744873046875,-8.6862869571656,-4.521493382085859,0.5243079882750288
1686426757035393800,0.207393798828125,-8.67239053376019,-4.54169942702949,0.5770506039578467
1686426757045339000,0.2173388671875,-8.661133226686715,-4.55594773261249,0.6312667627919465
1686426757055283700,0.22728369140625,-8.652631355801224,-4.561181833873689,0.7056705541301518
1686426757065228800,0.237228759765625,-8.647032805141807,-4.557421020035445,0.793173992472887
1686426757075172600,0.247172607421875,-8.643242180687189,-4.548512614175677,0.8807894398227334
1686426757085117700,0.25711767578125,-8.638283096975087,-4.5432858194381,0.9534139465287327
1686426757095062800,0.267062744140625,-8.626692027902603,-4.548203402096033,1.0317073657166211
1686426757105007900,0.2770078125,-8.603799228093028,-4.563944576585293,1.1469225484579801
1686426757114952700,0.28695263671875,-8.565644561743735,-4.589882735440135,1.3164692600414156
1686426757124897800,0.296897705078125,-8.509732704907655,-4.6238040020033715,1.5411923537932335
1686426757134843000,0.3068427734375,-8.43577548829317,-4.6602863512262696,1.8137825296133756
1686426757144787700,0.31678759765625,-8.344138822603226,-4.691164889092743,2.1304235902145505
1686426757154731800,0.326731689453125,-8.237107019382714,-4.7091877447783945,2.4787089123576878
1686426757164676600,0.336676513671875,-8.117826559963822,-4.710704871343076,2.842628441484272
1686426757174621700,0.34662158203125,-7.9901827613472935,-4.6950291633054615,3.2068773486956954
1686426757184566800,0.35656689453125,-7.858530311611294,-4.66495697338581,3.556972935131192
1686426757194511600,0.36651171875,-7.7238599753588435,-4.625972285953164,3.8875127572253345
1686426757204456700,0.376456787109375,-7.580992304125428,-4.585231694763898,4.204115531642735
1686426757214401800,0.38640185546875,-7.42080174216926,-4.549304056814313,4.5172915464818475
1686426757224347000,0.396346923828125,-7.234558455067873,-4.5220586147531865,4.8355485178470605
1686426757234291700,0.406291748046875,-7.014184934827685,-4.505660145398974,5.164360785496235
1686426757244235800,0.41623583984375,-6.763838885650038,-4.498294000545144,5.4941983045399185
1686426757254180600,0.4261806640625,-6.486712966096401,-4.496566446100175,5.820122449532151
1686426757264125700,0.436125732421875,-6.1759659319698805,-4.496150266514718,6.149183723506331
1686426757274070800,0.44607080078125,-5.830424063315987,-4.491674874666333,6.480849042499065
1686426757284015600,0.456015625,-5.4460424686580895,-4.4793364943578835,6.815171598002314
1686426757293960700,0.465960693359375,-5.027094003009796,-4.457192467088997,7.143678160703182
1686426757303905800,0.47590576171875,-4.583296635048091,-4.42819579744637,7.45351450972557
1686426757313851000,0.485850830078125,-4.126246694542467,-4.394676974204183,7.735069351637363
1686426757323795000,0.495794921875,-3.672046298249066,-4.356243783174455,7.9818305280655615
1686426757333739800,0.50573974609375,-3.225259977604449,-4.31433736307621,8.194789972656965
1686426757343684600,0.5156845703125,-2.7855998555779458,-4.266526979631185,8.378996785494685
1686426757353630000,0.5256298828125,-2.3560481628507373,-4.206160773734748,8.539767777687311
1686426757363574800,0.53557470703125,-1.9428424786381422,-4.131098518487811,8.679272109967469
1686426757373519600,0.54551953125,-1.5503421671934425,-4.043758380948007,8.798570689564944
1686426757383464700,0.555464599609375,-1.1811893405232579,-3.944463309459388,8.900359915956855
1686426757393409800,0.565409912109375,-0.8384414865020662,-3.8285073182880875,8.989435206726194
1686426757403355000,0.57535498046875,-0.533273531149514,-3.6936373678103087,9.068795743688941
1686426757413299000,0.585298828125,-0.2664171132083982,-3.5327290129736064,9.144355719324945
1686426757423243800,0.595243896484375,-0.040072491802508006,-3.334349297876656,9.22230580496788
1686426757433188600,0.605188720703125,0.1423201934184879,-3.0920220122426745,9.305349998879432
1686426757443134000,0.615134033203125,0.2863558307190425,-2.8051486056566235,9.392526178029179
1686426757453078800,0.625078857421875,0.41337669339794664,-2.479509999607503,9.47900502256453
1686426757463023600,0.635023681640625,0.5470448303379118,-2.127364202643931,9.557480593386291
1686426757472968700,0.64496875,0.702095033730939,-1.7710186159029602,9.619819268399477
1686426757482913800,0.654913818359375,0.8783038335520773,-1.4300060612417758,9.661989015609025
1686426757492857600,0.664857666015625,1.067339016394317,-1.1100273806504906,9.684990536490082
1686426757502802700,0.674802734375,1.2547851034142077,-0.8029496826864778,9.692842419034243
1686426757512747500,0.68474755859375,1.4209753441765904,-0.4961612134600058,9.69046049233377
1686426757522692400,0.6946923828125,1.548354062116146,-0.1819025910159573,9.68193757866025
1686426757532637700,0.7046376953125,1.6316934395819902,0.14057608969751745,9.668929044005274
1686426757542582500,0.71458251953125,1.6777169396102427,0.4675440811868757,9.65075450488925
1686426757552527400,0.72452734375,1.6982845113426446,0.791920777541399,9.625959086328745
1686426757562472700,0.73447265625,1.7105844593368469,1.105714485887438,9.592792729786037
1686426757572417500,0.74441748046875,1.726708349533379,1.4042643017418681,9.550755669045447
1686426757582361300,0.754361328125,1.7443731855615972,1.6901593648150561,9.501102288082242
1686426757592306700,0.764306640625,1.7480298083730041,1.9705852026969193,9.446247246822715
1686426757602251500,0.77425146484375,1.7226887386284768,2.2486692997582254,9.388622156327962
1686426757612196400,0.7841962890625,1.6611593341715634,2.5182325289726255,9.331099941685796
1686426757622141700,0.7941416015625,1.5661417938716709,2.768521879526973,9.276469356831909
1686426757632086500,0.80408642578125,1.4483509884886443,2.990839227311313,9.226460586559773
1686426757642031400,0.81403125,1.3198165246427058,3.175478294086456,9.183944802391528
1686426757651976700,0.823976806640625,1.1933729686614125,3.312888868957758,9.152650669461488
1686426757661921500,0.833921630859375,1.0779796528741716,3.3976334370464083,9.135886581665277
1686426757671865300,0.843865234375,0.9758218123655765,3.4318022486299276,9.134600048986076
1686426757681810700,0.853810791015625,0.8860490408513695,3.424633379913866,9.146432525599002
1686426757691755500,0.863755615234375,0.8048134307317435,3.3876220383808016,9.16769918551147
1686426757701700400,0.873700439453125,0.724656117368117,3.330489699839055,9.195275759223103
1686426757711645700,0.883645751953125,0.6436345153253525,3.261471985453367,9.225990630960464
1686426757721590500,0.893590576171875,0.5646981220588088,3.1857424984693523,9.257565918919443
1686426757731535400,0.903535400390625,0.48737610518634317,3.1037600885704157,9.289753201296925
1686426757741480700,0.913480712890625,0.41273678805921227,3.0138226280137896,9.322924818536638
1686426757751425500,0.923425537109375,0.346422706609033,2.913978690470755,9.357303473478556
1686426757761369300,0.933369384765625,0.2925558361366391,2.8022248271644115,9.393207730552554
1686426757771314700,0.943314697265625,0.25310389651842413,2.678888370352983,9.430264664793015
1686426757781259500,0.953259521484375,0.22713979950472712,2.5482497738346455,9.467060317748784
1686426757791204400,0.963204345703125,0.2193573289349675,2.4204024154700337,9.50073228572607
1686426757801149700,0.973149658203125,0.25106241728607565,2.3077527723677456,9.527938857081532
1686426757811094500,0.983094482421875,0.3178062319230288,2.214816129995137,9.547983281722665
1686426757821039400,0.993039306640625,0.4009280576480552,2.144090588778257,9.56098889376819
1686426757830984700,1.002984619140625,0.48677525321636345,2.1036811292394995,9.565980126184224
1686426757840929500,1.012929443359375,0.5681370104663074,2.09593124576509,9.56319254129231
1686426757850873300,1.022873291015625,0.6542022326994686,2.1026389267101884,9.556219195148348
1686426757860818700,1.032818603515625,0.761863346799463,2.100873086081445,9.548628009366988
1686426757870763500,1.042763427734375,0.8905333466585725,2.0843900071837007,9.541104043602942
1686426757880708400,1.052708251953125,1.0231227849837392,2.0547543089851734,9.534232404267787
1686426757890653700,1.06265380859375,1.1463781393829733,2.015779704555124,9.528528055146335
1686426757900598500,1.0725986328125,1.2623698594547808,1.9777944034233688,9.5218253426373
1686426757910543400,1.08254345703125,1.36531030170843,1.9494981371350586,9.513452651089429
1686426757920488700,1.09248876953125,1.446453045912832,1.9357319159805773,9.504269227680563
1686426757930433500,1.10243359375,1.5060552816994488,1.9419231718361376,9.49373965035975
1686426757940377600,1.112377685546875,1.546965676497668,1.9628074083022773,9.48286228251457
1686426757950322700,1.12232275390625,1.5757492879115045,1.992402774490416,9.471942829093337
1686426757960267500,1.132267578125,1.593862013837695,2.0222500696130097,9.462582880073786
1686426757970212400,1.14221240234375,1.6139292348325252,2.039811006875336,9.45541196553111
1686426757980157700,1.15215771484375,1.647297397557646,2.043410784932971,9.448878179848194
1686426757990102500,1.1621025390625,1.6935396549031136,2.0412831252545116,9.441158983772992
1686426758000047400,1.17204736328125,1.7380837300285696,2.0472738901019096,9.431761040830612
1686426758009992700,1.18199267578125,1.7705092050760984,2.0715688117943705,9.420418978083132
1686426758019937500,1.1919375,1.774071135341376,2.122075302455574,9.408499407708645
1686426758029881600,1.201881591796875,1.7273559997871517,2.202293040769547,9.398750751632452
1686426758039826700,1.21182666015625,1.6399010036960244,2.2966842658646405,9.391823582717775
1686426758049771500,1.221771484375,1.539499140009284,2.387214870008826,9.386242567715048
1686426758059716400,1.23171630859375,1.4505696874514222,2.468042556914687,9.379500692239404
1686426758069661700,1.24166162109375,1.3853744539633392,2.5437057006642223,9.369134781047702
1686426758079606500,1.2516064453125,1.3332578977569938,2.6262442831411956,9.353910323908924
1686426758089551400,1.26155126953125,1.2837487475700675,2.730247386190295,9.331032137146591
1686426758099496700,1.27149658203125,1.2372281116746364,2.8660061022013426,9.296540084958076
1686426758109440500,1.2814404296875,1.1864530332051217,3.0391455775797365,9.248044641858339
1686426758119385600,1.291385498046875,1.133901884973794,3.2505744516029953,9.182506878542899
1686426758129330700,1.30133056640625,1.084043702153489,3.4736923021152615,9.106520201927422
1686426758139275500,1.311275634765625,1.058088665229082,3.6859684406176205,9.025766749301551
1686426758149220400,1.321220458984375,1.0739031241502612,3.88366017345041,8.940600156408548
1686426758159165700,1.331165771484375,1.1304931725088507,4.065086415658891,8.852538426595926
1686426758169110500,1.341110595703125,1.2221671745344995,4.228712797282636,8.763257384121417
1686426758179055400,1.351055419921875,1.3335729550555349,4.368003486812114,8.678279007276892
1686426758189000700,1.361000732421875,1.4377607670217751,4.479571472157538,8.604455646175145
1686426758198944500,1.370944580078125,1.5148206258267163,4.571030150932073,8.542913674497603
1686426758208889600,1.3808896484375,1.5612645432241261,4.6470936921760435,8.493372521737218
1686426758218834700,1.390834716796875,1.5670688455887138,4.719704170356691,8.452164897558093
1686426758228779500,1.400779541015625,1.5394111694648862,4.805028584159911,8.409061668890715
1686426758238724400,1.410724365234375,1.4867587528161703,4.917229022189974,8.353488834750651
1686426758248669700,1.420669677734375,1.4220758527643977,5.054964591231942,8.282234447354078
1686426758258614500,1.430614501953125,1.3546299177400767,5.213408017259836,8.194861284327507
1686426758268559400,1.440559326171875,1.231352497639507,5.3813002396345135,8.105293241605162
1686426758278504700,1.450504638671875,1.1140656231906265,5.557091106304526,8.002999572822452
1686426758288448500,1.460448486328125,1.072504290203005,5.729793943831324,7.886038496261834
1686426758298393600,1.4703935546875,1.0670615146271885,5.881904659706354,7.773994417837262
1686426758308338400,1.48033837890625,1.050746924164146,6.010805764907598,7.677012299466132
1686426758318283500,1.490283447265625,1.0151916997235269,6.122803666102886,7.592827703347802
1686426758328228400,1.500228271484375,0.9747628048319369,6.2234162499308585,7.51593735589087
1686426758338173700,1.510173583984375,0.9338190192207694,6.314688758483529,7.444668939968943
1686426758348118500,1.520118408203125,0.8956341769289224,6.3996192045331,7.376524793547391
1686426758358063400,1.5300634765625,0.8695271643131971,6.478675205591321,7.310340549021959
1686426758368008700,1.5400087890625,0.8506452806454151,6.55219519983232,7.24676093403697
1686426758377952500,1.549952392578125,0.8381883885238319,6.6212839336276055,7.185151742342114
1686426758387897600,1.559897705078125,0.8347535187043249,6.68530135550797,7.126032029375433
1686426758397842400,1.569842529296875,0.8369945025641471,6.743884477379917,7.07034930512011
1686426758407787500,1.57978759765625,0.843657321454212,6.805949011626839,7.00982966222763
1686426758417732400,1.589732421875,0.8500038409367203,6.890619929957389,6.925839127376675
1686426758427677700,1.599677734375,0.8428218204781412,7.011604855206608,6.804223503008484
1686426758437622500,1.60962255859375,0.8118897257935255,7.169208907800912,6.641812342393398
1686426758447567400,1.6195673828125,0.776088344572112,7.356221425709128,6.43848581854403
1686426758457512700,1.6295126953125,0.7526962900035082,7.558825480502843,6.202258311089873
1686426758467456500,1.63945654296875,0.7366931766424327,7.778986234775185,5.92579523935914
1686426758477401600,1.649401611328125,0.708270580560714,8.017590992754696,5.602409088411927
1686426758487346400,1.659346435546875,0.6460931605238467,8.261834633404016,5.243573438420891
1686426758497291500,1.66929150390625,0.5377738017108291,8.494268593794107,4.8712011382475495
1686426758507237400,1.6792373046875,0.39167547799311575,8.70303292478323,4.502688143850863
1686426758517182500,1.689182373046875,0.2328239460883662,8.88347190952003,4.147301465269923
1686426758527127600,1.69912744140625,0.09317573922495358,9.033493544161319,3.81545757483989
1686426758537072400,1.709072265625,-0.0034502146607555914,9.153117117929458,3.5200597932755944
1686426758547017500,1.719017578125,-0.057598289252794345,9.246283477404713,3.2669989321812984
1686426758556961500,1.72896142578125,-0.08247686975183896,9.319110813206434,3.0524983956277367
1686426758566906400,1.73890625,-0.09389433582308701,9.3780329577744,2.866020130726695
1686426758576851700,1.748851806640625,-0.1021136177743785,9.427596322366595,2.698217632462084
1686426758586796500,1.758796630859375,-0.11003438256997615,9.470452882796526,2.5433807064935565
1686426758596741400,1.768741455078125,-0.11365573313860222,9.50815396015942,2.398428484071046
1686426758606686700,1.778686767578125,-0.1092388117454946,9.54135071184039,2.262978687878698
1686426758616631600,1.788631591796875,-0.09857323262062855,9.57092985754609,2.1349412137694657
1686426758626576400,1.798576416015625,-0.09164114093566313,9.598200141787528,2.0091177624478935
1686426758636521500,1.808521484375,-0.1008759383387398,9.623432782721519,1.8840870689392089
1686426758646465500,1.818465576171875,-0.12672777061699889,9.647639587739109,1.7542495596706866
1686426758656410400,1.828410400390625,-0.16229385437835006,9.672210549893975,1.6100854188859461
1686426758666355700,1.838355712890625,-0.20045527926199136,9.696273562526702,1.4534285840138792
1686426758676300500,1.848300537109375,-0.23514446145780382,9.718598207059502,1.2899338659457862
1686426758686245400,1.858245361328125,-0.2687877695961855,9.739550394195318,1.113240570543334
1686426758696190700,1.868190673828125,-0.3112234559992328,9.757920748144388,0.9254878287270665
1686426758706135600,1.878135498046875,-0.35746604213826355,9.772993814113736,0.728837202445045
1686426758716080400,1.888080322265625,-0.39919038366787135,9.784299636504054,0.5277292314279824
1686426758726025500,1.898025390625,-0.43504393346793946,9.791340787187218,0.3328295039338991
1686426758735969500,1.907969482421875,-0.4712321585824713,9.794167535045743,0.150396386237815
1686426758745914400,1.917914306640625,-0.5197774321733042,9.792834825137257,-0.02434067651334917
1686426758755859700,1.927859619140625,-0.5911034235013648,9.786818341326713,-0.19789996875599025
1686426758765804500,1.937804443359375,-0.6936220966789871,9.77486954485774,-0.3757543072944507
1686426758775749400,1.947749267578125,-0.8270891946215182,9.7553979516685,-0.5643768542151898
1686426758785694700,1.95769482421875,-0.9897580563247204,9.727008892530202,-0.7589921022120862
1686426758795639600,1.9676396484375,-1.1633234289649874,9.693822077721357,-0.9202748433191329
1686426758805584400,1.97758447265625,-1.310510790028423,9.665855627909302,-1.0120138734050095
1686426758815529500,1.987529541015625,-1.4169770683206617,9.643996262800693,-1.0751199525941162
1686426758825473500,1.9974736328125,-1.5083952689543365,9.624173956477641,-1.1271303450122474
1686426758835418400,2.00741845703125,-1.6044852607913314,9.605440614435077,-1.1539267281316221
1686426758845363700,2.01736376953125,-1.6767467794038355,9.592842998668552,-1.155981176443398
1686426758855308500,2.02730859375,-1.7041081029295921,9.588658406460285,-1.1506684569880365
1686426758865253400,2.03725341796875,-1.7150100206941365,9.587709142911434,-1.142350564367324
1686426758875198700,2.04719873046875,-1.7211361023589968,9.587010639253258,-1.1389937282200902
1686426758885143600,2.0571435546875,-1.7466835083305834,9.581951602298021,-1.1426716130152343
1686426758895088400,2.06708837890625,-1.7915536005400121,9.572523264217375,-1.152184487574175
1686426758905033500,2.077033447265625,-1.8359461383655666,9.56227893357873,-1.1672677826765925
1686426758914977500,2.0869775390625,-1.861300067591667,9.555278699427843,-1.1843109066098927
1686426758924922400,2.09692236328125,-1.8598077832072972,9.554206686282157,-1.1952617780826986
1686426758934867700,2.10686767578125,-1.8384867627590893,9.558605213502048,-1.1930682866264133
1686426758944812500,2.1168125,-1.809058569831401,9.565660977232456,-1.1814531060259787
1686426758954757400,2.12675732421875,-1.7745099651500582,9.574147650548815,-1.1649850055016577
1686426758964702700,2.13670263671875,-1.7305621023520825,9.584597148370742,-1.1450036361593752
1686426758974647600,2.1466474609375,-1.6728038869969546,9.597586978325246,-1.1218084924023597
1686426758984592400,2.15659228515625,-1.6038456477135419,9.612288288372755,-1.0963490569751708
1686426758994537500,2.166537353515625,-1.5309275648884475,9.627054480350017,-1.0707373535957188
1686426759004481500,2.1764814453125,-1.468057267216593,9.639590721318125,-1.0457016234733163
1686426759014426400,2.18642626953125,-1.4217721936427057,9.648560209715367,-1.0267608492251485
1686426759024371700,2.196371826171875,-1.386968883547932,9.655012162333726,-1.0136198472969233
1686426759034316500,2.206316650390625,-1.3637579576998948,9.65953753080368,-1.0019302862860262
1686426759044261400,2.216261474609375,-1.3514461731374263,9.662523853138088,-0.9897453429736196
1686426759054206700,2.226206787109375,-1.3446870542660354,9.664715810224413,-0.9774875536207109
1686426759064151600,2.236151611328125,-1.3358994983069599,9.667149174851179,-0.9653852470904588
1686426759074096400,2.246096435546875,-1.3213563014306127,9.670382165423035,-0.9529426757551729
1686426759084041500,2.25604150390625,-1.30316378826648,9.67404711767137,-0.9407294561963527
1686426759093985500,2.265985595703125,-1.2861407572731376,9.67732979260385,-0.9303492242183535
1686426759103930400,2.275930419921875,-1.2748248518802225,9.679729254961014,-0.9208929021522402
1686426759113875700,2.285875732421875,-1.2695887047924101,9.681344873464107,-0.9110893740836531
1686426759123820500,2.295820556640625,-1.2613020840927958,9.683082072520255,-0.9041212886366993
1686426759133765400,2.305765380859375,-1.249923927118629,9.685204471501708,-0.8971689122155309
1686426759143710700,2.315710693359375,-1.237452860341221,9.687451958167552,-0.8901643672157078
1686426759153655600,2.325655517578125,-1.2249451878804714,9.689709966227412,-0.88285872037746
1686426759163600400,2.335600341796875,-1.2135444537483155,9.691786187979579,-0.8757761417053639
1686426759173545500,2.34554541015625,-1.2047671999875456,9.693445061102508,-0.8694974998272955
1686426759183489500,2.355489501953125,-1.1974144260719417,9.694906365826725,-0.8633495716568083
1686426759193434400,2.365434326171875,-1.1894425704099236,9.69653718189895,-0.8560127990279346
1686426759203379700,2.375379638671875,-1.1774249464884399,9.69851461945176,-0.8502100310333073
1686426759213324500,2.385324462890625,-1.1661213891204445,9.70069839323163,-0.8408136224608868
1686426759223269400,2.395269287109375,-1.1586173701658844,9.702222826319932,-0.8335820637721568
1686426759233214700,2.405214599609375,-1.1544540399413554,9.703144617339968,-0.8286024487286806
1686426759243159600,2.41515966796875,-1.1498629858240486,9.703968208682536,-0.8253380401052534
1686426759253104400,2.4251044921875,-1.1430484835036099,9.705014502865076,-0.8225166260089725
1686426759263049700,2.4350498046875,-1.133682104743272,9.706306296241284,-0.820219016591087
1686426759272993500,2.44499365234375,-1.123640603200346,9.707603934836387,-0.8186696682572364
1686426759282938400,2.4549384765625,-1.115082691278681,9.7086969907701,-0.817413896042481
1686426759292883700,2.4648837890625,-1.1097011443708091,9.709416537216304,-0.8161953870981932
1686426759302828500,2.47482861328125,-1.106092306223884,9.709915134388208,-0.815171597008407
1686426759312773400,2.4847734375,-1.1018119985561816,9.710519530022143,-0.8137699135169386
1686426759322718700,2.49471875,-1.0957098092235624,9.7114232008636,-0.8112205943603068
1686426759332663600,2.50466357421875,-1.0888881465099751,9.712534376975894,-0.8070984729290008
1686426759342608400,2.5146083984375,-1.0828367375165224,9.713576579505204,-0.8026850404009223
1686426759352553700,2.5245537109375,-1.0771630027290433,9.714560329845547,-0.7983879277288913
1686426759362498600,2.53449853515625,-1.070320881749317,9.71565455482304,-0.7942548465121537
1686426759372442400,2.5444423828125,-1.0627883673526346,9.716892572185397,-0.7892122492350637
1686426759382387700,2.5543876953125,-1.0553398779775947,9.718103701540826,-0.7842837067916989
1686426759392332500,2.56433251953125,-1.0491179347228259,9.719182728949189,-0.7792440321240574
1686426759402277400,2.57427734375,-1.0444216666653752,9.720056004652381,-0.7746604306608438
1686426759412222700,2.58422265625,-1.0405557119522244,9.720811791455745,-0.7703644870325923
1686426759422167600,2.59416748046875,-1.0363513921301812,9.72160381861627,-0.7660221469793468
1686426759432112400,2.6041123046875,-1.0304623340915888,9.722547821468114,-0.7619670263696462
1686426759442057700,2.6140576171875,-1.0224661477059125,9.723676533237098,-0.7583231899745762
1686426759452002600,2.62400244140625,-1.014114279750362,9.724844407972693,-0.7545618646796792
1686426759461946400,2.6339462890625,-1.00793771000728,9.725741649073361,-0.751250621239841
1686426759471891500,2.643891357421875,-1.0045935141459106,9.726320325744151,-0.7482331000495701
1686426759481836500,2.65383642578125,-1.0029722696196288,9.726737089851499,-0.7449900995403528
1686426759491781400,2.663781494140625,-1.0014808620180935,9.727175481268763,-0.7412590232532471
1686426759501726500,2.6737265625,-1.000091672682017,9.72757237163186,-0.7379184075884521
1686426759511671600,2.683671630859375,-0.9985703813988714,9.727904380065203,-0.7355899646408856
1686426759521616400,2.693616455078125,-0.9980116515375673,9.728217099276184,-0.732209674552828
1686426759531561500,2.7035615234375,-0.99731183270514,9.728550276753305,-0.7287354225710034
1686426759541506600,2.713506591796875,-0.9965977661516516,9.728849551960826,-0.7257149787712842
1686426759551450400,2.723450439453125,-0.9966217315491288,9.729103234460949,-0.7222819355826825
1686426759561395500,2.7333955078125,-0.9975231373682617,9.7292534565866,-0.7190147504802793
1686426759571340300,2.74334033203125,-0.9981881771482527,9.729450440463424,-0.7154089810732752
1686426759581285400,2.753285400390625,-0.9982084162186831,9.729707045572995,-0.711870431683585
1686426759591230500,2.76323046875,-0.9980459191333502,9.730019180262088,-0.7078306547734886
1686426759601175600,2.773175537109375,-0.9979673740044236,9.730357618436217,-0.7032734298605472
1686426759611120400,2.783120361328125,-0.9988344391625374,9.730620068764686,-0.6984015129752457
1686426759621065500,2.7930654296875,-1.000761169441417,9.730793671765923,-0.6932043827235699
1686426759631010600,2.803010498046875,-1.004954018021375,9.730786657503247,-0.6872109144624322
1686426759640955400,2.812955322265625,-1.0107833086967468,9.73066916860342,-0.6802894446361809
1686426759650899500,2.8228994140625,-1.0166600917756556,9.730563954663277,-0.6729908851258456
1686426759660844300,2.83284423828125,-1.0221049862433225,9.730497903689741,-0.6656534549098462
1686426759670789400,2.842789306640625,-1.0270699882395564,9.730461078810691,-0.6585075286779553
1686426759680734500,2.852734375,-1.032239572897181,9.730381583833694,-0.65158189413324
1686426759690679600,2.862679443359375,-1.0382159438930452,9.730179923781751,-0.6450502273421734
1686426759700624400,2.872624267578125,-1.044793130326271,9.729857267698645,-0.6392531584359705
1686426759710569500,2.882569580078125,-1.052125884367153,9.729404263234137,-0.6341186450917273
1686426759720514600,2.8925146484375,-1.0600411144711077,9.728844291263819,-0.6295329978018999
1686426759730459400,2.90245947265625,-1.0678731963362544,9.728224113538861,-0.6258681916840374
1686426759740403500,2.912403564453125,-1.0750683685373514,9.727616795295477,-0.622962752566114
1686426759750348300,2.922348388671875,-1.081818354254216,9.727024674621223,-0.620498262148723
1686426759760293400,2.93229345703125,-1.088434849784523,9.726422617074846,-0.618386969083175
1686426759770238500,2.942238525390625,-1.0948285694096236,9.72578256560564,-0.6171640031594783
1686426759780183600,2.95218359375,-1.1011579916268586,9.725099844038485,-0.6166722010545432
1686426759790128400,2.96212841796875,-1.1076308409027755,9.72436451550126,-0.6166637254871428
1686426759800073500,2.972073486328125,-1.1145868705857545,9.723527480155228,-0.6173384098783135
1686426759810018600,2.9820185546875,-1.1216528634492307,9.722640175926685,-0.618508257375285
1686426759819963400,2.99196337890625,-1.1284638586383313,9.721761639526486,-0.6199304721981287
1686426759829908500,3.001908447265625,-1.1343619037009776,9.720966105234622,-0.6216352302893996
1686426759839852300,3.011852294921875,-1.1395094226572662,9.720238960003853,-0.6235941092722117
1686426759849797400,3.02179736328125,-1.1444782240457831,9.719525258776544,-0.6256066912036389
1686426759859742500,3.031742431640625,-1.1490654787708072,9.718865918084978,-0.6274575797673314
1686426759869687300,3.041687255859375,-1.1529998225450515,9.718280811673402,-0.6293051073301583
1686426759879632400,3.05163232421875,-1.156293091936782,9.717772862151264,-0.6310792773958295
1686426759889577500,3.061577392578125,-1.1590665752381086,9.717330963602661,-0.6328063203841447
1686426759899522600,3.0715224609375,-1.161666382472962,9.716913614973425,-0.6344402782615274
1686426759909467400,3.08146728515625,-1.1643497763380408,9.716512048435211,-0.6356737655792385
1686426759919412500,3.09141259765625,-1.1663313055440783,9.716190561395884,-0.636959056149423
1686426759929357600,3.101357666015625,-1.1676888576328754,9.715925188457966,-0.6385138113107532
1686426759939301400,3.11130126953125,-1.1691350378531962,9.715657477432488,-0.6399302539799362
1686426759949246500,3.12124658203125,-1.1702932679776101,9.715444126942753,-0.6410540703780949
1686426759959191300,3.13119140625,-1.171361700926721,9.715247143065929,-0.6421081094756722
1686426759969136400,3.141136474609375,-1.171686402836442,9.715179923048614,-0.6425198320817201
1686426759979081500,3.15108154296875,-1.1707563554447145,9.715312609517573,-0.6422124466329813
1686426759989026600,3.161026611328125,-1.168989784163609,9.715569799149035,-0.6415355702847242
1686426759998971400,3.170971435546875,-1.1665860109575092,9.715940970548987,-0.640279871135205
1686426760008916500,3.18091650390625,-1.1636084564514457,9.716434307023881,-0.6382143899727613
1686426760018861600,3.190861572265625,-1.1606324363153426,9.716965052899718,-0.6355392524793744
1686426760028806400,3.200806396484375,-1.158840073005855,9.717369542047381,-0.632636955166608
1686426760038750500,3.21075048828125,-1.1568785636745393,9.717730776575207,-0.6306668241374195
1686426760048695300,3.2206953125,-1.1543385968681423,9.718199563130735,-0.6280752002090215
1686426760058640400,3.230640380859375,-1.1512889269739388,9.718747260141372,-0.6252067321006208
1686426760068585500,3.24058544921875,-1.1488843500502406,9.719203187215328,-0.6225503723729402
1686426760078530600,3.250530517578125,-1.148397516381368,9.719417706748843,-0.6200726571477949
1686426760088475400,3.260475341796875,-1.1480164811745286,9.719622873932122,-0.6175417504306883
1686426760098420500,3.27042041015625,-1.1468962449729443,9.719899937307835,-0.6152613113433122
1686426760108365600,3.280365478515625,-1.144935977750644,9.720268186098336,-0.6131026720046997
1686426760118310400,3.290310302734375,-1.142705076893419,9.720627082538604,-0.6115704940013588
1686426760128255500,3.30025537109375,-1.140403887278959,9.721039170470833,-0.6093091249406337
1686426760138199300,3.31019921875,-1.1382652678150682,9.721394559779762,-0.6076286610404029
1686426760148144400,3.320144287109375,-1.13613373567909,9.721746441957354,-0.6059812226269394
1686426760158089500,3.33008935546875,-1.1339480622030793,9.722115275269747,-0.604179616565071
1686426760168034600,3.34003466796875,-1.1310014873571694,9.722563603559136,-0.6025003947738558
1686426760177979400,3.3499794921875,-1.1263896827127784,9.723187288415431,-0.6010611922835931
1686426760187924500,3.359924560546875,-1.1217282667730002,9.72382207918763,-0.5995201368540525
1686426760197869600,3.36986962890625,-1.1184088400267065,9.724297880005835,-0.5979761222824453
1686426760207814400,3.379814453125,-1.1164859822053461,9.72458838738501,-0.596838204293698
1686426760217759500,3.389759521484375,-1.1153769980501382,9.724766082039475,-0.5960160742558539
1686426760227704600,3.39970458984375,-1.114714588618651,9.724880648329853,-0.5953779224827885
1686426760237648400,3.4096484375,-1.1137981313608587,9.725034962108731,-0.5945708073509857
1686426760247593500,3.419593505859375,-1.1131665554590522,9.725175247362255,-0.593480966287665
1686426760257538300,3.429538330078125,-1.1128155500642956,9.7252974124372,-0.5921237064598128
1686426760267483400,3.4394833984375,-1.113130095906183,9.725344758710264,-0.5907459883658215
1686426760277428500,3.449428466796875,-1.1145175316765903,9.725283968433738,-0.5891296392103657
1686426760287373600,3.45937353515625,-1.1166381040271371,9.725127901089191,-0.5876868930561467
1686426760297318400,3.469318359375,-1.1191331357132643,9.724936177909374,-0.5861262926759198
1686426760307263500,3.479263427734375,-1.1219945164937526,9.724688340628147,-0.5847765220347791
1686426760317208600,3.48920849609375,-1.1250072153784334,9.724428812909126,-0.5833039652641863
1686426760327153400,3.4991533203125,-1.1279388118509202,9.724169869711995,-0.5819704881707206
1686426760337097500,3.509097412109375,-1.130312774440646,9.723973470357059,-0.5806026338836178
1686426760347042300,3.519042236328125,-1.1318342849195002,9.72386124215424,-0.5795175785932689
1686426760356987400,3.5289873046875,-1.1327183742776512,9.723802205443382,-0.5787811540775001
1686426760366932500,3.538932373046875,-1.1331798543095588,9.723772979348897,-0.5783722810156643
1686426760376877600,3.548877685546875,-1.133162245587632,9.723781747177243,-0.5782516503106803
1686426760386822400,3.558822509765625,-1.133233264997229,9.723759535345435,-0.5785201285211369
1686426760396767500,3.568767578125,-1.1341123128540813,9.723631525051593,-0.5789414957383647
1686426760406712600,3.578712646484375,-1.1363855915483088,9.723326989147067,-0.5796076680295169
1686426760416657400,3.588657470703125,-1.140034104118496,9.722851188328862,-0.580411422160454
1686426760426602200,3.598602294921875,-1.1447477617021649,9.72224094747603,-0.5813572881758212
1686426760436546300,3.60854638671875,-1.1503568337555974,9.721521985551714,-0.5823011083645746
1686426760446491400,3.618491455078125,-1.1557969789829103,9.720811206933856,-0.5833994980605319
1686426760456436500,3.6284365234375,-1.1610411632467061,9.720116794928908,-0.5845677381223068
1686426760466381600,3.638381591796875,-1.1663501563750207,9.719408938920497,-0.5857613683536649
1686426760476326400,3.648326416015625,-1.1723301806326956,9.718625095066427,-0.5868150421250611
1686426760486271500,3.658271484375,-1.178494475416094,9.717831314340232,-0.5876160197770223
1686426760496216600,3.668216552734375,-1.1848235323071479,9.717022336044908,-0.5882753970012068
1686426760506161000,3.678160888671875,-1.1906068649489432,9.716270056372881,-0.5890149633221328
1686426760516106200,3.688106201171875,-1.1961330810245125,9.715538234966992,-0.5898896637974307
1686426760526051000,3.698051025390625,-1.2010629386421292,9.714874802622198,-0.5907958188569172
1686426760535995000,3.707994873046875,-1.2053805095802992,9.714292618820071,-0.5915935816384852
1686426760545940200,3.717940185546875,-1.2090271955195813,9.713785838341712,-0.5924661997545511
1686426760555885000,3.727885009765625,-1.2119236476134507,9.713364982581139,-0.5934586448580026
1686426760565830000,3.737829833984375,-1.2145187786731868,9.712979782655834,-0.5944588714091107
1686426760575775200,3.747775146484375,-1.217167685746774,9.71257587803006,-0.5956339430704712
1686426760585720000,3.757719970703125,-1.2203770762473345,9.71209247842729,-0.5969375730149448
1686426760595665000,3.767664794921875,-1.2243003871709108,9.71151672436595,-0.5982772241208701
1686426760605610200,3.7776103515625,-1.228901597356051,9.710829326623678,-0.5999875717027112
1686426760615555000,3.78755517578125,-1.2345054087124765,9.709996382930875,-0.6019741424100473
1686426760625500000,3.7975,-1.240701925265044,9.70908862043619,-0.603861125200428
1686426760635444200,3.8074443359375,-1.2474267034754156,9.708097855833172,-0.6059397581053897
1686426760645389000,3.81738916015625,-1.2547029780887067,9.70700070824623,-0.6084800171727314
1686426760655334000,3.827333984375,-1.2627503832049667,9.705773212277888,-0.6113876482477412
1686426760665279200,3.837279296875,-1.2717860687062144,9.70438847992122,-0.6146245478097349
1686426760675224000,3.84722412109375,-1.2810571703985332,9.702979197645186,-0.617625921582803
1686426760685169000,3.8571689453125,-1.290783906903863,9.701493927523494,-0.6206898391980677
1686426760695114200,3.8671142578125,-1.300712157330662,9.699978262263535,-0.6236529998525977
1686426760705059000,3.87705908203125,-1.3102252510853112,9.698537415805458,-0.626148762191087
1686426760715004000,3.88700390625,-1.3191406712077558,9.697176648846268,-0.6284827580966055
1686426760724949200,3.89694921875,-1.3267825642630457,9.69601754193902,-0.6302836700387299
1686426760734894000,3.90689404296875,-1.3328491708256303,9.695078215262294,-0.6319438583359122
1686426760744838000,3.916837890625,-1.3378474175043404,9.694304892802238,-0.6332546486735343
1686426760754783200,3.926783203125,-1.3414397429078817,9.693751935094594,-0.634126170811057
1686426760764728000,3.93672802734375,-1.3439692613855003,9.693339847162365,-0.6350368559151888
1686426760774673000,3.9466728515625,-1.3462753463707864,9.692957569846511,-0.6360187065593897
1686426760784618200,3.9566181640625,-1.3479565774559974,9.692648942288756,-0.6371440573275089
1686426760794563000,3.96656298828125,-1.3492232363909482,9.692374801522492,-0.6386245782088488
1686426760804508000,3.9765078125,-1.3501175548821687,9.692129886850713,-0.6404438295252621
1686426760814453200,3.986453369140625,-1.3507288186483084,9.691917705404759,-0.642385318981856
1686426760824398000,3.996398193359375,-1.3518774041615427,9.6916318742007,-0.6442585655078291
1686426760834343000,4.006343017578125,-1.3534418769992886,9.6912636254102,-0.6465241723522543
1686426760844288000,4.0162880859375,-1.3553066479578613,9.69085095295608,-0.6487815228249877
1686426760854232000,4.026232177734375,-1.3575037196107207,9.690378659269212,-0.6512517123308033
1686426760864177000,4.036177001953125,-1.3603785443946719,9.68980582781732,-0.6537943094857037
1686426760874122200,4.046122314453125,-1.3635051519826054,9.68919324887693,-0.6563125759169459
1686426760884067000,4.056067138671875,-1.3665411586776375,9.688602297246456,-0.6587490823488682
1686426760894012000,4.066011962890625,-1.3688434442706405,9.688124158340692,-0.6609763299442827
1686426760903957200,4.075957275390625,-1.3713393527396023,9.687638420650362,-0.6629219841193408
1686426760913902000,4.085902099609375,-1.3745688361801207,9.687023503622411,-0.6652306263878941
1686426760923847000,4.095846923828125,-1.3789536271356044,9.686234399071335,-0.6676372491382062
1686426760933792000,4.1057919921875,-1.3839261548511683,9.68533189727366,-0.6704249801605939
1686426760943737000,4.115737060546875,-1.3890600106082855,9.684402507469057,-0.6732306852310895
1686426760953681000,4.125680908203125,-1.3943977183744312,9.683437461829184,-0.6760732151806355
1686426760963626200,4.135626220703125,-1.3993725841775535,9.682537298119067,-0.6786959648996591
1686426760973571000,4.145571044921875,-1.4038273716293275,9.68173124243319,-0.6809932820565998
1686426760983516000,4.155515869140625,-1.4081651085726916,9.680969025889038,-0.6828600257765501
1686426760993461200,4.165461181640625,-1.4124952467314897,9.680217330738902,-0.6845806390240788
1686426761003406000,4.175406005859375,-1.4164875312380492,9.679531102040409,-0.6860450855534523
1686426761013351000,4.185350830078125,-1.4199942241847514,9.67893021353781,-0.6872643251501024
1686426761023296000,4.1952958984375,-1.4228437683969735,9.678438046106695,-0.6882842427823692
1686426761033241000,4.205240966796875,-1.4251329022474586,9.67804057122171,-0.6891490429181605
1686426761043186000,4.21518603515625,-1.4266256250232456,9.67777695184946,-0.689739775352925
1686426761053131000,4.225131103515625,-1.427053056655079,9.677681674781441,-0.6902073197994381
1686426761063075000,4.235074951171875,-1.4268427749052643,9.677714992529154,-0.6901702757246791
1686426761073020000,4.24502001953125,-1.4263181665092706,9.67781260768473,-0.6898876593910157
1686426761082965200,4.25496533203125,-1.4249647060737014,9.678057522356509,-0.6892563757501542
1686426761092910000,4.26491015625,-1.422602068595588,9.67848597690165,-0.6881064750626683
1686426761102855000,4.27485498046875,-1.4189821245327592,9.679104985582828,-0.6868714533749968
1686426761112800000,4.284800048828125,-1.4141510511144995,9.679916301965713,-0.6854085412155836
1686426761122745000,4.2947451171875,-1.4087706732504068,9.680819388285279,-0.6837244605861604
1686426761132690000,4.30468994140625,-1.402887314300239,9.681800800538063,-0.6819211374912411
1686426761142635000,4.314635009765625,-1.3967726308122277,9.682823713845014,-0.6799434076774865
1686426761152580000,4.324580078125,-1.3908489398516715,9.68381798557937,-0.6779261495709419
1686426761162525200,4.334525146484375,-1.384816381689161,9.68480933470428,-0.6760952078167348
1686426761172469200,4.34446923828125,-1.3786895693719385,9.685815296876429,-0.6742427848830819
1686426761182414000,4.3544140625,-1.3722031299620865,9.686861006537079,-0.6724368314396589
1686426761192359000,4.36435888671875,-1.3656889257624745,9.68790437811017,-0.6706769090950488
1686426761202304000,4.374303955078125,-1.35882941525653,9.688988666215538,-0.6689497930414974
1686426761212249000,4.3842490234375,-1.3516788128495216,9.69010510302484,-0.6672285952720791
1686426761222194000,4.39419384765625,-1.3445311330519616,9.691217448180913,-0.6655091510683298
1686426761232139000,4.404138916015625,-1.3376710380241275,9.692259650710225,-0.6641701575495302
1686426761242084000,4.414083984375,-1.3314569858148693,9.693201315474509,-0.662912704834342
1686426761252029200,4.424029296875,-1.3259423140466213,9.694036012732981,-0.6617752983022481
1686426761261974000,4.43397412109375,-1.3207707566276192,9.694811673280595,-0.6607381372742355
1686426761271919000,4.443919189453125,-1.3155660275913774,9.695572136259079,-0.6599724866639822
1686426761281863000,4.45386279296875,-1.3091346793696284,9.696509709370135,-0.6589926818463951
1686426761291808300,4.463808349609375,-1.303452542079985,9.69734206854105,-0.6579808013901114
1686426761301753000,4.473753173828125,-1.2993496368058024,9.697903209555149,-0.657852425770089
1686426761311698000,4.483697998046875,-1.2953653894752264,9.698429863777756,-0.6579362315960228
1686426761321643000,4.49364306640625,-1.2903870165407656,9.699083943772315,-0.6580800970461219
1686426761331588000,4.503588134765625,-1.2841748640276491,9.699887076848745,-0.6583981500193476
1686426761341533000,4.513532958984375,-1.2768259625695646,9.700815297609568,-0.6590127747863531
1686426761351478000,4.52347802734375,-1.2688489923410118,9.70183704187274,-0.6593876725133508
1686426761361423000,4.533423095703125,-1.2609180532112716,9.702837158825993,-0.6598832740105688
1686426761371368200,4.5433681640625,-1.2531008035890758,9.703832599604128,-0.6601340339012444
1686426761381313000,4.55331298828125,-1.2451383002772927,9.704863111695646,-0.6600397797465324
1686426761391257000,4.563257080078125,-1.2364682332180439,9.705983055636286,-0.6598647154405712
1686426761401202000,4.573201904296875,-1.226528584614396,9.707253806224465,-0.6597333441458643
1686426761411147000,4.58314697265625,-1.215864932585135,9.708636785015463,-0.6591077595934272
1686426761421092000,4.593092041015625,-1.2052354750864207,9.709998136496543,-0.6585824936103075
1686426761431037000,4.603036865234375,-1.195078311274573,9.71129051439464,-0.6580173340082168
1686426761440982000,4.61298193359375,-1.185636967581883,9.712489368790388,-0.6574241904206574
1686426761450927000,4.622927001953125,-1.1766497973974794,9.713628017431496,-0.656744464528188
1686426761460872200,4.6328720703125,-1.1677137728784233,9.714746207806467,-0.6561484713964164
1686426761470817000,4.642817138671875,-1.1586489343479276,9.715871412444114,-0.6555413723487407
1686426761480762000,4.65276220703125,-1.1497278882022945,9.716970898118614,-0.6549589693509041
1686426761490707200,4.662707275390625,-1.1413694443754852,9.718020114910601,-0.6540149664990603
1686426761500651000,4.672651123046875,-1.1336370965577662,9.71897639272213,-0.6532772268090397
1686426761510595800,4.682595947265625,-1.126853281636536,9.719830963724851,-0.6522890925545245
1686426761520540700,4.692540771484375,-1.1206078844409435,9.720622990885376,-0.6512484974604099
1686426761530485800,4.70248583984375,-1.1133214537598193,9.721538936686516,-0.6500780654415488
1686426761540430800,4.712430908203125,-1.1048304695945232,9.72259224513173,-0.648799277677387
1686426761550375700,4.722375732421875,-1.095432818913087,9.72373089377284,-0.6476616519495845
1686426761560320800,4.73232080078125,-1.085266741142422,9.724951960000395,-0.6464267763923853
1686426761570265900,4.742265869140625,-1.074339031349495,9.726224464154242,-0.6455362572934478
1686426761580210700,4.752210693359375,-1.0629629202019422,9.727539053884149,-0.644572819088772
1686426761590155800,4.76215576171875,-1.0517940220642834,9.728815649691224,-0.6436242131270468
1686426761600100900,4.772100830078125,-1.0414153975214808,9.729994045820831,-0.6426702003378421
1686426761610044700,4.782044677734375,-1.0317366648763417,9.73109586958289,-0.6416224448505788
1686426761619989800,4.79198974609375,-1.0226284255955367,9.732147424462436,-0.6402477224312723
1686426761629934800,4.801934814453125,-1.013902902022004,9.733165077072382,-0.6386692210681736
1686426761639879700,4.811879638671875,-1.0049296872977167,9.73421078673303,-0.6368998733080923
1686426761649824800,4.82182470703125,-0.9963605233296752,9.73521791794896,-0.6349653981141745
1686426761659769900,4.831769775390625,-0.9884737156026064,9.736139124447106,-0.6331705505866557
1686426761669714700,4.841714599609375,-0.981453753837943,9.736960377702117,-0.6314609701897949
1686426761679659800,4.85165966796875,-0.9757369836263358,9.737638423094152,-0.6298563114721327
1686426761689604900,4.86160498046875,-0.9704705875307321,9.738269122213124,-0.628244492361322
1686426761699549700,4.8715498046875,-0.9648161419656127,9.73893255455792,-0.626683526654914
1686426761709494800,4.881494873046875,-0.9589027532033622,9.739624043953418,-0.6249990806993097
1686426761719438800,4.89143896484375,-0.9525455661963671,9.740362295100093,-0.6232146084353327
1686426761729383700,4.9013837890625,-0.9459257096651941,9.74113386399448,-0.6212369516868144
1686426761739328800,4.911328857421875,-0.9386467316381633,9.741980836212635,-0.6189871269334107
1686426761749273900,4.92127392578125,-0.9306655236259103,9.742859957134723,-0.6172040429089218
1686426761759218700,4.93121875,-0.9215000011999159,9.743841953909396,-0.6154504041746258
1686426761769163800,4.941163818359375,-0.9117126936137676,9.74486077556312,-0.6138923610776662
1686426761779108900,4.95110888671875,-0.9016892391841859,9.745897132873534,-0.6122286656491458
1686426761789053700,4.9610537109375,-0.8921931696295737,9.746868608254193,-0.610681984196417
1686426761798998800,4.970998779296875,-0.88410842817761,9.747710904297232,-0.6089978305017575
1686426761808943900,4.98094384765625,-0.8771308442499488,9.748447986400127,-0.6072903689967468
1686426761818888700,4.990888671875,-0.8709520825497805,9.74911492587626,-0.6054649802004918
1686426761828833800,5.000833740234375,-0.8655386791989207,9.749708215594291,-0.6036891661670059
1686426761838777900,5.01077783203125,-0.8604249894469976,9.75026935660839,-0.6019202567983418
1686426761848722700,5.02072265625,-0.8552207718674093,9.75082874405682,-0.6002854586707428
1686426761858667800,5.030667724609375,-0.8495259212266654,9.751428463515639,-0.5986298369508236
1686426761868612900,5.04061279296875,-0.8427561348307877,9.752108262473344,-0.597121003290452
1686426761878557700,5.0505576171875,-0.8345974513597786,9.752893859893083,-0.5957256764745339
1686426761888502800,5.060502685546875,-0.8254559673964976,9.753727388107777,-0.5948240149270743
1686426761898448000,5.07044775390625,-0.8159441888161003,9.754565592497586,-0.594179652608931
1686426761908392700,5.080392822265625,-0.8066077668026089,9.7553810005337,-0.5935531182084233
1686426761918337800,5.090337890625,-0.7982133748795837,9.756104638633131,-0.5929915388029068
1686426761928282600,5.10028271484375,-0.7909132079340517,9.756744105580449,-0.5922896741438657
1686426761938227700,5.110227783203125,-0.7850722268208861,9.757260822930931,-0.5915415957229212
1686426761948172800,5.1201728515625,-0.7800835516881197,9.75769395365119,-0.5909870305800811
1686426761958116900,5.130116943359375,-0.7750081481199711,9.75812007010877,-0.59064632738363
1686426761968061700,5.140061767578125,-0.7703093227792531,9.75851345334053,-0.5902761788969859
1686426761978006800,5.1500068359375,-0.7664670412026345,9.758840201076865,-0.5898743931630626
1686426761987951900,5.159951904296875,-0.7631796900950372,9.7591102501899,-0.5896688606536016
1686426761997896700,5.169896728515625,-0.7610067299701273,9.759271578231454,-0.5897967978822067
1686426762007841800,5.179841796875,-0.7593454456944018,9.759399588525294,-0.5898376048166305
1686426762017786600,5.18978662109375,-0.7578400095675141,9.759522922644019,-0.5897287376146764
1686426762027731700,5.199731689453125,-0.7562153309751302,9.759681328076123,-0.5892002567611634
1686426762037676800,5.2096767578125,-0.7543761328492313,9.759873635777831,-0.5883609198601916
1686426762047621600,5.21962158203125,-0.7528828986167907,9.760053668519854,-0.5873117761334404
1686426762057567000,5.22956689453125,-0.7518981253631413,9.760216750127077,-0.5858441877989098
1686426762067510800,5.2395107421875,-0.7512999402742833,9.760338330680131,-0.584555682358332
1686426762077456000,5.249455810546875,-0.7508952319309115,9.760451143404842,-0.5832219860691576
1686426762087400700,5.259400634765625,-0.7504352132037282,9.76056512517333,-0.581913826080039
1686426762097345800,5.269345703125,-0.7500939985506236,9.760644620150327,-0.5810213707523421
1686426762107290600,5.27929052734375,-0.7500671836089342,9.760680860507488,-0.580432538013719
1686426762117235700,5.289235595703125,-0.7504276144191623,9.76069488903284,-0.5797481724787503
1686426762127180800,5.299180908203125,-0.7509965003482997,9.760690797379612,-0.5790552948437631
1686426762137125600,5.309125732421875,-0.7515439781632274,9.760682614073156,-0.5784711382802575
1686426762147071000,5.319071044921875,-0.7525633112736045,9.760634098756313,-0.5779852179268374
1686426762157015800,5.329015869140625,-0.7544841963335871,9.76050901107192,-0.5775917250972241
1686426762166960600,5.338960693359375,-0.757570398845896,9.760268188053368,-0.5776338106732816
1686426762176906000,5.348906005859375,-0.7614436600826681,9.75994845457971,-0.5779458357645199
1686426762186849800,5.358849853515625,-0.7662265104450285,9.759557993957399,-0.5782038656461984
1686426762196794600,5.368794677734375,-0.7717919625524431,9.759103235927224,-0.5784694212472066
1686426762206739700,5.37873974609375,-0.7776360124055296,9.758614575627446,-0.578885418169573
1686426762216684800,5.388684814453125,-0.783710875339806,9.758109548714756,-0.579218522581458
1686426762226629600,5.398629638671875,-0.7900980190936475,9.757596923017502,-0.5791790673539042
1686426762236575000,5.408574951171875,-0.7971913383554666,9.757030521306396,-0.5790042587762698
1686426762246519800,5.418519775390625,-0.8049849879063665,9.756407420971989,-0.5787198523443192
1686426762256464600,5.428464599609375,-0.8134715881574899,9.755724114882945,-0.5783404245726764
1686426762266410000,5.438409912109375,-0.8226101495113224,9.754993462520837,-0.57773931687437
1686426762276354800,5.448354736328125,-0.8318477873254567,9.754248781633377,-0.5770859675321728
1686426762286299600,5.458299560546875,-0.8401797815367579,9.75356898267567,-0.5765016283055767
1686426762296244700,5.46824462890625,-0.84671963163428,9.753032976102828,-0.5760159636804834
1686426762306189800,5.47818994140625,-0.8510435592480003,9.752674079662562,-0.5757139119939878
1686426762316133600,5.488133544921875,-0.853639932416752,9.752435594731569,-0.5759133435562253
1686426762326078700,5.49807861328125,-0.8553654410351067,9.752275435733795,-0.5760864351008087
1686426762336023800,5.50802392578125,-0.856501240132004,9.752162038487196,-0.5763179057691246
1686426762345968600,5.51796875,-0.8570814511727541,9.752107677951454,-0.5763476067876443
1686426762355914000,5.5279140625,-0.8575092481307685,9.752099494644998,-0.5758625266844406
1686426762365858800,5.53785888671875,-0.8584600460495799,9.752075529247522,-0.5748428282478824
1686426762375803600,5.5478037109375,-0.8599261730793863,9.752034028193354,-0.5733493017544969
1686426762385748700,5.557748779296875,-0.8619841285225004,9.751944596344233,-0.5717944369953125
1686426762395693800,5.56769384765625,-0.8650929081927985,9.751748196989297,-0.5704623116087169
1686426762405638700,5.577638671875,-0.8688080562584102,9.751477563354372,-0.5694256985699757
1686426762415583700,5.587583740234375,-0.8720519335504621,9.75122154276669,-0.5688386559296399
1686426762425528800,5.59752880859375,-0.87477872816585,9.750970782876013,-0.5689496785560623
1686426762435472600,5.60747265625,-0.87715897436589,9.750732297945023,-0.5693650178913027
1686426762445418000,5.61741796875,-0.8794994000121951,9.750481538054347,-0.5700739333456382
1686426762455362800,5.62736279296875,-0.8817596730943769,9.750231362685561,-0.5708306334644556
1686426762465307600,5.6373076171875,-0.88407101877667,9.749984109926222,-0.5714935543525964
1686426762475253000,5.6472529296875,-0.8860365466959774,9.749777189177275,-0.5720019422661513
1686426762485197800,5.65719775390625,-0.8875067653790116,9.749632812270521,-0.5721896468579769
1686426762495142700,5.667142578125,-0.8878810055188834,9.74960066356659,-0.5721569136321545
1686426762505087500,5.67708740234375,-0.8873485060773789,9.749632812270521,-0.5724293373653665
1686426762515032600,5.687032470703125,-0.8867831272795796,9.749663791930676,-0.5727616015270353
1686426762524977700,5.696977783203125,-0.8862536965779959,9.749696525156498,-0.5730131286026909
1686426762534922500,5.706922607421875,-0.8861820195812732,9.749694187068938,-0.5731700361974537
1686426762544867800,5.716867919921875,-0.8864221850126981,9.749659115755557,-0.5734021644528955
1686426762554811600,5.726811767578125,-0.8868053391113877,9.749614107570052,-0.5735650999296457
1686426762564756700,5.7367568359375,-0.8877912814088165,9.74952409119904,-0.5735771922262385
1686426762574701600,5.74670166015625,-0.888657908175513,9.74944927239716,-0.5735129678836092
1686426762584646700,5.756646728515625,-0.8891619852401316,9.749408940386772,-0.573411370672658
1686426762594591700,5.766591796875,-0.8895633325826376,9.749387897598742,-0.5731341976990922
1686426762604536600,5.77653662109375,-0.8902634436760097,9.7493393822819,-0.5729050651183352
1686426762614481700,5.786481689453125,-0.8914235734965652,9.749267486089467,-0.5723268999041989
1686426762624426500,5.796426513671875,-0.8930497133936732,9.749161687627435,-0.5716048692399636
1686426762634371800,5.806371826171875,-0.8945688857849686,9.749068748646973,-0.570788840149343
1686426762644316700,5.816316650390625,-0.8953996375206857,9.749023155939579,-0.5702679946130141
1686426762654261500,5.826261474609375,-0.8953541909437626,9.749045367771387,-0.5699588921312242
1686426762664206800,5.836206787109375,-0.8949889378279448,9.749082777172326,-0.5698912337224931
1686426762674150700,5.846150634765625,-0.8949204757016151,9.749060565340518,-0.5703564766140654
1686426762684095700,5.856095703125,-0.8951599835459142,9.749004451239108,-0.5709735490664839
1686426762694040600,5.86604052734375,-0.8958742692951113,9.74888813138306,-0.5718361207125708
1686426762703985700,5.875985595703125,-0.8970352758985012,9.74874141638875,-0.5725222398132086
1686426762713930500,5.885930419921875,-0.8992271599195897,9.748502346935867,-0.573113301041536
1686426762723875800,5.895875732421875,-0.9025214522246271,9.748172676590084,-0.5735570262210443
1686426762733820700,5.905820556640625,-0.906321209833771,9.747819040846824,-0.5735747445408255
1686426762743765500,5.915765625,-0.9101796388275921,9.747466574147342,-0.5734538946401327
1686426762753710800,5.9257109375,-0.9137162885211407,9.747149178761243,-0.5732102220773696
1686426762763655700,5.93565576171875,-0.9162745216365903,9.74693115209639,-0.5728337169151753
1686426762773600500,5.9456005859375,-0.9178383368872105,9.746810740587115,-0.5723897360073402
1686426762783545900,5.9555458984375,-0.9186119516082107,9.746769824054837,-0.5718491628572344
1686426762793490700,5.96549072265625,-0.9189102039024233,9.746752288398145,-0.5716860081847757
1686426762803435500,5.975435546875,-0.9187109550032764,9.746769239532947,-0.5717163667904213
1686426762813379600,5.985379638671875,-0.9177790079154073,9.746845227378607,-0.5719107933839783
1686426762823324700,5.99532470703125,-0.9165785460844635,9.746939335402846,-0.5722304172597825
1686426762833269500,6.00526953125,-0.9155681999981403,9.746989604285359,-0.5729955929460003
1686426762843214800,6.01521484375,-0.9146133834913373,9.74706033143401,-0.5733346156420186
1686426762853159700,6.02515966796875,-0.9141325411718338,9.74708020517826,-0.5737520738691091
1686426762863104500,6.0351044921875,-0.9141008308593184,9.747059162390231,-0.5741519964395091
1686426762873049900,6.0450498046875,-0.914743951068446,9.74698492811024,-0.5743807636940852
1686426762882994700,6.05499462890625,-0.9156243871647864,9.746887897476553,-0.5746072659263387
1686426762892939500,6.064939453125,-0.9165889944132417,9.746780345448851,-0.5749128612767904
1686426762902884600,6.074884521484375,-0.9174855048615485,9.746676885074377,-0.5752263111401349
1686426762912829700,6.08482958984375,-0.9183845725931227,9.74656056521833,-0.5757566186245531
1686426762922774500,6.0947744140625,-0.9194456259533762,9.746433723968266,-0.5762225556358694
1686426762932718800,6.10471875,-0.9201590349197387,9.746328510028123,-0.57685347395055
1686426762942663700,6.11466357421875,-0.9204537800826131,9.746264212620257,-0.5775023297807201
1686426762952608500,6.1246083984375,-0.9209467512313276,9.74618530216515,-0.5780353406788781
1686426762962553900,6.134553955078125,-0.9219302823759615,9.746069566830991,-0.5784224037677049
1686426762972498700,6.144498779296875,-0.923632848510146,9.7459047316581,-0.5784836324356496
1686426762982443500,6.154443603515625,-0.9259160640764981,9.745707747781276,-0.5781518431980163
1686426762992388600,6.164388671875,-0.9283608999453484,9.745480368766188,-0.5780420992132276
1686426763002333700,6.174333740234375,-0.9304978389088064,9.745289230108261,-0.5778360917797312
1686426763012278500,6.184278564453125,-0.9328845879148692,9.745080555793642,-0.5775315558752044
1686426763022223600,6.1942236328125,-0.934953576208651,9.74488181835115,-0.5775387528009712
1686426763032168700,6.204168701171875,-0.9365652491889893,9.744734518834948,-0.5774126422032714
1686426763042113500,6.214113525390625,-0.9381706385590135,9.744576697924733,-0.5774526454200968
1686426763052058600,6.22405859375,-0.938854236909002,9.744489604163169,-0.5778234149612486
1686426763062002700,6.234002685546875,-0.9379365375421941,9.744548056352137,-0.5783356753323227
1686426763071947500,6.243947509765625,-0.9371042514365165,9.74459949427843,-0.5788153486080467
1686426763081892600,6.253892578125,-0.9383275096211582,9.744498956513404,-0.5785101551163941
1686426763091837700,6.263837646484375,-0.9411525769792497,9.744272746542096,-0.5777377825044095
1686426763101782500,6.273782470703125,-0.9427478102814406,9.744139475551247,-0.5773620079945773
1686426763111727600,6.2837275390625,-0.9420921959169208,9.744242351403832,-0.5767191069811582
1686426763121672700,6.293672607421875,-0.9403273051362484,9.74445102571845,-0.5760634195514023
1686426763131617500,6.303617431640625,-0.9385108302988111,9.744663791686296,-0.5754137600036338
1686426763141562600,6.313562744140625,-0.9374478772424161,9.744808753114938,-0.5746933733072132
1686426763151507700,6.3235078125,-0.9366283044878393,9.744901692095398,-0.5744484586354345
1686426763161452500,6.33345263671875,-0.9361722312834113,9.744947869324683,-0.5744303384568542
1686426763171397600,6.343397705078125,-0.9372961207468062,9.744828626859187,-0.5746047817083075
1686426763181342700,6.3533427734375,-0.940885523540899,9.744491942250727,-0.5744495180813596
1686426763191286500,6.36328662109375,-0.9469469424717127,9.743931970280409,-0.5739991804979742
1686426763201231600,6.373231689453125,-0.9541551933500915,9.743252171322704,-0.5735960065245628
1686426763211176700,6.3831767578125,-0.9613119332369416,9.742556005752085,-0.5734950303681194
1686426763221121500,6.39312158203125,-0.968003320634365,9.74187679131627,-0.5737722033416852
1686426763231066600,6.403066650390625,-0.9743821349512785,9.741240831500292,-0.5737619011433794
1686426763241011700,6.41301171875,-0.9804435538820921,9.740638189432024,-0.573679593154788
1686426763250956500,6.42295654296875,-0.9860850669004022,9.740071203199028,-0.5736165743885562
1686426763260901600,6.432901611328125,-0.9915935281235724,9.739512984794377,-0.5736140536379069
1686426763270846700,6.4428466796875,-0.9960158015452325,9.73906173389554,-0.5736223100095987
1686426763280791800,6.452791748046875,-0.9987382122464478,9.738791100260615,-0.5734450537465512
1686426763290736600,6.462736572265625,-1.0001573583293706,9.738653737616538,-0.5733239481175318
1686426763300681500,6.472681396484375,-1.001128614514321,9.738561383157968,-0.5731843935163692
1686426763310626800,6.482626708984375,-1.0021627798676491,9.738471366786957,-0.5729135772183537
1686426763320571600,6.492571533203125,-1.002573114234209,9.738429865732789,-0.572879382687807
1686426763330515700,6.502515625,-1.0019239296104758,9.738476042962073,-0.5732367447581141
1686426763340460500,6.51246044921875,-1.0008343808081,9.73857424263954,-0.5734820247560739
1686426763350405600,6.522405517578125,-0.9996220093436539,9.738661920922993,-0.5741012161003426
1686426763360350700,6.532350830078125,-0.998191757344827,9.738775902691483,-0.5746625763101503
1686426763370295800,6.5422958984375,-0.9970465328324586,9.738879363065957,-0.574893608587049
1686426763380240600,6.55224072265625,-0.9963171956446021,9.738940737864375,-0.5751332625618204
1686426763390185500,6.562185546875,-0.9958141414932906,9.738981069874763,-0.5753181176094337
1686426763400130800,6.572130859375,-0.9951493939742445,9.739027247104048,-0.5756824208771809
1686426763410075600,6.58207568359375,-0.9942085329275577,9.739106157559156,-0.5759668273091316
1686426763420020500,6.5920205078125,-0.9936710650499909,9.739164609748125,-0.5759292352451011
1686426763429965800,6.6019658203125,-0.9939582114282995,9.739143566960095,-0.5757762001078576
1686426763439910700,6.61191064453125,-0.9946603683482855,9.739114340865612,-0.5750441229736432
1686426763449855500,6.62185546875,-0.9950281056821346,9.739133630087972,-0.5740793330620974
1686426763459799600,6.631799560546875,-0.994790497533977,9.739205526280402,-0.5732644364826381
1686426763469744600,6.64174462890625,-0.9931326473243534,9.739420045813917,-0.5725158466050401
1686426763479689500,6.651689453125,-0.990479867793247,9.739719905543327,-0.5720165918460115
1686426763489634800,6.661634765625,-0.9877656403984874,9.740023856925964,-0.5715419966042041
1686426763499579600,6.67157958984375,-0.9850796892501413,9.740308519086241,-0.571326052298583
1686426763509525000,6.68152490234375,-0.9832499165397137,9.74049848870039,-0.571236583916843
1686426763519470300,6.69147021484375,-0.9822327023211866,9.740599026465416,-0.5712653350872918
1686426763529415200,6.701415283203125,-0.9811430804535746,9.740700148752332,-0.5714210736382752
1686426763539360000,6.711360107421875,-0.9800984667714685,9.740793087732792,-0.5716164135472849
1686426763549305000,6.72130517578125,-0.9793647456694394,9.74085095539987,-0.5718651276113466
1686426763559250200,6.731250244140625,-0.97916535063982,9.740867322012782,-0.5719581761896609
1686426763569195000,6.741195068359375,-0.9798187730472534,9.740791334167122,-0.572118992774561
1686426763579140000,6.75114013671875,-0.980956764101237,9.740676767876744,-0.5721151203170418
1686426763589085200,6.761085205078125,-0.9821678934566676,9.740549342104792,-0.5722082054279745
1686426763599029000,6.771029052734375,-0.9828427970435469,9.74045698764622,-0.5726327144503593
1686426763608974300,6.780974365234375,-0.9829549521811306,9.740427177029847,-0.5729528863154352
1686426763618919200,6.790919189453125,-0.9827390444081276,9.740430099639296,-0.5732725467238575
1686426763628864000,6.800864013671875,-0.9825386264652013,9.740446466252207,-0.5733465983407572
1686426763638809000,6.81080908203125,-0.9827580413695424,9.740428346073626,-0.573258518198505
1686426763648754200,6.820754150390625,-0.9835145588252693,9.7403675557971,-0.5730005613820627
1686426763658699000,6.830698974609375,-0.9843821354400366,9.740299166736007,-0.5726705622427165
1686426763668644000,6.84064404296875,-0.9840866596248,9.740314364305139,-0.5729250119278207
1686426763678589200,6.850589111328125,-0.9822428583890199,9.740466924518346,-0.5734981356406584
1686426763688534300,6.8605341796875,-0.9806673527006059,9.740603118118644,-0.573857032080926
1686426763698479000,6.87047900390625,-0.9810208423133939,9.740577983677387,-0.5736863882217555
1686426763708424200,6.880424072265625,-0.9828855402067304,9.740430099639296,-0.5730091830799355
1686426763718369300,6.890369384765625,-0.9845067847330122,9.740299166736007,-0.5724663083748892
1686426763728313000,6.90031298828125,-0.9853512727331369,9.740244221678376,-0.5719451705776155
1686426763738258200,6.910258056640625,-0.9851846839945763,9.740290983429551,-0.5714372941207141
1686426763748203000,6.920203125,-0.9847992648735642,9.740344759443401,-0.5711786797171459
1686426763758148000,6.930148193359375,-0.9846521845530718,9.740375739103555,-0.570911882007122
1686426763768093200,6.94009326171875,-0.9849886499658227,9.740368140318989,-0.5704515344863758
1686426763778038300,6.950038330078125,-0.9855866889242082,9.74033014639616,-0.5700612199945375
1686426763787983000,6.959983154296875,-0.9858916632201522,9.740316702392697,-0.5697584011230618
1686426763797928200,6.96992822265625,-0.9857991626311093,9.740343590399622,-0.5694453896511346
1686426763807873300,6.979873291015625,-0.985726316590607,9.740394443804025,-0.5687123626688495
1686426763817818000,6.989818115234375,-0.9857043239545077,9.740450557905435,-0.5678094955449924
1686426763827763200,6.99976318359375,-0.9859312645781785,9.74047627686858,-0.5669778670264408
1686426763837708300,7.009708251953125,-0.986174425684288,9.74049848870039,-0.5661708614924922
1686426763847653000,7.019653076171875,-0.9860187236659228,9.74055343375802,-0.5654910260021686
1686426763857598000,7.029597900390625,-0.9853694659769534,9.740666246482728,-0.5646788328364492
1686426763867542000,7.0395419921875,-0.9841852246284484,9.740835173308849,-0.5638264903234318
1686426763877487000,7.049487060546875,-0.9824946411930024,9.74105846067071,-0.5629092658806591
1686426763887432200,7.05943212890625,-0.9804903886985034,9.74131681934595,-0.5619379366304725
1686426763897377300,7.069377197265625,-0.978433748429641,9.741566994714736,-0.5611741126511246
1686426763907322000,7.079322021484375,-0.9764812261223792,9.741797880861162,-0.5605842935318127
1686426763917267200,7.08926708984375,-0.9745131409198046,9.742014153960346,-0.5602579111216589
1686426763927212300,7.09921240234375,-0.9725455671738833,9.742246209150553,-0.5596337878739461
1686426763937157000,7.1091572265625,-0.9709319214321672,9.74245663703084,-0.5587785958167165
1686426763947102000,7.11910205078125,-0.9697240800123661,9.74262205672562,-0.5579787141432986
1686426763957047300,7.12904736328125,-0.9688885790362953,9.742757081282138,-0.5570624395485967
1686426763966992100,7.1389921875,-0.9681265816878527,9.742860541656613,-0.5565899631986394
1686426763976937000,7.14893701171875,-0.9673892803892493,9.742948219940066,-0.556335769241862
1686426763986882300,7.15888232421875,-0.9663320994865149,9.743031806570292,-0.5567023740645498
1686426763996827100,7.1688271484375,-0.9651627634461969,9.743124745550752,-0.557104817385599
1686426764006772000,7.17877197265625,-0.9645068568207323,9.743155140689014,-0.5577228396860883
1686426764016716300,7.18871630859375,-0.9647526482753455,9.74308850519359,-0.5584587162125856
1686426764026661000,7.1986611328125,-0.9656602646395563,9.742971600815654,-0.5589205615706742
1686426764036606000,7.20860595703125,-0.9668263127442449,9.742821963211894,-0.5595254321286455
1686426764046551300,7.21855126953125,-0.9675834147218614,9.742715580227971,-0.5600661514092237
1686426764056496000,7.22849609375,-0.9685535018630326,9.742595168718696,-0.560473161307536
1686426764066441000,7.23844091796875,-0.9688767424680292,9.742543730792402,-0.5607963288472965
1686426764076386300,7.24838623046875,-0.9683828945364803,9.742593999674916,-0.5607806563541293
1686426764086331100,7.2583310546875,-0.9667611385535448,9.742740130147338,-0.5610350695066154
1686426764096276000,7.26827587890625,-0.964667235014215,9.742937114024162,-0.5612177325971425
1686426764106221300,7.27822119140625,-0.9629095776919275,9.74310604085028,-0.5613262344729155
1686426764116166100,7.288166259765625,-0.9615325171850622,9.743241649928688,-0.5613134845891967
1686426764126111000,7.298111083984375,-0.959866483668983,9.743408238667248,-0.5612667593706399
1686426764136056000,7.30805615234375,-0.9578628887616097,9.74361165228486,-0.5611767795322462
1686426764146001200,7.318001220703125,-0.9553453529827296,9.743879363310336,-0.5608316558890044
1686426764155945000,7.327945068359375,-0.9533741259749978,9.744103235194087,-0.5602909731410444
1686426764165890300,7.337890380859375,-0.9518749734584242,9.744280345326661,-0.5597497424038127
1686426764175835100,7.347835205078125,-0.9511514084242284,9.744365101000666,-0.5595001515569165
1686426764185780000,7.357780029296875,-0.951370311871916,9.74435867125988,-0.559249756992422
1686426764195725300,7.367725341796875,-0.9520237342793494,9.744292620286345,-0.5592751836946234
1686426764205670100,7.377670166015625,-0.952426981317997,9.744237675228714,-0.5595428581874817
1686426764215615000,7.387614990234375,-0.9521570783354342,9.744252288275957,-0.5597593139497563
1686426764225560000,7.39756005859375,-0.951754635014385,9.744270408454536,-0.5601380476016551
1686426764235505200,7.407505126953125,-0.9526363862849772,9.744168701645732,-0.5604049183769151
1686426764245450200,7.4174501953125,-0.954887672343105,9.743933723846077,-0.5606768306534737
1686426764255395000,7.42739501953125,-0.9570789718423038,9.743739662578701,-0.5602963434359058
1686426764265340200,7.437340087890625,-0.9578084551606326,9.74370459126532,-0.5596534789551049
1686426764275285200,7.44728515625,-0.9574995353419333,9.743787593373655,-0.5587619004102423
1686426764285230000,7.45722998046875,-0.9567273088604211,9.743922033408284,-0.5577434440826997
1686426764295175200,7.467175048828125,-0.9562776653967797,9.74402198665142,-0.556752021892555
1686426764305119000,7.477118896484375,-0.9564997837148607,9.744044783005117,-0.5559622962869704
1686426764315064000,7.48706396484375,-0.9575306611325591,9.744009711691737,-0.5547947868775576
1686426764325009200,7.497009033203125,-0.9594368600800632,9.743882870441675,-0.5537183167524635
1686426764334954200,7.506954345703125,-0.9619152328923344,9.743713943615555,-0.552373076155968
1686426764344899000,7.516899169921875,-0.9652947923280298,9.7434620146811,-0.5509290513601154
1686426764354844200,7.52684423828125,-0.9696400549907237,9.743124161028861,-0.5492771194346249
1686426764364789200,7.536789306640625,-0.9741304252125322,9.74275415867269,-0.5478901220556348
1686426764374734000,7.546734130859375,-0.9778814483091235,9.74243676328659,-0.5468566508220508
1686426764384679200,7.55667919921875,-0.9805888075716793,9.742212306880951,-0.5460102996584028
1686426764394624300,7.566624267578125,-0.9833819454215467,9.741963885077833,-0.545424645257555
1686426764404569000,7.576569091796875,-0.986385438086465,9.741673962220549,-0.5451944897634908
1686426764414514200,7.58651416015625,-0.9886774945463984,9.741413849979638,-0.5457007953178137
1686426764424459300,7.596459228515625,-0.9898395240630954,9.741253690981864,-0.5464329089846461
1686426764434404000,7.606404052734375,-0.9901526086002588,9.741166012698411,-0.5474000004511326
1686426764444349000,7.616348876953125,-0.9895834304101765,9.74115023060739,-0.5487294224239886
1686426764454293200,7.626293212890625,-0.9885454656645655,9.741182379311322,-0.5500328331727534
1686426764464238000,7.636238037109375,-0.987537457665801,9.741222711321711,-0.5511435343610123
1686426764474183200,7.64618310546875,-0.9872656549870967,9.74118880905211,-0.5521968793388455
1686426764484128300,7.656128173828125,-0.9881438260611146,9.741045016667247,-0.5531586005104705
1686426764494073000,7.666072998046875,-0.9895304581139236,9.740858554184436,-0.5539572766074911
1686426764504018200,7.67601806640625,-0.9910097368862479,9.740668000048398,-0.5546951624279841
1686426764513962500,7.68596240234375,-0.9927267699372023,9.740484460175036,-0.5548633220691234
1686426764523907300,7.6959072265625,-0.994938819963485,9.740282800123095,-0.5544213504552841
1686426764533852700,7.705852783203125,-0.9979374172575771,9.740016258141399,-0.5536847067438065
1686426764543797500,7.715797607421875,-1.001164635675773,9.73975088520348,-0.5525523782456293
1686426764553742300,7.725742431640625,-1.0037092786572872,9.739548640629648,-0.5515022116055712
1686426764563687700,7.735687744140625,-1.0052699521027504,9.739440504080056,-0.5505508656974881
1686426764573632500,7.745632568359375,-1.0055177893839775,9.739448687386512,-0.5499553474897518
1686426764583577600,7.75557763671875,-1.0047822416510432,9.739559746545552,-0.5493241734467447
1686426764593522400,7.7655224609375,-1.0034843838602303,9.739715813890099,-0.5489566187759861
1686426764603466500,7.775466552734375,-1.0022240085355938,9.7398631134063,-0.5486345837473869
1686426764613411300,7.785411376953125,-1.0007565663315354,9.740004567703604,-0.5487990901267156
1686426764623356700,7.795356689453125,-0.9986150242581963,9.740219671759009,-0.5488782197775319
1686426764633301500,7.805301513671875,-0.9965732892975211,9.740427177029847,-0.5489072266763075
1686426764643246300,7.815246337890625,-0.9951143226608633,9.740562201586366,-0.5491490360755473
1686426764653191700,7.825191650390625,-0.9940830068517476,9.74064695726037,-0.5495053021673113
1686426764663136500,7.835136474609375,-0.9934542804941534,9.740678521442414,-0.5501017336905002
1686426764673081600,7.84508154296875,-0.9936829746834933,9.740611885946988,-0.5508867100557312
1686426764683026400,7.8550263671875,-0.9945130688320845,9.740486798262596,-0.5515894514976069
1686426764692971500,7.864971435546875,-0.9960735961470752,9.740292736995219,-0.5522059028955176
1686426764702916600,7.87491650390625,-0.9986708460986614,9.740001060572267,-0.5526480571724474
1686426764712861400,7.884861328125,-1.0021331884469837,9.739630473694204,-0.5529286642121151
1686426764722806500,7.894806640625,-1.00580968500264,9.739235336896776,-0.5532109882848337
1686426764732751600,7.904751708984375,-1.009107338308543,9.738871179759501,-0.5536235511410981
1686426764742696400,7.914696533203125,-1.0120973869699985,9.738533326107262,-0.5540925934249535
1686426764752641500,7.9246416015625,-1.0151035099834202,9.738196641498803,-0.5544904336361214
1686426764762585300,7.93458544921875,-1.0182863778032363,9.737850604540109,-0.5547238040005787
1686426764772530400,7.944530517578125,-1.0213755029249936,9.737520934194325,-0.554874647180736
1686426764782475500,7.9544755859375,-1.023709425765276,9.737283618307114,-0.5547178126512095
1686426764792420600,7.964420654296875,-1.0256452161334455,9.737104754608868,-0.5542788367120549
1686426764802365400,7.974365478515625,-1.0271488986946642,9.736976159793137,-0.5537612791113555
1686426764812310500,7.984310546875,-1.028283163421601,9.73687620655,-0.5533843355577439
1686426764822255600,7.994255615234375,-1.0292694710452108,9.736800803226233,-0.5529108362944797
1686426764832200400,8.004200439453125,-1.0299173404946922,9.73674644269049,-0.5526657024269923
1686426764842145500,8.0141455078125,-1.0301163701981306,9.736717801117896,-0.552798644624278
1686426764852090600,8.024090576171876,-1.0298310504507273,9.736741181993484,-0.5529141972953453
1686426764862035500,8.034035400390625,-1.0288630822014062,9.736825937667488,-0.5532200483741239
1686426764871980500,8.04398046875,-1.027704413685575,9.736922968301176,-0.5536382007209584
1686426764881925600,8.053925537109375,-1.0267259240422397,9.73701123110652,-0.5539387911027297
1686426764891870500,8.063870361328124,-1.0262057726256548,9.737062084510923,-0.5540074358921497
1686426764901815300,8.073815185546875,-1.0256273151505737,9.737126966440677,-0.5539386084396392
1686426764911759600,8.083759521484374,-1.0246890113871543,9.737230426815152,-0.5538446830784902
1686426764921704400,8.093704345703125,-1.023124830810353,9.737411628600954,-0.5535621398100629
1686426764931649500,8.1036494140625,-1.021145566626638,9.737627901700138,-0.5534055610088631
1686426764941594600,8.1135947265625,-1.0193913433704525,9.73780968800783,-0.5534246310355141
1686426764951539500,8.12353955078125,-1.0186513386581093,9.737889182984828,-0.5534122099453583
1686426764961484500,8.133484619140624,-1.0194332097508012,9.73781261061728,-0.5533145582571626
1686426764971429600,8.1434296875,-1.0218236850839109,9.737585231602191,-0.5528985613347962
1686426764981374500,8.15337451171875,-1.0249546035207808,9.737273681434989,-0.5525786086654291
1686426764991319300,8.1633193359375,-1.0272625882022082,9.73706617616415,-0.5519761127276346
1686426765001264600,8.1732646484375,-1.0288161012545227,9.736930567085743,-0.5514564362350851
1686426765011209500,8.18320947265625,-1.0289673462934792,9.736942257523536,-0.5509991939868778
1686426765021154300,8.193154296875,-1.0279252168294042,9.737060915467142,-0.5507960360975935
1686426765031099600,8.203099609375,-1.0266969171434641,9.737199447154998,-0.5506651031943037
1686426765041044500,8.21304443359375,-1.0252956720434128,9.73736545137167,-0.5503359077725559
1686426765050989600,8.222989501953125,-1.0233242258399724,9.737584062558412,-0.5501067751917987
1686426765060934700,8.2329345703125,-1.021407870824635,9.73779156782925,-0.5499984559791162
1686426765070879500,8.24287939453125,-1.0189843700047583,9.738048172938823,-0.5499749289730563
1686426765080823300,8.2528232421875,-1.0171298281792551,9.738249832990766,-0.5498592301715165
1686426765090768600,8.2627685546875,-1.0166101151540874,9.738348032668233,-0.5490819621887058
1686426765100713500,8.27271337890625,-1.0167067073963583,9.738404146769643,-0.5478911449689418
1686426765110658300,8.282658203125,-1.0170290712185204,9.738460845392941,-0.5462828695220873
1686426765120603600,8.292603759765624,-1.0173632716089487,9.73852046662569,-0.5445835913235322
1686426765130548500,8.302548583984375,-1.0175069178633391,9.73859528542757,-0.5429857276728376
1686426765140493600,8.31249365234375,-1.0175234306067227,9.738692900583148,-0.5411909897431731
1686426765150438700,8.322438720703126,-1.0173476356483995,9.738819157311319,-0.5392524228960275
1686426765160383500,8.332383544921875,-1.0172394260335713,9.738936646211148,-0.5373023848067969
1686426765170328600,8.34232861328125,-1.017508963689953,9.739012049534916,-0.5354556974941864
1686426765180273400,8.3522734375,-1.0174630787216126,9.739115509909391,-0.5336535069104283
1686426765190218500,8.362218505859374,-1.0166468669679016,9.739287943866849,-0.5320617442069575
1686426765200163600,8.37216357421875,-1.0152072626188398,9.73951123122871,-0.5307355005718767
1686426765210108400,8.3821083984375,-1.0137127132121473,9.739729257893561,-0.5295777453714982
1686426765220053500,8.392053466796876,-1.011977706113085,9.739946700036525,-0.5288999191751703
1686426765229998600,8.40199853515625,-1.0099511687215417,9.740171156442164,-0.5286320985518396
1686426765239942700,8.411942626953126,-1.0075898464176802,9.74040262711048,-0.5288870962262153
1686426765249887500,8.421887451171875,-1.0047372334655373,9.740672091701626,-0.5293518276611343
1686426765259832600,8.43183251953125,-1.0027082118559627,9.740840434005856,-0.5300897500142455
1686426765269777700,8.441777587890625,-1.0017859093792736,9.740911161154507,-0.5305597786787897
1686426765279722500,8.451722412109374,-1.0026225793991237,9.740825820958614,-0.5305221866147593
1686426765289667600,8.46166748046875,-1.0060663631774485,9.740506087484956,-0.5298755958069116
1686426765299612400,8.4716123046875,-1.0106862049978227,9.740084647202492,-0.5288195839479566
1686426765309557500,8.4815576171875,-1.0149161707177758,9.73971289128065,-0.5275472624571994
1686426765319502600,8.491502685546875,-1.0184767858088015,9.739417123204468,-0.5261660372318699
1686426765329447400,8.501447509765624,-1.0212694122020154,9.739186821579933,-0.5250273885907605
1686426765339392500,8.511392578125,-1.0233796092890202,9.73902373997271,-0.5239372187338769
1686426765349337600,8.521337646484374,-1.025000050097704,9.738894560635089,-0.5231652114480734
1686426765359282400,8.531282470703125,-1.025922352574393,9.738832601314783,-0.5225154057698324
1686426765369227500,8.5412275390625,-1.0261053809911012,9.738833770358562,-0.5221383526183665
1686426765379172600,8.551172607421876,-1.0251982760835439,9.738933723601699,-0.5220503455413505
1686426765389117400,8.561117431640625,-1.0236210168294608,9.739091544511913,-0.5221835434669628
1686426765399062500,8.5710625,-1.021689318114519,9.739276253429054,-0.522505541962944
1686426765409006600,8.581006591796875,-1.0195071517698466,9.739495449137687,-0.5227247011389583
1686426765418951400,8.590951416015624,-1.017607017236948,9.739678404489158,-0.52301429520268
1686426765428896500,8.600896484375,-1.0161970043085515,9.739796477910875,-0.5235526033304632
1686426765438841600,8.610841552734374,-1.0152796702679245,9.739838563486932,-0.5245275858424604
1686426765448786400,8.620786376953125,-1.0146822158314288,9.739852007490397,-0.5254550759509206
1686426765458731500,8.6307314453125,-1.014494072848186,9.739811090958117,-0.5265848836984485
1686426765468676600,8.640676513671876,-1.015380281098187,9.739652101004124,-0.5278073746981099
1686426765478621400,8.650621337890625,-1.0170520137026906,9.739423552945256,-0.5288108161196112
1686426765488566500,8.66056640625,-1.0189139351170509,9.739202019149065,-0.5292971748644486
1686426765498511600,8.67051171875,-1.021004842981696,9.738974640133977,-0.5294472508596256
1686426765508457000,8.68045703125,-1.0230063920624552,9.738771226516365,-0.5293335613520815
1686426765518401800,8.69040185546875,-1.024681266472116,9.73861340560615,-0.5289889856981114
1686426765528347000,8.700346923828125,-1.0256531071789563,9.73853917132616,-0.5284503487767651
1686426765538292000,8.7102919921875,-1.0255142832301556,9.738583594989777,-0.5278955279055982
1686426765548236800,8.72023681640625,-1.0244696695480495,9.738720373111963,-0.5274200193483383
1686426765558182000,8.730181884765624,-1.0228224868629128,9.738918526032567,-0.5269725678417831
1686426765568127000,8.740126953125,-1.0210164603542535,9.739141228872537,-0.526358381466195
1686426765578070800,8.75007080078125,-1.019173535901308,9.739361009103058,-0.5258642047410831
1686426765588015900,8.760015869140625,-1.0178609919980168,9.739511815750598,-0.5256276560388505
1686426765597961000,8.7699609375,-1.0171180646762252,9.739590726205707,-0.5255639796854927
1686426765607905800,8.77990576171875,-1.0165320814818144,9.73963807247877,-0.5258284027753397
1686426765617851000,8.789850830078125,-1.015637470729649,9.739704123452306,-0.5263548378022387
1686426765627796000,8.7997958984375,-1.0146128769222647,9.739778942254185,-0.526926427145116
1686426765637740800,8.80974072265625,-1.0139775746934114,9.739809921914338,-0.5275902978813275
1686426765647686000,8.819685791015624,-1.0137282761074602,9.73978654103875,-0.5285039786601439
1686426765657631000,8.829630859375,-1.0139619387328624,9.73971639841199,-0.5293476264100522
1686426765667575800,8.839575927734375,-1.014426852830872,9.739633980825543,-0.5299661236345767
1686426765677521000,8.84952099609375,-1.014967535578832,9.739555070370436,-0.530373754587397
1686426765687466000,8.859466064453125,-1.0158126811660826,9.739453948083518,-0.530611180072464
1686426765697410800,8.869410888671876,-1.0164802051641046,9.739401925635338,-0.5302938212189823
1686426765707356000,8.87935595703125,-1.017035208698362,9.73939549589455,-0.5293489050516859
1686426765717301000,8.889301025390624,-1.0176624006859958,9.739383220934867,-0.5283423218250274
1686426765727245800,8.899245849609375,-1.0185217209290713,9.739362762668728,-0.5270838461965323
1686426765737191000,8.90919091796875,-1.0193143326114862,9.739344057968259,-0.5259046463493258
1686426765747135000,8.919135009765625,-1.019776908621937,9.739372115018963,-0.524482760320045
1686426765757079800,8.929079833984375,-1.019894397521764,9.739437581470607,-0.5230317577941342
1686426765767025000,8.93902490234375,-1.0195723990257828,9.739536365669965,-0.5218120432734489
1686426765776970000,8.948969970703125,-1.0187513649664819,9.739667298573256,-0.52097303516604
1686426765786914800,8.958914794921874,-1.0182458265971392,9.739753807812928,-0.5203515787994488
1686426765796860000,8.96885986328125,-1.0187729922764002,9.739717567455768,-0.5199824532261118
1686426765806805000,8.978804931640624,-1.020309188867733,9.739572021505236,-0.5197126233087852
1686426765816749800,8.988749755859375,-1.0221503597550095,9.739373868584632,-0.51981338026952
1686426765826695000,8.99869482421875,-1.0242281889423728,9.739145320525765,-0.5200182917244732
1686426765836640000,9.008639892578126,-1.0263788641702383,9.7388939761132,-0.5204778355276212
1686426765846584800,9.018584716796875,-1.0289800596445797,9.738598792558907,-0.5208662503233179
1686426765856530000,9.028530029296874,-1.0318854987625032,9.738303609004616,-0.5206227969562635
1686426765866474800,9.038474853515625,-1.0344393479637801,9.738077399033308,-0.519788099697791
1686426765876419800,9.048419921875,-1.0364783795107155,9.737928930473327,-0.5185208562409505
1686426765886365000,9.058364990234375,-1.038078654314205,9.737834822449088,-0.517052281525731
1686426765896309800,9.068309814453125,-1.039645830565691,9.737759419125318,-0.515343979770504
1686426765906255000,9.078255126953126,-1.0411649298917502,9.737684015801548,-0.513689819355309
1686426765916200000,9.088199951171875,-1.0428916806191206,9.737579970905184,-0.5121738253017887
1686426765926144000,9.09814404296875,-1.0448629076268523,9.73743793208599,-0.5108479104602709
1686426765936088800,9.1080888671875,-1.0469712050177156,9.737260821953415,-0.5098910846594721
1686426765946034000,9.118033935546874,-1.0491654271263628,9.737055654770135,-0.5093084989985451
1686426765955978800,9.127978759765625,-1.0510425461098551,9.736873868462443,-0.5089240297256037
1686426765965923800,9.137923828125,-1.053036715601757,9.736666363191604,-0.5087704465990885
1686426765975869000,9.147868896484376,-1.0546315835777669,9.736475809055566,-0.5091019801083951
1686426765985813800,9.157813720703125,-1.055737791253999,9.736328509539366,-0.5096047419987618
1686426765995759000,9.167759033203126,-1.0563877065300942,9.736223880121111,-0.5102651421362534
1686426766005704000,9.177703857421875,-1.0571933968897909,9.736109313830733,-0.5108069573953747
1686426766015648800,9.187648681640624,-1.057982209179923,9.736009360587596,-0.5110615897435694
1686426766025594000,9.197593994140625,-1.0583328492484987,9.73596493692398,-0.5111981486700475
1686426766035539000,9.2075390625,-1.0577078492179512,9.736030403375626,-0.5112464447911829
1686426766045483800,9.21748388671875,-1.0564193437773735,9.736156075581908,-0.5115112332072108
1686426766055428900,9.227428955078125,-1.0548653192684054,9.736326171451806,-0.5114778789268807
1686426766065374000,9.2373740234375,-1.053321962283924,9.736502112540602,-0.5112915991071612
1686426766075318800,9.24731884765625,-1.0521223041705787,9.736649412056803,-0.5109573987167328
1686426766085264000,9.257263916015624,-1.0512250630699098,9.73674644269049,-0.5109548414334655
1686426766095209000,9.267208984375,-1.0506959976945072,9.736795542529224,-0.5111063056681305
1686426766105152800,9.27715283203125,-1.0497551366478204,9.736867438721656,-0.5116785891307517
1686426766115098000,9.28709814453125,-1.0485855814117937,9.736967391964793,-0.5121801454447209
1686426766125043000,9.29704296875,-1.0472567439608276,9.737077282080053,-0.5128174204349517
1686426766134987800,9.30698779296875,-1.0459457344274967,9.737186587673426,-0.5133940147465095
1686426766144932900,9.316932861328125,-1.0446227421954273,9.737311090835929,-0.5137188627867028
1686426766154878000,9.3268779296875,-1.043672967189923,9.737406952425838,-0.5138490650376305
1686426766164822800,9.33682275390625,-1.0428691034611315,9.737485862880945,-0.5139663347417488
1686426766174767900,9.346767822265624,-1.041586662435159,9.737620302915573,-0.5140233986912295
1686426766184713000,9.356712890625,-1.039540470495075,9.737831315317749,-0.5141691638374701
1686426766194657800,9.36665771484375,-1.0370743726424871,9.738081490686536,-0.5144449851041659
1686426766204603000,9.376602783203126,-1.0344187435671686,9.738357385018467,-0.5145668944507837
1686426766214548000,9.3865478515625,-1.0327243607394396,9.738524558278918,-0.5147947483899071
1686426766224492800,9.396492919921876,-1.0320360131490975,9.738585348555445,-0.5150155880663544
1686426766234438000,9.40643798828125,-1.0313235540308057,9.7386502304852,-0.515236939199455
1686426766244383000,9.416383056640624,-1.0304979899268596,9.738720957633852,-0.5155299307966604
1686426766254328000,9.426328125,-1.0296649001035838,9.738805128785968,-0.5156068319577723
1686426766264273000,9.43627294921875,-1.0281444125380366,9.738940737864375,-0.5161036390313878
1686426766274217700,9.4462177734375,-1.0249895287036894,9.739238844028115,-0.5167350322701036
1686426766284163000,9.4561630859375,-1.0207753450747579,9.739645671263336,-0.517386006992124
1686426766294107000,9.46610693359375,-1.0168671586550773,9.740016842663287,-0.5180920363696292
1686426766304052000,9.476052001953125,-1.0132632889442146,9.74034651300907,-0.5189805461745709
1686426766313996800,9.485996826171874,-1.0092211739465593,9.740716515365243,-0.5199095341203734
1686426766323942000,9.49594189453125,-1.005620226845145,9.741051446408033,-0.5206173535961658
1686426766333887000,9.505886962890624,-1.0031122626122086,9.741290515860914,-0.5209770902866497
1686426766343831800,9.515831787109375,-1.0015842493273317,9.741457104599474,-0.5208121820485219
1686426766353777000,9.52577685546875,-1.0000912342905999,9.74165175038874,-0.5200368502944708
1686426766363721700,9.5357216796875,-0.9989199254889041,9.741846980699897,-0.5186273488227278
1686426766373667000,9.5456669921875,-0.9977996892873198,9.74206325379908,-0.5167108111442997
1686426766383612000,9.55561181640625,-0.9963262557338922,9.742309922036528,-0.5148812941621989
1686426766393556700,9.565556640625,-0.9944593658834695,9.742599260371923,-0.5130176191821694
1686426766403502000,9.575502197265624,-0.992584584987536,9.742876908269524,-0.5113766470421105
1686426766413447000,9.585447021484375,-0.9912631271254271,9.743094350412488,-0.509805452202633
1686426766423391700,9.595391845703125,-0.9909839448578656,9.743191381046175,-0.5084983881920576
1686426766433337000,9.605337158203126,-0.9916451121803372,9.743175598955155,-0.5075005362611263
1686426766443282000,9.615281982421875,-0.9929723421961069,9.743082075452804,-0.5067059152847155
1686426766453226800,9.625226806640624,-0.9948911083642393,9.742915486714244,-0.5061275308748707
1686426766463171800,9.635171875,-0.9968586090449243,9.742729024231433,-0.505836548571661
1686426766473117000,9.645116943359374,-0.9982949985235929,9.742582309237122,-0.5058333337012678
1686426766483060700,9.655060791015625,-0.9991321069348603,9.742477679818869,-0.506218095235154
1686426766493006000,9.665006103515625,-0.9997117334537208,9.742409290757776,-0.5064059094248339
1686426766502951000,9.674950927734375,-1.0004594100158661,9.742332133868336,-0.5063683538934216
1686426766512895700,9.684895751953125,-1.0012474185883997,9.74227075906992,-0.5060343361660837
1686426766522841000,9.694841064453126,-1.0021654832813889,9.742216398534179,-0.5052416879510506
1686426766532786000,9.704785888671875,-1.0031468224689364,9.742177235567569,-0.5040568986132741
1686426766542730800,9.714730712890624,-1.0042480617091059,9.742136903557181,-0.5026477624677121
1686426766552675800,9.72467578125,-1.0052515396632253,9.742113522681594,-0.5010626487007365
1686426766562621000,9.734620849609374,-1.0058387649666518,9.742142748776077,-0.49931167684756217
1686426766572565800,9.744565673828125,-1.0061117366891354,9.742202954530715,-0.4975924153069034
1686426766582510800,9.7545107421875,-1.0063029484122992,9.74223276514709,-0.4966300365481525
1686426766592456000,9.7644560546875,-1.0062444231580943,9.74227075906992,-0.49601172198671845
1686426766602400800,9.77440087890625,-1.005953550452739,9.742311675602197,-0.4958186105674132
1686426766612345900,9.784345947265624,-1.0050707032036035,9.742389417013525,-0.49606009117309
1686426766622291000,9.794291015625,-1.0036457119017839,9.742498722606896,-0.49679015901330853
1686426766632236000,9.804236083984375,-1.0021579575620592,9.74262381029129,-0.49735586660467085
1686426766642180900,9.814180908203125,-1.0011355557117612,9.742696291005611,-0.4980093986099586
1686426766652126000,9.8241259765625,-1.0005919503543526,9.742727855187654,-0.4984593343345448
1686426766662071000,9.834071044921876,-1.0005475266907364,9.742722009968757,-0.49867498637922103
1686426766672016000,9.844015869140625,-1.0006694725699723,9.742704474312067,-0.4987529835188761
1686426766681960000,9.8539599609375,-1.0006724682446568,9.742702720746397,-0.4987879817670211
1686426766691904800,9.86390478515625,-1.0004357368793337,9.742720840924978,-0.4989174898982048
1686426766701849900,9.873849853515624,-1.0002302043698728,9.742728439709543,-0.49914757232703266
1686426766711795000,9.883794921875,-1.0001164417970925,9.742726101621985,-0.4994401620654389
1686426766721740000,9.893739990234375,-1.0000601084999738,9.742723763534427,-0.4996087235653773
1686426766731684900,9.903684814453126,-1.0002470824394374,9.742692783874272,-0.4998093972366303
1686426766741630000,9.9136298828125,-1.0002929674077778,9.74267758630514,-0.500029360130243
1686426766751575000,9.923574951171876,-0.9999864587418734,9.742706227877736,-0.5000632258672267
1686426766761519900,9.933519775390625,-0.9990331766050309,9.742815533471108,-0.4998487063337117
1686426766771464700,9.943464599609374,-0.997351653258875,9.743009594738483,-0.4994469205997884
1686426766781410000,9.95341015625,-0.9950777169775217,9.743267953413724,-0.49895592221245166
1686426766791355000,9.96335498046875,-0.9928612099718301,9.743525143045186,-0.4983292416814714
1686426766801299700,9.9732998046875,-0.9902462051678448,9.743820911121368,-0.49775754274073986
1686426766811245000,9.9832451171875,-0.9871628521997481,9.744155842164158,-0.4973249600097537
1686426766821190000,9.99318994140625,-0.984125091939047,9.744476744681597,-0.4970624731486663
1686426766831134700,10.003134765625,-0.9819347422879189,9.744716398656367,-0.49670105595774944
1686426766841080000,10.013080078125,-0.9807684749875217,9.744859606519341,-0.49617790886647994
1686426766851025000,10.02302490234375,-0.9803497381187974,9.744940855062007,-0.4954167883008718
1686426766860969700,10.0329697265625,-0.980539853863418,9.744958975240587,-0.49469797250702974
1686426766870914800,10.042914794921876,-0.9809033534135669,9.744968327590822,-0.49377344154063607
1686426766880859000,10.05285888671875,-0.980833722243458,9.74502911786735,-0.4927218866610899
1686426766890803700,10.0628037109375,-0.9800454944752156,9.745151867464184,-0.4918605205914005
1686426766900749000,10.0727490234375,-0.9784525992605835,9.745347097775339,-0.49113834379669274
1686426766910694000,10.08269384765625,-0.9759004305597394,9.745633513501286,-0.4905594113975763
1686426766920638700,10.092638671875,-0.9724496325187385,9.745993578985333,-0.4902508934376761
1686426766930584000,10.102583984375,-0.9686388420589268,9.746374687257408,-0.49023847234752027
1686426766940529000,10.11252880859375,-0.9654488869111985,9.7466868219465,-0.4902963034819811
1686426766950473700,10.1224736328125,-0.9630025166723877,9.74691127835214,-0.4906517658561468
1686426766960418800,10.132418701171876,-0.9608635318823158,9.747091895616053,-0.4912506085321307
1686426766970364000,10.142364013671875,-0.9582197393752634,9.747330965068937,-0.4916771633811295
1686426766980309000,10.15230908203125,-0.9548057662133127,9.747637254539132,-0.49223684309050436
1686426766990253800,10.16225390625,-0.951498176035285,9.74793886783421,-0.49266938928887244
1686426767000199000,10.172198974609374,-0.948532238901779,9.748214177644252,-0.49293136469330634
1686426767010144000,10.18214404296875,-0.9454260895799845,9.748528065899015,-0.4926792165631428
1686426767020088800,10.1920888671875,-0.942507790980488,9.748842538675666,-0.49206510325279085
1686426767030034000,10.202033935546876,-0.9397179410662502,9.749172793543337,-0.49085664077848196
1686426767039979000,10.21197900390625,-0.9376122740238905,9.749452779528498,-0.48936136071942743
1686426767049923800,10.221923828125,-0.9358435107856988,9.749702954897284,-0.4877477515103295
1686426767059869000,10.231868896484375,-0.9341429904781281,9.749943193393944,-0.486183497868292
1686426767069814000,10.24181396484375,-0.9330704658757895,9.750110951176286,-0.48487489948775614
1686426767079758800,10.2517587890625,-0.9333283130943775,9.750128486832976,-0.4840360740434378
1686426767089703000,10.261702880859374,-0.9347669675953686,9.750020350283384,-0.4834331397142261
1686426767099648000,10.27164794921875,-0.9371657723654061,9.74980232361853,-0.48315728191491214
1686426767109592800,10.2815927734375,-0.9396823582962155,9.749565007731318,-0.4830726358387619
1686426767119538000,10.291537841796876,-0.9419164740238338,9.749333537063002,-0.4834020869888365
1686426767129483000,10.30148291015625,-0.9438227460365742,9.749112003266811,-0.4841461468217894
1686426767139427800,10.311427734375,-0.9451013146050273,9.748938984787463,-0.4851484557321295
1686426767149373000,10.321373046875,-0.9459862076807767,9.748789931705593,-0.4864264763113111
1686426767159318000,10.331318115234374,-0.9472574697256088,9.74860931444168,-0.48756384631078686
1686426767169262800,10.341262939453125,-0.9489446921601891,9.748397132995724,-0.48852216994892805
1686426767179207700,10.351207763671875,-0.950669908517599,9.748193719378113,-0.4892212946616113
1686426767189153000,10.361153076171876,-0.9526480036575347,9.747984460541606,-0.4895622535863891
1686426767199097900,10.371097900390625,-0.9544734655190259,9.747795075449346,-0.4897683340851217
1686426767209042700,10.381042724609374,-0.9561642681501805,9.747620887926221,-0.4899504126537591
1686426767218988000,10.390988037109375,-0.9574477320894599,9.74747417293191,-0.49036034516151994
1686426767228932900,10.400932861328124,-0.958325318641588,9.747367205426096,-0.4907439376516267
1686426767238878000,10.4108779296875,-0.9595702772013842,9.74723042730391,-0.49101409636251625
1686426767248823000,10.420822998046875,-0.9616386079080402,9.747018830379844,-0.49119416563715784
1686426767258768000,10.430767822265626,-0.9639568947877735,9.746770408576726,-0.49155602121949193
1686426767268713000,10.440712890625,-0.965831018096581,9.746565241393446,-0.4919814435573294
1686426767278657800,10.45065771484375,-0.9665506376080214,9.746459442931412,-0.4926171841775998
1686426767288603000,10.460602783203125,-0.9659415657989681,9.74648165476322,-0.493388716539368
1686426767298546700,10.470546630859374,-0.9643761431131511,9.746584530615806,-0.4944134199446067
1686426767308492000,10.480491943359375,-0.9628356356728821,9.746685068380833,-0.4954559878000989
1686426767318436900,10.490436767578124,-0.9619774114083498,9.746721308737992,-0.4964049590880051
1686426767328381700,10.500381591796875,-0.9620205198977142,9.746658764895797,-0.49755106038320807
1686426767338327000,10.5103271484375,-0.9623387190014123,9.746564656871557,-0.49877961579747493
1686426767348271900,10.52027197265625,-0.9631404638383537,9.746434308490157,-0.4997797327507287
1686426767358217000,10.530217041015625,-0.9646567866854369,9.746236740091442,-0.5006761336011811
1686426767368161800,10.540161865234374,-0.9667011519946157,9.745990656375884,-0.5015213157210499
1686426767378107000,10.55010693359375,-0.9687488783046603,9.745744572660326,-0.5023651461340487
1686426767388052000,10.560052001953125,-0.9704262369323521,9.74553297573626,-0.503235170434229
1686426767397996800,10.569996826171876,-0.9711902070421725,9.745406719008088,-0.5042146099256352
1686426767407942000,10.57994189453125,-0.9711657301880419,9.745352358472347,-0.5053059488262981
1686426767417887000,10.589886962890626,-0.970419953322038,9.74536521795392,-0.5064803629005328
1686426767427831800,10.599831787109375,-0.9695192781552672,9.74542191657722,-0.5071226063268259
1686426767437777000,10.60977685546875,-0.9690737263448536,9.745449389106035,-0.5074520209442824
1686426767447722000,10.619721923828125,-0.9681748047437518,9.745541743564605,-0.5073939706141128
1686426767457666800,10.629666748046875,-0.9662352149832993,9.7457574321419,-0.5069605841655284
1686426767467612000,10.63961181640625,-0.962916007432714,9.746112236928939,-0.5064341856712475
1686426767477557000,10.649556884765625,-0.9588099603533744,9.746561734262109,-0.5055830487346277
1686426767487501800,10.659501708984376,-0.9557049070101231,9.746927644965051,-0.5044050909964367
1686426767497447000,10.669447021484375,-0.9538557720120996,9.747159115633368,-0.5034115133818239
1686426767507392000,10.67939208984375,-0.9522449027493596,9.747344409072399,-0.5028684925463051
1686426767517337000,10.689337158203125,-0.9506901475880295,9.747518012073636,-0.5024357271522283
1686426767527281200,10.69928125,-0.9493893671877681,9.747656543761492,-0.5022319847410545
1686426767537226000,10.70922607421875,-0.9475742805898189,9.747835991981624,-0.5021963289057836
1686426767547171000,10.719171142578125,-0.9455630138326435,9.74803063777089,-0.5021968038298189
1686426767557116000,10.729115966796876,-0.9443051957912743,9.748150464758277,-0.5022428349286318
1686426767567061000,10.73906103515625,-0.9440862923435867,9.748175014677644,-0.5021407627936453
1686426767577006000,10.749006103515624,-0.9440626922722906,9.748186705115437,-0.5019923672989011
1686426767586951000,10.758950927734375,-0.9432270451657474,9.748287827402352,-0.5016029295898974
1686426767596896300,10.768896240234374,-0.9422826039224862,9.74842519004643,-0.5006897237351164
1686426767606841000,10.778841064453125,-0.941907194738835,9.748514037373662,-0.4996784643333405
1686426767616786000,10.788785888671875,-0.9414395772270858,9.748605222788452,-0.4987784467536956
1686426767626731300,10.798731201171876,-0.9408741253640502,9.748700499856472,-0.49797231800258157
1686426767636676000,10.808676025390625,-0.9408881538894027,9.74873907830119,-0.4971871589742601
1686426767646621000,10.818620849609376,-0.9413513874869793,9.748743169954418,-0.4962339133700356
1686426767656566000,10.82856591796875,-0.9414913074143231,9.748764797264338,-0.4955550642604008
1686426767666511000,10.838510986328124,-0.9411711355492473,9.748840200588107,-0.4946856610147282
1686426767676456000,10.8484560546875,-0.9411815838780253,9.748877609989046,-0.4939381671156734
1686426767686401000,10.858401123046875,-0.9414438880760222,9.74889046947062,-0.4931731010273099
1686426767696346000,10.86834619140625,-0.9416445252146571,9.748899821820855,-0.4925807611573487
1686426767706291000,10.878291015625,-0.9414739178881049,9.748957689487934,-0.4917732441667467
1686426767716236000,10.888236083984374,-0.941019598249346,9.74905822725296,-0.49063112492691724
1686426767726181000,10.89818115234375,-0.939638519154489,9.74924644330144,-0.4895440968751907
1686426767736126000,10.9081259765625,-0.9371185722228139,9.749549225640296,-0.4883686964202672
1686426767746071000,10.918071044921875,-0.9341774772696196,9.749891170945762,-0.48714978561718014
1686426767756015000,10.92801513671875,-0.9316945744127034,9.750180509281158,-0.4861356036059558
1686426767765960000,10.9379599609375,-0.9295490868166089,9.750422501343488,-0.48537791710644956
1686426767775905000,10.947905029296875,-0.9285297537062317,9.750544081896543,-0.48490471010413017
1686426767785850000,10.95785009765625,-0.9297999928377568,9.75043769891262,-0.4846011240476742
1686426767795795000,10.967794921875,-0.9329290846437215,9.750126148745418,-0.4848617477452382
1686426767805740000,10.977739990234374,-0.9369831823401152,9.749704123941063,-0.4855262760685756
1686426767815685000,10.98768505859375,-0.9413277874156832,9.74924410521388,-0.48634720053002234
1686426767825630000,10.9976298828125,-0.9460925906646996,9.748735571169853,-0.48727684606295074
1686426767835575000,11.007574951171875,-0.9505835454083978,9.748251002523302,-0.488231370308809
1686426767845520100,11.01752001953125,-0.9541108427517115,9.747837161025405,-0.48961730824187394
1686426767855465200,11.02746533203125,-0.9575953969318419,9.747407537436485,-0.49135425156969575
1686426767865410000,11.03741015625,-0.961586877720803,9.746918877136707,-0.4932300553789362
1686426767875355000,11.04735498046875,-0.9656156948454677,9.746423202574253,-0.49516668599732216
1686426767885300200,11.05730029296875,-0.9686069125507026,9.746041509780287,-0.49683947804775086
1686426767895245000,11.0672451171875,-0.9706298697456717,9.74577555232048,-0.4980885282607749
1686426767905190000,11.07718994140625,-0.9716068250190466,9.745620654019714,-0.4992365292521193
1686426767915135200,11.08713525390625,-0.9721873283207416,9.745529468604921,-0.49988315659258514
1686426767925080000,11.097080078125,-0.9728747991282493,9.745444712930917,-0.500210269655101
1686426767935025000,11.10702490234375,-0.9746305567543954,9.745276370626687,-0.5000644314436242
1686426767944970200,11.11697021484375,-0.9773615160882473,9.745029702389239,-0.49954782369099554
1686426767954915000,11.1269150390625,-0.9807469207428395,9.744739779531955,-0.49857510620132084
1686426767964860000,11.13685986328125,-0.9845096342772245,9.744421799623966,-0.4973582046922296
1686426767974805000,11.146804931640625,-0.9881178148370235,9.744127200591564,-0.4959994104944169
1686426767984750000,11.15675,-0.9917747299093752,9.743819157555698,-0.4947460128998384
1686426767994695000,11.16669482421875,-0.9953749463584274,9.743512283563613,-0.4935603833118453
1686426768004639200,11.17663916015625,-0.9978740696977824,9.743320560383797,-0.4922809379605576
1686426768014584000,11.186583984375,-0.9993836705431342,9.743229959490895,-0.49098443187661467
1686426768024529000,11.19652880859375,-1.0002726552721113,9.743209501224756,-0.4895974344976246
1686426768034474200,11.20647412109375,-1.0008251745883374,9.743216515487433,-0.4883572617108002
1686426768044419000,11.216419189453125,-1.0011887472037226,9.74323755827546,-0.48717700241766865
1686426768054364000,11.226364013671875,-1.0015251395512372,9.743253340366483,-0.48612573979906737
1686426768064309200,11.236309326171876,-1.001822076671198,9.74327438315451,-0.48512280983421946
1686426768074254000,11.246254150390625,-1.0023997304286807,9.743268537935615,-0.4840678208885714
1686426768084199000,11.256198974609376,-1.0032366196442395,9.743252755844592,-0.48262262704893943
1686426768094144000,11.26614404296875,-1.0044257563635706,9.74322060714066,-0.480828619771637
1686426768104089000,11.276089111328124,-1.005567473744601,9.74320073339641,-0.4788278378758579
1686426768114034200,11.2860341796875,-1.0062944728448986,9.743222945228219,-0.4768192745324224
1686426768123979000,11.29597900390625,-1.0064108657661825,9.743287827157973,-0.47524395150709897
1686426768133924000,11.305924072265626,-1.0056653811611234,9.743429865977168,-0.4739192787745967
1686426768143869200,11.315869140625,-1.0055911468811332,9.743487149122357,-0.4729270163342356
1686426768153814000,11.32581396484375,-1.0067852520365268,9.743381350660323,-0.47255062076989557
1686426768163759000,11.335759033203125,-1.0095297284390776,9.743065708839893,-0.473210984374769
1686426768173704200,11.3457041015625,-1.012638581174612,9.74264251499176,-0.47525604380369185
1686426768183649000,11.35564892578125,-1.015355000526458,9.742198278355598,-0.4785527837941423
1686426768193593900,11.36559375,-1.0172496551666408,9.74178151424825,-0.48302185549959537
1686426768203539200,11.375539306640626,-1.018502943163365,9.741391053625941,-0.4881929745271802
1686426768213484000,11.385484130859375,-1.0191719284661114,9.74105495353937,-0.4934872084777802
1686426768223428900,11.395428955078126,-1.0197923984520136,9.740734051021933,-0.498522133905068
1686426768233374200,11.405374267578125,-1.0206212504915892,9.740416071113943,-0.5029996081126854
1686426768243319000,11.415319091796874,-1.021851157612726,9.740120887559652,-0.5062419510347769
1686426768253263000,11.42526318359375,-1.02360406569466,9.739821027830242,-0.5084158975403755
1686426768263208200,11.435208251953124,-1.0258484105553478,9.739536950191855,-0.5093373232342302
1686426768273153000,11.445153076171875,-1.0285404261182993,9.739255795162915,-0.5092836933508516
1686426768283097900,11.455097900390625,-1.0316255326520651,9.738970548480749,-0.5085327653856948
1686426768293043200,11.465043212890626,-1.0354728557299822,9.738635032916068,-0.507121619946137
1686426768302988000,11.474988037109375,-1.0395540606290101,9.738289580479263,-0.5054033447861671
1686426768312932900,11.484932861328126,-1.0430293355241418,9.738013686147331,-0.5035545751143247
1686426768322878200,11.494878173828125,-1.045375387193635,9.737840667667985,-0.5020311284067109
1686426768332823000,11.504822998046874,-1.0463677592318505,9.737806765398382,-0.500619581108354
1686426768342767900,11.514767822265625,-1.046076448135078,9.737900288900732,-0.49941955766882745
1686426768352713200,11.524713134765625,-1.0447909383691847,9.738095519211887,-0.4983120348183438
1686426768362658000,11.534657958984376,-1.0429194454088806,9.738345110058784,-0.49735100776646285
1686426768372603100,11.54460302734375,-1.0403666191209107,9.738673611360788,-0.49627011719457803
1686426768382548000,11.5545478515625,-1.0374472976081073,9.739031338757275,-0.49536151444967835
1686426768392493000,11.5644931640625,-1.0347901341628283,9.739367438843846,-0.494310251831077
1686426768402438100,11.574438232421874,-1.0326190006688236,9.739667298573256,-0.4929457585448399
1686426768412383000,11.584383056640625,-1.0306275345906615,9.739965404736996,-0.49119906100798394
1686426768422328000,11.594328125,-1.0288273533008991,9.740269940641522,-0.48892399221546945
1686426768432273200,11.604273193359376,-1.027707847751677,9.740511932703852,-0.48641931591816245
1686426768442218000,11.614218017578125,-1.0269367903139441,9.740733466500043,-0.4836211000343784
1686426768452163000,11.6241630859375,-1.026224842652306,9.740942140814662,-0.480926344525069
1686426768462108200,11.634108154296875,-1.025033733171597,9.741201084011793,-0.4782072217594832
1686426768472053000,11.644052978515624,-1.023947253109142,9.741439568942784,-0.4756731001719832
1686426768481998000,11.653998046875,-1.0236576955780385,9.74159797437489,-0.4730381485585123
1686426768491943200,11.663943115234375,-1.0237027037635444,9.741716632318496,-0.4704922634679824
1686426768501888000,11.673887939453126,-1.0240664955746381,9.741787359467148,-0.4682380913330242
1686426768511831800,11.683831787109375,-1.0242552230797708,9.741869192531704,-0.46614057106450196
1686426768521776600,11.693776611328126,-1.0244129709247498,9.741956870815157,-0.46393955388888714
1686426768531721700,11.7037216796875,-1.0240603580947965,9.742087219196558,-0.4619802730472758
1686426768541666800,11.713666748046874,-1.022945967112109,9.742275435245036,-0.4605022729165852
1686426768551611600,11.723611572265625,-1.0215398266412317,9.7424759262532,-0.45935233569648115
1686426768561556700,11.733556640625,-1.0204906829144804,9.742614457941055,-0.4587702249595895
1686426768571501800,11.743501708984375,-1.0193044688045978,9.742741883713006,-0.45869105877615507
1686426768581447000,11.753447021484375,-1.0175396510891617,9.74290204271078,-0.4591940763948485
1686426768591391700,11.763391845703126,-1.0157357434723526,9.743045835095643,-0.46012383152563124
1686426768601336800,11.7733369140625,-1.0139525133173912,9.743175014433264,-0.4613354723377153
1686426768611282000,11.783281982421874,-1.0122506778355687,9.743269706979394,-0.4630718676762655
1686426768621226800,11.793226806640625,-1.0103933595310897,9.743360892394184,-0.46521735527236013
1686426768631171600,11.803171630859374,-1.0087997336640953,9.743417006495594,-0.46748628658503294
1686426768641117000,11.813116943359375,-1.0070877421144395,9.74347955033779,-0.46985809375029053
1686426768651061800,11.823061767578125,-1.0052877069551498,9.743548523920774,-0.4722836403967812
1686426768661006600,11.833006591796876,-1.0034824841640888,9.743609314197302,-0.4748628432350233
1686426768670952000,11.842951904296875,-1.0016416786029934,9.743666597342491,-0.4775664761705324
1686426768680896800,11.852896728515624,-1.0003507620096206,9.743677118736505,-0.4800738558815792
1686426768690841600,11.862841552734375,-0.9995581503272056,9.743636786726116,-0.48251470969505605
1686426768700787000,11.872786865234374,-0.9987185576979071,9.74360989871919,-0.48477969548497346
1686426768710731800,11.882731689453125,-0.9976301048740744,9.743622173678874,-0.4867619918759912
1686426768720676600,11.892676513671875,-0.9965803035601973,9.743654322382808,-0.4882689258402213
1686426768730621700,11.90262158203125,-0.9958220325388014,9.743673027083277,-0.48946080250591034
1686426768740566800,11.91256689453125,-0.9953813760992138,9.743681210389733,-0.4901972635542974
1686426768750511900,11.922511962890624,-0.9949870430193841,9.743703422221541,-0.4905222942575812
1686426768760456700,11.932456787109375,-0.9942231459747999,9.743767135107516,-0.4908098059620708
1686426768770401800,11.94240185546875,-0.9932353770464658,9.743862412175536,-0.49093226329796014
1686426768780347000,11.952346923828125,-0.9919377384513616,9.74400094386339,-0.49078967648949473
1686426768790291700,11.962291748046875,-0.9904579482223838,9.744164609992504,-0.490549255329743
1686426768800235800,11.97223583984375,-0.98903843681328,9.744331198731064,-0.4900934378536418
1686426768810180600,11.9821806640625,-0.9880947262223809,9.744466223287581,-0.4893501817382872
1686426768820125700,11.992125732421876,-0.9874392579883337,9.74458020505607,-0.4883869627293199
1686426768830070800,12.00207080078125,-0.9868172536324709,9.74469360230267,-0.48736781228203324
1686426768840016000,12.012015869140624,-0.9861141468644141,9.744815767377615,-0.4863368617990985
1686426768849960700,12.021960693359375,-0.9851678059250116,9.744965404981373,-0.48524625355079765
1686426768859905800,12.03190576171875,-0.9838144185546785,9.74515829720497,-0.4841043169740587
1686426768869851000,12.041850830078126,-0.982237670757249,9.74538275361061,-0.4828320320159197
1686426768879795700,12.051795654296875,-0.9803343944191932,9.745631175413727,-0.48167738208808003
1686426768889740800,12.06174072265625,-0.9779851278793066,9.745914668530226,-0.4806988924447447
1686426768899686000,12.071685791015625,-0.9752312991265207,9.746234986525774,-0.47983255793899293
1686426768909630700,12.081630615234374,-0.9725525083713233,9.746546536692977,-0.4789396276872605
1686426768919575800,12.091575927734375,-0.9697956839438527,9.7468569178164,-0.47820269171483815
1686426768929521000,12.10152099609375,-0.9667042207345365,9.747183081030846,-0.47779060378260907
1686426768939465700,12.1114658203125,-0.9635804626908153,9.747495800241827,-0.4777124970450997
1686426768949410600,12.12141064453125,-0.9611053047489374,9.747727270910143,-0.4779985474448651
1686426768959356000,12.13135595703125,-0.9597411037236452,9.747850020506977,-0.4782345116252079
1686426768969300700,12.14130078125,-0.9586750819273292,9.747933607137202,-0.4786622720506042
1686426768979245600,12.15124560546875,-0.9577837591107934,9.74799205932617,-0.4792590323673561
1686426768989191000,12.16119091796875,-0.9567523702364414,9.748055187690257,-0.48004926942959425
1686426768999135700,12.1711357421875,-0.955162470696494,9.748167415893077,-0.48093416250534354
1686426769009080800,12.181080810546876,-0.9532475769858807,9.748321145150065,-0.4816204277364537
1686426769019026000,12.19102587890625,-0.9513254498168826,9.748493579107523,-0.48194081879723816
1686426769028970800,12.200970703125,-0.9493232431489974,9.74870400698781,-0.48161662834417074
1686426769038915800,12.210915771484375,-0.9470642852410673,9.748966457316278,-0.48073984550964083
1686426769048860700,12.220860595703124,-0.9439172193869948,9.74933587515056,-0.4794290186394006
1686426769058805800,12.2308056640625,-0.9395204457327723,9.74984265562892,-0.4777678439615294
1686426769068750800,12.240750732421875,-0.9345747329588979,9.750411979949474,-0.47583738735560327
1686426769078695700,12.25069580078125,-0.9294119433682412,9.751012868452072,-0.4736139391524717
1686426769088639700,12.2606396484375,-0.9240075270414352,9.751638306874037,-0.47131490496248
1686426769098584600,12.27058447265625,-0.9190432556975633,9.75223042754829,-0.4687556124011054
1686426769108530000,12.280530029296875,-0.9145913177900016,9.752779878124594,-0.4660093459002673
1686426769118474800,12.290474853515626,-0.910516469566524,9.753298933562636,-0.4631174969162792
1686426769128419800,12.300419921875,-0.9067758217334747,9.753789347428082,-0.46014892943426966
1686426769138364700,12.31036474609375,-0.903210384336859,9.754256964939833,-0.45723187294378875
1686426769148309800,12.320309814453125,-0.9000838498141616,9.75466905287206,-0.45462472265269604
1686426769158254800,12.3302548828125,-0.8975014321055262,9.755015674352645,-0.4522818493209779
1686426769168199700,12.34019970703125,-0.8949639495171606,9.7553412530452,-0.4502842092303559
1686426769178144800,12.350144775390625,-0.8923515019964426,9.75565981747508,-0.44855639905706046
1686426769188089900,12.36008984375,-0.8898968023207038,9.755943895113468,-0.44724659510012715
1686426769198034700,12.37003466796875,-0.8875756658967584,9.75619874665737,-0.44629945044312624
1686426769207979800,12.379979736328124,-0.8855003209274261,9.756411512625217,-0.4457808699291199
1686426769217924900,12.3899248046875,-0.8835572240356355,9.756608496502041,-0.4453513559380546
1686426769227869700,12.39986962890625,-0.8818295965254306,9.756766317412257,-0.44525710178334266
1686426769237814800,12.409814697265626,-0.8798873764164745,9.756944012066722,-0.44524245220348235
1686426769247760000,12.419759765625,-0.8779362423487007,9.757117615067958,-0.4452804826589301
1686426769257704700,12.42970458984375,-0.8760841116759925,9.757284788328409,-0.44525962253399193
1686426769267649800,12.43964990234375,-0.8743976929590106,9.757429749757051,-0.4453844910226762
1686426769277595000,12.449594970703124,-0.8729078197274357,9.757553668397664,-0.4455809634428471
1686426769287539700,12.459539794921875,-0.871091198759526,9.757703890523313,-0.44588659532591696
1686426769297484800,12.46948486328125,-0.8693086992569268,9.757851774561404,-0.44612657809425144
1686426769307430000,12.479429931640626,-0.8677372852217405,9.757984461030363,-0.4462937513547018
1686426769317374700,12.489374755859375,-0.866121374457702,9.75812123915255,-0.4464102173412218
1686426769327319800,12.49931982421875,-0.864637711771205,9.758249249446392,-0.44649267146028576
1686426769337265000,12.509264892578125,-0.8626492413677275,9.758426359578966,-0.446472651585564
1686426769347209700,12.519209716796874,-0.8601349204592407,9.758633280327915,-0.4468096649875864
1686426769357154800,12.52915478515625,-0.8574389593735336,9.758852476036548,-0.4472217163871974
1686426769367099600,12.539099609375,-0.8549418087955564,9.759036600431799,-0.447964643708989
1686426769377044700,12.549044677734376,-0.852903507900983,9.759174547597766,-0.4488530073834583
1686426769386989800,12.55898974609375,-0.8512611475214361,9.759267486578226,-0.449950849090144
1686426769396934700,12.5689345703125,-0.8499128747176379,9.759320678070187,-0.4513595103116706
1686426769406879700,12.578879638671875,-0.8486639706350863,9.759354580339789,-0.45294392995890226
1686426769416823800,12.58882373046875,-0.8469502985849976,9.759422969400882,-0.45466859832704065
1686426769426769000,12.598768798828125,-0.8448719579409807,9.75950071081221,-0.4568426544304937
1686426769436713700,12.608713623046874,-0.8423750996239483,9.759635150846838,-0.45859278603345155
1686426769446658800,12.618658935546875,-0.8396110417380929,9.759805246716738,-0.4600582920087501
1686426769456603600,12.628603759765625,-0.8368578705724328,9.759978265196084,-0.46139779698420313
1686426769466548700,12.638548828125,-0.8349609509099274,9.760086401745676,-0.4625261434270069
1686426769476493800,12.648493896484375,-0.8339742048949003,9.760127902799844,-0.46342122910320754
1686426769486438700,12.658438720703124,-0.8325967790618538,9.760205644211172,-0.4642507021972909
1686426769496383700,12.6683837890625,-0.8307846881385892,9.760323133111,-0.46505350648015736
1686426769506328800,12.678328857421874,-0.8286402965210378,9.760470432627201,-0.4657928901379928
1686426769516274200,12.688274169921876,-0.8272739035386591,9.760555188301206,-0.46644645867589857
1686426769526219300,12.69821923828125,-0.8271087761048227,9.760552850213646,-0.4667901940796524
