time,seconds_elapsed,z,y,x
1686426756925999900,0.097999755859375,0.12443619966506958,0.5858192443847656,0.5568699240684509
1686426756935944700,0.10794482421875,0.10925538092851639,0.6187436580657959,0.593403160572052
1686426756945889800,0.117889892578125,0.08315427601337433,0.6370494365692139,0.5990330576896667
1686426756955835000,0.1278349609375,0.059545885771512985,0.6784852743148804,0.5870949029922485
1686426756965779700,0.13777978515625,0.07227339595556259,0.8036016821861267,0.5645549893379211
1686426756975724800,0.147724853515625,0.12042494863271713,0.9303313493728638,0.5295581221580505
1686426756985668600,0.157668701171875,0.1853456199169159,1.0229103565216064,0.49149808287620544
1686426756995613700,0.16761376953125,0.24469390511512756,1.0582659244537354,0.4465958774089813
1686426757005558800,0.177558837890625,0.26676592230796814,1.0387217998504639,0.39037200808525085
1686426757015504000,0.18750390625,0.24205949902534485,0.9410591125488281,0.31985923647880554
1686426757025448700,0.19744873046875,0.16502517461776733,0.7553563714027405,0.25757667422294617
1686426757035393800,0.207393798828125,0.04687776044011116,0.5784220695495605,0.20429055392742157
1686426757045339000,0.2173388671875,-0.2077135145664215,0.6212345361709595,0.13535623252391815
1686426757055283700,0.22728369140625,-0.4835842549800873,0.707728922367096,0.046900395303964615
1686426757065228800,0.237228759765625,-0.5866432785987854,0.7398208379745483,-0.02924976497888565
1686426757075172600,0.247172607421875,-0.45088887214660645,0.6800270080566406,-0.053513556718826294
1686426757085117700,0.25711767578125,-0.2164103388786316,0.6826128959655762,0.019347332417964935
1686426757095062800,0.267062744140625,-0.02593066729605198,1.0479216575622559,0.12786981463432312
1686426757105007900,0.2770078125,0.05644090473651886,1.6642870903015137,0.23965279757976532
1686426757114952700,0.28695263671875,0.03976579010486603,2.347728729248047,0.3577890396118164
1686426757124897800,0.296897705078125,-0.04657043144106865,2.9133822917938232,0.44361019134521484
1686426757134843000,0.3068427734375,-0.20083510875701904,3.4055705070495605,0.46765029430389404
1686426757144787700,0.31678759765625,-0.3953462541103363,3.8135972023010254,0.4124586582183838
1686426757154731800,0.326731689453125,-0.5827491879463196,4.041382312774658,0.3034789264202118
1686426757164676600,0.336676513671875,-0.7318827509880066,4.110074043273926,0.17307138442993164
1686426757174621700,0.34662158203125,-0.833101212978363,4.026154518127441,0.04055222123861313
1686426757184566800,0.35656689453125,-0.8777675032615662,3.8213088512420654,-0.055455002933740616
1686426757194511600,0.36651171875,-0.8940444588661194,3.643791913986206,-0.0804104208946228
1686426757204456700,0.376456787109375,-0.900052547454834,3.595813274383545,-0.01534540019929409
1686426757214401800,0.38640185546875,-0.9267305135726929,3.6815943717956543,0.1386718600988388
1686426757224347000,0.396346923828125,-0.9772264361381531,3.8707339763641357,0.35370588302612305
1686426757234291700,0.406291748046875,-1.0252200365066528,4.105293273925781,0.6032893657684326
1686426757244235800,0.41623583984375,-1.0665150880813599,4.120590686798096,0.814565896987915
1686426757254180600,0.4261806640625,-1.126067876815796,4.291326522827148,1.0194522142410278
1686426757264125700,0.436125732421875,-1.2065805196762085,4.484043598175049,1.18413245677948
1686426757274070800,0.44607080078125,-1.3080483675003052,4.731606483459473,1.332803726196289
1686426757284015600,0.456015625,-1.4320664405822754,4.978397369384766,1.4791526794433594
1686426757293960700,0.465960693359375,-1.5131473541259766,5.072366714477539,1.6345915794372559
1686426757303905800,0.47590576171875,-1.5332117080688477,5.025786399841309,1.8270549774169922
1686426757313851000,0.485850830078125,-1.5283873081207275,4.812577247619629,2.0003554821014404
1686426757323795000,0.495794921875,-1.4558383226394653,4.531336784362793,2.0820822715759277
1686426757333739800,0.50573974609375,-1.3308351039886475,4.362873077392578,2.0436291694641113
1686426757343684600,0.5156845703125,-1.2502774000167847,4.265651226043701,1.8811630010604858
1686426757353630000,0.5256298828125,-1.2355778217315674,4.1805925369262695,1.6122113466262817
1686426757363574800,0.53557470703125,-1.2240934371948242,4.058755874633789,1.283362627029419
1686426757373519600,0.54551953125,-1.2240415811538696,3.895683526992798,0.9978328943252563
1686426757383464700,0.555464599609375,-1.3076778650283813,3.6662003993988037,0.8244187831878662
1686426757393409800,0.565409912109375,-1.4660345315933228,3.298917531967163,0.8098174929618835
1686426757403355000,0.57535498046875,-1.665087342262268,2.7486679553985596,0.998968780040741
1686426757413299000,0.585298828125,-1.9877959489822388,2.1967124938964844,1.3624769449234009
1686426757423243800,0.595243896484375,-2.394641160964966,1.5551968812942505,1.8487259149551392
1686426757433188600,0.605188720703125,-2.8218185901641846,0.9530451893806458,2.359337568283081
1686426757443134000,0.615134033203125,-3.201946258544922,0.5735988020896912,2.727649688720703
1686426757453078800,0.625078857421875,-3.4964287281036377,0.5817632675170898,2.902784824371338
1686426757463023600,0.635023681640625,-3.60172700881958,0.8486881852149963,2.932199478149414
1686426757472968700,0.64496875,-3.4530279636383057,1.2153948545455933,2.8745615482330322
1686426757482913800,0.654913818359375,-3.173306703567505,1.5082000494003296,2.779698133468628
1686426757492857600,0.664857666015625,-2.9184062480926514,1.667785406112671,2.761557102203369
1686426757502802700,0.674802734375,-2.78236985206604,1.6343052387237549,2.8714489936828613
1686426757512747500,0.68474755859375,-2.7545127868652344,1.3869253396987915,3.086317539215088
1686426757522692400,0.6946923828125,-2.768256664276123,1.021630883216858,3.3355472087860107
1686426757532637700,0.7046376953125,-2.779649019241333,0.7001421451568604,3.549760341644287
1686426757542582500,0.71458251953125,-2.7551429271698,0.49607500433921814,3.716261863708496
1686426757552527400,0.72452734375,-2.661097764968872,0.44552502036094666,3.8414864540100098
1686426757562472700,0.73447265625,-2.5034523010253906,0.5935512185096741,3.9408018589019775
1686426757572417500,0.74441748046875,-2.332916498184204,0.7762352824211121,3.9946885108947754
1686426757582361300,0.754361328125,-2.2427029609680176,0.8567940592765808,3.9829225540161133
1686426757592306700,0.764306640625,-2.2433125972747803,0.717435896396637,3.9155709743499756
1686426757602251500,0.77425146484375,-2.2504992485046387,0.44875675439834595,3.7872555255889893
1686426757612196400,0.7841962890625,-2.1719412803649902,0.10623536258935928,3.6021244525909424
1686426757622141700,0.7941416015625,-2.003568172454834,-0.17630764842033386,3.3601973056793213
1686426757632086500,0.80408642578125,-1.7473937273025513,-0.36966779828071594,3.094785451889038
1686426757642031400,0.81403125,-1.3651657104492188,-0.4418730139732361,2.8400955200195312
1686426757651976700,0.823976806640625,-0.8751869201660156,-0.3973945081233978,2.6102545261383057
1686426757661921500,0.833921630859375,-0.3539394438266754,-0.32204994559288025,2.3577146530151367
1686426757671865300,0.843865234375,0.10058226436376572,-0.2776241600513458,2.05279278755188
1686426757681810700,0.853810791015625,0.43499672412872314,-0.2850072383880615,1.7082077264785767
1686426757691755500,0.863755615234375,0.6576521992683411,-0.38786572217941284,1.321004867553711
1686426757701700400,0.873700439453125,0.7842628359794617,-0.5526988506317139,0.926639974117279
1686426757711645700,0.883645751953125,0.8399718999862671,-0.6728731989860535,0.5836660861968994
1686426757721590500,0.893590576171875,0.8817300200462341,-0.7299050688743591,0.3440103828907013
1686426757731535400,0.903535400390625,0.9476445913314819,-0.7604534029960632,0.2307772934436798
1686426757741480700,0.913480712890625,1.0346721410751343,-0.7094719409942627,0.2048998773097992
1686426757751425500,0.923425537109375,1.148535132408142,-0.5875551104545593,0.21882422268390656
1686426757761369300,0.933369384765625,1.277674674987793,-0.43507662415504456,0.2355792373418808
1686426757771314700,0.943314697265625,1.3824580907821655,-0.26678216457366943,0.2757415771484375
1686426757781259500,0.953259521484375,1.410812258720398,-0.14783340692520142,0.28471508622169495
1686426757791204400,0.963204345703125,1.302464485168457,0.1296996772289276,0.13031406700611115
1686426757801149700,0.973149658203125,1.0841100215911865,0.4846140742301941,-0.27286002039909363
1686426757811094500,0.983094482421875,0.8537119626998901,0.6510757803916931,-0.7480601072311401
1686426757821039400,0.993039306640625,0.5654317140579224,0.6394662261009216,-1.1523298025131226
1686426757830984700,1.002984619140625,0.18428808450698853,0.647433876991272,-1.107926368713379
1686426757840929500,1.012929443359375,-0.08973494917154312,0.6628488302230835,-0.7964273691177368
1686426757850873300,1.022873291015625,-0.10064378380775452,0.8757200837135315,-0.5516493320465088
1686426757860818700,1.032818603515625,0.08825050294399261,1.227235198020935,-0.18004673719406128
1686426757870763500,1.042763427734375,0.25709623098373413,1.4623998403549194,0.1764887422323227
1686426757880708400,1.052708251953125,0.4268362820148468,1.4377487897872925,0.44159629940986633
1686426757890653700,1.06265380859375,0.5074533820152283,1.396928071975708,0.6469071507453918
1686426757900598500,1.0725986328125,0.43252772092819214,1.2913851737976074,0.5482966899871826
1686426757910543400,1.08254345703125,0.28769516944885254,1.042610764503479,0.35288187861442566
1686426757920488700,1.09248876953125,0.07834327220916748,0.7958484292030334,0.23349690437316895
1686426757930433500,1.10243359375,-0.1393243372440338,0.5444347858428955,0.104126937687397
1686426757940377600,1.112377685546875,-0.2697230875492096,0.3505609333515167,-0.016746489331126213
1686426757950322700,1.12232275390625,-0.3424934446811676,0.2345869392156601,-0.04580184444785118
1686426757960267500,1.132267578125,-0.27631786465644836,0.13055561482906342,-0.09143377840518951
1686426757970212400,1.14221240234375,-0.1115395799279213,0.25479793548583984,-0.060930993407964706
1686426757980157700,1.15215771484375,0.023853667080402374,0.4282171130180359,-0.009334113448858261
1686426757990102500,1.1621025390625,-0.005782788153737783,0.5107607245445251,-0.06022072955965996
1686426758000047400,1.17204736328125,-0.15374642610549927,0.410085529088974,-0.07490912824869156
1686426758009992700,1.18199267578125,-0.41185012459754944,0.18350590765476227,-0.24962075054645538
1686426758019937500,1.1919375,-0.7823488116264343,-0.2943029999732971,-0.3838517963886261
1686426758029881600,1.201881591796875,-1.0510982275009155,-0.891608476638794,-0.44294387102127075
1686426758039826700,1.21182666015625,-1.1122633218765259,-1.2001044750213623,-0.5848650336265564
1686426758049771500,1.221771484375,-1.0282355546951294,-1.2575092315673828,-0.7392271757125854
1686426758059716400,1.23171630859375,-0.9469425678253174,-1.0472694635391235,-0.8479083776473999
1686426758069661700,1.24166162109375,-0.9414258599281311,-0.8264632821083069,-0.8556776642799377
1686426758079606500,1.2516064453125,-1.0780584812164307,-0.7639213800430298,-0.7511757612228394
1686426758089551400,1.26155126953125,-1.3516876697540283,-0.6710814237594604,-0.5859420299530029
1686426758099496700,1.27149658203125,-1.7232582569122314,-0.6867591738700867,-0.5164963603019714
1686426758109440500,1.2814404296875,-2.174118995666504,-0.751503586769104,-0.5475382208824158
1686426758119385600,1.291385498046875,-2.509948968887329,-0.75838303565979,-0.4822097718715668
1686426758129330700,1.30133056640625,-2.4613454341888428,-0.6327676177024841,-0.40571129322052
1686426758139275500,1.311275634765625,-2.319077491760254,-0.21347633004188538,-0.3561301529407501
1686426758149220400,1.321220458984375,-2.1646270751953125,0.280333936214447,-0.2783477306365967
1686426758159165700,1.331165771484375,-1.9820549488067627,0.7863653898239136,-0.1788882613182068
1686426758169110500,1.341110595703125,-1.7653309106826782,1.142939805984497,-0.09324286133050919
1686426758179055400,1.351055419921875,-1.4381275177001953,1.3242347240447998,-0.00589650496840477
1686426758189000700,1.361000732421875,-1.1634093523025513,1.0679636001586914,0.009381251409649849
1686426758198944500,1.370944580078125,-0.9649255871772766,0.7467370629310608,0.012064386159181595
1686426758208889600,1.3808896484375,-0.827785313129425,0.34657925367355347,0.05559641495347023
1686426758218834700,1.390834716796875,-0.8664722442626953,-0.06603840738534927,0.16062642633914948
1686426758228779500,1.400779541015625,-1.1086241006851196,-0.3456745743751526,0.27497032284736633
1686426758238724400,1.410724365234375,-1.4625521898269653,-0.5605030059814453,0.32587185502052307
1686426758248669700,1.420669677734375,-1.7416844367980957,-0.5717055797576904,0.33535537123680115
1686426758258614500,1.430614501953125,-1.9758177995681763,-0.813229501247406,0.32125499844551086
1686426758268559400,1.440559326171875,-2.107588768005371,-1.7495026588439941,0.10394024848937988
1686426758278504700,1.450504638671875,-2.2173309326171875,-0.9056771397590637,0.12165506184101105
1686426758288448500,1.460448486328125,-2.046356678009033,0.08453166484832764,0.32451096177101135
1686426758298393600,1.4703935546875,-1.7229349613189697,0.346878319978714,0.5686504244804382
1686426758308338400,1.48033837890625,-1.4503660202026367,0.22415293753147125,0.7538080215454102
1686426758318283500,1.490283447265625,-1.28475821018219,0.10044112056493759,0.7977650761604309
1686426758328228400,1.500228271484375,-1.181415319442749,0.07348566502332687,0.7600848078727722
1686426758338173700,1.510173583984375,-1.080647587776184,0.0184615645557642,0.6802264451980591
1686426758348118500,1.520118408203125,-1.042089581489563,0.13134630024433136,0.6589547395706177
1686426758358063400,1.5300634765625,-0.972666323184967,0.1945231407880783,0.5597972273826599
1686426758368008700,1.5400087890625,-0.9304845333099365,0.2021682858467102,0.47456198930740356
1686426758377952500,1.549952392578125,-0.8903522491455078,0.20901820063591003,0.3489651679992676
1686426758387897600,1.559897705078125,-0.8301355242729187,0.19069644808769226,0.21164193749427795
1686426758397842400,1.569842529296875,-0.7989984154701233,0.1912304162979126,0.12756621837615967
1686426758407787500,1.57978759765625,-0.9732292890548706,0.212758868932724,0.1001545637845993
1686426758417732400,1.589732421875,-1.4668678045272827,0.1536787748336792,0.12014185637235641
1686426758427677700,1.599677734375,-2.020200252532959,-0.00010120012302650139,0.2705385386943817
1686426758437622500,1.60962255859375,-2.579111099243164,-0.01076715998351574,0.5421604514122009
1686426758447567400,1.6195673828125,-2.9584264755249023,0.42248573899269104,0.7867281436920166
1686426758457512700,1.6295126953125,-3.2836413383483887,0.8754452466964722,0.9514712691307068
1686426758467456500,1.63945654296875,-3.765061855316162,1.1144766807556152,1.0863447189331055
1686426758477401600,1.649401611328125,-4.22880744934082,1.0062674283981323,1.2328803539276123
1686426758487346400,1.659346435546875,-4.444868564605713,0.6036243438720703,1.4171007871627808
1686426758497291500,1.66929150390625,-4.3969902992248535,0.118930384516716,1.6237623691558838
1686426758507237400,1.6792373046875,-4.201557636260986,-0.20011845231056213,1.7334164381027222
1686426758517182500,1.689182373046875,-3.9186885356903076,-0.32470938563346863,1.6166373491287231
1686426758527127600,1.69912744140625,-3.508058547973633,-0.15785488486289978,1.2715286016464233
1686426758537072400,1.709072265625,-3.0055747032165527,0.030786141753196716,0.8266132473945618
1686426758547017500,1.719017578125,-2.518263101577759,0.01312272623181343,0.40538159012794495
1686426758556961500,1.72896142578125,-2.1302547454833984,-0.22786352038383484,0.09524662047624588
1686426758566906400,1.73890625,-1.8702869415283203,-0.5452236533164978,-0.0692182183265686
1686426758576851700,1.748851806640625,-1.6942557096481323,-0.8422313332557678,-0.15127234160900116
1686426758586796500,1.758796630859375,-1.568687915802002,-1.0889918804168701,-0.21700847148895264
1686426758596741400,1.768741455078125,-1.4608317613601685,-1.0877060890197754,-0.27319905161857605
1686426758606686700,1.778686767578125,-1.3629204034805298,-0.8078725934028625,-0.2787940800189972
1686426758616631600,1.788631591796875,-1.310533881187439,-0.4915580153465271,-0.23024359345436096
1686426758626576400,1.798576416015625,-1.2998896837234497,-0.1303257793188095,-0.024345818907022476
1686426758636521500,1.808521484375,-1.3050074577331543,-0.13945217430591583,0.1688515990972519
1686426758646465500,1.818465576171875,-1.4070653915405273,-0.18843409419059753,0.302938312292099
1686426758656410400,1.828410400390625,-1.5691105127334595,-0.15518079698085785,0.37574273347854614
1686426758666355700,1.838355712890625,-1.6446380615234375,-0.0863383486866951,0.375039666891098
1686426758676300500,1.848300537109375,-1.7523740530014038,-0.045037250965833664,0.3263285756111145
1686426758686245400,1.858245361328125,-1.8835715055465698,0.05764412134885788,0.39704856276512146
1686426758696190700,1.868190673828125,-1.974622130393982,-0.003263970138505101,0.4792981445789337
1686426758706135600,1.878135498046875,-2.0519773960113525,-0.11841559410095215,0.45624902844429016
1686426758716080400,1.888080322265625,-2.0481324195861816,-0.05609123036265373,0.39294862747192383
1686426758726025500,1.898025390625,-1.9341151714324951,0.09288732707500458,0.3577035367488861
1686426758735969500,1.907969482421875,-1.8217699527740479,0.24221156537532806,0.418083518743515
1686426758745914400,1.917914306640625,-1.7962400913238525,0.4440687894821167,0.5999431014060974
1686426758755859700,1.927859619140625,-1.8320809602737427,0.792833685874939,0.8651095032691956
1686426758765804500,1.937804443359375,-1.9462839365005493,1.0599538087844849,1.184494972229004
1686426758775749400,1.947749267578125,-2.0886759757995605,1.0155205726623535,1.47194504737854
1686426758785694700,1.95769482421875,-2.0858535766601562,1.3266065120697021,1.6939496994018555
1686426758795639600,1.9676396484375,-1.5035525560379028,1.8194961547851562,1.5758219957351685
1686426758805584400,1.97758447265625,-0.9315180778503418,1.6928918361663818,1.1129502058029175
1686426758815529500,1.987529541015625,-0.8273442983627319,1.4014488458633423,0.822350025177002
1686426758825473500,1.9974736328125,-0.6452815532684326,1.318386197090149,0.8050123453140259
1686426758835418400,2.00741845703125,-0.2842809855937958,1.1204427480697632,0.855521559715271
1686426758845363700,2.01736376953125,0.01016794890165329,0.1529780924320221,0.4693872034549713
1686426758855308500,2.02730859375,0.0846850574016571,0.023185480386018753,0.15445135533809662
1686426758865253400,2.03725341796875,0.03883075341582298,0.233342707157135,0.03068733960390091
1686426758875198700,2.04719873046875,-0.06265432387590408,0.3868963122367859,0.08411914110183716
1686426758885143600,2.0571435546875,-0.15637309849262238,0.493205726146698,0.3487875461578369
1686426758895088400,2.06708837890625,-0.1891307681798935,0.3463989496231079,0.4692378044128418
1686426758905033500,2.077033447265625,-0.1987176239490509,0.1142386943101883,0.3837548494338989
1686426758914977500,2.0869775390625,-0.14124314486980438,-0.09284285455942154,0.13798104226589203
1686426758924922400,2.09692236328125,-0.012109126895666122,-0.1893416941165924,-0.12383352965116501
1686426758934867700,2.10686767578125,0.10784337669610977,-0.07613231986761093,-0.27172550559043884
1686426758944812500,2.1168125,0.16254177689552307,-0.019300993531942368,-0.3297038674354553
1686426758954757400,2.12675732421875,0.21262304484844208,-0.07183131575584412,-0.3896034061908722
1686426758964702700,2.13670263671875,0.2683323919773102,-0.20917585492134094,-0.5039446353912354
1686426758974647600,2.1466474609375,0.3240715563297272,-0.3294151723384857,-0.6339972019195557
1686426758984592400,2.15659228515625,0.3352706730365753,-0.3557237386703491,-0.7169024348258972
1686426758994537500,2.166537353515625,0.31987521052360535,-0.29297327995300293,-0.7073454260826111
1686426759004481500,2.1764814453125,0.25876152515411377,-0.04417784884572029,-0.5496535301208496
1686426759014426400,2.18642626953125,0.16707287728786469,-0.05794186145067215,-0.4124187231063843
1686426759024371700,2.196371826171875,0.14024792611598969,-0.05608031153678894,-0.2911199927330017
1686426759034316500,2.206316650390625,0.12196452170610428,0.020807810127735138,-0.18129149079322815
1686426759044261400,2.216261474609375,0.11983079463243484,0.12220953404903412,-0.09223112463951111
1686426759054206700,2.226206787109375,0.10985007137060165,0.13130448758602142,-0.07841331511735916
1686426759064151600,2.236151611328125,0.12474299967288971,0.08119898289442062,-0.1267467588186264
1686426759074096400,2.246096435546875,0.13118864595890045,0.040163133293390274,-0.18046991527080536
1686426759084041500,2.25604150390625,0.11356064677238464,0.08147355169057846,-0.1970217227935791
1686426759093985500,2.265985595703125,0.08725021779537201,0.13355539739131927,-0.1731664538383484
1686426759103930400,2.275930419921875,0.07738187164068222,0.2745681703090668,-0.08842040598392487
1686426759113875700,2.285875732421875,0.06399203091859818,0.19203947484493256,-0.08094757795333862
1686426759123820500,2.295820556640625,0.06645465642213821,0.10045044124126434,-0.1123553067445755
1686426759133765400,2.305765380859375,0.06934445351362228,0.06539445370435715,-0.1300962120294571
1686426759143710700,2.315710693359375,0.07437383383512497,0.05221313610672951,-0.13327549397945404
1686426759153655600,2.325655517578125,0.07558184117078781,0.04256796836853027,-0.12807035446166992
1686426759163600400,2.335600341796875,0.0723535567522049,0.04814888536930084,-0.10928148031234741
1686426759173545500,2.34554541015625,0.06979026645421982,0.05505579337477684,-0.1022251695394516
1686426759183489500,2.355489501953125,0.06950876861810684,0.04650278761982918,-0.10385476052761078
1686426759193434400,2.365434326171875,0.07007815688848495,0.04467159882187843,-0.11495614796876907
1686426759203379700,2.375379638671875,0.0645960345864296,0.03603150323033333,-0.11939936131238937
1686426759213324500,2.385324462890625,0.06655532121658325,0.05103974789381027,-0.10101822763681412
1686426759223269400,2.395269287109375,0.05523582547903061,0.06835641711950302,-0.0702267587184906
1686426759233214700,2.405214599609375,0.042990345507860184,0.04896168410778046,-0.06362824141979218
1686426759243159600,2.41515966796875,0.044623129069805145,0.011658786796033382,-0.08159393072128296
1686426759253104400,2.4251044921875,0.04794036224484444,-0.008566323667764664,-0.10407447069883347
1686426759263049700,2.4350498046875,0.04940563440322876,-0.008694421499967575,-0.1157098188996315
1686426759272993500,2.44499365234375,0.044866807758808136,-0.006684267893433571,-0.11094862222671509
1686426759282938400,2.4549384765625,0.0442659966647625,-0.0011294466676190495,-0.08307997137308121
1686426759292883700,2.4648837890625,0.04256104305386543,-0.009519468992948532,-0.059893958270549774
1686426759302828500,2.47482861328125,0.04062891751527786,-0.026401780545711517,-0.05614316463470459
1686426759312773400,2.4847734375,0.044918205589056015,-0.0244281105697155,-0.07004965841770172
1686426759322718700,2.49471875,0.04963333159685135,-0.016578176990151405,-0.07815179228782654
1686426759332663600,2.50466357421875,0.050767574459314346,-0.008466188795864582,-0.08007912337779999
1686426759342608400,2.5146083984375,0.05408240854740143,0.005745769944041967,-0.0691487118601799
1686426759352553700,2.5245537109375,0.04670438915491104,-0.012480637989938259,-0.07698852568864822
1686426759362498600,2.53449853515625,0.05020564794540405,-0.013243899680674076,-0.09708420187234879
1686426759372442400,2.5444423828125,0.05127463862299919,0.00839987676590681,-0.0961262658238411
1686426759382387700,2.5543876953125,0.05269703269004822,0.01980672776699066,-0.08169006556272507
1686426759392332500,2.56433251953125,0.04986609145998955,0.02996588870882988,-0.06530576944351196
1686426759402277400,2.57427734375,0.0492359884083271,0.01731986738741398,-0.051968660205602646
1686426759412222700,2.58422265625,0.05040964484214783,0.02528298646211624,-0.05392714589834213
1686426759422167600,2.59416748046875,0.03879746422171593,0.013539244420826435,-0.07417729496955872
1686426759432112400,2.6041123046875,0.040342096239328384,0.02449682168662548,-0.08522701263427734
1686426759442057700,2.6140576171875,0.03284050524234772,0.0068296766839921474,-0.10460656881332397
1686426759452002600,2.62400244140625,0.028718996793031693,0.06604612618684769,-0.0924425795674324
1686426759461946400,2.6339462890625,0.013189039193093777,0.08524245768785477,-0.06354355812072754
1686426759471891500,2.643891357421875,0.010042513720691204,0.08852427452802658,-0.03842781484127045
1686426759481836500,2.65383642578125,0.014754178933799267,0.09316669404506683,-0.0262457188218832
1686426759491781400,2.663781494140625,0.013686250895261765,0.09358640760183334,-0.026497388258576393
1686426759501726500,2.6737265625,0.010162622667849064,0.11151134967803955,-0.02522306516766548
1686426759511671600,2.683671630859375,0.00751996785402298,0.12932948768138885,-0.02112152986228466
1686426759521616400,2.693616455078125,0.009797503240406513,0.146055206656456,-0.022292256355285645
1686426759531561500,2.7035615234375,0.011081679724156857,0.15703462064266205,-0.021086642518639565
1686426759541506600,2.713506591796875,0.007567372173070908,0.16729392111301422,-0.022852318361401558
1686426759551450400,2.723450439453125,0.0019185412675142288,0.19142508506774902,-0.012896889820694923
1686426759561395500,2.7333955078125,-0.003034938359633088,0.20594251155853271,-0.009579656645655632
1686426759571340300,2.74334033203125,-0.0009438242996111512,0.21211758255958557,-0.007984955795109272
1686426759581285400,2.753285400390625,-0.004453071393072605,0.22130842506885529,-0.008902414701879025
1686426759591230500,2.76323046875,-0.004444815684109926,0.24107013642787933,-0.007101585157215595
1686426759601175600,2.773175537109375,-0.0025806031189858913,0.2597658038139343,-0.0025031049735844135
1686426759611120400,2.783120361328125,-0.003430417738854885,0.2673659324645996,0.009791377931833267
1686426759621065500,2.7930654296875,0.0007659250986762345,0.2776470482349396,0.028838573023676872
1686426759631010600,2.803010498046875,0.009984723292291164,0.28183114528656006,0.045161351561546326
1686426759640955400,2.812955322265625,0.012354404665529728,0.27992725372314453,0.053339120000600815
1686426759650899500,2.8228994140625,0.01854146085679531,0.2726917266845703,0.051789961755275726
1686426759660844300,2.83284423828125,0.02448270656168461,0.26286545395851135,0.04820561036467552
1686426759670789400,2.842789306640625,0.023637685924768448,0.25218725204467773,0.044076912105083466
1686426759680734500,2.852734375,0.02798316441476345,0.23730869591236115,0.0539841391146183
1686426759690679600,2.862679443359375,0.027547737583518028,0.2177847921848297,0.0599762499332428
1686426759700624400,2.872624267578125,0.027004186064004898,0.20486871898174286,0.06688262522220612
1686426759710569500,2.882569580078125,0.023848341777920723,0.18654191493988037,0.06982142478227615
1686426759720514600,2.8925146484375,0.029231388121843338,0.16623824834823608,0.07496266067028046
1686426759730459400,2.90245947265625,0.02767769992351532,0.1487564593553543,0.07023261487483978
1686426759740403500,2.912403564453125,0.02448403835296631,0.1314629465341568,0.06984326243400574
1686426759750348300,2.922348388671875,0.03193662688136101,0.114000603556633,0.06635292619466782
1686426759760293400,2.93229345703125,0.028537102043628693,0.09970688819885254,0.06755480915307999
1686426759770238500,2.942238525390625,0.024986576288938522,0.07710117846727371,0.061674814671278
1686426759780183600,2.95218359375,0.026446254923939705,0.053522612899541855,0.06619712710380554
1686426759790128400,2.96212841796875,0.023721307516098022,0.03652871772646904,0.06765680760145187
1686426759800073500,2.972073486328125,0.021327925845980644,0.015576030127704144,0.07566626369953156
1686426759810018600,2.9820185546875,0.02371438406407833,0.004459995776414871,0.07906179875135422
1686426759819963400,2.99196337890625,0.020734839141368866,-0.013393569737672806,0.07573258131742477
1686426759829908500,3.001908447265625,0.022830214351415634,-0.031260184943675995,0.06782272458076477
1686426759839852300,3.011852294921875,0.02058303914964199,-0.04103105515241623,0.06487327069044113
1686426759849797400,3.02179736328125,0.020732708275318146,-0.04285452142357826,0.06370840221643448
1686426759859742500,3.031742431640625,0.01950312778353691,-0.04355839639902115,0.05326801538467407
1686426759869687300,3.041687255859375,0.015092932619154453,-0.037457626312971115,0.04802451655268669
1686426759879632400,3.05163232421875,0.014424745924770832,-0.033185649663209915,0.04319700598716736
1686426759889577500,3.061577392578125,0.01028592698276043,-0.03640860691666603,0.038910381495952606
1686426759899522600,3.0715224609375,0.006976683158427477,-0.03479313477873802,0.044620729982852936
1686426759909467400,3.08146728515625,0.0075697689317166805,-0.03542270511388779,0.04231070354580879
1686426759919412500,3.09141259765625,0.001999767730012536,-0.045829806476831436,0.028374116867780685
1686426759929357600,3.101357666015625,-0.0009622001089155674,-0.04544151574373245,0.02707529254257679
1686426759939301400,3.11130126953125,0.0008130630594678223,-0.0423639677464962,0.03206872195005417
1686426759949246500,3.12124658203125,0.00018801917030941695,-0.036074113100767136,0.029679598286747932
1686426759959191300,3.13119140625,0.0003028014034498483,-0.02370958961546421,0.02574530988931656
1686426759969136400,3.141136474609375,0.0025603631511330605,-0.016023973003029823,0.01636938564479351
1686426759979081500,3.15108154296875,0.0006588660762645304,-0.011294466443359852,0.0009781790431588888
1686426759989026600,3.161026611328125,0.0035217641852796078,-0.0022130869328975677,-0.005228317808359861
1686426759998971400,3.170971435546875,0.006882939953356981,0.008045942522585392,-0.009812949225306511
1686426760008916500,3.18091650390625,0.01073866430670023,0.0138377845287323,-0.012546684592962265
1686426760018861600,3.190861572265625,0.013852698728442192,0.02443530224263668,-0.013429522514343262
1686426760028806400,3.200806396484375,0.008530370891094208,0.033119603991508484,-0.011066232807934284
1686426760038750500,3.21075048828125,0.00686243362724781,0.008923187851905823,-0.014831410720944405
1686426760048695300,3.2206953125,0.014671887271106243,0.009840380400419235,-0.023902136832475662
1686426760058640400,3.230640380859375,0.01486469991505146,0.016279904171824455,-0.027216706424951553
1686426760068585500,3.24058544921875,0.008294681087136269,0.01474432460963726,-0.01338930893689394
1686426760078530600,3.250530517578125,0.009981527924537659,0.01625353842973709,-0.002115348819643259
1686426760088475400,3.260475341796875,0.011234811507165432,0.0068118334747850895,-0.004465854726731777
1686426760098420500,3.27042041015625,0.008640093728899956,0.0001776328426785767,-0.013305951841175556
1686426760108365600,3.280365478515625,0.013244166038930416,-0.006097041070461273,-0.021760156378149986
1686426760118310400,3.290310302734375,0.016564860939979553,-0.014125406742095947,-0.021024858579039574
1686426760128255500,3.30025537109375,0.016981912776827812,-0.0172698013484478,-0.018069814890623093
1686426760138199300,3.31019921875,0.02044881507754326,-0.018279405310750008,-0.019107913598418236
1686426760148144400,3.320144287109375,0.018924422562122345,-0.019171830266714096,-0.025046497583389282
1686426760158089500,3.33008935546875,0.021107416599988937,-0.030277477577328682,-0.02748941443860531
1686426760168034600,3.34003466796875,0.019095929339528084,-0.04777737706899643,-0.037220072001218796
1686426760177979400,3.3499794921875,0.02094842493534088,-0.05595194920897484,-0.04493551701307297
1686426760187924500,3.359924560546875,0.02221209555864334,-0.05511917918920517,-0.04132693260908127
1686426760197869600,3.36986962890625,0.021033912897109985,-0.04442818462848663,-0.029349366202950478
1686426760207814400,3.379814453125,0.017551030963659286,-0.04006752371788025,-0.021443240344524384
1686426760217759500,3.389759521484375,0.01504206657409668,-0.031617049127817154,-0.012628976255655289
1686426760227704600,3.39970458984375,0.01477788109332323,-0.035411253571510315,-0.009222260676324368
1686426760237648400,3.4096484375,0.020424315705895424,-0.03858627378940582,-0.012015383690595627
1686426760247593500,3.419593505859375,0.02057584933936596,-0.046305179595947266,-0.009409747086465359
1686426760257538300,3.429538330078125,0.020653612911701202,-0.05059579759836197,-0.004890895448625088
1686426760267483400,3.4394833984375,0.02550642564892769,-0.05025305226445198,0.0046658581122756
1686426760277428500,3.449428466796875,0.026010295376181602,-0.06868532299995422,0.009012935683131218
1686426760287373600,3.45937353515625,0.02684146724641323,-0.06438751518726349,0.01757659763097763
1686426760297318400,3.469318359375,0.021636320278048515,-0.06668448448181152,0.02118358202278614
1686426760307263500,3.479263427734375,0.026671292260289192,-0.0707242339849472,0.028142422437667847
1686426760317208600,3.48920849609375,0.024891234934329987,-0.08425842225551605,0.031207986176013947
1686426760327153400,3.4991533203125,0.025309083983302116,-0.09674704819917679,0.028423385694622993
1686426760337097500,3.509097412109375,0.02935815416276455,-0.10610273480415344,0.02346058562397957
1686426760347042300,3.519042236328125,0.02737676352262497,-0.10474665462970734,0.015784289687871933
1686426760356987400,3.5289873046875,0.02491760067641735,-0.11093583703041077,0.011975436471402645
1686426760366932500,3.538932373046875,0.02551787719130516,-0.11548051983118057,0.006986270658671856
1686426760376877600,3.548877685546875,0.019118035212159157,-0.10710621625185013,0.0049345712177455425
1686426760386822400,3.558822509765625,0.014824752695858479,-0.0941547304391861,0.007186806295067072
1686426760396767500,3.568767578125,0.011591142043471336,-0.08834318071603775,0.02147786132991314
1686426760406712600,3.578712646484375,0.004751878324896097,-0.08459291607141495,0.03381708636879921
1686426760416657400,3.588657470703125,0.00043116576853208244,-0.077976293861866,0.04772624373435974
1686426760426602200,3.598602294921875,0.0015108112711459398,-0.07077483832836151,0.05679190903902054
1686426760436546300,3.60854638671875,-0.00024341292737517506,-0.07148589938879013,0.05565207824110985
1686426760446491400,3.618491455078125,-0.0009161274065263569,-0.0650213435292244,0.054010771214962006
1686426760456436500,3.6284365234375,-0.0028644960839301348,-0.061348844319581985,0.0559769831597805
1686426760466381600,3.638381591796875,-0.0036485306918621063,-0.060380518436431885,0.056175921112298965
1686426760476326400,3.648326416015625,-0.0014855111949145794,-0.051365986466407776,0.06077759712934494
1686426760486271500,3.658271484375,-0.002918291836977005,-0.04524897038936615,0.06084870174527168
1686426760496216600,3.668216552734375,-0.004488757811486721,-0.04157061129808426,0.059534698724746704
1686426760506161000,3.678160888671875,-0.0037033918779343367,-0.044439103454351425,0.05317693576216698
1686426760516106200,3.688106201171875,-0.003768372815102339,-0.04970763623714447,0.05426030978560448
1686426760526051000,3.698051025390625,-0.0034091125708073378,-0.05386509746313095,0.04953213408589363
1686426760535995000,3.707994873046875,-0.0012381036067381501,-0.0629667118191719,0.04385001212358475
1686426760545940200,3.717940185546875,-0.004349208436906338,-0.06573773175477982,0.035767585039138794
1686426760555885000,3.727885009765625,-0.0032900692895054817,-0.07319698482751846,0.030918234959244728
1686426760565830000,3.737829833984375,-0.002487658755853772,-0.08054251223802567,0.029376264661550522
1686426760575775200,3.747775146484375,-0.0054549528285861015,-0.0815047100186348,0.0322122648358345
1686426760585720000,3.757719970703125,-0.005970807280391455,-0.0812612995505333,0.04134131595492363
1686426760595665000,3.767664794921875,-0.007811317685991526,-0.07085659354925156,0.046907588839530945
1686426760605610200,3.7776103515625,-0.011454255320131779,-0.06569192558526993,0.05919913947582245
1686426760615555000,3.78755517578125,-0.00851599033921957,-0.059898220002651215,0.06794602423906326
1686426760625500000,3.7975,-0.009241435676813126,-0.05534794554114342,0.07463748753070831
1686426760635444200,3.8074443359375,-0.01438266783952713,-0.05318998545408249,0.07752382010221481
1686426760645389000,3.81738916015625,-0.014831410720944405,-0.04847965016961098,0.08739642053842545
1686426760655334000,3.827333984375,-0.018497517332434654,-0.04550330340862274,0.09161727130413055
1686426760665279200,3.837279296875,-0.019632024690508842,-0.04681144654750824,0.0944836288690567
1686426760675224000,3.84722412109375,-0.02052498236298561,-0.04633340984582901,0.09453369677066803
1686426760685169000,3.8571689453125,-0.020735904574394226,-0.04392511397600174,0.10229840874671936
1686426760695114200,3.8671142578125,-0.0181110929697752,-0.04150696471333504,0.10181770473718643
1686426760705059000,3.87705908203125,-0.01775103434920311,-0.03713458403944969,0.09789060801267624
1686426760715004000,3.88700390625,-0.01811322383582592,-0.037991058081388474,0.08867686986923218
1686426760724949200,3.89694921875,-0.01725941337645054,-0.036429114639759064,0.07540660351514816
1686426760734894000,3.90689404296875,-0.015044729225337505,-0.034271419048309326,0.06425675004720688
1686426760744838000,3.916837890625,-0.015062306076288223,-0.03357527032494545,0.055196408182382584
1686426760754783200,3.926783203125,-0.0116148442029953,-0.03063354268670082,0.03717080503702164
1686426760764728000,3.93672802734375,-0.009343966841697693,-0.025494974106550217,0.03545386344194412
1686426760774673000,3.9466728515625,-0.012742693535983562,-0.02070021815598011,0.03491191193461418
1686426760784618200,3.9566181640625,-0.015369901433587074,-0.01507029589265585,0.027699537575244904
1686426760794563000,3.96656298828125,-0.01793372631072998,-0.010911503806710243,0.02702069841325283
1686426760804508000,3.9765078125,-0.022009961307048798,-0.006836866959929466,0.02263660356402397
1686426760814453200,3.986453369140625,-0.021873872727155685,-0.0047116647474467754,0.022292522713541985
1686426760824398000,3.996398193359375,-0.025135979056358337,-0.005479720421135426,0.024273380637168884
1686426760834343000,4.006343017578125,-0.02786944806575775,-0.01131177693605423,0.02647927775979042
1686426760844288000,4.0162880859375,-0.031156321987509727,-0.01263723149895668,0.028115790337324142
1686426760854232000,4.026232177734375,-0.03086630254983902,-0.01263909600675106,0.0341196209192276
1686426760864177000,4.036177001953125,-0.03417022153735161,-0.016577111557126045,0.04059829190373421
1686426760874122200,4.046122314453125,-0.02985536679625511,-0.019770774990320206,0.04282869026064873
1686426760884067000,4.056067138671875,-0.027825506404042244,-0.014485998079180717,0.034696727991104126
1686426760894012000,4.066011962890625,-0.02682788483798504,-0.012257997877895832,0.03218643367290497
1686426760903957200,4.075957275390625,-0.026340261101722717,-0.010171943344175816,0.03764937445521355
1686426760913902000,4.085902099609375,-0.025831863284111023,-0.012831642292439938,0.04777737706899643
1686426760923847000,4.095846923828125,-0.027147997170686722,-0.013919278047978878,0.05770457535982132
1686426760933792000,4.1057919921875,-0.02875388413667679,-0.01733771152794361,0.05733732506632805
1686426760943737000,4.115737060546875,-0.027421237900853157,-0.018008029088377953,0.05790191516280174
1686426760953681000,4.125680908203125,-0.024577781558036804,-0.018376877531409264,0.059658270329236984
1686426760963626200,4.135626220703125,-0.021831795573234558,-0.020475447177886963,0.06076561287045479
1686426760973571000,4.145571044921875,-0.02051752619445324,-0.021332984790205956,0.053708501160144806
1686426760983516000,4.155515869140625,-0.017524665221571922,-0.022060295566916466,0.05348080024123192
1686426760993461200,4.165461181640625,-0.015306784771382809,-0.025186579674482346,0.04893744736909866
1686426761003406000,4.175406005859375,-0.013037770986557007,-0.0258137546479702,0.045037250965833664
1686426761013351000,4.185350830078125,-0.009278719313442707,-0.026217754930257797,0.039737824350595474
1686426761023296000,4.1952958984375,-0.005898901727050543,-0.026609506458044052,0.034277547150850296
1686426761033241000,4.205240966796875,-0.0019539613276720047,-0.02220996469259262,0.02985004149377346
1686426761043186000,4.21518603515625,-0.0012154667638242245,-0.02429894730448723,0.021508753299713135
1686426761053131000,4.225131103515625,0.0016088156262412667,-0.024154338985681534,0.014390391297638416
1686426761063075000,4.235074951171875,0.0057036918587982655,-0.027592744678258896,0.008870457299053669
1686426761073020000,4.24502001953125,0.009327455423772335,-0.026374349370598793,0.0025515747256577015
1686426761082965200,4.25496533203125,0.00950641930103302,-0.018681809306144714,-0.009837716817855835
1686426761092910000,4.26491015625,0.012665728107094765,-0.017738251015543938,-0.02478737197816372
1686426761102855000,4.27485498046875,0.014550180174410343,-0.0176229365170002,-0.036911144852638245
1686426761112800000,4.284800048828125,0.013865748420357704,-0.013558153063058853,-0.04313308745622635
1686426761122745000,4.2947451171875,0.016880713403224945,-0.006638994440436363,-0.047747813165187836
1686426761132690000,4.30468994140625,0.017642376944422722,-0.00777509855106473,-0.04981496185064316
1686426761142635000,4.314635009765625,0.015536881983280182,-0.00043649208964779973,-0.05097263678908348
1686426761152580000,4.324580078125,0.020240023732185364,0.004887166898697615,-0.051665060222148895
1686426761162525200,4.334525146484375,0.014841264113783836,0.008860602974891663,-0.05055638402700424
1686426761172469200,4.34446923828125,0.01601145789027214,0.0057468353770673275,-0.053410228341817856
1686426761182414000,4.3544140625,0.016633305698633194,0.010380202904343605,-0.05780604109168053
1686426761192359000,4.36435888671875,0.013605024665594101,0.010909905657172203,-0.061941396445035934
1686426761202304000,4.374303955078125,0.015381619334220886,0.012209261767566204,-0.0662141740322113
1686426761212249000,4.3842490234375,0.013689447194337845,0.014477476477622986,-0.06973434239625931
1686426761222194000,4.39419384765625,0.011019094847142696,0.01697498932480812,-0.06941449642181396
1686426761232139000,4.404138916015625,0.010776747949421406,0.020388629287481308,-0.06390760838985443
1686426761242084000,4.414083984375,0.00637827068567276,0.024567926302552223,-0.06018451228737831
1686426761252029200,4.424029296875,0.005815810989588499,0.03008386678993702,-0.05186745896935463
1686426761261974000,4.43397412109375,0.0062363240867853165,0.029103023931384087,-0.05277426540851593
1686426761271919000,4.443919189453125,-0.0006556702428497374,0.03826349973678589,-0.059840962290763855
1686426761281863000,4.45386279296875,0.012072641402482986,0.0388544537127018,-0.0677042156457901
1686426761291808300,4.463808349609375,0.007163636852055788,0.011286210268735886,-0.04994572326540947
1686426761301753000,4.473753173828125,0.000544350128620863,0.02046852372586727,-0.041737060993909836
1686426761311698000,4.483697998046875,0.002525741932913661,0.030595991760492325,-0.051245078444480896
1686426761321643000,4.49364306640625,0.003400856629014015,0.017956096678972244,-0.06078878045082092
1686426761331588000,4.503588134765625,0.0025752766523510218,0.009622267447412014,-0.07592672109603882
1686426761341533000,4.513532958984375,0.0030887341126799583,-0.00016884441720321774,-0.08451248705387115
1686426761351478000,4.52347802734375,0.005548163317143917,-0.001844771672040224,-0.08698736131191254
1686426761361423000,4.533423095703125,0.009164203889667988,-0.008857141248881817,-0.08409383893013
1686426761371368200,4.5433681640625,0.00999457761645317,-0.014189056120812893,-0.08451008796691895
1686426761381313000,4.55331298828125,0.01299276389181614,-0.011054514907300472,-0.08856076002120972
1686426761391257000,4.563257080078125,0.012951751239597797,-0.006330067757517099,-0.09767143428325653
1686426761401202000,4.573201904296875,0.01377866230905056,-0.002561694709584117,-0.10814884305000305
1686426761411147000,4.58314697265625,0.014130200259387493,-0.002826146548613906,-0.1113600805401802
1686426761421092000,4.593092041015625,0.016331834718585014,-0.005915413144975901,-0.10985299944877625
1686426761431037000,4.603036865234375,0.016396550461649895,-0.011353588663041592,-0.10031621903181076
1686426761440982000,4.61298193359375,0.01822534203529358,-0.01618802547454834,-0.09586261212825775
1686426761450927000,4.622927001953125,0.01956304907798767,-0.020480507984757423,-0.09442583471536636
1686426761460872200,4.6328720703125,0.019344136118888855,-0.0264771468937397,-0.09584743529558182
1686426761470817000,4.642817138671875,0.019816314801573753,-0.03434598818421364,-0.09503597021102905
1686426761480762000,4.65276220703125,0.018789932131767273,-0.03400430455803871,-0.09281648695468903
1686426761490707200,4.662707275390625,0.022606242448091507,-0.027775971218943596,-0.08698363602161407
1686426761500651000,4.672651123046875,0.01672278717160225,-0.01985892653465271,-0.08079791069030762
1686426761510595800,4.682595947265625,0.019362246617674828,-0.01666739396750927,-0.07292773574590683
1686426761520540700,4.692540771484375,0.01834598369896412,-0.01432088203728199,-0.07194715738296509
1686426761530485800,4.70248583984375,0.01871057040989399,-0.01593848690390587,-0.08237263560295105
1686426761540430800,4.712430908203125,0.0215953066945076,-0.023794811218976974,-0.0860762968659401
1686426761550375700,4.722375732421875,0.02087651938199997,-0.0300857312977314,-0.09556913375854492
1686426761560320800,4.73232080078125,0.021815016865730286,-0.03738918527960777,-0.10612856596708298
1686426761570265900,4.742265869140625,0.024290958419442177,-0.04776645824313164,-0.11447491496801376
1686426761580210700,4.752210693359375,0.022011559456586838,-0.0493403859436512,-0.1189466267824173
1686426761590155800,4.76215576171875,0.025295237079262733,-0.04543805494904518,-0.11311137676239014
1686426761600100900,4.772100830078125,0.023516511544585228,-0.04393017292022705,-0.10215539485216141
1686426761610044700,4.782044677734375,0.026814037933945656,-0.033427197486162186,-0.09377336502075195
1686426761619989800,4.79198974609375,0.025586320087313652,-0.033495109528303146,-0.08763131499290466
1686426761629934800,4.801934814453125,0.0321427546441555,-0.034630414098501205,-0.08467014878988266
1686426761639879700,4.811879638671875,0.030840735882520676,-0.03586212545633316,-0.08341366797685623
1686426761649824800,4.82182470703125,0.032408006489276886,-0.03688770905137062,-0.08141283690929413
1686426761659769900,4.831769775390625,0.029798375442624092,-0.0404994897544384,-0.0726664811372757
1686426761669714700,4.841714599609375,0.032637838274240494,-0.04545217007398605,-0.06336565315723419
1686426761679659800,4.85165966796875,0.03105884976685047,-0.04224172979593277,-0.055028896778821945
1686426761689604900,4.86160498046875,0.032410938292741776,-0.04447771981358528,-0.05523795634508133
1686426761699549700,4.8715498046875,0.02989797852933407,-0.044146955013275146,-0.05817488953471184
1686426761709494800,4.881494873046875,0.034745730459690094,-0.037993188947439194,-0.05873442068696022
1686426761719438800,4.89143896484375,0.0332208052277565,-0.03166551887989044,-0.059660132974386215
1686426761729383700,4.9013837890625,0.035240545868873596,-0.03651833161711693,-0.06818677484989166
1686426761739328800,4.911328857421875,0.036680251359939575,-0.03718758374452591,-0.07688785344362259
1686426761749273900,4.92127392578125,0.03285328671336174,-0.04164491593837738,-0.09167186170816422
1686426761759218700,4.93121875,0.032888442277908325,-0.042806852608919144,-0.09888610243797302
1686426761769163800,4.941163818359375,0.03467728570103645,-0.045224204659461975,-0.10049677640199661
1686426761779108900,4.95110888671875,0.031088143587112427,-0.04700718820095062,-0.09829514473676682
1686426761789053700,4.9610537109375,0.03388446196913719,-0.037461619824171066,-0.0938737615942955
1686426761798998800,4.970998779296875,0.030040189623832703,-0.035478632897138596,-0.07886391878128052
1686426761808943900,4.98094384765625,0.03356674686074257,-0.03310655429959297,-0.06786560267210007
1686426761818888700,4.990888671875,0.03237045556306839,-0.03181225806474686,-0.05922150984406471
1686426761828833800,5.000833740234375,0.031014908105134964,-0.03403599560260773,-0.05694690719246864
1686426761838777900,5.01077783203125,0.0308159701526165,-0.036443762481212616,-0.05095852166414261
1686426761848722700,5.02072265625,0.02984311617910862,-0.044789575040340424,-0.05753493309020996
1686426761858667800,5.030667724609375,0.03110572136938572,-0.050153981894254684,-0.06156961992383003
1686426761868612900,5.04061279296875,0.03020051307976246,-0.06267563253641129,-0.07841411232948303
1686426761878557700,5.0505576171875,0.027062244713306427,-0.07013807445764542,-0.0922234058380127
1686426761888502800,5.060502685546875,0.02599831111729145,-0.07765751332044601,-0.09622586518526077
1686426761898448000,5.07044775390625,0.021798240020871162,-0.07603538036346436,-0.09768714755773544
1686426761908392700,5.080392822265625,0.01895345188677311,-0.06929971277713776,-0.09166467189788818
1686426761918337800,5.090337890625,0.019540945068001747,-0.056957025080919266,-0.08004742860794067
1686426761928282600,5.10028271484375,0.021999841555953026,-0.04755393788218498,-0.06619313359260559
1686426761938227700,5.110227783203125,0.01810310408473015,-0.041731201112270355,-0.04974891245365143
1686426761948172800,5.1201728515625,0.018805645406246185,-0.043472375720739365,-0.04700106382369995
1686426761958116900,5.130116943359375,0.019291140139102936,-0.05197877809405327,-0.049489520490169525
1686426761968061700,5.140061767578125,0.01811721920967102,-0.05757434666156769,-0.04902027174830437
1686426761978006800,5.1500068359375,0.01882668398320675,-0.05976825952529907,-0.04164198413491249
1686426761987951900,5.159951904296875,0.015527826733887196,-0.05890939012169838,-0.03485039249062538
1686426761997896700,5.169896728515625,0.013173059560358524,-0.05535806342959404,-0.02551441453397274
1686426762007841800,5.179841796875,0.01426309160888195,-0.050387006253004074,-0.020001670345664024
1686426762017786600,5.18978662109375,0.0165395624935627,-0.04372377693653107,-0.019052254036068916
1686426762027731700,5.199731689453125,0.016030631959438324,-0.04229312762618065,-0.01738804578781128
1686426762037676800,5.2096767578125,0.017910290509462357,-0.0356765054166317,-0.016021311283111572
1686426762047621600,5.21962158203125,0.01829911209642887,-0.03725709021091461,-0.011602859944105148
1686426762057567000,5.22956689453125,0.022814234718680382,-0.03644455969333649,-0.00820946041494608
1686426762067510800,5.2395107421875,0.02081766352057457,-0.036506880074739456,-0.008169513195753098
1686426762077456000,5.249455810546875,0.022417424246668816,-0.04312163591384888,-0.0054485611617565155
1686426762087400700,5.259400634765625,0.023087475448846817,-0.04701517894864082,-0.00797563511878252
1686426762097345800,5.269345703125,0.018394986167550087,-0.043003395199775696,-0.0020242687314748764
1686426762107290600,5.27929052734375,0.017614146694540977,-0.04181082919239998,-0.001204547705128789
1686426762117235700,5.289235595703125,0.01919952780008316,-0.04098764806985855,0.007765245158225298
1686426762127180800,5.299180908203125,0.020410999655723572,-0.04460315406322479,0.007731689140200615
1686426762137125600,5.309125732421875,0.018328407779335976,-0.05100991949439049,0.010123208165168762
1686426762147071000,5.319071044921875,0.017409350723028183,-0.046492934226989746,0.0208288487046957
1686426762157015800,5.329015869140625,0.016940901055932045,-0.05070685222744942,0.02869795821607113
1686426762166960600,5.338960693359375,0.008582303300499916,-0.04668814316391945,0.04206889122724533
1686426762176906000,5.348906005859375,0.010022540576756,-0.04849110171198845,0.0476391576230526
1686426762186849800,5.358849853515625,0.00974610447883606,-0.04334534332156181,0.062197860330343246
1686426762196794600,5.368794677734375,0.0073226275853812695,-0.04151708260178566,0.062010109424591064
1686426762206739700,5.37873974609375,0.006009689066559076,-0.03886883705854416,0.06932581216096878
1686426762216684800,5.388684814453125,0.007345530670136213,-0.0386376716196537,0.06692416965961456
1686426762226629600,5.398629638671875,0.009277653880417347,-0.04065395146608353,0.07427316904067993
1686426762236575000,5.408574951171875,0.005543103441596031,-0.04117140546441078,0.08087727427482605
1686426762246519800,5.418519775390625,0.010557569563388824,-0.03740489482879639,0.08814956247806549
1686426762256464600,5.428464599609375,0.00884808599948883,-0.03682645782828331,0.10065364092588425
1686426762266410000,5.438409912109375,0.011622567661106586,-0.03395184129476547,0.10559886693954468
1686426762276354800,5.448354736328125,0.01116104144603014,-0.03773166611790657,0.10485584288835526
1686426762286299600,5.458299560546875,0.009346630424261093,-0.03521870821714401,0.09055493026971817
1686426762296244700,5.46824462890625,0.008562595583498478,-0.03467728570103645,0.07333200424909592
1686426762306189800,5.47818994140625,0.007249923422932625,-0.036249350756406784,0.048351820558309555
1686426762316133600,5.488133544921875,0.00199337606318295,-0.036607544869184494,0.03453587368130684
1686426762326078700,5.49807861328125,0.005982258822768927,-0.030898528173565865,0.029457757249474525
1686426762336023800,5.50802392578125,0.004454669542610645,-0.021465344354510307,0.021709555760025978
1686426762345968600,5.51796875,0.0068174260668456554,-0.01750282756984234,0.01607697084546089
1686426762355914000,5.5279140625,0.012262791395187378,-0.01398532371968031,0.019647737964987755
1686426762365858800,5.53785888671875,0.013588779605925083,-0.004247475415468216,0.027537884190678596
1686426762375803600,5.5478037109375,0.016686301678419113,0.0005645901546813548,0.03498328477144241
1686426762385748700,5.557748779296875,0.015025288797914982,0.004208327271044254,0.04218553751707077
1686426762395693800,5.56769384765625,0.010903513990342617,0.012310994789004326,0.04705512523651123
1686426762405638700,5.577638671875,0.008855276741087437,0.008665393106639385,0.043775178492069244
1686426762415583700,5.587583740234375,0.003641606541350484,0.010172742418944836,0.03671673685312271
1686426762425528800,5.59752880859375,-0.0016562198288738728,0.009521067142486572,0.028718996793031693
1686426762435472600,5.60747265625,-0.0031334753148257732,0.005065332166850567,0.025288311764597893
1686426762445418000,5.61741796875,-0.0036858150269836187,0.0011763182701542974,0.02400813065469265
1686426762455362800,5.62736279296875,-0.0028370653744786978,0.008159925229847431,0.023799072951078415
1686426762465307600,5.6373076171875,-0.003278617514297366,0.009415606036782265,0.021708223968744278
1686426762475253000,5.6472529296875,0.000041278995922766626,0.009001217782497406,0.016896158456802368
1686426762485197800,5.65719775390625,0.005081311333924532,0.011520035564899445,0.01629774644970894
1686426762495142700,5.667142578125,0.0034024545457214117,0.00293373828753829,0.009937052614986897
1686426762505087500,5.67708740234375,-0.0024767396971583366,-0.005631786771118641,0.0046301716938614845
1686426762515032600,5.687032470703125,0.0002777676854748279,-0.007428355049341917,0.004020574036985636
1686426762524977700,5.696977783203125,0.002130795270204544,-0.010544519871473312,0.004296211525797844
1686426762534922500,5.706922607421875,0.0013342436868697405,-0.009824933484196663,0.0062128882855176926
1686426762544867800,5.716867919921875,0.0021603561472147703,-0.004321245010942221,0.010070477612316608
1686426762554811600,5.726811767578125,0.004622182343155146,0.0037084517534822226,0.01251126453280449
1686426762564756700,5.7367568359375,0.006191849708557129,0.011534417048096657,0.015206383541226387
1686426762574701600,5.74670166015625,0.007060306146740913,0.011682222597301006,0.012822587974369526
1686426762584646700,5.756646728515625,0.007652060594409704,0.00797403696924448,0.0065412563271820545
1686426762594591700,5.766591796875,0.011145062744617462,0.003995540551841259,0.006137254647910595
1686426762604536600,5.77653662109375,0.00812344066798687,0.004983573220670223,0.007386809680610895
1686426762614481700,5.786481689453125,0.011396198533475399,0.008916796185076237,0.011991947889328003
1686426762624426500,5.796426513671875,0.016036756336688995,0.010512827895581722,0.016038088127970695
1686426762634371800,5.806371826171875,0.008280300535261631,0.007415039464831352,0.012172509916126728
1686426762644316700,5.816316650390625,0.010010556317865849,-0.001579787116497755,0.004749215207993984
1686426762654261500,5.826261474609375,0.005209675524383783,-0.004129231441766024,0.0015249260468408465
1686426762664206800,5.836206787109375,0.003129480639472604,-0.00881959032267332,0.0026993800420314074
1686426762674150700,5.846150634765625,0.0012000204296782613,-0.012342685833573341,0.007017962168902159
1686426762684095700,5.856095703125,0.0001294296234846115,-0.013442838564515114,0.01059458777308464
1686426762694040600,5.86604052734375,0.0019004317000508308,-0.009127452038228512,0.013332316651940346
1686426762703985700,5.875985595703125,-0.00020719393796753138,-0.003254382871091366,0.02110981196165085
1686426762713930500,5.885930419921875,0.0033422671258449554,0.008864065632224083,0.034505512565374374
1686426762723875800,5.895875732421875,0.0034967304673045874,0.01044305320829153,0.0474330298602581
1686426762733820700,5.905820556640625,0.0024311996530741453,0.010207097046077251,0.047085221856832504
1686426762743765500,5.915765625,0.005499161314219236,0.01504180021584034,0.042865972965955734
1686426762753710800,5.9257109375,0.005673332139849663,0.00866379588842392,0.03592311218380928
1686426762763655700,5.93565576171875,0.007457649800926447,0.003829092951491475,0.022227806970477104
1686426762773600500,5.9456005859375,0.006256031803786755,0.00748960766941309,0.014452975243330002
1686426762783545900,5.9555458984375,0.005303951445966959,0.00791491474956274,0.007582818623632193
1686426762793490700,5.96549072265625,0.0072869411669671535,0.004298341926187277,0.002773682354018092
1686426762803435500,5.975435546875,0.002028796123340726,0.006059756502509117,-0.003768639173358679
1686426762813379600,5.985379638671875,0.003775030840188265,0.005416869651526213,-0.010012952610850334
1686426762823324700,5.99532470703125,0.0011030812747776508,0.0031414648983627558,-0.005932990461587906
1686426762833269500,6.00526953125,-0.000505734293255955,0.0038517299108207226,-0.004816859494894743
1686426762843214800,6.01521484375,-0.0004495415778364986,0.011108310893177986,-0.0017904432024806738
1686426762853159700,6.02515966796875,-0.0007321029552258551,0.014972824603319168,0.0017555557424202561
1686426762863104500,6.0351044921875,0.00034408041392453015,0.018671156838536263,0.006656038574874401
1686426762873049900,6.0450498046875,-0.00014567491598427296,0.023574035614728928,0.01366174966096878
1686426762882994700,6.05499462890625,0.00030839405371807516,0.024656876921653748,0.013450028374791145
1686426762892939500,6.064939453125,-0.0005845638806931674,0.020480774343013763,0.016266588121652603
1686426762902884600,6.074884521484375,-0.001252750982530415,0.015024223364889622,0.0137815922498703
1686426762912829700,6.08482958984375,-0.003343332326039672,0.01884506084024906,0.013500895351171494
1686426762922774500,6.0947744140625,-0.0029401297215372324,0.028209000825881958,0.014093182049691677
1686426762932718800,6.10471875,-0.0034908715169876814,0.021032314747571945,0.011078749783337116
1686426762942663700,6.11466357421875,-0.0018972359830513597,0.018068216741085052,0.006478671915829182
1686426762952608500,6.1246083984375,0.0021025657188147306,0.01882588490843773,0.008327172137796879
1686426762962553900,6.134553955078125,0.0020064255222678185,0.02143285423517227,0.013374661095440388
1686426762972498700,6.144498779296875,0.006259227637201548,0.026519758626818657,0.018499914556741714
1686426762982443500,6.154443603515625,0.007712514605373144,0.03695668652653694,0.026265958324074745
1686426762992388600,6.164388671875,0.0057739997282624245,0.03706454485654831,0.02750752493739128
1686426763002333700,6.174333740234375,0.00612393906340003,0.040110934525728226,0.0264851376414299
1686426763012278500,6.184278564453125,0.006750847212970257,0.03730156645178795,0.02827637828886509
1686426763022223600,6.1942236328125,0.002397910226136446,0.03449299558997154,0.02256602980196476
1686426763032168700,6.204168701171875,0.002675145398825407,0.03279842808842659,0.021038705483078957
1686426763042113500,6.214113525390625,0.0008676578872837126,0.026983680203557014,0.016216253861784935
1686426763052058600,6.22405859375,-0.001032241270877421,0.018025338649749756,0.0006122607155703008
1686426763062002700,6.234002685546875,-0.0012889700010418892,0.01398612279444933,-0.011758921667933464
1686426763071947500,6.243947509765625,-0.0005320995696820319,0.026700319722294807,0.002397643867880106
1686426763081892600,6.253892578125,0.007798002101480961,0.03798386827111244,0.02876134030520916
1686426763091837700,6.263837646484375,0.011535748839378357,0.02528112195432186,0.02787131257355213
1686426763101782500,6.273782470703125,0.006355900317430496,0.00929310079663992,0.005297559779137373
1686426763111727600,6.2837275390625,0.012959474697709084,-0.0006215817993506789,-0.01555286068469286
1686426763121672700,6.293672607421875,0.012573315761983395,-0.006704774219542742,-0.02052151970565319
1686426763131617500,6.303617431640625,0.01249022502452135,-0.0028903286438435316,-0.011110175400972366
1686426763141562600,6.313562744140625,0.010758105665445328,-0.0009036105475388467,-0.002429601736366749
1686426763151507700,6.3235078125,0.008303203620016575,-0.00812104344367981,-0.011093930341303349
1686426763161452500,6.33345263671875,0.004729241598397493,0.005628058221191168,-0.004053597338497639
1686426763171397600,6.343397705078125,0.007750065065920353,0.021416075527668,0.018037589266896248
1686426763181342700,6.3533427734375,0.010065949521958828,0.03443387523293495,0.05660655349493027
1686426763191286500,6.36328662109375,0.012605007737874985,0.033248234540224075,0.07601354271173477
1686426763201231600,6.373231689453125,0.014638064429163933,0.033056486397981644,0.07302866876125336
1686426763211176700,6.3831767578125,0.009926666505634785,0.03309350460767746,0.06704454869031906
1686426763221121500,6.39312158203125,0.009251022711396217,0.032833315432071686,0.06232995167374611
1686426763231066600,6.403066650390625,0.01344496849924326,0.0310995951294899,0.06700965762138367
1686426763241011700,6.41301171875,0.01251259632408619,0.031015174463391304,0.06286205351352692
1686426763250956500,6.42295654296875,0.008134359493851662,0.0246701929718256,0.05224083364009857
1686426763260901600,6.432901611328125,0.010259561240673065,0.01859765313565731,0.04314427450299263
1686426763270846700,6.4428466796875,0.011729094199836254,0.0147445909678936,0.0335632860660553
1686426763280791800,6.452791748046875,0.01136850193142891,0.012084092944860458,0.026162095367908478
1686426763290736600,6.462736572265625,0.013075055554509163,0.0014913701452314854,0.017914019525051117
1686426763300681500,6.472681396484375,0.012251073494553566,-0.0013736584223806858,0.017520669847726822
1686426763310626800,6.482626708984375,0.011621502228081226,-0.009439840912818909,0.013499297201633453
1686426763320571600,6.492571533203125,0.0112196309491992,-0.01823386549949646,0.0013675332302227616
1686426763330515700,6.502515625,0.008867527358233929,-0.02178732119500637,-0.0022391858510673046
1686426763340460500,6.51246044921875,0.005762547720223665,-0.02291756682097912,-0.004460262134671211
1686426763350405600,6.522405517578125,0.0035246936604380608,-0.026261432096362114,-0.007598265074193478
1686426763360350700,6.532350830078125,0.006731672212481499,-0.0265360027551651,-0.010215086862444878
1686426763370295800,6.5422958984375,0.005832322873175144,-0.026986876502633095,-0.00512871565297246
1686426763380240600,6.55224072265625,0.007650462910532951,-0.024748222902417183,-0.0011696603614836931
1686426763390185500,6.562185546875,0.009094694629311562,-0.019409650936722755,-0.0025931198615580797
1686426763400130800,6.572130859375,0.007260842248797417,-0.013254818506538868,-0.0023377228062599897
1686426763410075600,6.58207568359375,0.008316519670188427,-0.00407623453065753,-0.0057196710258722305
1686426763420020500,6.5920205078125,0.011256649158895016,0.011320298537611961,0.0013286510948091745
1686426763429965800,6.6019658203125,0.015201323665678501,0.026688601821660995,0.007701328955590725
1686426763439910700,6.61191064453125,0.017180584371089935,0.02869902178645134,0.007266168482601643
1686426763449855500,6.62185546875,0.016816264018416405,0.020781710743904114,0.0008905610884539783
1686426763459799600,6.631799560546875,0.014296380802989006,0.010171676985919476,-0.01161537691950798
1686426763469744600,6.64174462890625,0.015958193689584732,0.0017025588313117623,-0.024562867358326912
1686426763479689500,6.651689453125,0.013261476531624794,-0.005879993550479412,-0.02971821464598179
1686426763489634800,6.661634765625,0.012434565462172031,-0.01255067903548479,-0.02599351666867733
1686426763499579600,6.67157958984375,0.013075055554509163,-0.006748716346919537,-0.021919414401054382
1686426763509525000,6.68152490234375,0.00959536898881197,-0.005851497408002615,-0.013462278991937637
1686426763519470300,6.69147021484375,0.007220628671348095,-0.003882356220856309,-0.010497914627194405
1686426763529415200,6.701415283203125,0.007232879288494587,-0.004310326185077429,-0.005194495897740126
1686426763539360000,6.711360107421875,0.0025417208671569824,-0.009162339381873608,-0.002667954657226801
1686426763549305000,6.72130517578125,0.003335076617076993,-0.0049553439021110535,0.002150236163288355
1686426763559250200,6.731250244140625,0.004712463356554508,0.0019510318525135517,0.005119927227497101
1686426763569195000,6.741195068359375,0.005242432467639446,0.007333280518651009,0.01161377876996994
1686426763579140000,6.75114013671875,0.007764712441712618,0.008332764729857445,0.011518704704940319
1686426763589085200,6.761085205078125,0.007686415687203407,0.004682902246713638,0.008165251463651657
1686426763599029000,6.771029052734375,0.006658701691776514,0.0008684568456374109,-0.0008114652009680867
1686426763608974300,6.780974365234375,0.007607319392263889,-0.0018341189716011286,-0.006916761863976717
1686426763618919200,6.790919189453125,0.009443568997085094,-0.005594236310571432,-0.008131962269544601
1686426763628864000,6.800864013671875,0.009720005095005035,-0.001630387152545154,0.00017789915727917105
1686426763638809000,6.81080908203125,0.010588995181024075,-0.005601692944765091,0.0032772859558463097
1686426763648754200,6.820754150390625,0.009605756029486656,-0.004396612755954266,0.01185133308172226
1686426763658699000,6.830698974609375,0.008894424885511398,-0.00555109279230237,0.007892544381320477
1686426763668644000,6.84064404296875,0.0030828751623630524,-0.016756875440478325,-0.00785499345511198
1686426763678589200,6.850589111328125,0.0015909724170342088,-0.011483018286526203,-0.015961922705173492
1686426763688534300,6.8605341796875,0.005215534474700689,0.005215268116444349,-0.0016112125013023615
1686426763698479000,6.87047900390625,0.008935172110795975,0.023568974807858467,0.017528127878904343
1686426763708424200,6.880424072265625,0.00896686315536499,0.02364913746714592,0.019238142296671867
1686426763718369300,6.890369384765625,0.012032161466777325,0.022371085360646248,0.012294483371078968
1686426763728313000,6.90031298828125,0.012375443242490292,0.01468680053949356,-0.0004141215467825532
1686426763738258200,6.910258056640625,0.0115559883415699,0.002642388455569744,-0.0044264402240514755
1686426763748203000,6.920203125,0.01242098305374384,-0.0024082965683192015,-0.00047164582065306604
1686426763758148000,6.930148193359375,0.011816445738077164,-0.0062970444560050964,0.0027172232512384653
1686426763768093200,6.94009326171875,0.014222078956663609,-0.008894424885511398,0.0020879183430224657
1686426763778038300,6.950038330078125,0.012647352181375027,-0.0070485882461071014,0.0034381409641355276
1686426763787983000,6.959983154296875,0.011877432465553284,-0.0032764871139079332,0.0038426751270890236
1686426763797928200,6.96992822265625,0.010359962470829487,0.0070520504377782345,0.007564176339656115
1686426763807873300,6.979873291015625,0.01218902226537466,0.01293683797121048,0.007592672016471624
1686426763817818000,6.989818115234375,0.011651596054434776,0.015725966542959213,0.008317318744957447
1686426763827763200,6.99976318359375,0.008700546808540821,0.018368886783719063,0.004826979245990515
1686426763837708300,7.009708251953125,0.009578324854373932,0.020967332646250725,0.0024383901618421078
1686426763847653000,7.019653076171875,0.008698949590325356,0.016103070229291916,-0.001770469476468861
1686426763857598000,7.029597900390625,0.00899962056428194,0.014512363821268082,-0.006566556170582771
1686426763867542000,7.0395419921875,0.01452780980616808,0.008145811036229134,-0.012444951571524143
1686426763877487000,7.049487060546875,0.013738715089857578,-0.002115348819643259,-0.0157731045037508
1686426763887432200,7.05943212890625,0.01423326414078474,-0.010300574824213982,-0.017430922016501427
1686426763897377300,7.069377197265625,0.015339541248977184,-0.013672934845089912,-0.016463395208120346
1686426763907322000,7.079322021484375,0.012384763918817043,-0.017540112137794495,-0.018447717651724815
1686426763917267200,7.08926708984375,0.010761034674942493,-0.014356035739183426,-0.020781977102160454
1686426763927212300,7.09921240234375,0.015320366248488426,-0.0108257494866848,-0.016750218346714973
1686426763937157000,7.1091572265625,0.014345915988087654,-0.005029912106692791,-0.012721387669444084
1686426763947102000,7.11910205078125,0.014811170287430286,-0.0020791299175471067,-0.006111155729740858
1686426763957047300,7.12904736328125,0.012717659585177898,0.0019971043802797794,-0.003168096300214529
1686426763966992100,7.1389921875,0.008018244989216328,0.001056476030498743,-0.007639011368155479
1686426763976937000,7.14893701171875,0.009342102333903313,0.001957423286512494,-0.009371663443744183
1686426763986882300,7.15888232421875,0.005260275676846504,-0.003168629016727209,-0.010149306617677212
1686426763996827100,7.1688271484375,0.003689276985824108,-0.0003784351865760982,-0.004511128645390272
1686426764006772000,7.17877197265625,-0.001448759576305747,0.004489823244512081,-0.0013960290234535933
1686426764016716300,7.18871630859375,0.0025843314360827208,0.005886118393391371,0.003974767867475748
1686426764026661000,7.1986611328125,0.00026312030968256295,0.02407790534198284,0.008576709777116776
1686426764036606000,7.20860595703125,-0.0034328147303313017,0.024175377562642097,0.009589243680238724
1686426764046551300,7.21855126953125,-0.00230816169641912,0.028414864093065262,0.00941986683756113
1686426764056496000,7.22849609375,-0.0016583503456786275,0.029953904449939728,0.00848616287112236
1686426764066441000,7.23844091796875,0.001761148450896144,0.023144200444221497,0.0016085492679849267
1686426764076386300,7.24838623046875,0.003631752682849765,0.018082598224282265,-0.01041455753147602
1686426764086331100,7.2583310546875,0.0022303974255919456,0.014473214745521545,-0.025787921622395515
1686426764096276000,7.26827587890625,0.0032509206794202328,0.011859056539833546,-0.025170067325234413
1686426764106221300,7.27822119140625,0.005083708092570305,0.008509065955877304,-0.017376327887177467
1686426764116166100,7.288166259765625,0.00700970645993948,0.01673290692269802,-0.014908109791576862
1686426764126111000,7.298111083984375,0.003965446725487709,0.013142965734004974,-0.017249826341867447
1686426764136056000,7.30805615234375,0.00586641114205122,0.009178051725029945,-0.021891450509428978
1686426764146001200,7.318001220703125,0.004877046681940556,0.00006391586794052273,-0.019044797867536545
1686426764155945000,7.327945068359375,0.006155896931886673,0.012469186447560787,-0.015690546482801437
1686426764165890300,7.337890380859375,0.005090366117656231,0.016461797058582306,-0.011843076907098293
1686426764175835100,7.347835205078125,0.003069559345021844,0.021021395921707153,-0.007066431455314159
1686426764185780000,7.357780029296875,0.003609115956351161,0.024159397929906845,0.0022655511274933815
1686426764195725300,7.367725341796875,0.004343882203102112,0.024746891111135483,0.0021875204984098673
1686426764205670100,7.377670166015625,0.002909503411501646,0.022762304171919823,-0.0009896307019516826
1686426764215615000,7.387614990234375,0.00395612558349967,0.016775252297520638,-0.007212905213236809
1686426764225560000,7.39756005859375,0.00361737166531384,0.029865752905607224,-0.0013771206140518188
1686426764235505200,7.407505126953125,0.005209409166127443,0.03664722666144371,0.013816745951771736
1686426764245450200,7.4174501953125,0.006835002917796373,0.04735206812620163,0.026038790121674538
1686426764255395000,7.42739501953125,0.012599947862327099,0.0444745235145092,0.014642858877778053
1686426764265340200,7.437340087890625,0.01426495611667633,0.03307566046714783,0.0003677825443446636
1686426764275285200,7.44728515625,0.013440174981951714,0.028690500184893608,-0.0059540290385484695
1686426764285230000,7.45722998046875,0.016285495832562447,0.021565746515989304,-0.006654706783592701
1686426764295175200,7.467175048828125,0.012204201892018318,0.026015089824795723,-0.0009496832499280572
1686426764305119000,7.477118896484375,0.014254836365580559,0.028658809140324593,0.007481618318706751
1686426764315064000,7.48706396484375,0.017317472025752068,0.032097749412059784,0.012504872865974903
1686426764325009200,7.497009033203125,0.01619601435959339,0.03707892447710037,0.022121014073491096
1686426764334954200,7.506954345703125,0.018098575994372368,0.04134371131658554,0.03223356977105141
1686426764344899000,7.516899169921875,0.01944427192211151,0.051248807460069656,0.04663008451461792
1686426764354844200,7.52684423828125,0.020144149661064148,0.04322310537099838,0.05062482878565788
1686426764364789200,7.536789306640625,0.017467673867940903,0.029215410351753235,0.043592218309640884
1686426764374734000,7.546734130859375,0.01613236404955387,0.022562300786376,0.029934462159872055
1686426764384679200,7.55667919921875,0.014129667542874813,0.017302291467785835,0.027051324024796486
1686426764394624300,7.566624267578125,0.013629259541630745,0.020488763228058815,0.0314205065369606
1686426764404569000,7.576569091796875,0.007906924933195114,0.01623622700572014,0.02990143932402134
1686426764414514200,7.58651416015625,0.004839496221393347,0.016641294583678246,0.020591028034687042
1686426764424459300,7.596459228515625,0.0035124430432915688,0.010211092419922352,0.012251872569322586
1686426764434404000,7.606404052734375,-0.00003861583536490798,0.0032812808640301228,0.002975017298012972
1686426764444349000,7.616348876953125,-0.0032173648942261934,-0.00680171325802803,-0.001178448786959052
1686426764454293200,7.626293212890625,-0.0025659557431936264,-0.0173193346709013,-0.003817108692601323
1686426764464238000,7.636238037109375,0.0012623383663594723,-0.020777184516191483,-0.0034474621061235666
1686426764474183200,7.64618310546875,-0.0014301175251603127,-0.014334730803966522,0.0014919028617441654
1686426764484128300,7.656128173828125,0.0029116340447217226,-0.01034504920244217,0.015266837552189827
1686426764494073000,7.666072998046875,0.004137753508985043,-0.0032679650466889143,0.021031782031059265
1686426764504018200,7.67601806640625,0.005449892953038216,0.0023760723415762186,0.018860772252082825
1686426764513962500,7.68596240234375,0.00803076196461916,0.010898986831307411,0.021945245563983917
1686426764523907300,7.6959072265625,0.011844675056636333,0.016525980085134506,0.029440978541970253
1686426764533852700,7.705852783203125,0.013659886084496975,0.026163959875702858,0.03674896061420441
1686426764543797500,7.715797607421875,0.012720055878162384,0.0391700379550457,0.03551751375198364
1686426764553742300,7.725742431640625,0.012985306791961193,0.03801848739385605,0.01896064169704914
1686426764563687700,7.735687744140625,0.011087272316217422,0.025314677506685257,0.00800572894513607
1686426764573632500,7.745632568359375,0.011060107499361038,0.013550962321460247,-0.006383330561220646
1686426764583577600,7.75557763671875,0.013073457404971123,0.007514375261962414,-0.010240120813250542
1686426764593522400,7.7655224609375,0.012558935210108757,0.001615207176655531,-0.010131729766726494
1686426764603466500,7.775466552734375,0.009945841506123543,-0.005142563953995705,-0.012383166700601578
1686426764613411300,7.785411376953125,0.010155964642763138,-0.009163671173155308,-0.01836409419775009
1686426764623356700,7.795356689453125,0.01164786797016859,-0.010647851042449474,-0.016350744292140007
1686426764633301500,7.805301513671875,0.008857141248881817,-0.012299809604883194,-0.008852081373333931
1686426764643246300,7.815246337890625,0.005741509143263102,-0.01631186157464981,-0.0010873686987906694
1686426764653191700,7.825191650390625,0.003340402850881219,-0.017947575077414513,0.0015893745003268123
1686426764663136500,7.835136474609375,0.0005803027888759971,-0.015155782923102379,0.0041071269661188126
1686426764673081600,7.84508154296875,0.00022423815971706063,-0.01067954208701849,0.011001251637935638
1686426764683026400,7.8550263671875,0.003088467987254262,-0.00221947836689651,0.014153636060655117
1686426764692971500,7.864971435546875,0.0018285263795405626,0.014978150837123394,0.022719161584973335
1686426764702916600,7.87491650390625,0.003935087006539106,0.022115422412753105,0.033967554569244385
1686426764712861400,7.884861328125,0.006647250149399042,0.020871726796030998,0.03816602751612663
1686426764722806500,7.894806640625,0.008596683852374554,0.011635084636509418,0.034869033843278885
1686426764732751600,7.904751708984375,0.00472444761544466,0.009191101416945457,0.03309829905629158
1686426764742696400,7.914696533203125,0.003151318524032831,0.00896792858839035,0.030714502558112144
1686426764752641500,7.9246416015625,0.0007699198904447258,0.010628942400217056,0.03163702040910721
1686426764762585300,7.93458544921875,0.002100967802107334,0.013609551824629307,0.03441150486469269
1686426764772530400,7.944530517578125,0.0007667240570299327,0.009475260972976685,0.029350165277719498
1686426764782475500,7.9544755859375,0.004580370616167784,0.01227530837059021,0.02323581464588642
1686426764792420600,7.964420654296875,0.005527124274522066,0.009880327619612217,0.021813951432704926
1686426764802365400,7.974365478515625,0.007926099933683872,0.012985839508473873,0.018816297873854637
1686426764812310500,7.984310546875,0.00782836228609085,0.008568720892071724,0.013586648739874363
1686426764822255600,7.994255615234375,0.008652344346046448,0.000055926382628967986,0.011721370741724968
1686426764832200400,8.004200439453125,0.005758020561188459,-0.01019671093672514,0.005049087107181549
1686426764842145500,8.0141455078125,0.00466532539576292,-0.017042366787791252,0.005341768264770508
1686426764852090600,8.024090576171876,0.006416353862732649,-0.02112152986228466,-0.0002926813904196024
1686426764862035500,8.034035400390625,0.006458964664489031,-0.028004202991724014,-0.0029206888284534216
1686426764871980500,8.04398046875,0.0034328147303313017,-0.028360800817608833,-0.003953728824853897
1686426764881925600,8.053925537109375,0.005340436939150095,-0.028869997709989548,-0.002365153282880783
1686426764891870500,8.063870361328124,0.005752161610871553,-0.030368026345968246,0.0021632856223732233
1686426764901815300,8.073815185546875,0.0070829433389008045,-0.026148246601223946,0.00007057376933516935
1686426764911759600,8.083759521484374,0.006247243378311396,-0.017004016786813736,-0.007843009196221828
1686426764921704400,8.093704345703125,0.009855560027062893,-0.01715981215238571,-0.011795406229794025
1686426764931649500,8.1036494140625,0.007737814448773861,-0.011953598819673061,-0.014434865675866604
1686426764941594600,8.1135947265625,0.010988735593855381,-0.009935189038515091,-0.008855010382831097
1686426764951539500,8.12353955078125,0.01050137635320425,-0.001151018193922937,0.004186489153653383
1686426764961484500,8.133484619140624,0.01062361616641283,0.011507252231240273,0.015872705727815628
1686426764971429600,8.1434296875,0.011924836784601212,0.010236924514174461,0.0268329456448555
1686426764981374500,8.15337451171875,0.01690947450697422,0.0086590014398098,0.02966761402785778
1686426764991319300,8.1633193359375,0.017135843634605408,-0.001514273346401751,0.019818712025880814
1686426765001264600,8.1732646484375,0.017169132828712463,-0.0043803672306239605,0.01064891554415226
1686426765011209500,8.18320947265625,0.015852466225624084,-0.007735950406640768,-0.004249606281518936
1686426765021154300,8.193154296875,0.008268049918115139,-0.003829625668004155,-0.010143714025616646
1686426765031099600,8.203099609375,0.01204015128314495,-0.00015472965606022626,-0.009096825495362282
1686426765041044500,8.21304443359375,0.013000753708183765,0.003032008884474635,-0.017671670764684677
1686426765050989600,8.222989501953125,0.007799599785357714,0.002630137838423252,-0.021510351449251175
1686426765060934700,8.2329345703125,0.009058210067451,0.00800413079559803,-0.021698104217648506
1686426765070879500,8.24287939453125,0.008057127706706524,0.012557070702314377,-0.02010074071586132
1686426765080823300,8.2528232421875,0.009265136905014515,0.01942802593111992,-0.0065042381174862385
1686426765090768600,8.2627685546875,0.016046877950429916,0.02960156835615635,0.0019321233266964555
1686426765100713500,8.27271337890625,0.018096977844834328,0.027355192229151726,0.002820287598297
1686426765110658300,8.282658203125,0.01751481182873249,0.028961077332496643,0.002547047333791852
1686426765120603600,8.292603759765624,0.015899337828159332,0.023317040875554085,0.0022383867762982845
1686426765130548500,8.302548583984375,0.0166143961250782,0.020177707076072693,0.001588575541973114
1686426765140493600,8.31249365234375,0.020799554884433746,0.015533952042460442,-0.00014221279707271606
1686426765150438700,8.322438720703126,0.02040780335664749,0.009140501730144024,-0.005287173669785261
1686426765160383500,8.332383544921875,0.01991165615618229,0.005702893249690533,-0.0033007217571139336
1686426765170328600,8.34232861328125,0.024171382188796997,0.002689526416361332,-0.0013909690314903855
1686426765180273400,8.3522734375,0.02274046652019024,-0.0008010788587853312,-0.004260258749127388
1686426765190218500,8.362218505859374,0.021984128281474113,-0.006725014187395573,-0.01125212199985981
1686426765200163600,8.37216357421875,0.02353755012154579,-0.010921090841293335,-0.013937121257185936
1686426765210108400,8.3821083984375,0.0188400000333786,-0.014445251785218716,-0.01221352256834507
1686426765220053500,8.392053466796876,0.018032263964414597,-0.017855962738394737,-0.012830045074224472
1686426765229998600,8.40199853515625,0.014956045895814896,-0.023840617388486862,-0.01623809151351452
1686426765239942700,8.411942626953126,0.012430304661393166,-0.03127483278512955,-0.023424899205565453
1686426765249887500,8.421887451171875,0.008272577077150345,-0.03502003476023674,-0.02178678847849369
1686426765259832600,8.43183251953125,0.007091199047863483,-0.028964539989829063,-0.011566640809178352
1686426765269777700,8.441777587890625,0.009891779161989689,-0.01564527302980423,0.003612311789765954
1686426765279722500,8.451722412109374,0.013260145671665668,0.0013749900972470641,0.025175927206873894
1686426765289667600,8.46166748046875,0.01762639731168747,0.011711250990629196,0.04591582715511322
1686426765299612400,8.4716123046875,0.018544655293226242,0.013805028051137924,0.04435308277606964
1686426765309557500,8.4815576171875,0.02063896507024765,0.010477142408490181,0.040835049003362656
1686426765319502600,8.491502685546875,0.01738032139837742,0.004999552387744188,0.030409038066864014
1686426765329447400,8.501447509765624,0.018569689244031906,0.006555637344717979,0.022368421778082848
1686426765339392500,8.511392578125,0.01642131805419922,0.009378321468830109,0.014896923676133156
1686426765349337600,8.521337646484374,0.01571371592581272,0.006951382849365473,0.008223309181630611
1686426765359282400,8.531282470703125,0.013710219413042068,0.003909786697477102,-0.0002665824140422046
1686426765369227500,8.5412275390625,0.01215466670691967,-0.001008272753097117,-0.00791278388351202
1686426765379172600,8.551172607421876,0.012871590442955494,-0.005573463626205921,-0.011289140209555626
1686426765389117400,8.561117431640625,0.00805979035794735,-0.0064831990748643875,-0.01492275670170784
1686426765399062500,8.5710625,0.00686243362724781,0.003242931328713894,-0.014958176761865616
1686426765409006600,8.581006591796875,0.003579288488253951,0.015121961012482643,-0.015508918091654778
1686426765418951400,8.590951416015624,0.003029345767572522,0.017523067072033882,-0.010880078189074993
1686426765428896500,8.600896484375,-0.001651159836910665,0.015546202659606934,-0.00547386147081852
1686426765438841600,8.610841552734374,-0.0029531794134527445,0.007767908275127411,0.0005299690528772771
1686426765448786400,8.620786376953125,-0.0022359900176525116,0.001350222621113062,-0.0006221143994480371
1686426765458731500,8.6307314453125,-0.004767058417201042,0.00070520507870242,0.004034955520182848
1686426765468676600,8.640676513671876,-0.005231247283518314,0.0038868836127221584,0.014163223095238209
1686426765478621400,8.650621337890625,-0.0003866909828502685,0.005042162723839283,0.02052311785519123
1686426765488566500,8.66056640625,0.002861566608771682,0.002960369922220707,0.020802482962608337
1686426765498511600,8.67051171875,0.007711449172347784,0.002907373011112213,0.01823573000729084
1686426765508457000,8.68045703125,0.004944158717989922,0.0011211908422410488,0.016335830092430115
1686426765518401800,8.69040185546875,0.009730657562613487,-0.001145159243606031,0.012864399701356888
1686426765528347000,8.700346923828125,0.009061671793460846,-0.0031611721497029066,0.00526666734367609
1686426765538292000,8.7102919921875,0.01079911831766367,-0.010499779134988785,-0.006340720225125551
1686426765548236800,8.72023681640625,0.011596201919019222,-0.01306173950433731,-0.014157896861433983
1686426765558182000,8.730181884765624,0.012929913587868214,-0.012117915786802769,-0.016096677631139755
1686426765568127000,8.740126953125,0.01359597034752369,-0.012829245999455452,-0.01685754396021366
1686426765578070800,8.75007080078125,0.016467124223709106,-0.01444312185049057,-0.013459616340696812
1686426765588015900,8.760015869140625,0.014073207974433899,-0.015390141867101192,-0.006099704187363386
1686426765597961000,8.7699609375,0.011059575714170933,-0.014267086051404476,-0.003347327234223485
1686426765607905800,8.77990576171875,0.009972472675144672,-0.011182347312569618,-0.003864779369905591
1686426765617851000,8.789850830078125,0.005305549595504999,-0.008555671200156212,-0.005269863177090883
1686426765627796000,8.7997958984375,0.0046695866622030735,-0.0024919197894632816,-0.0017627463676035404
1686426765637740800,8.80974072265625,0.0017182715237140656,0.0054304515942931175,0.001668736687861383
1686426765647686000,8.819685791015624,0.00027377295191399753,0.01278583612293005,0.00621129060164094
1686426765657631000,8.829630859375,0.001175519311800599,0.015968846157193184,0.0067849354818463326
1686426765667575800,8.839575927734375,0.001258343574590981,0.021570539101958275,0.003966778516769409
1686426765677521000,8.84952099609375,0.00047830372932367027,0.02828383632004261,0.0043832967057824135
1686426765687466000,8.859466064453125,0.00501153664663434,0.029449768364429474,0.010480604134500027
1686426765697410800,8.869410888671876,0.009676063433289528,0.02737223543226719,0.00418302696198225
1686426765707356000,8.87935595703125,0.011304053477942944,0.02731444500386715,0.0021379857789725065
1686426765717301000,8.889301025390624,0.01152509544044733,0.025954103097319603,0.005771336145699024
1686426765727245800,8.899245849609375,0.011165834963321686,0.0226158294826746,0.005691708065569401
1686426765737191000,8.90919091796875,0.011810054071247578,0.01630973070859909,0.004969991277903318
1686426765747135000,8.919135009765625,0.014879346825182438,0.015115569345653057,0.0059244679287076
1686426765757079800,8.929079833984375,0.01047288067638874,0.01410623174160719,0.0014559502014890313
1686426765767025000,8.93902490234375,0.007457649800926447,0.015423164702951908,-0.004053863696753979
1686426765776970000,8.948969970703125,0.006611830089241266,0.013934457674622536,-0.00236275652423501
1686426765786914800,8.958914794921874,0.008066714741289616,0.01281832717359066,0.003885019337758422
1686426765796860000,8.96885986328125,0.009271262213587761,0.013554691337049007,0.014240721240639687
1686426765806805000,8.978804931640624,0.006511961575597525,0.0043806335888803005,0.02093644067645073
1686426765816749800,8.988749755859375,0.005775597412139177,-0.0015960324089974165,0.023072829470038414
1686426765826695000,8.99869482421875,0.00421418622136116,0.0003355582884978503,0.02323075383901596
1686426765836640000,9.008639892578126,0.00782756321132183,-0.0007688545738346875,0.027657460421323776
1686426765846584800,9.018584716796875,0.008172974921762943,0.0025952504947781563,0.035358790308237076
1686426765856530000,9.028530029296874,0.013519536703824997,0.004741758108139038,0.031747277826070786
1686426765866474800,9.038474853515625,0.01672598347067833,0.0016860472969710827,0.025357287377119064
1686426765876419800,9.048419921875,0.015795741230249405,-0.0007214503129944205,0.015328622423112392
1686426765886365000,9.058364990234375,0.01944347284734249,0.0009211873984895647,0.013886786997318268
1686426765896309800,9.068309814453125,0.01894892379641533,0.0059993029572069645,0.014358965680003166
1686426765906255000,9.078255126953126,0.017847174778580666,0.01182097289711237,0.012925120070576668
1686426765916200000,9.088199951171875,0.016816796734929085,0.018153438344597816,0.015248994342982769
1686426765926144000,9.09814404296875,0.01739470288157463,0.022456839680671692,0.0193081833422184
1686426765936088800,9.1080888671875,0.015438344329595566,0.02058783359825611,0.021323131397366524
1686426765946034000,9.118033935546874,0.012199674732983112,0.020727649331092834,0.021819811314344406
1686426765955978800,9.127978759765625,0.012937902472913265,0.028016187250614166,0.017234114930033684
1686426765965923800,9.137923828125,0.010454771108925343,0.022767629474401474,0.016595488414168358
1686426765975869000,9.147868896484376,0.005597964394837618,0.01931510865688324,0.013975203968584538
1686426765985813800,9.157813720703125,0.004412591457366943,0.02226322703063488,0.014112623408436775
1686426765995759000,9.167759033203126,0.0034591800067573786,0.01859312504529953,0.009415073320269585
1686426766005704000,9.177703857421875,0.003840810852125287,0.01876756176352501,0.008501342497766018
1686426766015648800,9.187648681640624,0.002703907433897257,0.01775582693517208,0.006109557580202818
1686426766025594000,9.197593994140625,0.005124987103044987,0.011475028470158577,-0.00022530343267135322
1686426766035539000,9.2075390625,0.005505552981048822,0.008289887569844723,-0.010458500124514103
1686426766045483800,9.21748388671875,0.00472577940672636,0.010104832239449024,-0.014660968445241451
1686426766055428900,9.227428955078125,0.008096275851130486,0.007756190374493599,-0.018664231523871422
1686426766065374000,9.2373740234375,0.009003348648548126,0.0017662084428593516,-0.018634937703609467
1686426766075318800,9.24731884765625,0.011391405016183853,0.0020634171087294817,-0.014400511048734188
1686426766085264000,9.257263916015624,0.007731422781944275,-0.003133208956569433,-0.011533351615071297
1686426766095209000,9.267208984375,0.005934321787208319,-0.007131678983569145,-0.01125345379114151
1686426766105152800,9.27715283203125,0.007077616639435291,-0.01575446128845215,-0.011115235276520252
1686426766115098000,9.28709814453125,0.006469883490353823,-0.01721786893904209,-0.012563728727400303
1686426766125043000,9.29704296875,0.0068360683508217335,-0.016378972679376602,-0.01344630029052496
1686426766134987800,9.30698779296875,0.010941863991320133,-0.011769574135541916,-0.010358631610870361
1686426766144932900,9.316932861328125,0.00791251752525568,-0.013429522514343262,-0.01113068126142025
1686426766154878000,9.3268779296875,0.010268083773553371,-0.015263641253113747,-0.008469651453197002
1686426766164822800,9.33682275390625,0.011510981246829033,-0.015331019647419453,-0.00811864621937275
1686426766174767900,9.346767822265624,0.011315505020320415,-0.007934356108307838,-0.019343869760632515
1686426766184713000,9.356712890625,0.011980229988694191,-0.009910421445965767,-0.021649368107318878
1686426766194657800,9.36665771484375,0.009207346476614475,0.0013100089272484183,-0.02893497794866562
1686426766204603000,9.376602783203126,0.010461429134011269,-0.007997472770512104,-0.02335219457745552
1686426766214548000,9.3865478515625,0.010520817711949348,-0.009334113448858261,-0.014098508283495903
1686426766224492800,9.396492919921876,0.011511780321598053,-0.006585997529327869,-0.009824667125940323
1686426766234438000,9.40643798828125,0.006284261122345924,-0.009678726084530354,-0.011938950978219509
1686426766244383000,9.416383056640624,0.011231082491576672,-0.011215636506676674,-0.012204734608530998
1686426766254328000,9.426328125,0.008126103319227695,-0.012749616988003254,-0.009306682273745537
1686426766264273000,9.43627294921875,0.0011259844759479165,-0.00782489962875843,-0.024765534326434135
1686426766274217700,9.4462177734375,0.003041063668206334,-0.010525078512728214,-0.04334001615643501
1686426766284163000,9.4561630859375,0.001683384063653648,-0.012081696651875973,-0.04319034889340401
1686426766294107000,9.46610693359375,-0.00009986854274757206,0.0025073662400245667,-0.039153795689344406
1686426766304052000,9.476052001953125,-0.0014982944121584296,0.0036171053070575,-0.04380074515938759
1686426766313996800,9.485996826171874,0.0005640574963763356,0.006686931010335684,-0.04081187769770622
1686426766323942000,9.49594189453125,0.0007099987124092877,0.011501659639179707,-0.03155073523521423
1686426766333887000,9.505886962890624,0.009063269942998886,0.018790198490023613,-0.020425911992788315
1686426766343831800,9.515831787109375,0.01095677725970745,0.013263873755931854,-0.01618616096675396
1686426766353777000,9.52577685546875,0.018823755905032158,0.005533515941351652,-0.011641742661595345
1686426766363721700,9.5357216796875,0.021825935691595078,-0.0030770162120461464,-0.013874802738428116
1686426766373667000,9.5456669921875,0.022277342155575752,-0.013627927750349045,-0.015135010704398155
1686426766383612000,9.55561181640625,0.022492259740829468,-0.01967969536781311,-0.0191904716193676
1686426766393556700,9.565556640625,0.021569207310676575,-0.020412864163517952,-0.021020064130425453
1686426766403502000,9.575502197265624,0.019345467910170555,-0.016379505395889282,-0.018369153141975403
1686426766413447000,9.585447021484375,0.020071977749466896,-0.017601896077394485,-0.008896555751562119
1686426766423391700,9.595391845703125,0.018504709005355835,-0.017048757523298264,0.005868807900696993
1686426766433337000,9.605337158203126,0.016226107254624367,-0.016033029183745384,0.014195714145898819
1686426766443282000,9.615281982421875,0.016985641792416573,-0.01486390084028244,0.02118811011314392
1686426766453226800,9.625226806640624,0.019632024690508842,-0.01167449913918972,0.023722372949123383
1686426766463171800,9.635171875,0.017732124775648117,-0.010996724478900433,0.023872843012213707
1686426766473117000,9.645116943359374,0.015309447422623634,-0.011563179083168507,0.019282618537545204
1686426766483060700,9.655060791015625,0.009554889053106308,-0.008890696801245213,0.014545386657118797
1686426766493006000,9.665006103515625,0.012076104059815407,-0.007736216764897108,0.01136956736445427
1686426766502951000,9.674950927734375,0.01375016663223505,0.0017755294684320688,0.009957026690244675
1686426766512895700,9.684895751953125,0.013626595959067345,0.005169195588678122,0.011869975365698338
1686426766522841000,9.694841064453126,0.01654542051255703,0.008804943412542343,0.010548247955739498
1686426766532786000,9.704785888671875,0.019958794116973877,0.01378079317510128,0.0130907678976655
1686426766542730800,9.714730712890624,0.018309764564037323,0.014241786673665047,0.012330702506005764
1686426766552675800,9.72467578125,0.022526348009705544,0.01841096580028534,0.007819307036697865
1686426766562621000,9.734620849609374,0.02293434366583824,0.019709521904587746,0.003501524217426777
1686426766572565800,9.744565673828125,0.020666396245360374,0.016262060031294823,0.001767273643054068
1686426766582510800,9.7545107421875,0.017356885597109795,0.009754626080393791,-0.00036698358599096537
1686426766592456000,9.7644560546875,0.012891563586890697,0.010423080064356327,-0.0011715245200321078
1686426766602400800,9.77440087890625,0.01188089419156313,0.012593289837241173,-0.007427290081977844
1686426766612345900,9.784345947265624,0.005284510552883148,0.016027435660362244,-0.011741611175239086
1686426766622291000,9.794291015625,0.000597879639826715,0.011686217039823532,-0.013114470057189465
1686426766632236000,9.804236083984375,0.003382214577868581,0.014162157662212849,-0.010910172015428543
1686426766642180900,9.814180908203125,0.004327103961259127,0.009702694602310658,-0.002694586291909218
1686426766652126000,9.8241259765625,0.0031502533238381147,0.008697085082530975,-0.0007835020078346133
1686426766662071000,9.834071044921876,0.004969192203134298,0.005294364411383867,0.003288471372798085
1686426766672016000,9.844015869140625,0.006963633466511965,0.005714611150324345,-0.0002287655370309949
1686426766681960000,9.8539599609375,0.0073412698693573475,0.003677559085190296,-0.00014034859486855567
1686426766691904800,9.86390478515625,0.0065282066352665424,-0.0005560680292546749,-0.0009036105475388467
1686426766701849900,9.873849853515624,0.00752156600356102,0.0002002697146963328,-0.0007771103992126882
1686426766711795000,9.883794921875,0.006981743033975363,-0.0019086875254288316,0.0002487392339389771
1686426766721740000,9.893739990234375,0.005396096967160702,-0.004299141000956297,0.0012519520241767168
1686426766731684900,9.903684814453126,0.005432316102087498,-0.0035350800026208162,0.002482066163793206
1686426766741630000,9.9136298828125,0.006531136110424995,-0.0006897587445564568,0.0018122810870409012
1686426766751575000,9.923574951171876,0.008071774616837502,-0.0023465112317353487,-0.0022149509750306606
1686426766761519900,9.933519775390625,0.009483782574534416,0.0009494169498793781,-0.007238205522298813
1686426766771464700,9.943464599609374,0.009342901408672333,-0.0022857910953462124,-0.0183491799980402
1686426766781410000,9.95341015625,0.010901649482548237,0.0026644926983863115,-0.01974041573703289
1686426766791355000,9.96335498046875,0.010421215556561947,0.004817392211407423,-0.019703930243849754
1686426766801299700,9.9732998046875,0.01047367975115776,0.006096241995692253,-0.026508040726184845
1686426766811245000,9.9832451171875,0.009808422066271305,0.0054972972720861435,-0.028565865010023117
1686426766821190000,9.99318994140625,0.006877347361296415,0.010483266785740852,-0.025079520419239998
1686426766831134700,10.003134765625,0.009691775776445866,0.015602395869791508,-0.013789049349725246
1686426766841080000,10.013080078125,0.009226521477103233,0.020597154274582863,-0.004571049474179745
1686426766851025000,10.02302490234375,0.009438775479793549,0.020077837631106377,0.0020013656467199326
1686426766860969700,10.0329697265625,0.011787150986492634,0.018440525978803635,0.006307164207100868
1686426766870914800,10.042914794921876,0.013818876817822456,0.016868995502591133,0.003930825740098953
1686426766880859000,10.05285888671875,0.012377840466797352,0.023607591167092323,0.001110005541704595
1686426766890803700,10.0628037109375,0.012494753114879131,0.022485334426164627,-0.009591374546289444
1686426766900749000,10.0727490234375,0.005821936298161745,0.031328629702329636,-0.01798299513757229
1686426766910694000,10.08269384765625,0.0051742554642260075,0.03942304104566574,-0.029939789324998856
1686426766920638700,10.092638671875,-0.000055926382628967986,0.037993453443050385,-0.03933435678482056
1686426766930584000,10.102583984375,-0.0011025486746802926,0.03967204689979553,-0.03427514806389809
1686426766940529000,10.11252880859375,-0.005218197591602802,0.03599954769015312,-0.02847478538751602
1686426766950473700,10.1224736328125,-0.00618252856656909,0.02774720825254917,-0.023872843012213707
1686426766960418800,10.132418701171876,-0.00242107966914773,0.025081384927034378,-0.02316417545080185
1686426766970364000,10.142364013671875,-0.000755805114749819,0.015139005146920681,-0.032950494438409805
1686426766980309000,10.15230908203125,-0.0006271744496189058,0.014523282647132874,-0.03610154613852501
1686426766990253800,10.16225390625,-0.0004625910660251975,0.010823885910212994,-0.030406907200813293
1686426767000199000,10.172198974609374,0.0029933929909020662,0.01673903316259384,-0.02936188317835331
1686426767010144000,10.18214404296875,0.0038535939529538155,0.018270617350935936,-0.031268175691366196
1686426767020088800,10.1920888671875,0.007865113206207752,0.02473384141921997,-0.030039925128221512
1686426767030034000,10.202033935546876,0.011183411814272404,0.027962924912571907,-0.02267654985189438
1686426767039979000,10.21197900390625,0.013908891007304192,0.027823375537991524,-0.016277773305773735
1686426767049923800,10.221923828125,0.015162707306444645,0.025107484310865402,-0.014830611646175385
1686426767059869000,10.231868896484375,0.017006946727633476,0.014089453965425491,-0.013538178987801075
1686426767069814000,10.24181396484375,0.012776781804859638,0.007543137297034264,-0.006333795841783285
1686426767079758800,10.2517587890625,0.011240137740969658,-0.0065353973768651485,0.00626029260456562
1686426767089703000,10.261702880859374,0.009640643373131752,-0.013527260161936283,0.01884159818291664
1686426767099648000,10.27164794921875,0.008779643103480339,-0.019578494131565094,0.02407124824821949
1686426767109592800,10.2815927734375,0.008340221829712391,-0.016086291521787643,0.027231087908148766
1686426767119538000,10.291537841796876,0.006695453077554703,-0.014083861373364925,0.02599458210170269
1686426767129483000,10.30148291015625,0.0030011162161827087,-0.015593074262142181,0.024527180939912796
1686426767139427800,10.311427734375,0.0006175870657898486,-0.013855894096195698,0.021037107333540916
1686426767149373000,10.321373046875,-0.0018570221727713943,-0.014406636357307434,0.01709722727537155
1686426767159318000,10.331318115234374,0.0002740392810665071,-0.016636500135064125,0.016638098284602165
1686426767169262800,10.341262939453125,0.002032258315011859,-0.017900170758366585,0.01564500667154789
1686426767179207700,10.351207763671875,0.004372111521661282,-0.02118411473929882,0.021027520298957825
1686426767189153000,10.361153076171876,0.008857141248881817,-0.027050526812672615,0.0188961923122406
1686426767199097900,10.371097900390625,0.010522948578000069,-0.02779354713857174,0.021634988486766815
1686426767209042700,10.381042724609374,0.010436927899718285,-0.03495878353714943,0.01617657206952572
1686426767218988000,10.390988037109375,0.011812184937298298,-0.03316008299589157,0.012959741055965424
1686426767228932900,10.400932861328124,0.011051585897803307,-0.029945649206638336,0.011415107175707817
1686426767238878000,10.4108779296875,0.010963435284793377,-0.02375752665102482,0.01955798827111721
1686426767248823000,10.420822998046875,0.010581804439425468,-0.020679712295532227,0.025140773504972458
1686426767258768000,10.430767822265626,0.008856075815856457,-0.02177480421960354,0.02587340958416462
1686426767268713000,10.440712890625,0.00842704065144062,-0.031925175338983536,0.021019797772169113
1686426767278657800,10.45065771484375,0.007090399973094463,-0.04290219396352768,0.00845313910394907
1686426767288603000,10.460602783203125,0.006957241799682379,-0.04706950858235359,-0.0035260252188891172
1686426767298546700,10.470546630859374,0.00749014038592577,-0.04657495766878128,-0.007562045939266682
1686426767308492000,10.480491943359375,0.008413724601268768,-0.037814490497112274,-0.006474943365901709
1686426767318436900,10.490436767578124,0.009587113745510578,-0.02847025729715824,0.003610979998484254
1686426767328381700,10.500381591796875,0.006709035485982895,-0.024803882464766502,0.0034557178150862455
1686426767338327000,10.5103271484375,0.004101800732314587,-0.024890702217817307,0.009321330115199089
1686426767348271900,10.52027197265625,0.007817177101969719,-0.021162543445825577,0.021746573969721794
1686426767358217000,10.530217041015625,0.00392683083191514,-0.020294886082410812,0.026699254289269447
1686426767368161800,10.540161865234374,0.004059722647070885,-0.025730930268764496,0.02827504649758339
1686426767378107000,10.55010693359375,0.0059867859818041325,-0.025360217317938805,0.022409968078136444
1686426767388052000,10.560052001953125,0.0038538603112101555,-0.022395320236682892,0.0151592455804348
1686426767397996800,10.569996826171876,0.0030043120495975018,-0.018033329397439957,0.003163302782922983
1686426767407942000,10.57994189453125,0.0011598066193982959,-0.011344267055392265,-0.003200853243470192
1686426767417887000,10.589886962890626,0.0033249566331505775,-0.014022341929376125,-0.006725813262164593
1686426767427831800,10.599831787109375,0.003471430391073227,-0.01221671886742115,-0.002001898130401969
1686426767437777000,10.60977685546875,0.005094361025840044,-0.010097907856106758,-0.002216282533481717
1686426767447722000,10.619721923828125,0.010583401657640934,-0.010499779134988785,-0.012819924391806126
1686426767457666800,10.629666748046875,0.01272937748581171,-0.02082059346139431,-0.024813737720251083
1686426767467612000,10.63961181640625,0.010893127880990505,-0.027463315054774284,-0.03412068635225296
1686426767477557000,10.649556884765625,0.01570519432425499,-0.01853000931441784,-0.029934197664260864
1686426767487501800,10.659501708984376,0.01696486957371235,-0.009583651088178158,-0.01738165318965912
1686426767497447000,10.669447021484375,0.010342385619878769,-0.004150802735239267,-0.013624998740851879
1686426767507392000,10.67939208984375,0.00939083844423294,-0.0035457327030599117,-0.014464426785707474
1686426767517337000,10.689337158203125,0.008763398043811321,0.0005217132274992764,-0.011351724155247211
1686426767527281200,10.69928125,0.005066397599875927,-0.0010122675448656082,-0.008245413191616535
1686426767537226000,10.70922607421875,0.004717523697763681,-0.000675111310556531,-0.013019395060837269
1686426767547171000,10.719171142578125,0.0041302964091300964,0.004342816770076752,-0.013315272517502308
1686426767557116000,10.729115966796876,0.001987783471122384,0.015467905439436436,-0.00606268597766757
1686426767567061000,10.73906103515625,0.0037675739731639624,0.015001852996647358,-0.0016921724891290069
1686426767577006000,10.749006103515624,0.004609665367752314,0.012548549100756645,-0.00452684098854661
1686426767586951000,10.758950927734375,0.004205930046737194,0.010071542114019394,-0.010183927603065968
1686426767596896300,10.768896240234374,0.0062760054133832455,0.01366281509399414,-0.007261907681822777
1686426767606841000,10.778841064453125,0.010972755961120129,0.019653329625725746,-0.0059508332051336765
1686426767616786000,10.788785888671875,0.007340204436331987,0.020319119095802307,-0.004089017398655415
1686426767626731300,10.798731201171876,0.008668056689202785,0.026279540732502937,-0.001112935016863048
1686426767636676000,10.808676025390625,0.008784969337284565,0.02630084566771984,-0.001219461439177394
1686426767646621000,10.818620849609376,0.009239837527275085,0.022362830117344856,0.005272526293992996
1686426767656566000,10.82856591796875,0.011989285238087177,0.0172016229480505,-0.000358461489668116
1686426767666511000,10.838510986328124,0.01531450729817152,0.009783654473721981,0.0009675264009274542
1686426767676456000,10.8484560546875,0.012765330262482166,0.00797456968575716,0.0018873822409659624
1686426767686401000,10.858401123046875,0.012949087657034397,0.0002892192860599607,0.004169711377471685
1686426767696346000,10.86834619140625,0.014490791596472263,-0.007907457649707794,0.0007275756215676665
1686426767706291000,10.878291015625,0.01900431700050831,-0.013795707374811172,-0.0024165522772818804
1686426767716236000,10.888236083984374,0.02101314067840576,-0.02941701002418995,-0.006007025949656963
1686426767726181000,10.89818115234375,0.02377776801586151,-0.038613174110651016,-0.017348363995552063
1686426767736126000,10.9081259765625,0.025898175314068794,-0.04508918151259422,-0.02568725310266018
1686426767746071000,10.918071044921875,0.028254540637135506,-0.04561275988817215,-0.025128789246082306
1686426767756015000,10.92801513671875,0.02574770711362362,-0.0437014065682888,-0.021676266565918922
1686426767765960000,10.9379599609375,0.02461692877113819,-0.036558810621500015,-0.013706491328775883
1686426767775905000,10.947905029296875,0.022531142458319664,-0.02521134726703167,0.0038748993538320065
1686426767785850000,10.95785009765625,0.01859658770263195,-0.00932292826473713,0.02678580768406391
1686426767795795000,10.967794921875,0.01432434469461441,-0.0016618125373497605,0.039984699338674545
1686426767805740000,10.977739990234374,0.007277354132384062,-0.00723474333062768,0.04585936665534973
1686426767815685000,10.98768505859375,0.011625763028860092,-0.011481952853500843,0.04707030579447746
1686426767825630000,10.9976298828125,0.00971281435340643,-0.010543188080191612,0.05061470717191696
1686426767835575000,11.007574951171875,0.004113518632948399,-0.01380848977714777,0.04098658263683319
1686426767845520100,11.01752001953125,0.0012780509423464537,-0.01164360623806715,0.03744804114103317
1686426767855465200,11.02746533203125,-0.0019923108629882336,-0.00045833003241568804,0.04056793078780174
1686426767865410000,11.03741015625,-0.007107444107532501,0.012019910849630833,0.041614290326833725
1686426767875355000,11.04735498046875,-0.013644439168274403,0.020799821242690086,0.03671007603406906
1686426767885300200,11.05730029296875,-0.014207964763045311,0.02665025368332863,0.029028454795479774
1686426767895245000,11.0672451171875,-0.013148026540875435,0.03291986510157585,0.0204570721834898
1686426767905190000,11.07718994140625,-0.010763431899249554,0.04048510640859604,0.010487528517842293
1686426767915135200,11.08713525390625,-0.007638745009899139,0.037936728447675705,0.009431584738194942
1686426767925080000,11.097080078125,-0.00782676413655281,0.03554201498627663,0.014080665074288845
1686426767935025000,11.10702490234375,-0.0033654365688562393,0.02678527496755123,0.02184591069817543
1686426767944970200,11.11697021484375,0.0032080437522381544,0.02298121526837349,0.026751453056931496
1686426767954915000,11.1269150390625,0.008924518711864948,0.019637349992990494,0.029405292123556137
1686426767964860000,11.13685986328125,0.008555404841899872,0.014554441906511784,0.03207830712199211
1686426767974805000,11.146804931640625,0.014260695315897465,0.015438610687851906,0.03701847046613693
1686426767984750000,11.15675,0.015683088451623917,0.014371216297149658,0.04280019551515579
1686426767994695000,11.16669482421875,0.015298262238502502,0.014257499016821384,0.0402105376124382
1686426768004639200,11.17663916015625,0.016981113702058792,0.01269608736038208,0.030125144869089127
1686426768014584000,11.186583984375,0.019408052787184715,0.006140184123069048,0.02376285381615162
1686426768024529000,11.19652880859375,0.016859406605362892,0.0006562029011547565,0.01888553984463215
1686426768034474200,11.20647412109375,0.020175043493509293,-0.0019353191601112485,0.01691639982163906
1686426768044419000,11.216419189453125,0.017492175102233887,-0.010145578533411026,0.014641527086496353
1686426768054364000,11.226364013671875,0.01919553242623806,-0.02052338421344757,0.008736499585211277
1686426768064309200,11.236309326171876,0.021448034793138504,-0.034416563808918,0.00917618814855814
1686426768074254000,11.246254150390625,0.02256709337234497,-0.042935483157634735,0.011634285561740398
1686426768084199000,11.256198974609376,0.030491596087813377,-0.05044666305184364,0.017058612778782845
1686426768094144000,11.26614404296875,0.03376222401857376,-0.054016098380088806,0.017888719215989113
1686426768104089000,11.276089111328124,0.04036553204059601,-0.049853574484586716,0.015597867779433727
1686426768114034200,11.2860341796875,0.03747307136654854,-0.05134521424770355,0.009997506625950336
1686426768123979000,11.29597900390625,0.03581845015287399,-0.056776728481054306,0.004246144089847803
1686426768133924000,11.305924072265626,0.034869302064180374,-0.05584755167365074,0.0023012375459074974
1686426768143869200,11.315869140625,0.031069768592715263,-0.04182334616780281,0.013579457998275757
1686426768153814000,11.32581396484375,0.025140507146716118,-0.032874591648578644,0.030041521415114403
1686426768163759000,11.335759033203125,0.013470535166561604,-0.027598870918154716,0.03581259399652481
1686426768173704200,11.3457041015625,0.0012293151812627912,-0.023629961535334587,0.038416896015405655
1686426768183649000,11.35564892578125,-0.009869675152003765,-0.025126125663518906,0.031739287078380585
1686426768193593900,11.36559375,-0.019600067287683487,-0.032351016998291016,0.027305390685796738
1686426768203539200,11.375539306640626,-0.02562972903251648,-0.03219309076666832,0.020166520029306412
1686426768213484000,11.385484130859375,-0.027536019682884216,-0.024530377238988876,0.01417600642889738
1686426768223428900,11.395428955078126,-0.02948891557753086,-0.019405655562877655,0.008770588785409927
1686426768233374200,11.405374267578125,-0.026153041049838066,-0.014964568428695202,0.007131146267056465
1686426768243319000,11.415319091796874,-0.022177208214998245,-0.009879262186586857,0.009416405111551285
1686426768253263000,11.42526318359375,-0.015992814674973488,-0.008101069368422031,0.008862201124429703
1686426768263208200,11.435208251953124,-0.007424094248563051,-0.005674397107213736,0.01583382487297058
1686426768273153000,11.445153076171875,-0.005085838492959738,-0.0025249430909752846,0.01992443948984146
1686426768283097900,11.455097900390625,0.002624811604619026,-0.0018186726374551654,0.026489131152629852
1686426768293043200,11.465043212890626,0.008404936641454697,-0.0006601976347155869,0.03320269286632538
1686426768302988000,11.474988037109375,0.01022866927087307,0.0032059133518487215,0.030706247314810753
1686426768312932900,11.484932861328126,0.011693940497934818,0.008955944329500198,0.024106668308377266
1686426768322878200,11.494878173828125,0.012940033338963985,0.013479855842888355,0.015750201418995857
1686426768332823000,11.504822998046874,0.009106147103011608,0.022458704188466072,0.006256564520299435
1686426768342767900,11.514767822265625,0.009280051104724407,0.030831947922706604,-0.004138285759836435
1686426768352713200,11.524713134765625,0.0073071811348199844,0.0399109311401844,-0.010359962470829487
1686426768362658000,11.534657958984376,0.005298358853906393,0.043772779405117035,-0.013679592870175838
1686426768372603100,11.54460302734375,0.002282329136505723,0.05405711010098457,-0.021644042804837227
1686426768382548000,11.5545478515625,0.0028274781070649624,0.06257150322198868,-0.02040327526628971
1686426768392493000,11.5644931640625,0.003171824850142002,0.07319245487451553,-0.016029300168156624
1686426768402438100,11.574438232421874,0.0032895365729928017,0.09141486883163452,-0.017883392050862312
1686426768412383000,11.584383056640625,0.0065476479940116405,0.10798505693674088,-0.019507387652993202
1686426768422328000,11.594328125,0.007178550586104393,0.11465973407030106,-0.015668708831071854
1686426768432273200,11.604273193359376,0.010742392390966415,0.12169873714447021,-0.014343518763780594
1686426768442218000,11.614218017578125,0.01152775902301073,0.12345749139785767,-0.01383831724524498
1686426768452163000,11.6241630859375,0.013610617257654667,0.11485973745584488,-0.01672305352985859
1686426768462108200,11.634108154296875,0.011949603445827961,0.10547369718551636,-0.029509156942367554
1686426768472053000,11.644052978515624,0.01570732332766056,0.1063874289393425,-0.023252857849001884
1686426768481998000,11.653998046875,0.018078336492180824,0.10957735776901245,-0.013095828704535961
1686426768491943200,11.663943115234375,0.015261776745319366,0.10701566189527512,-0.006031527183949947
1686426768501888000,11.673887939453126,0.014896923676133156,0.09440799802541733,-0.006156695540994406
1686426768511831800,11.683831787109375,0.012740296311676502,0.0885503739118576,-0.005293565336614847
1686426768521776600,11.693776611328126,0.019087940454483032,0.07787003368139267,-0.006690126843750477
1686426768531721700,11.7037216796875,0.016982711851596832,0.061823420226573944,-0.012289688922464848
1686426768541666800,11.713666748046874,0.018973691388964653,0.04519917070865631,-0.016657806932926178
1686426768551611600,11.723611572265625,0.01769004762172699,0.037154294550418854,-0.016382435336709023
1686426768561556700,11.733556640625,0.0172016229480505,0.01926024630665779,-0.01537602674216032
1686426768571501800,11.743501708984375,0.017556622624397278,0.00375958438962698,-0.019538547843694687
1686426768581447000,11.753447021484375,0.014625282026827335,-0.017177654430270195,-0.020980915054678917
1686426768591391700,11.763391845703126,0.015178154222667217,-0.03376409038901329,-0.021191304549574852
1686426768601336800,11.7733369140625,0.014857509173452854,-0.04560130834579468,-0.018991533666849136
1686426768611282000,11.783281982421874,0.01239328645169735,-0.05669337138533592,-0.019827766343951225
1686426768621226800,11.793226806640625,0.010249707847833633,-0.06414783000946045,-0.018434667959809303
1686426768631171600,11.803171630859374,0.012415923178195953,-0.07678346335887909,-0.014995727688074112
1686426768641117000,11.813116943359375,0.01107262447476387,-0.08279288560152054,-0.016654610633850098
1686426768651061800,11.823061767578125,0.010406834073364735,-0.08866115659475327,-0.015166702680289745
1686426768661006600,11.833006591796876,0.006881874520331621,-0.09488523006439209,-0.014580806717276573
1686426768670952000,11.842951904296875,0.008346613496541977,-0.09367162734270096,-0.012532835826277733
1686426768680896800,11.852896728515624,0.009430252946913242,-0.08464324474334717,-0.007187871728092432
1686426768690841600,11.862841552734375,0.008411860093474388,-0.08221391588449478,-0.0020727382507175207
1686426768700787000,11.872786865234374,0.007526093162596226,-0.07588783651590347,-0.005405950825661421
1686426768710731800,11.882731689453125,0.008376174606382847,-0.07181932777166367,-0.009454221464693546
1686426768720676600,11.892676513671875,0.010151703841984272,-0.06681045889854431,-0.007306648883968592
1686426768730621700,11.90262158203125,0.009935455396771431,-0.0588553287088871,-0.004493285436183214
1686426768740566800,11.91256689453125,0.011452658101916313,-0.05495699122548103,-0.0019185412675142288
1686426768750511900,11.922511962890624,0.012961071915924549,-0.047513723373413086,-0.003005377249792218
1686426768760456700,11.932456787109375,0.012483567930758,-0.0432012677192688,-0.006177734583616257
1686426768770401800,11.94240185546875,0.009900301694869995,-0.03857562318444252,-0.006478671915829182
1686426768780347000,11.952346923828125,0.010728011839091778,-0.036134835332632065,-0.0038165762089192867
1686426768790291700,11.962291748046875,0.007510913070291281,-0.031799476593732834,-0.007292267866432667
1686426768800235800,11.97223583984375,0.010094712488353252,-0.03226872533559799,-0.004428037907928228
1686426768810180600,11.9821806640625,0.009806557558476925,-0.030462568625807762,-0.0022503710351884365
1686426768820125700,11.992125732421876,0.011056912131607533,-0.032519325613975525,-0.0013688647886738181
1686426768830070800,12.00207080078125,0.007642473094165325,-0.037636060267686844,0.000322775129461661
1686426768840016000,12.012015869140624,0.010482735000550747,-0.04298288747668266,-0.0012745888670906425
1686426768849960700,12.021960693359375,0.014687599614262581,-0.047152597457170486,-0.0067694890312850475
1686426768859905800,12.03190576171875,0.015541142784059048,-0.05392554774880409,-0.008732771500945091
1686426768869851000,12.041850830078126,0.018253039568662643,-0.05567178502678871,-0.012747753411531448
1686426768879795700,12.051795654296875,0.017534252256155014,-0.06239493563771248,-0.015188007615506649
