time,seconds_elapsed,z,y,x
1686426756925999900,0.097999755859375,0.11634231358766556,0.58940190076828,0.5543034672737122
1686426756935944700,0.10794482421875,0.1011614054441452,0.6223263740539551,0.5908368825912476
1686426756945889800,0.117889892578125,0.07506030052900314,0.640632152557373,0.5964667797088623
1686426756955835000,0.1278349609375,0.05145181715488434,0.6820679903030396,0.5845288038253784
1686426756965779700,0.13777978515625,0.06417933106422424,0.8071843981742859,0.561988890171051
1686426756975724800,0.147724853515625,0.11232996731996536,0.9339145421981812,0.5269936919212341
1686426756985668600,0.157668701171875,0.17725063860416412,1.0264935493469238,0.48893365263938904
1686426756995613700,0.16761376953125,0.2366001158952713,1.061848521232605,0.4440292716026306
1686426757005558800,0.177558837890625,0.2586721181869507,1.0423043966293335,0.38780540227890015
1686426757015504000,0.18750390625,0.2339646965265274,0.9446422457695007,0.31729447841644287
1686426757025448700,0.19744873046875,0.1569303721189499,0.7589395046234131,0.2550119161605835
1686426757035393800,0.207393798828125,0.038784243166446686,0.5820045471191406,0.20172345638275146
1686426757045339000,0.2173388671875,-0.21580703556537628,0.6248170137405396,0.13278913497924805
1686426757055283700,0.22728369140625,-0.4916801452636719,0.7113126516342163,0.044337622821331024
1686426757065228800,0.237228759765625,-0.5947391986846924,0.7434045076370239,-0.03181253746151924
1686426757075172600,0.247172607421875,-0.45898330211639404,0.6836099624633789,-0.056078989058732986
1686426757085117700,0.25711767578125,-0.2245047688484192,0.6861958503723145,0.016781898215413094
1686426757095062800,0.267062744140625,-0.03402610123157501,1.0515050888061523,0.12530620396137238
1686426757105007900,0.2770078125,0.04834546893835068,1.6678705215454102,0.23708918690681458
1686426757114952700,0.28695263671875,0.031669627875089645,2.3513126373291016,0.3552267551422119
1686426757124897800,0.296897705078125,-0.05466659367084503,2.916966199874878,0.44104790687561035
1686426757134843000,0.3068427734375,-0.20893000066280365,3.409153699874878,0.4650856852531433
1686426757144787700,0.31678759765625,-0.4034411311149597,3.8171803951263428,0.40989404916763306
1686426757154731800,0.326731689453125,-0.5908423662185669,4.044964790344238,0.30091115832328796
1686426757164676600,0.336676513671875,-0.7399759292602539,4.113656520843506,0.170503631234169
1686426757174621700,0.34662158203125,-0.8411967158317566,4.029737949371338,0.03798878192901611
1686426757184566800,0.35656689453125,-0.8858630061149597,3.824892282485962,-0.05801844224333763
1686426757194511600,0.36651171875,-0.9021390080451965,3.6473748683929443,-0.08297568559646606
1686426757204456700,0.376456787109375,-0.9081470966339111,3.599396228790283,-0.0179106667637825
1686426757214401800,0.38640185546875,-0.93482506275177,3.6851773262023926,0.13610659539699554
1686426757224347000,0.396346923828125,-0.9853209853172302,3.874316930770874,0.3511406183242798
1686426757234291700,0.406291748046875,-1.0333147048950195,4.1088762283325195,0.600724458694458
1686426757244235800,0.41623583984375,-1.0746097564697266,4.124173641204834,0.8120009899139404
1686426757254180600,0.4261806640625,-1.1341629028320312,4.294909954071045,1.0168877840042114
1686426757264125700,0.436125732421875,-1.2146755456924438,4.487627029418945,1.1815680265426636
1686426757274070800,0.44607080078125,-1.3161416053771973,4.735188961029053,1.3302360773086548
1686426757284015600,0.456015625,-1.4401596784591675,4.981979846954346,1.476585030555725
1686426757293960700,0.465960693359375,-1.5212411880493164,5.075949192047119,1.6320250034332275
1686426757303905800,0.47590576171875,-1.5413055419921875,5.029368877410889,1.8244884014129639
1686426757313851000,0.485850830078125,-1.5364810228347778,4.816159725189209,1.997788667678833
1686426757323795000,0.495794921875,-1.4639320373535156,4.534919261932373,2.0795154571533203
1686426757333739800,0.50573974609375,-1.3389291763305664,4.366456031799316,2.041063070297241
1686426757343684600,0.5156845703125,-1.2583714723587036,4.2692341804504395,1.8785969018936157
1686426757353630000,0.5256298828125,-1.2436728477478027,4.184175968170166,1.6096470355987549
1686426757363574800,0.53557470703125,-1.2321884632110596,4.0623393058776855,1.280798316001892
1686426757373519600,0.54551953125,-1.2321350574493408,3.899266004562378,0.995265781879425
1686426757383464700,0.555464599609375,-1.3157713413238525,3.669782876968384,0.8218516707420349
1686426757393409800,0.565409912109375,-1.4741297960281372,3.3025009632110596,0.8072535395622253
1686426757403355000,0.57535498046875,-1.6731826066970825,2.752251386642456,0.9964048266410828
1686426757413299000,0.585298828125,-1.995890498161316,2.2002954483032227,1.3599116802215576
1686426757423243800,0.595243896484375,-2.402735710144043,1.5587798357009888,1.846160650253296
1686426757433188600,0.605188720703125,-2.8299143314361572,0.9566288590431213,2.3567745685577393
1686426757443134000,0.615134033203125,-3.2100419998168945,0.5771824717521667,2.7250866889953613
1686426757453078800,0.625078857421875,-3.5045242309570312,0.5853466987609863,2.900221109390259
1686426757463023600,0.635023681640625,-3.6098225116729736,0.8522716164588928,2.929635763168335
1686426757472968700,0.64496875,-3.461122512817383,1.2189778089523315,2.8719961643218994
1686426757482913800,0.654913818359375,-3.181401252746582,1.5117830038070679,2.777132749557495
1686426757492857600,0.664857666015625,-2.926500082015991,1.6713680028915405,2.758990526199341
1686426757502802700,0.674802734375,-2.79046368598938,1.6378878355026245,2.868882417678833
1686426757512747500,0.68474755859375,-2.762608289718628,1.390508770942688,3.083753824234009
1686426757522692400,0.6946923828125,-2.7763521671295166,1.0252143144607544,3.3329834938049316
1686426757532637700,0.7046376953125,-2.7877423763275146,0.7037245035171509,3.5471928119659424
1686426757542582500,0.71458251953125,-2.7632362842559814,0.49965736269950867,3.7136943340301514
1686426757552527400,0.72452734375,-2.669194221496582,0.44910895824432373,3.8389244079589844
1686426757562472700,0.73447265625,-2.5115487575531006,0.5971351861953735,3.938239812850952
1686426757572417500,0.74441748046875,-2.3410115242004395,0.7798184752464294,3.992124080657959
1686426757582361300,0.754361328125,-2.250797986984253,0.8603772521018982,3.980358123779297
1686426757592306700,0.764306640625,-2.2514050006866455,0.7210178375244141,3.9130020141601562
1686426757602251500,0.77425146484375,-2.258591651916504,0.45233866572380066,3.78468656539917
1686426757612196400,0.7841962890625,-2.180035352706909,0.10981810837984085,3.5995583534240723
1686426757622141700,0.7941416015625,-2.011662244796753,-0.1727249026298523,3.357631206512451
1686426757632086500,0.80408642578125,-1.755488395690918,-0.3660847246646881,3.0922205448150635
1686426757642031400,0.81403125,-1.3732603788375854,-0.43828994035720825,2.8375306129455566
1686426757651976700,0.823976806640625,-0.8832822442054749,-0.39381110668182373,2.6076908111572266
1686426757661921500,0.833921630859375,-0.36203479766845703,-0.31846654415130615,2.3551509380340576
1686426757671865300,0.843865234375,0.09248746931552887,-0.2740410268306732,2.0502281188964844
1686426757681810700,0.853810791015625,0.4269019365310669,-0.2814241051673889,1.7056429386138916
1686426757691755500,0.863755615234375,0.6495578289031982,-0.38428282737731934,1.318439245223999
1686426757701700400,0.873700439453125,0.7761684656143188,-0.5491159558296204,0.9240743517875671
1686426757711645700,0.883645751953125,0.8318778276443481,-0.6692904829978943,0.5810999870300293
1686426757721590500,0.893590576171875,0.8736359477043152,-0.7263223528862,0.3414442837238312
1686426757731535400,0.903535400390625,0.9395483136177063,-0.7568694949150085,0.22821518778800964
1686426757741480700,0.913480712890625,1.0265759229660034,-0.705888032913208,0.20233777165412903
1686426757751425500,0.923425537109375,1.1404401063919067,-0.5839719176292419,0.21625979244709015
1686426757761369300,0.933369384765625,1.2695796489715576,-0.4314934015274048,0.2330148071050644
1686426757771314700,0.943314697265625,1.3743631839752197,-0.26319900155067444,0.27317696809768677
1686426757781259500,0.953259521484375,1.4027173519134521,-0.14425022900104523,0.2821504771709442
1686426757791204400,0.963204345703125,1.294369101524353,0.13328313827514648,0.1277504563331604
1686426757801149700,0.973149658203125,1.0760146379470825,0.48819753527641296,-0.2754236161708832
1686426757811094500,0.983094482421875,0.8456181883811951,0.6546583771705627,-0.7506266832351685
1686426757821039400,0.993039306640625,0.5573379397392273,0.6430488228797913,-1.1548963785171509
1686426757830984700,1.002984619140625,0.17619237303733826,0.6510174870491028,-1.1104894876480103
1686426757840929500,1.012929443359375,-0.09783066064119339,0.6664324402809143,-0.7989904880523682
1686426757850873300,1.022873291015625,-0.10873812437057495,0.879302978515625,-0.5542149543762207
1686426757860818700,1.032818603515625,0.08015616238117218,1.2308180332183838,-0.1826123297214508
1686426757870763500,1.042763427734375,0.2490016222000122,1.4659829139709473,0.17392364144325256
1686426757880708400,1.052708251953125,0.4187416732311249,1.4413318634033203,0.439031183719635
1686426757890653700,1.06265380859375,0.49935850501060486,1.4005112648010254,0.6443425416946411
1686426757900598500,1.0725986328125,0.4244328439235687,1.2949683666229248,0.5457320809364319
1686426757910543400,1.08254345703125,0.27959874272346497,1.0461947917938232,0.35032010078430176
1686426757920488700,1.09248876953125,0.07024683803319931,0.7994323968887329,0.23093512654304504
1686426757930433500,1.10243359375,-0.14742077887058258,0.548018753528595,0.1015651598572731
1686426757940377600,1.112377685546875,-0.2778167128562927,0.3541434407234192,-0.019313419237732887
1686426757950322700,1.12232275390625,-0.3505881428718567,0.23817001283168793,-0.04836677759885788
1686426757960267500,1.132267578125,-0.28441256284713745,0.13413868844509125,-0.09399871528148651
1686426757970212400,1.14221240234375,-0.11963392049074173,0.25838083028793335,-0.06349658966064453
1686426757980157700,1.15215771484375,0.01575932651758194,0.4318000078201294,-0.011899713426828384
1686426757990102500,1.1621025390625,-0.013875940814614296,0.5143429636955261,-0.06278848648071289
1686426758000047400,1.17204736328125,-0.1618395745754242,0.41366779804229736,-0.07747688889503479
1686426758009992700,1.18199267578125,-0.41994619369506836,0.1870896965265274,-0.252183198928833
1686426758019937500,1.1919375,-0.7904449105262756,-0.290719211101532,-0.38641422986984253
1686426758029881600,1.201881591796875,-1.0591922998428345,-0.8880257606506348,-0.44550997018814087
1686426758039826700,1.21182666015625,-1.1203573942184448,-1.1965217590332031,-0.5874311327934265
1686426758049771500,1.221771484375,-1.0363305807113647,-1.2539260387420654,-0.7417916059494019
1686426758059716400,1.23171630859375,-0.955037534236908,-1.0436862707138062,-0.8504728078842163
1686426758069661700,1.24166162109375,-0.9495209455490112,-0.8228800296783447,-0.8582419157028198
1686426758079606500,1.2516064453125,-1.086153507232666,-0.7603381276130676,-0.7537400126457214
1686426758089551400,1.26155126953125,-1.3597829341888428,-0.6674980521202087,-0.5885059833526611
1686426758099496700,1.27149658203125,-1.731353521347046,-0.683175802230835,-0.5190603137016296
1686426758109440500,1.2814404296875,-2.1822140216827393,-0.7479203939437866,-0.5501026511192322
1686426758119385600,1.291385498046875,-2.5180439949035645,-0.7547998428344727,-0.4847742021083832
1686426758129330700,1.30133056640625,-2.4694418907165527,-0.6291836500167847,-0.40827322006225586
1686426758139275500,1.311275634765625,-2.327173948287964,-0.2098923921585083,-0.35869207978248596
1686426758149220400,1.321220458984375,-2.172722101211548,0.2839171588420868,-0.2809121608734131
1686426758159165700,1.331165771484375,-1.990149974822998,0.789948582649231,-0.1814526915550232
1686426758169110500,1.341110595703125,-1.773425817489624,1.1465229988098145,-0.09580746293067932
1686426758179055400,1.351055419921875,-1.4462224245071411,1.3278179168701172,-0.008461106568574905
1686426758189000700,1.361000732421875,-1.1715054512023926,1.0715473890304565,0.006818811409175396
1686426758198944500,1.370944580078125,-0.9730216860771179,0.7503208518028259,0.009501946158707142
1686426758208889600,1.3808896484375,-0.8358802795410156,0.35016247630119324,0.05303197726607323
1686426758218834700,1.390834716796875,-0.8745672106742859,-0.0624551847577095,0.15806199610233307
1686426758228779500,1.400779541015625,-1.1167190074920654,-0.3420914113521576,0.2724057137966156
1686426758238724400,1.410724365234375,-1.4706470966339111,-0.5569198131561279,0.32330724596977234
1686426758248669700,1.420669677734375,-1.7497797012329102,-0.5681222081184387,0.33279144763946533
1686426758258614500,1.430614501953125,-1.9839130640029907,-0.8096461296081543,0.31869107484817505
1686426758268559400,1.440559326171875,-2.1156835556030273,-1.7459195852279663,0.10137548297643661
1686426758278504700,1.450504638671875,-2.2254257202148438,-0.9020940065383911,0.11909029632806778
1686426758288448500,1.460448486328125,-2.0544514656066895,0.08811479061841965,0.3219462037086487
1686426758298393600,1.4703935546875,-1.731029748916626,0.3504614531993866,0.5660856366157532
1686426758308338400,1.48033837890625,-1.4584604501724243,0.22773587703704834,0.7512425780296326
1686426758318283500,1.490283447265625,-1.2928526401519775,0.10402405261993408,0.7951996326446533
1686426758328228400,1.500228271484375,-1.1895079612731934,0.07706768810749054,0.7575162053108215
1686426758338173700,1.510173583984375,-1.0887402296066284,0.022043583914637566,0.6776578426361084
1686426758348118500,1.520118408203125,-1.050183653831482,0.13492904603481293,0.6563886404037476
1686426758358063400,1.5300634765625,-0.980760395526886,0.19810588657855988,0.5572311282157898
1686426758368008700,1.5400087890625,-0.9385794401168823,0.2057514637708664,0.47199738025665283
1686426758377952500,1.549952392578125,-0.8984471559524536,0.21260137856006622,0.34640055894851685
1686426758387897600,1.559897705078125,-0.8382319808006287,0.19428043067455292,0.20908015966415405
1686426758397842400,1.569842529296875,-0.8070948719978333,0.19481439888477325,0.12500444054603577
1686426758407787500,1.57978759765625,-0.9813246130943298,0.2163422852754593,0.09759078919887543
1686426758417732400,1.589732421875,-1.4749631881713867,0.1572621911764145,0.11757808178663254
1686426758427677700,1.599677734375,-2.0282938480377197,0.0034813496749848127,0.26797178387641907
1686426758437622500,1.60962255859375,-2.587204694747925,-0.007184610236436129,0.5395936965942383
1686426758447567400,1.6195673828125,-2.9665215015411377,0.4260689616203308,0.7841637134552002
1686426758457512700,1.6295126953125,-3.291736364364624,0.8790284395217896,0.9489068388938904
1686426758467456500,1.63945654296875,-3.7731566429138184,1.1180598735809326,1.0837801694869995
1686426758477401600,1.649401611328125,-4.236902236938477,1.0098506212234497,1.2303158044815063
1686426758487346400,1.659346435546875,-4.452965259552002,0.6072083711624146,1.4145392179489136
1686426758497291500,1.66929150390625,-4.405086994171143,0.12251441925764084,1.6212007999420166
1686426758507237400,1.6792373046875,-4.209653377532959,-0.19653479754924774,1.73085355758667
1686426758517182500,1.689182373046875,-3.9267842769622803,-0.32112574577331543,1.614074468612671
1686426758527127600,1.69912744140625,-3.5161540508270264,-0.15427133440971375,1.2689653635025024
1686426758537072400,1.709072265625,-3.0136702060699463,0.03436969965696335,0.8240499496459961
1686426758547017500,1.719017578125,-2.5263590812683105,0.016706425696611404,0.40281882882118225
1686426758556961500,1.72896142578125,-2.13835072517395,-0.22427982091903687,0.09268384426832199
1686426758566906400,1.73890625,-1.8783819675445557,-0.5416404604911804,-0.0717826560139656
1686426758576851700,1.748851806640625,-1.7023507356643677,-0.8386481404304504,-0.15383677184581757
1686426758586796500,1.758796630859375,-1.5767825841903687,-1.0854088068008423,-0.21957340836524963
1686426758596741400,1.768741455078125,-1.4689264297485352,-1.0841230154037476,-0.27576398849487305
1686426758606686700,1.778686767578125,-1.3710156679153442,-0.8042892217636108,-0.281358003616333
1686426758616631600,1.788631591796875,-1.3186291456222534,-0.4879746437072754,-0.23280753195285797
1686426758626576400,1.798576416015625,-1.3079837560653687,-0.12674303352832794,-0.026911918073892593
1686426758636521500,1.808521484375,-1.3131015300750732,-0.13586942851543427,0.16628549993038177
1686426758646465500,1.818465576171875,-1.4151617288589478,-0.18485015630722046,0.30037638545036316
1686426758656410400,1.828410400390625,-1.5772068500518799,-0.15159685909748077,0.3731808066368103
1686426758666355700,1.838355712890625,-1.652734398841858,-0.08275441080331802,0.3724777400493622
1686426758676300500,1.848300537109375,-1.7604703903198242,-0.04145331308245659,0.32376664876937866
1686426758686245400,1.858245361328125,-1.8916667699813843,0.06122748553752899,0.39448463916778564
1686426758696190700,1.868190673828125,-1.9827173948287964,0.00031939498148858547,0.4767342209815979
1686426758706135600,1.878135498046875,-2.0600740909576416,-0.11483146250247955,0.45368775725364685
1686426758716080400,1.888080322265625,-2.0562291145324707,-0.052507102489471436,0.3903873562812805
1686426758726025500,1.898025390625,-1.9422128200531006,0.09647192806005478,0.3551439344882965
1686426758735969500,1.907969482421875,-1.8298676013946533,0.24579617381095886,0.4155239164829254
1686426758745914400,1.917914306640625,-1.8043361902236938,0.44765257835388184,0.5973806381225586
1686426758755859700,1.927859619140625,-1.840177059173584,0.7964174747467041,0.8625470399856567
1686426758765804500,1.937804443359375,-1.9543793201446533,1.0635372400283813,1.1819313764572144
1686426758775749400,1.947749267578125,-2.096771478652954,1.01910400390625,1.4693814516067505
1686426758785694700,1.95769482421875,-2.093950033187866,1.3301904201507568,1.6913877725601196
1686426758795639600,1.9676396484375,-1.5116488933563232,1.823080062866211,1.5732600688934326
1686426758805584400,1.97758447265625,-0.9396152496337891,1.6964762210845947,1.1103897094726562
1686426758815529500,1.987529541015625,-0.8354414701461792,1.4050332307815552,0.8197895884513855
1686426758825473500,1.9974736328125,-0.6533769965171814,1.3219696283340454,0.8024487495422363
1686426758835418400,2.00741845703125,-0.29237642884254456,1.1240261793136597,0.8529579639434814
1686426758845363700,2.01736376953125,0.002072240225970745,0.1565617024898529,0.46682408452033997
1686426758855308500,2.02730859375,0.07658934593200684,0.026769084855914116,0.15188825130462646
1686426758865253400,2.03725341796875,0.030737051740288734,0.23692525923252106,0.028120577335357666
1686426758875198700,2.04719873046875,-0.07074802368879318,0.39047884941101074,0.08155237883329391
1686426758885143600,2.0571435546875,-0.16446834802627563,0.4967890977859497,0.3462236225605011
1686426758895088400,2.06708837890625,-0.19722601771354675,0.3499823212623596,0.466673880815506
1686426758905033500,2.077033447265625,-0.20681387186050415,0.11782258749008179,0.38119274377822876
1686426758914977500,2.0869775390625,-0.14933939278125763,-0.08925896137952805,0.13541893661022186
1686426758924922400,2.09692236328125,-0.020204925909638405,-0.18575803935527802,-0.12639646232128143
1686426758934867700,2.10686767578125,0.09974757581949234,-0.07254866510629654,-0.27428844571113586
1686426758944812500,2.1168125,0.15444543957710266,-0.015717055648565292,-0.33226579427719116
1686426758954757400,2.12675732421875,0.20452669262886047,-0.06824737787246704,-0.39216533303260803
1686426758964702700,2.13670263671875,0.26023560762405396,-0.20559167861938477,-0.5065057277679443
1686426758974647600,2.1466474609375,0.31597477197647095,-0.32583099603652954,-0.6365582942962646
1686426758984592400,2.15659228515625,0.3271740674972534,-0.3521396517753601,-0.7194638848304749
1686426758994537500,2.166537353515625,0.31177860498428345,-0.2893891930580139,-0.7099068760871887
1686426759004481500,2.1764814453125,0.25066426396369934,-0.04059343412518501,-0.5522137880325317
1686426759014426400,2.18642626953125,0.15897563099861145,-0.05435744673013687,-0.4149790108203888
1686426759024371700,2.196371826171875,0.13215267658233643,-0.05249694734811783,-0.2936839163303375
1686426759034316500,2.206316650390625,0.11386926472187042,0.02439117431640625,-0.18385542929172516
1686426759044261400,2.216261474609375,0.11173354089260101,0.1257939487695694,-0.09479140490293503
1686426759054206700,2.226206787109375,0.10175281763076782,0.1348889023065567,-0.08097359538078308
1686426759064151600,2.236151611328125,0.11664628982543945,0.08478311449289322,-0.12930803000926971
1686426759074096400,2.246096435546875,0.1230919361114502,0.04374726116657257,-0.18303118646144867
1686426759084041500,2.25604150390625,0.10546521097421646,0.08505701273679733,-0.19958533346652985
1686426759093985500,2.265985595703125,0.07915478199720383,0.13713885843753815,-0.17573006451129913
1686426759103930400,2.275930419921875,0.0692843496799469,0.278152734041214,-0.09098018705844879
1686426759113875700,2.285875732421875,0.055894508957862854,0.19562402367591858,-0.08350735902786255
1686426759123820500,2.295820556640625,0.05835695192217827,0.10403509438037872,-0.11491475254297256
1686426759133765400,2.305765380859375,0.06124674901366234,0.06897910684347153,-0.13265565037727356
1686426759143710700,2.315710693359375,0.06627748906612396,0.05579707399010658,-0.13583743572235107
1686426759153655600,2.325655517578125,0.0674854964017868,0.04615190625190735,-0.13063229620456696
1686426759163600400,2.335600341796875,0.06425812095403671,0.051732346415519714,-0.11184508353471756
1686426759173545500,2.34554541015625,0.061694830656051636,0.05863925442099571,-0.10478877276182175
1686426759183489500,2.355489501953125,0.061412058770656586,0.050086915493011475,-0.10641603916883469
1686426759193434400,2.365434326171875,0.0619814470410347,0.04825572669506073,-0.11751742660999298
1686426759203379700,2.375379638671875,0.056499600410461426,0.03961548954248428,-0.12196113914251328
1686426759213324500,2.385324462890625,0.05845888704061508,0.05462373420596123,-0.10358000546693802
1686426759223269400,2.395269287109375,0.047139935195446014,0.071940116584301,-0.07278953492641449
1686426759233214700,2.405214599609375,0.03489445522427559,0.05254538357257843,-0.06619101762771606
1686426759243159600,2.41515966796875,0.03652769327163696,0.015242247842252254,-0.0841575339436531
1686426759253104400,2.4251044921875,0.039844926446676254,-0.004982862621545792,-0.10663807392120361
1686426759263049700,2.4350498046875,0.04130847379565239,-0.005110055673867464,-0.11827026307582855
1686426759272993500,2.44499365234375,0.036769647151231766,-0.00309990206733346,-0.11350906640291214
1686426759282938400,2.4549384765625,0.03616955876350403,0.002454538829624653,-0.08564174920320511
1686426759292883700,2.4648837890625,0.034464605152606964,-0.0059354836121201515,-0.06245573237538338
1686426759302828500,2.47482861328125,0.032532937824726105,-0.022818032652139664,-0.05870576947927475
1686426759312773400,2.4847734375,0.03682222589850426,-0.020844362676143646,-0.07261226326227188
1686426759322718700,2.49471875,0.041536714881658554,-0.012994096614420414,-0.08071323484182358
1686426759332663600,2.50466357421875,0.04267095774412155,-0.004882108420133591,-0.08264056593179703
1686426759342608400,2.5146083984375,0.04598569869995117,0.009329898282885551,-0.07170999050140381
1686426759352553700,2.5245537109375,0.038607679307460785,-0.008896510116755962,-0.07954980432987213
1686426759362498600,2.53449853515625,0.042108215391635895,-0.009659391827881336,-0.09964414685964584
1686426759372442400,2.5444423828125,0.04317720606923103,0.01198438461869955,-0.09868621081113815
1686426759382387700,2.5543876953125,0.044599778950214386,0.02339114062488079,-0.08425034582614899
1686426759392332500,2.56433251953125,0.041768841445446014,0.03355030342936516,-0.06786604970693588
1686426759402277400,2.57427734375,0.04113937169313431,0.020903948694467545,-0.054530102759599686
1686426759412222700,2.58422265625,0.04231302812695503,0.028867067769169807,-0.05648858845233917
1686426759422167600,2.59416748046875,0.030701573938131332,0.017122942954301834,-0.0767400711774826
1686426759432112400,2.6041123046875,0.03224620595574379,0.028080521151423454,-0.08778978884220123
1686426759442057700,2.6140576171875,0.024743705987930298,0.010413852520287037,-0.10716767609119415
1686426759452002600,2.62400244140625,0.020622197538614273,0.06963030248880386,-0.09500368684530258
1686426759461946400,2.6339462890625,0.005091335624456406,0.08882711082696915,-0.0661030039191246
1686426759471891500,2.643891357421875,0.001944810152053833,0.09210892766714096,-0.04098726063966751
1686426759481836500,2.65383642578125,0.006657742895185947,0.09675067663192749,-0.028807492926716805
1686426759491781400,2.663781494140625,0.005589814856648445,0.097170390188694,-0.029059162363409996
1686426759501726500,2.6737265625,0.0020659146830439568,0.11509548127651215,-0.02778434008359909
1686426759511671600,2.683671630859375,-0.0005767401307821274,0.13291361927986145,-0.02368280477821827
1686426759521616400,2.693616455078125,0.0017016129568219185,0.14963890612125397,-0.024855028837919235
1686426759531561500,2.7035615234375,0.002985789440572262,0.16061832010746002,-0.023649415001273155
1686426759541506600,2.713506591796875,-0.0005299700424075127,0.17087838053703308,-0.025412429124116898
1686426759551450400,2.723450439453125,-0.0061788009479641914,0.19500954449176788,-0.015457000583410263
1686426759561395500,2.7333955078125,-0.011131100356578827,0.20952636003494263,-0.012141929939389229
1686426759571340300,2.74334033203125,-0.0090399868786335,0.21570143103599548,-0.010547230020165443
1686426759581285400,2.753285400390625,-0.012549233622848988,0.2248922735452652,-0.011464688926935196
1686426759591230500,2.76323046875,-0.012540977448225021,0.24465398490428925,-0.009663859382271767
1686426759601175600,2.773175537109375,-0.010678306221961975,0.2633504569530487,-0.005062549374997616
1686426759611120400,2.783120361328125,-0.011528121307492256,0.270950585603714,0.007231933064758778
1686426759621065500,2.7930654296875,-0.007331235334277153,0.2812314033508301,0.02627812884747982
1686426759631010600,2.803010498046875,0.0018875626847147942,0.28541550040245056,0.042600907385349274
1686426759640955400,2.812955322265625,0.0042589688673615456,0.2835107147693634,0.05077551677823067
1686426759650899500,2.8228994140625,0.010446025058627129,0.2762751877307892,0.04922635853290558
1686426759660844300,2.83284423828125,0.016385003924369812,0.26645010709762573,0.04564616456627846
1686426759670789400,2.842789306640625,0.015539982356131077,0.2557719051837921,0.0415174663066864
1686426759680734500,2.852734375,0.01988636702299118,0.24089287221431732,0.05142303183674812
1686426759690679600,2.862679443359375,0.019450940191745758,0.2213689684867859,0.05741514265537262
1686426759700624400,2.872624267578125,0.018908387050032616,0.20845237374305725,0.0643196851015091
1686426759710569500,2.882569580078125,0.01575254276394844,0.19012556970119476,0.06725848466157913
1686426759720514600,2.8925146484375,0.021134771406650543,0.1698223352432251,0.07240121811628342
1686426759730459400,2.90245947265625,0.019581083208322525,0.15234054625034332,0.06767117232084274
1686426759740403500,2.912403564453125,0.016387421637773514,0.1350470334291458,0.0672818198800087
1686426759750348300,2.922348388671875,0.023840010166168213,0.11758468300104141,0.06379148364067078
1686426759760293400,2.93229345703125,0.02043985016644001,0.10329130291938782,0.06499452888965607
1686426759770238500,2.942238525390625,0.01688932441174984,0.08068559318780899,0.05911453813314438
1686426759780183600,2.95218359375,0.018348461017012596,0.057107310742139816,0.06363785266876221
1686426759790128400,2.96212841796875,0.015623513609170914,0.040113415569067,0.06509752571582794
1686426759800073500,2.972073486328125,0.01322832889854908,0.01916167140007019,0.07311031967401505
1686426759810018600,2.9820185546875,0.015614787116646767,0.008045636117458344,0.07650585472583771
1686426759819963400,2.99196337890625,0.012637225911021233,-0.009808966889977455,0.07317297160625458
1686426759829908500,3.001908447265625,0.014732601121068,-0.027675582095980644,0.06526311486959457
1686426759839852300,3.011852294921875,0.012484792619943619,-0.037446122616529465,0.062314823269844055
1686426759849797400,3.02179736328125,0.012634461745619774,-0.0392695888876915,0.0611499547958374
1686426759859742500,3.031742431640625,0.01140524260699749,-0.03997365012764931,0.05070890486240387
1686426759869687300,3.041687255859375,0.006995047442615032,-0.033872880041599274,0.04546540603041649
1686426759879632400,3.05163232421875,0.0063278572633862495,-0.029601426795125008,0.04063606262207031
1686426759889577500,3.061577392578125,0.002189038321375847,-0.032824382185935974,0.03634943813085556
1686426759899522600,3.0715224609375,-0.0011187526397407055,-0.03120967373251915,0.04205712676048279
1686426759909467400,3.08146728515625,-0.0005256668664515018,-0.031839244067668915,0.039747100323438644
1686426759919412500,3.09141259765625,-0.00609748438000679,-0.04224539175629616,0.025813840329647064
1686426759929357600,3.101357666015625,-0.009059451520442963,-0.041857101023197174,0.02451501600444317
1686426759939301400,3.11130126953125,-0.007285092957317829,-0.03877907991409302,0.02951011061668396
1686426759949246500,3.12124658203125,-0.007910137064754963,-0.03248922526836395,0.027120986953377724
1686426759959191300,3.13119140625,-0.007795534562319517,-0.020124608650803566,0.023187030106782913
1686426759969136400,3.141136474609375,-0.0055379727855324745,-0.012438992038369179,0.01381110679358244
1686426759979081500,3.15108154296875,-0.007439740933477879,-0.0077093434520065784,-0.001579600153490901
1686426759989026600,3.161026611328125,-0.00457684276625514,0.0013720360584557056,-0.007786097005009651
1686426759998971400,3.170971435546875,-0.0012143119238317013,0.011630355380475521,-0.012373226694762707
1686426760008916500,3.18091650390625,0.002641412429511547,0.01742219738662243,-0.01510696206241846
1686426760018861600,3.190861572265625,0.005754632875323296,0.028020141646265984,-0.0159883014857769
1686426760028806400,3.200806396484375,0.0004323050379753113,0.03670444339513779,-0.013625010848045349
1686426760038750500,3.21075048828125,-0.0012353602796792984,0.012507885694503784,-0.017390688881278038
1686426760048695300,3.2206953125,0.006574093364179134,0.013425078243017197,-0.026461414992809296
1686426760058640400,3.230640380859375,0.00676537211984396,0.019865402951836586,-0.029773153364658356
1686426760068585500,3.24058544921875,0.00019535329192876816,0.01832982338964939,-0.015945754945278168
1686426760078530600,3.250530517578125,0.00188373401761055,0.019838236272335052,-0.0046746269799768925
1686426760088475400,3.260475341796875,0.003137017600238323,0.010396530851721764,-0.007025132887065411
1686426760098420500,3.27042041015625,0.0005432050675153732,0.003761855885386467,-0.015866894274950027
1686426760108365600,3.280365478515625,0.005147277377545834,-0.002512817969545722,-0.024321099743247032
1686426760118310400,3.290310302734375,0.008466164581477642,-0.010540236718952656,-0.023582471534609795
1686426760128255500,3.30025537109375,0.008883216418325901,-0.013684631325304508,-0.020627427846193314
1686426760138199300,3.31019921875,0.012351836077868938,-0.01469513401389122,-0.02166868932545185
1686426760148144400,3.320144287109375,0.010827443562448025,-0.015587558969855309,-0.027607273310422897
1686426760158089500,3.33008935546875,0.013010255992412567,-0.026693111285567284,-0.03004985861480236
1686426760168034600,3.34003466796875,0.010998768731951714,-0.04419301077723503,-0.03978051617741585
1686426760177979400,3.3499794921875,0.012850359082221985,-0.052367109805345535,-0.04749429598450661
1686426760187924500,3.359924560546875,0.014114029705524445,-0.05153433978557587,-0.04388571158051491
1686426760197869600,3.36986962890625,0.012934675440192223,-0.040842730551958084,-0.03190597891807556
1686426760207814400,3.379814453125,0.009451793506741524,-0.0364820696413517,-0.023999853059649467
1686426760217759500,3.389759521484375,0.006944181397557259,-0.02803230471909046,-0.015188087709248066
1686426760227704600,3.39970458984375,0.00667999591678381,-0.031826507300138474,-0.011781372129917145
1686426760237648400,3.4096484375,0.012326612137258053,-0.03500162437558174,-0.014574828557670116
1686426760247593500,3.419593505859375,0.012478145770728588,-0.042720530182123184,-0.011969191953539848
1686426760257538300,3.429538330078125,0.012556270696222782,-0.04701133817434311,-0.007451006211340427
1686426760267483400,3.4394833984375,0.017409082502126694,-0.04666859284043312,0.0021057475823909044
1686426760277428500,3.449428466796875,0.017913497984409332,-0.06510114669799805,0.0064518265426158905
1686426760287373600,3.45937353515625,0.01874466985464096,-0.06080333888530731,0.015015488490462303
1686426760297318400,3.469318359375,0.013536723330616951,-0.06309884041547775,0.01862763613462448
1686426760307263500,3.479263427734375,0.018571695312857628,-0.06713858991861343,0.025586476549506187
1686426760317208600,3.48920849609375,0.01679253950715065,-0.08067325502634048,0.028650373220443726
1686426760327153400,3.4991533203125,0.01721038669347763,-0.09316188097000122,0.025865772739052773
1686426760337097500,3.509097412109375,0.02125972881913185,-0.10251770913600922,0.020902473479509354
1686426760347042300,3.519042236328125,0.019278336316347122,-0.10116162896156311,0.013226177543401718
1686426760356987400,3.5289873046875,0.01682007685303688,-0.10735128074884415,0.009415659122169018
1686426760366932500,3.538932373046875,0.01742035523056984,-0.11189596354961395,0.004426493309438229
1686426760376877600,3.548877685546875,0.011020602658390999,-0.10352170467376709,0.002374627161771059
1686426760386822400,3.558822509765625,0.006727320142090321,-0.09057022631168365,0.004626862239092588
1686426760396767500,3.568767578125,0.0034937094897031784,-0.08475866913795471,0.01891791820526123
1686426760406712600,3.578712646484375,-0.0033455542288720608,-0.08100840449333191,0.03125714138150215
1686426760416657400,3.588657470703125,-0.007664815057069063,-0.07439254969358444,0.04516363888978958
1686426760426602200,3.598602294921875,-0.006585169583559036,-0.06719109416007996,0.05422930419445038
1686426760436546300,3.60854638671875,-0.008342920802533627,-0.06790030747652054,0.05309596657752991
1686426760446491400,3.618491455078125,-0.009015634655952454,-0.0614357516169548,0.051454659551382065
1686426760456436500,3.6284365234375,-0.01096310280263424,-0.05776372179389,0.05341920256614685
1686426760466381600,3.638381591796875,-0.011747137643396854,-0.0567953959107399,0.053618140518665314
1686426760476326400,3.648326416015625,-0.00958411768078804,-0.04778086394071579,0.05821981653571129
1686426760486271500,3.658271484375,-0.011015995405614376,-0.04166432097554207,0.05828925594687462
1686426760496216600,3.668216552734375,-0.012587635777890682,-0.03798534721136093,0.056977421045303345
1686426760506161000,3.678160888671875,-0.011802270077168941,-0.0408538393676281,0.05061965435743332
1686426760516106200,3.688106201171875,-0.01186634786427021,-0.04612284526228905,0.05170136317610741
1686426760526051000,3.698051025390625,-0.01150708831846714,-0.05028030648827553,0.04697318747639656
1686426760535995000,3.707994873046875,-0.009336800314486027,-0.05938154086470604,0.041292399168014526
1686426760545940200,3.717940185546875,-0.012447904795408249,-0.06215256080031395,0.03320997208356857
1686426760555885000,3.727885009765625,-0.011387321166694164,-0.06961257010698318,0.028357958421111107
1686426760565830000,3.737829833984375,-0.010584910400211811,-0.07695809751749039,0.0268159881234169
1686426760575775200,3.747775146484375,-0.013551660813391209,-0.0779205784201622,0.029650989919900894
1686426760585720000,3.757719970703125,-0.014067515730857849,-0.0776771679520607,0.03878004103899002
1686426760595665000,3.767664794921875,-0.015909474343061447,-0.06727170944213867,0.044348977506160736
1686426760605610200,3.7776103515625,-0.019552411511540413,-0.062107037752866745,0.05664052814245224
1686426760615555000,3.78755517578125,-0.016613513231277466,-0.056313663721084595,0.06538625061511993
1686426760625500000,3.7975,-0.017338957637548447,-0.0517633892595768,0.07207770645618439
1686426760635444200,3.8074443359375,-0.02248145453631878,-0.04960476979613304,0.07496637105941772
1686426760645389000,3.81738916015625,-0.022930197417736053,-0.04489443451166153,0.08483897149562836
1686426760655334000,3.827333984375,-0.026594586670398712,-0.04191898554563522,0.08905666321516037
1686426760665279200,3.837279296875,-0.0277290940284729,-0.04322712868452072,0.09192302078008652
1686426760675224000,3.84722412109375,-0.028623588383197784,-0.042748287320137024,0.09197591990232468
1686426760685169000,3.8571689453125,-0.0288345105946064,-0.04033999145030975,0.09974063187837601
1686426760695114200,3.8671142578125,-0.02621050924062729,-0.037921417504549026,0.09926142543554306
1686426760705059000,3.87705908203125,-0.025850452482700348,-0.03354903683066368,0.09533432871103287
1686426760715004000,3.88700390625,-0.026211470365524292,-0.03440612554550171,0.0861184224486351
1686426760724949200,3.89694921875,-0.02535765990614891,-0.0328441821038723,0.07284815609455109
1686426760734894000,3.90689404296875,-0.023142704740166664,-0.030686626210808754,0.06169780343770981
1686426760744838000,3.916837890625,-0.023160282522439957,-0.029990477487444878,0.05263746157288551
1686426760754783200,3.926783203125,-0.019713090732693672,-0.027048608288168907,0.03461235761642456
1686426760764728000,3.93672802734375,-0.017442213371396065,-0.021910039708018303,0.032895416021347046
1686426760774673000,3.9466728515625,-0.020841751247644424,-0.017114859074354172,0.032354965806007385
1686426760784618200,3.9566181640625,-0.02346896007657051,-0.011484936811029911,0.025142591446638107
1686426760794563000,3.96656298828125,-0.026032783091068268,-0.007326144725084305,0.024463752284646034
1686426760804508000,3.9765078125,-0.030109018087387085,-0.0032515081111341715,0.020079657435417175
1686426760814453200,3.986453369140625,-0.029974456876516342,-0.0011255079880356789,0.019738411530852318
1686426760824398000,3.996398193359375,-0.033236563205718994,-0.001893563661724329,0.021719269454479218
1686426760834343000,4.006343017578125,-0.03596733510494232,-0.00772703206166625,0.02392016537487507
1686426760844288000,4.0162880859375,-0.03925420716404915,-0.009052487090229988,0.02555667795240879
1686426760854232000,4.026232177734375,-0.03896581009030342,-0.009053502231836319,0.03156350925564766
1686426760864177000,4.036177001953125,-0.04226972907781601,-0.012991517782211304,0.038042180240154266
1686426760874122200,4.046122314453125,-0.03795469552278519,-0.016185276210308075,0.040272243320941925
1686426760884067000,4.056067138671875,-0.03592483326792717,-0.010900498367846012,0.032140281051397324
1686426760894012000,4.066011962890625,-0.03492631018161774,-0.008672969415783882,0.029628321528434753
1686426760903957200,4.075957275390625,-0.034438688308000565,-0.006586914882063866,0.03509126231074333
1686426760913902000,4.085902099609375,-0.03393092006444931,-0.009246283210814,0.04522043094038963
1686426760923847000,4.095846923828125,-0.03524705395102501,-0.01033391896635294,0.05514762923121452
1686426760933792000,4.1057919921875,-0.03685203939676285,-0.013752824626863003,0.05477871373295784
1686426760943737000,4.115737060546875,-0.035519395023584366,-0.014423142187297344,0.055343303829431534
1686426760953681000,4.125680908203125,-0.032677650451660156,-0.01479109562933445,0.05710282549262047
1686426760963626200,4.135626220703125,-0.02993166260421276,-0.01688966527581215,0.05821016803383827
1686426760973571000,4.145571044921875,-0.02861694246530533,-0.017747437581419945,0.051152221858501434
1686426760983516000,4.155515869140625,-0.02562408149242401,-0.018474748358130455,0.05092452093958855
1686426760993461200,4.165461181640625,-0.023405302315950394,-0.02160150371491909,0.04637950286269188
1686426761003406000,4.175406005859375,-0.021136287599802017,-0.022228678688406944,0.04247930645942688
1686426761013351000,4.185350830078125,-0.017376061528921127,-0.022633293643593788,0.037177715450525284
1686426761023296000,4.1952958984375,-0.013996243476867676,-0.023025045171380043,0.031717438250780106
1686426761033241000,4.205240966796875,-0.010051574558019638,-0.01862536184489727,0.027290429919958115
1686426761043186000,4.21518603515625,-0.009313080459833145,-0.020714344456791878,0.01894914172589779
1686426761053131000,4.225131103515625,-0.006488888058811426,-0.020569689571857452,0.011830946430563927
1686426761063075000,4.235074951171875,-0.0023940117098391056,-0.024008095264434814,0.006311012431979179
1686426761073020000,4.24502001953125,0.0012283073738217354,-0.022788943722844124,-0.0000052049290388822556
1686426761082965200,4.25496533203125,0.0014072712510824203,-0.015096403658390045,-0.012394496239721775
1686426761092910000,4.26491015625,0.004566580057144165,-0.014152845367789268,-0.027344152331352234
1686426761102855000,4.27485498046875,0.0064510321244597435,-0.01403753086924553,-0.03946792334318161
1686426761112800000,4.284800048828125,0.005767052061855793,-0.009972983039915562,-0.04569070041179657
1686426761122745000,4.2947451171875,0.008782017044723034,-0.0030538244172930717,-0.05030542612075806
1686426761132690000,4.30468994140625,0.009542420506477356,-0.004189269617199898,-0.05237024277448654
1686426761142635000,4.314635009765625,0.007436925545334816,0.0031493366695940495,-0.053527917712926865
1686426761152580000,4.324580078125,0.012141237035393715,0.008472383953630924,-0.054222505539655685
1686426761162525200,4.334525146484375,0.0067424774169921875,0.01244582049548626,-0.05311382934451103
1686426761172469200,4.34446923828125,0.007912400178611279,0.009332193993031979,-0.05596717447042465
1686426761182414000,4.3544140625,0.008534247986972332,0.013965561985969543,-0.06036298722028732
1686426761192359000,4.36435888671875,0.005505157634615898,0.014495687559247017,-0.06449684500694275
1686426761202304000,4.374303955078125,0.007281752303242683,0.015795042738318443,-0.06876961886882782
1686426761212249000,4.3842490234375,0.005591743625700474,0.018062125891447067,-0.07229378819465637
1686426761222194000,4.39419384765625,0.0029213912785053253,0.020559638738632202,-0.07197394222021103
1686426761232139000,4.404138916015625,0.002676701173186302,0.023974504321813583,-0.06646271795034409
1686426761242084000,4.414083984375,-0.0017217760905623436,0.0281538013368845,-0.06273962557315826
1686426761252029200,4.424029296875,-0.002283246722072363,0.03366922587156296,-0.054424405097961426
1686426761261974000,4.43397412109375,-0.0018627336248755455,0.032688383013010025,-0.055331211537122726
1686426761271919000,4.443919189453125,-0.008754187263548374,0.041848573833703995,-0.06239890679717064
1686426761281863000,4.45386279296875,0.003974124789237976,0.042439527809619904,-0.07026216387748718
1686426761291808300,4.463808349609375,-0.0009348797611892223,0.014871286228299141,-0.052503667771816254
1686426761301753000,4.473753173828125,-0.007554166484624147,0.024053599685430527,-0.04429500550031662
1686426761311698000,4.483697998046875,-0.005573315545916557,0.034181348979473114,-0.05380202457308769
1686426761321643000,4.49364306640625,-0.004698201082646847,0.021541455760598183,-0.06334573030471802
1686426761331588000,4.503588134765625,-0.005523961037397385,0.013207720592617989,-0.07848333567380905
1686426761341533000,4.513532958984375,-0.005010503344237804,0.0034166083205491304,-0.08706910163164139
1686426761351478000,4.52347802734375,-0.002549992874264717,0.0017401152290403843,-0.08954597264528275
1686426761361423000,4.533423095703125,0.0010660476982593536,-0.0052722543478012085,-0.08665245026350021
1686426761371368200,4.5433681640625,0.0018960610032081604,-0.010603980161249638,-0.08706803619861603
1686426761381313000,4.55331298828125,0.004894247278571129,-0.007469438947737217,-0.0911187082529068
1686426761391257000,4.563257080078125,0.0048529645428061485,-0.00274485070258379,-0.10022888332605362
1686426761401202000,4.573201904296875,0.005679875612258911,0.0010235223453491926,-0.11070629209280014
1686426761411147000,4.58314697265625,0.006030243821442127,0.0007596821524202824,-0.11391536146402359
1686426761421092000,4.593092041015625,0.008231878280639648,-0.0023295844439417124,-0.11240828037261963
1686426761431037000,4.603036865234375,0.008298665285110474,-0.007768843788653612,-0.10287532955408096
1686426761440982000,4.61298193359375,0.010127456858754158,-0.012603281065821648,-0.09842172265052795
1686426761450927000,4.622927001953125,0.011463362723588943,-0.01689482107758522,-0.09698161482810974
1686426761460872200,4.6328720703125,0.011244449764490128,-0.022891458123922348,-0.0984032154083252
1686426761470817000,4.642817138671875,0.011716178618371487,-0.030760064721107483,-0.09759091585874557
1686426761480762000,4.65276220703125,0.010689795948565006,-0.030418381094932556,-0.09537143260240555
1686426761490707200,4.662707275390625,0.014506375417113304,-0.024190189316868782,-0.08953908085823059
1686426761500651000,4.672651123046875,0.008622920140624046,-0.016273144632577896,-0.08335335552692413
1686426761510595800,4.682595947265625,0.011263730004429817,-0.013082318007946014,-0.07548568397760391
1686426761520540700,4.692540771484375,0.010247467085719109,-0.010735806077718735,-0.07450510561466217
1686426761530485800,4.70248583984375,0.010610164143145084,-0.01235242374241352,-0.08492708206176758
1686426761540430800,4.712430908203125,0.013494900427758694,-0.020208748057484627,-0.08863074332475662
1686426761550375700,4.722375732421875,0.01277737133204937,-0.02650032564997673,-0.09812591224908829
1686426761560320800,4.73232080078125,0.013715868815779686,-0.033803779631853104,-0.10868534445762634
1686426761570265900,4.742265869140625,0.016189925372600555,-0.044180069118738174,-0.11702819168567657
1686426761580210700,4.752210693359375,0.013910527341067791,-0.045753996819257736,-0.12149990350008011
1686426761590155800,4.76215576171875,0.017194204032421112,-0.04185166582465172,-0.11566465348005295
1686426761600100900,4.772100830078125,0.015415479429066181,-0.04034378379583359,-0.10470867156982422
1686426761610044700,4.782044677734375,0.018714621663093567,-0.029841650277376175,-0.09632964432239532
1686426761619989800,4.79198974609375,0.017486903816461563,-0.029909562319517136,-0.09018759429454803
1686426761629934800,4.801934814453125,0.024042798206210136,-0.03104458563029766,-0.08722542971372604
1686426761639879700,4.811879638671875,0.02274077944457531,-0.03227629512548447,-0.08596894890069962
1686426761649824800,4.82182470703125,0.024308139458298683,-0.03330192714929581,-0.08396828174591064
1686426761659769900,4.831769775390625,0.02169850841164589,-0.036913707852363586,-0.07522192597389221
1686426761669714700,4.841714599609375,0.024536626413464546,-0.04186568781733513,-0.06591859459877014
1686426761679659800,4.85165966796875,0.022957637906074524,-0.038655247539281845,-0.05758184194564819
1686426761689604900,4.86160498046875,0.024311251938343048,-0.04089203104376793,-0.05779373645782471
1686426761699549700,4.8715498046875,0.02179829217493534,-0.040561266243457794,-0.060730669647455215
1686426761709494800,4.881494873046875,0.0266452357172966,-0.034407079219818115,-0.06128869950771332
1686426761719438800,4.89143896484375,0.025120310485363007,-0.028079409152269363,-0.06221441179513931
1686426761729383700,4.9013837890625,0.027141397818922997,-0.03293292596936226,-0.07074355334043503
1686426761739328800,4.911328857421875,0.028581103309988976,-0.03360217809677124,-0.07944463193416595
1686426761749273900,4.92127392578125,0.02475377917289734,-0.03805932402610779,-0.09422797709703445
1686426761759218700,4.93121875,0.024788934737443924,-0.03922125697135925,-0.10144221782684326
1686426761769163800,4.941163818359375,0.02657625451683998,-0.04163781553506851,-0.10305005311965942
1686426761779108900,4.95110888671875,0.022987112402915955,-0.04342079907655716,-0.10084842145442963
1686426761789053700,4.9610537109375,0.025785675272345543,-0.03387640416622162,-0.09643121063709259
1686426761798998800,4.970998779296875,0.021941402927041054,-0.03189341723918915,-0.0814213678240776
1686426761808943900,4.98094384765625,0.02546634152531624,-0.029520491138100624,-0.0704200491309166
1686426761818888700,4.990888671875,0.02427005022764206,-0.02822619490325451,-0.06177595630288124
1686426761828833800,5.000833740234375,0.022915400564670563,-0.030450401827692986,-0.059503018856048584
1686426761838777900,5.01077783203125,0.0227164626121521,-0.032858170568943024,-0.05351463332772255
1686426761848722700,5.02072265625,0.02174333855509758,-0.04120384156703949,-0.06009054556488991
1686426761858667800,5.030667724609375,0.02300594374537468,-0.04656824842095375,-0.06412523239850998
1686426761868612900,5.04061279296875,0.022100646048784256,-0.05908985063433647,-0.08096955716609955
1686426761878557700,5.0505576171875,0.018962377682328224,-0.0665522962808609,-0.09477885067462921
1686426761888502800,5.060502685546875,0.017899885773658752,-0.07407248765230179,-0.09878397732973099
1686426761898448000,5.07044775390625,0.01369981374591589,-0.07245035469532013,-0.10024525970220566
1686426761908392700,5.080392822265625,0.010854214429855347,-0.0657142624258995,-0.09422128647565842
1686426761918337800,5.090337890625,0.011441707611083984,-0.05337157100439072,-0.08260404318571091
1686426761928282600,5.10028271484375,0.013899794779717922,-0.04396806284785271,-0.06874824315309525
1686426761938227700,5.110227783203125,0.010003057308495045,-0.03814532607793808,-0.05230402573943138
1686426761948172800,5.1201728515625,0.010704881511628628,-0.039886124432086945,-0.049554843455553055
1686426761958116900,5.130116943359375,0.011190376244485378,-0.04839252680540085,-0.05204330012202263
1686426761968061700,5.140061767578125,0.01001744158565998,-0.053988613188266754,-0.051575884222984314
1686426761978006800,5.1500068359375,0.01072690635919571,-0.05618252605199814,-0.04419759660959244
1686426761987951900,5.159951904296875,0.007427690550684929,-0.055323466658592224,-0.037405338138341904
1686426761997896700,5.169896728515625,0.005072923377156258,-0.051772139966487885,-0.028069360181689262
1686426762007841800,5.179841796875,0.006163494661450386,-0.0468013659119606,-0.022557616233825684
1686426762017786600,5.18978662109375,0.008439965546131134,-0.040138136595487595,-0.021608199924230576
1686426762027731700,5.199731689453125,0.007929778657853603,-0.03870683163404465,-0.019941657781600952
1686426762037676800,5.2096767578125,0.009809437207877636,-0.0320902094244957,-0.018574923276901245
1686426762047621600,5.21962158203125,0.010197900235652924,-0.03367060795426369,-0.014155804179608822
1686426762057567000,5.22956689453125,0.014713022857904434,-0.03285807743668556,-0.010762404650449753
1686426762067510800,5.2395107421875,0.012718066573143005,-0.032921239733695984,-0.010725459083914757
1686426762077456000,5.249455810546875,0.014317827299237251,-0.039535995572805405,-0.008004507049918175
1686426762087400700,5.259400634765625,0.014986800961196423,-0.04342897608876228,-0.010529580526053905
1686426762097345800,5.269345703125,0.010294311679899693,-0.039417192339897156,-0.004578214138746262
1686426762107290600,5.27929052734375,0.00951383076608181,-0.03822481259703636,-0.0037591601721942425
1686426762117235700,5.289235595703125,0.011099211871623993,-0.037401631474494934,0.005210632458329201
1686426762127180800,5.299180908203125,0.012311043217778206,-0.0410173237323761,0.00517641007900238
1686426762137125600,5.309125732421875,0.01022845134139061,-0.047424089163541794,0.007567929103970528
1686426762147071000,5.319071044921875,0.009309394285082817,-0.04290710389614105,0.018273569643497467
1686426762157015800,5.329015869140625,0.008840944617986679,-0.04712102189660072,0.026142679154872894
1686426762166960600,5.338960693359375,0.00048234686255455017,-0.043102312833070755,0.03951361030340195
1686426762176906000,5.348906005859375,0.0019225841388106346,-0.044905271381139755,0.04508387669920921
1686426762186849800,5.358849853515625,0.0016456088051199913,-0.039759233593940735,0.05964358150959015
1686426762196794600,5.368794677734375,-0.0007778680883347988,-0.03793097287416458,0.05945583060383797
1686426762206739700,5.37873974609375,-0.002090626861900091,-0.03528282046318054,0.06677120178937912
1686426762216684800,5.388684814453125,-0.0007547852583229542,-0.035051655024290085,0.0643695592880249
1686426762226629600,5.398629638671875,0.0011768899857997894,-0.03706770017743111,0.07171939313411713
1686426762236575000,5.408574951171875,-0.0025576604530215263,-0.03758515417575836,0.07832349836826324
1686426762246519800,5.418519775390625,0.002455911599099636,-0.03381817787885666,0.0855974555015564
1686426762256464600,5.428464599609375,0.0007464280351996422,-0.03323974087834358,0.09810153394937515
1686426762266410000,5.438409912109375,0.003521803766489029,-0.0303655918687582,0.10304509103298187
1686426762276354800,5.448354736328125,0.0030602775514125824,-0.03414541482925415,0.10230206698179245
1686426762286299600,5.458299560546875,0.0012473026290535927,-0.03163320943713188,0.08799848705530167
1686426762296244700,5.46824462890625,0.0004632677882909775,-0.031091786921024323,0.07077556103467941
1686426762306189800,5.47818994140625,-0.0008506616577506065,-0.032663192600011826,0.04579770937561989
1686426762316133600,5.488133544921875,-0.006107209250330925,-0.033021386712789536,0.03198176249861717
1686426762326078700,5.49807861328125,-0.002119042444974184,-0.02731199748814106,0.026904979720711708
1686426762336023800,5.50802392578125,-0.0036466317251324654,-0.017878813669085503,0.01915677823126316
1686426762345968600,5.51796875,-0.0012841424904763699,-0.013916157186031342,0.013524694368243217
1686426762355914000,5.5279140625,0.004161222837865353,-0.010398654267191887,0.01709546148777008
1686426762365858800,5.53785888671875,0.005486230365931988,-0.0006602942012250423,0.024987444281578064
1686426762375803600,5.5478037109375,0.008583752438426018,0.0041517713107168674,0.03243284672498703
1686426762385748700,5.557748779296875,0.006925242021679878,0.007794202771037817,0.03963042423129082
1686426762395693800,5.56769384765625,0.0028034672141075134,0.0158968698233366,0.04450001195073128
1686426762405638700,5.577638671875,0.0007516620680689812,0.012253129854798317,0.041226744651794434
1686426762415583700,5.587583740234375,-0.004462008364498615,0.013760479167103767,0.0341683030128479
1686426762425528800,5.59752880859375,-0.009755905717611313,0.01310675498098135,0.026163216680288315
1686426762435472600,5.60747265625,-0.011233162134885788,0.008651020005345345,0.022732531651854515
1686426762445418000,5.61741796875,-0.011787830851972103,0.004763220902532339,0.02145668864250183
1686426762455362800,5.62736279296875,-0.010939081199467182,0.011746827512979507,0.021247630938887596
1686426762465307600,5.6373076171875,-0.01137991901487112,0.01300213672220707,0.01915544643998146
1686426762475253000,5.6472529296875,-0.008060022257268429,0.01258774846792221,0.01434338092803955
1686426762485197800,5.65719775390625,-0.003020704258233309,0.01510693784803152,0.01374630443751812
1686426762495142700,5.667142578125,-0.004699560813605785,0.006520641036331654,0.007385610602796078
1686426762505087500,5.67708740234375,-0.010577324777841568,-0.0020456300117075443,0.002076059812679887
1686426762515032600,5.687032470703125,-0.00782281719148159,-0.0038421982899308205,0.001466462155804038
1686426762524977700,5.696977783203125,-0.005969161167740822,-0.006958691403269768,0.0017409322317689657
1686426762534922500,5.706922607421875,-0.006765712983906269,-0.006239105015993118,0.0036576089914888144
1686426762544867800,5.716867919921875,-0.005941301584243774,-0.0007345282938331366,0.00751836784183979
1686426762554811600,5.726811767578125,-0.0034794756211340427,0.007295168470591307,0.009959154762327671
1686426762564756700,5.7367568359375,-0.001907208003103733,0.015119776129722595,0.01264943741261959
1686426762574701600,5.74670166015625,-0.0010387515649199486,0.015267581678926945,0.01026564184576273
1686426762584646700,5.756646728515625,-0.0004495973698794842,0.011560753919184208,0.003989147022366524
1686426762594591700,5.766591796875,0.0030434047803282738,0.007582257501780987,0.0035851451102644205
1686426762604536600,5.77653662109375,0.000020446255803108215,0.008570985868573189,0.00483720563352108
1686426762614481700,5.786481689453125,0.0032932041212916374,0.012504208832979202,0.0094423433765769
1686426762624426500,5.796426513671875,0.007933761924505234,0.014100240543484688,0.013488483615219593
1686426762634371800,5.806371826171875,0.00017730612307786942,0.011002453044056892,0.009622905403375626
1686426762644316700,5.816316650390625,0.0019101500511169434,0.0020062760449945927,0.002194769913330674
1686426762654261500,5.826261474609375,-0.002890730742365122,-0.0005431682802736759,-0.0010295192478224635
1686426762664206800,5.836206787109375,-0.004971194081008434,-0.005233387462794781,0.00014543486759066582
1686426762674150700,5.846150634765625,-0.006900654174387455,-0.008756482973694801,0.004464017227292061
1686426762684095700,5.856095703125,-0.007973297499120235,-0.009855564683675766,0.008044482208788395
1686426762694040600,5.86604052734375,-0.006202295422554016,-0.005540178157389164,0.0107822110876441
1686426762703985700,5.875985595703125,-0.008307958021759987,0.0003318670205771923,0.018556034192442894
1686426762713930500,5.885930419921875,-0.004758496768772602,0.012450315058231354,0.03195173293352127
1686426762723875800,5.895875732421875,-0.004603405483067036,0.014028975740075111,0.04487808421254158
1686426762733820700,5.905820556640625,-0.005668936297297478,0.013793019577860832,0.04453027620911598
1686426762743765500,5.915765625,-0.0026017813943326473,0.018628142774105072,0.04031252861022949
1686426762753710800,5.9257109375,-0.002427610568702221,0.012250139378011227,0.03336966782808304
1686426762763655700,5.93565576171875,-0.0006429352797567844,0.007415249943733215,0.019673695787787437
1686426762773600500,5.9456005859375,-0.0018445532768964767,0.011075764894485474,0.01189886312931776
1686426762783545900,5.9555458984375,-0.0027972604148089886,0.01150139793753624,0.005029874853789806
1686426762793490700,5.96549072265625,-0.000814270693808794,0.007884825579822063,0.00022073835134506226
1686426762803435500,5.975435546875,-0.006072057411074638,0.009646053425967693,-0.006322250701487064
1686426762813379600,5.985379638671875,-0.004325822461396456,0.009003166109323502,-0.012566564604640007
1686426762823324700,5.99532470703125,-0.006999913137406111,0.006728878244757652,-0.008482594974339008
1686426762833269500,6.00526953125,-0.008608728647232056,0.007439143024384975,-0.007366463541984558
1686426762843214800,6.01521484375,-0.008551289327442646,0.014695074409246445,-0.004342385567724705
1686426762853159700,6.02515966796875,-0.008833850733935833,0.018559588119387627,-0.0007963868556544185
1686426762863104500,6.0351044921875,-0.0077573987655341625,0.02225778065621853,0.004103595390915871
1686426762873049900,6.0450498046875,-0.008247153833508492,0.027160659432411194,0.01110930647701025
1686426762882994700,6.05499462890625,-0.007792727556079626,0.02824331447482109,0.010896917432546616
1686426762892939500,6.064939453125,-0.008685685694217682,0.024067211896181107,0.013713477179408073
1686426762902884600,6.074884521484375,-0.009353157132863998,0.018610287457704544,0.011227146722376347
1686426762912829700,6.08482958984375,-0.01144373882561922,0.02243112400174141,0.01094644982367754
1686426762922774500,6.0947744140625,-0.011041341349482536,0.03179548308253288,0.011540237814188004
1686426762932718800,6.10471875,-0.011592083610594273,0.02461879886686802,0.008525805547833443
1686426762942663700,6.11466357421875,-0.009997192770242691,0.021654045209288597,0.003923392854630947
1686426762952608500,6.1246083984375,-0.005997390486299992,0.022411713376641273,0.005771893076598644
1686426762962553900,6.134553955078125,-0.006093441508710384,0.025018636137247086,0.010819215327501297
1686426762972498700,6.144498779296875,-0.0018406393937766552,0.03010554052889347,0.01594446785748005
1686426762982443500,6.154443603515625,-0.0003882492892444134,0.04054293781518936,0.02371218055486679
1686426762992388600,6.164388671875,-0.002326764166355133,0.04065079614520073,0.024953747168183327
1686426763002333700,6.174333740234375,-0.0019763768650591373,0.04369695112109184,0.02393052540719509
1686426763012278500,6.184278564453125,-0.0013494687154889107,0.040887583047151566,0.02572176605463028
1686426763022223600,6.1942236328125,-0.0057024057023227215,0.03807901218533516,0.02001141756772995
1686426763032168700,6.204168701171875,-0.005426870193332434,0.03638533130288124,0.018487263470888138
1686426763042113500,6.214113525390625,-0.007231669966131449,0.030569178983569145,0.013659807853400707
1686426763052058600,6.22405859375,-0.009131569415330887,0.021610837429761887,-0.001944185234606266
1686426763062002700,6.234002685546875,-0.009389912709593773,0.017572466284036636,-0.014312366023659706
1686426763071947500,6.243947509765625,-0.008633042685687542,0.03028666228055954,-0.0001558009535074234
1686426763081892600,6.253892578125,-0.00030294060707092285,0.041570212692022324,0.026207895949482918
1686426763091837700,6.263837646484375,0.0034348061308264732,0.028867464512586594,0.02531786821782589
1686426763101782500,6.273782470703125,-0.0017451317980885506,0.012879490852355957,0.0027442818973213434
1686426763111727600,6.2837275390625,0.004858442582190037,0.0029648086056113243,-0.018106138333678246
1686426763121672700,6.293672607421875,0.004471300169825554,-0.003117871703580022,-0.02307296171784401
1686426763131617500,6.303617431640625,0.00438820943236351,0.0006965738721191883,-0.013661617413163185
1686426763141562600,6.313562744140625,0.002656268887221813,0.002683199243620038,-0.00498137716203928
1686426763151507700,6.3235078125,0.0002013668417930603,-0.00453423336148262,-0.01364570576697588
1686426763161452500,6.33345263671875,-0.0033727739937603474,0.009214960969984531,-0.0066050393506884575
1686426763171397600,6.343397705078125,-0.0003519505262374878,0.02500297874212265,0.015486147254705429
1686426763181342700,6.3533427734375,0.0019641127437353134,0.03802068531513214,0.054054778069257736
1686426763191286500,6.36328662109375,0.00450317095965147,0.036835044622421265,0.07346176356077194
1686426763201231600,6.373231689453125,0.006536942906677723,0.03664292395114899,0.07047555595636368
1686426763211176700,6.3831767578125,0.0018255449831485748,0.0366799421608448,0.06449143588542938
1686426763221121500,6.39312158203125,0.001150348223745823,0.036419518291950226,0.05977600812911987
1686426763231066600,6.403066650390625,0.005344294011592865,0.03468579798936844,0.06445571035146713
1686426763241011700,6.41301171875,0.0044112056493759155,0.03460175171494484,0.06030944362282753
1686426763250956500,6.42295654296875,0.00003296881914138794,0.028256770223379135,0.049688223749399185
1686426763260901600,6.432901611328125,0.0021578138694167137,0.02218441665172577,0.04059233143925667
1686426763270846700,6.4428466796875,0.0036273468285799026,0.01833135448396206,0.031011343002319336
1686426763280791800,6.452791748046875,0.003267827443778515,0.015670295804739,0.023608149960637093
1686426763290736600,6.462736572265625,0.0049743810668587685,0.005077573470771313,0.015360074117779732
1686426763300681500,6.472681396484375,0.004149057902395725,0.002213244093582034,0.014969227835536003
1686426763310626800,6.482626708984375,0.0035194866359233856,-0.005852938629686832,0.010947855189442635
1686426763320571600,6.492571533203125,0.0031179729849100113,-0.014647148549556732,-0.0011845763074234128
1686426763330515700,6.502515625,0.0007658693939447403,-0.018200604245066643,-0.004791295155882835
1686426763340460500,6.51246044921875,-0.0023382161743938923,-0.019331317394971848,-0.00701404083520174
1686426763350405600,6.522405517578125,-0.004576070234179497,-0.022675182670354843,-0.010152043774724007
1686426763360350700,6.532350830078125,-0.0013687340542674065,-0.022949939593672752,-0.012769532389938831
1686426763370295800,6.5422958984375,-0.002268083393573761,-0.023400813341140747,-0.007683160714805126
1686426763380240600,6.55224072265625,-0.00045119505375623703,-0.021161505952477455,-0.0037217698991298676
1686426763390185500,6.562185546875,0.0009930366650223732,-0.015822933986783028,-0.005145229399204254
1686426763400130800,6.572130859375,-0.0008405484259128571,-0.009668242186307907,-0.00489033292979002
1686426763410075600,6.58207568359375,0.00021512899547815323,-0.0004896577447652817,-0.008272280916571617
1686426763420020500,6.5920205078125,0.003154722973704338,0.014907155185937881,-0.0012229576241225004
1686426763429965800,6.6019658203125,0.0070993974804878235,0.030275458469986916,0.00514972023665905
1686426763439910700,6.61191064453125,0.009079820476472378,0.03228527307510376,0.004712389782071114
1686426763449855500,6.62185546875,0.008715500123798847,0.024367960169911385,-0.0016632173210382462
1686426763459799600,6.631799560546875,0.006194276735186577,0.013758625835180283,-0.014166651293635368
1686426763469744600,6.64174462890625,0.007856089621782303,0.005289508029818535,-0.0271141417324543
1686426763479689500,6.651689453125,0.00515910517424345,-0.0022929050028324127,-0.03226898983120918
1686426763489634800,6.661634765625,0.0043321941047906876,-0.008963590487837791,-0.028544289991259575
1686426763499579600,6.67157958984375,0.004972862079739571,-0.0031617209315299988,-0.02447052299976349
1686426763509525000,6.68152490234375,0.0014931755140423775,-0.002264501992613077,-0.016013387590646744
1686426763519470300,6.69147021484375,-0.0008808504790067673,-0.00029573263600468636,-0.013050357811152935
1686426763529415200,6.701415283203125,-0.0008685998618602753,-0.0007237026002258062,-0.007746939547359943
1686426763539360000,6.711360107421875,-0.0055619822815060616,-0.00557455699890852,-0.0052162217907607555
1686426763549305000,6.72130517578125,-0.004768626764416695,-0.001367561286315322,-0.00039803097024559975
1686426763559250200,6.731250244140625,-0.0033918609842658043,0.005539136938750744,0.002572830766439438
1686426763569195000,6.741195068359375,-0.0028618918731808662,0.010921385139226913,0.009066682308912277
1686426763579140000,6.75114013671875,-0.0003375704400241375,0.011919806711375713,0.008967763744294643
1686426763589085200,6.761085205078125,-0.0004158671945333481,0.008269944228231907,0.0056143105030059814
1686426763599029000,6.771029052734375,-0.0014447360299527645,0.004456100985407829,-0.0033602342009544373
1686426763608974300,6.780974365234375,-0.0004961183294653893,0.0017535253427922726,-0.009465530514717102
1686426763618919200,6.790919189453125,0.001339687965810299,-0.0020063614938408136,-0.010679895058274269
1686426763628864000,6.800864013671875,0.0016161240637302399,0.001957487780600786,-0.0023700338788330555
1686426763638809000,6.81080908203125,0.002486356534063816,-0.0020144653972238302,0.0007270132191479206
1686426763648754200,6.820754150390625,0.0015031173825263977,-0.0008093852084130049,0.009301060810685158
1686426763658699000,6.830698974609375,0.0007915189489722252,-0.001963726244866848,0.005342773161828518
1686426763668644000,6.84064404296875,-0.005020030774176121,-0.013169508427381516,-0.010404764674603939
1686426763678589200,6.850589111328125,-0.006510506849735975,-0.007896394468843937,-0.018514366820454597
1686426763688534300,6.8605341796875,-0.002885944675654173,0.008801891468465328,-0.004163655918091536
1686426763698479000,6.87047900390625,0.0008317343890666962,0.027156619355082512,0.01497935876250267
1686426763708424200,6.880424072265625,0.0008634254336357117,0.027236782014369965,0.016689373180270195
1686426763718369300,6.890369384765625,0.003929522819817066,0.025958312675356865,0.009744210168719292
1686426763728313000,6.90031298828125,0.004272804595530033,0.018274027854204178,-0.0029643941670656204
1686426763738258200,6.910258056640625,0.003454240970313549,0.006229151971638203,-0.00697838282212615
1686426763748203000,6.920203125,0.004319235682487488,0.0011784667149186134,-0.0030235883314162493
1686426763758148000,6.930148193359375,0.0037143416702747345,-0.002710095141083002,0.00016594841144979
1686426763768093200,6.94009326171875,0.006119974888861179,-0.005307475570589304,-0.0004633564967662096
1686426763778038300,6.950038330078125,0.004545604810118675,-0.0034618249628692865,0.000886198366060853
1686426763787983000,6.959983154296875,0.0037756850942969322,0.00031027616932988167,0.001290732529014349
1686426763797928200,6.96992822265625,0.0022574132308363914,0.010639231652021408,0.005013736896216869
1686426763807873300,6.979873291015625,0.004086473025381565,0.016524018719792366,0.005042232573032379
1686426763817818000,6.989818115234375,0.003549046814441681,0.0193131472915411,0.0057668788358569145
1686426763827763200,6.99976318359375,0.0005979975685477257,0.02195606753230095,0.002276539569720626
1686426763837708300,7.009708251953125,0.0014753304421901703,0.024554746225476265,-0.00011121411807835102
1686426763847653000,7.019653076171875,0.0005959551781415939,0.019690483808517456,-0.004320073872804642
1686426763857598000,7.029597900390625,0.0008957395330071449,0.01810023933649063,-0.009114488959312439
1686426763867542000,7.0395419921875,0.006423928774893284,0.011733685620129108,-0.014992884360253811
1686426763877487000,7.049487060546875,0.0056373244151473045,0.001471227966248989,-0.018325714394450188
1686426763887432200,7.05943212890625,0.006131873466074467,-0.0067139980383217335,-0.019983531907200813
1686426763897377300,7.069377197265625,0.007236103527247906,-0.010085290297865868,-0.01901216432452202
1686426763907322000,7.079322021484375,0.004281326197087765,-0.01395246759057045,-0.020996486768126488
1686426763917267200,7.08926708984375,0.002657420001924038,-0.010768298991024494,-0.023330410942435265
1686426763927212300,7.09921240234375,0.007216751575469971,-0.0072380127385258675,-0.019298652186989784
1686426763937157000,7.1091572265625,0.006244168616831303,-0.001443148823454976,-0.015273330733180046
1686426763947102000,7.11910205078125,0.006709422916173935,0.0015076333656907082,-0.008663098327815533
1686426763957047300,7.12904736328125,0.004615733399987221,0.005583960562944412,-0.005719705019146204
1686426763966992100,7.1389921875,-0.00008368119597434998,0.004643332213163376,-0.010190620087087154
1686426763976937000,7.14893701171875,0.0012399088591337204,0.005544418469071388,-0.011922771111130714
1686426763986882300,7.15888232421875,-0.002841917797923088,0.0004183663986623287,-0.012700414285063744
1686426763996827100,7.1688271484375,-0.004413094371557236,0.0032086533028632402,-0.007061902433633804
1686426764006772000,7.17877197265625,-0.009551131166517735,0.00807691179215908,-0.003946802578866482
1686426764016716300,7.18871630859375,-0.005517951212823391,0.009473160840570927,0.001423827139660716
1686426764026661000,7.1986611328125,-0.007839162833988667,0.027664948254823685,0.0060257688164711
1686426764036606000,7.20860595703125,-0.01153536420315504,0.027762558311223984,0.007038803771138191
1686426764046551300,7.21855126953125,-0.010410711169242859,0.0320020467042923,0.006869426928460598
1686426764056496000,7.22849609375,-0.009760454297065735,0.03354085236787796,0.005934888031333685
1686426764066441000,7.23844091796875,-0.006340955384075642,0.026731150224804878,-0.0009427255718037486
1686426764076386300,7.24838623046875,-0.00447141844779253,0.021670103073120117,-0.012963827699422836
1686426764086331100,7.2583310546875,-0.005872773937880993,0.018060719594359398,-0.02833719179034233
1686426764096276000,7.26827587890625,-0.004852517042309046,0.01544670108705759,-0.027718836441636086
1686426764106221300,7.27822119140625,-0.0030197296291589737,0.012096710503101349,-0.01992509700357914
1686426764116166100,7.288166259765625,-0.0010939082130789757,0.020320642739534378,-0.017456544563174248
1686426764126111000,7.298111083984375,-0.0041381679475307465,0.01673070155084133,-0.019798260182142258
1686426764136056000,7.30805615234375,-0.0022356929257512093,0.012765001505613327,-0.024442724883556366
1686426764146001200,7.318001220703125,-0.0032250573858618736,0.0036508652847260237,-0.021596072241663933
1686426764155945000,7.327945068359375,-0.0019470974802970886,0.016056599095463753,-0.018240150064229965
1686426764165890300,7.337890380859375,-0.0030126282945275307,0.020049210637807846,-0.014392681419849396
1686426764175835100,7.347835205078125,-0.005034321919083595,0.024609271436929703,-0.009614364244043827
1686426764185780000,7.357780029296875,-0.004494764842092991,0.027747273445129395,-0.0002823818940669298
1686426764195725300,7.367725341796875,-0.0037577757611870766,0.02833360806107521,-0.00036458903923630714
1686426764205670100,7.377670166015625,-0.005192154552787542,0.02634902112185955,-0.003541740123182535
1686426764215615000,7.387614990234375,-0.0041481987573206425,0.020363356918096542,-0.009760001674294472
1686426764225560000,7.39756005859375,-0.004486952908337116,0.03345385938882828,-0.003924217075109482
1686426764235505200,7.407505126953125,-0.002894205506891012,0.04023496434092522,0.011268312111496925
1686426764245450200,7.4174501953125,-0.0012686117552220821,0.050939805805683136,0.023490356281399727
1686426764255395000,7.42739501953125,0.004498111084103584,0.04806133359670639,0.012091083452105522
1686426764265340200,7.437340087890625,0.006163119338452816,0.036662470549345016,-0.002183993114158511
1686426764275285200,7.44728515625,0.00533780362457037,0.03227758780121803,-0.008504802361130714
1686426764285230000,7.45722998046875,0.008183124475181103,0.025152835994958878,-0.00920548103749752
1686426764295175200,7.467175048828125,0.004100320860743523,0.029602965340018272,-0.0034976163879036903
1686426764305119000,7.477118896484375,0.006150955334305763,0.03224668279290199,0.004933685064315796
1686426764315064000,7.48706396484375,0.009214922785758972,0.03568493202328682,0.00995443295687437
1686426764325009200,7.497009033203125,0.008093465119600296,0.04066610708832741,0.019570574164390564
1686426764334954200,7.506954345703125,0.009995581582188606,0.04493112489581108,0.02968396618962288
1686426764344899000,7.516899169921875,0.01134127750992775,0.0548362210392952,0.04408048093318939
1686426764354844200,7.52684423828125,0.012041600421071053,0.04681028798222542,0.0480743907392025
1686426764364789200,7.536789306640625,0.009365124627947807,0.03280259296298027,0.0410417802631855
1686426764374734000,7.546734130859375,0.00802910327911377,0.026149852201342583,0.02738535962998867
1686426764384679200,7.55667919921875,0.0060264067724347115,0.02088984288275242,0.0245022214949131
1686426764394624300,7.566624267578125,0.005525290034711361,0.024076683446764946,0.028872741386294365
1686426764404569000,7.576569091796875,-0.00019704457372426987,0.01982414722442627,0.027353674173355103
1686426764414514200,7.58651416015625,-0.003264206927269697,0.020229076966643333,0.018042761832475662
1686426764424459300,7.596459228515625,-0.004591260105371475,0.01379887480288744,0.009703605435788631
1686426764434404000,7.606404052734375,-0.008143468759953976,0.006869661621749401,0.0004289248026907444
1686426764444349000,7.616348876953125,-0.011322217993438244,-0.003213332500308752,-0.0037245412822812796
1686426764454293200,7.626293212890625,-0.010668416507542133,-0.013732199557125568,-0.0063677155412733555
1686426764464238000,7.636238037109375,-0.006840122397989035,-0.017190050333738327,-0.005998068954795599
1686426764474183200,7.64618310546875,-0.009534175507724285,-0.01074676401913166,-0.0010556955821812153
1686426764484128300,7.656128173828125,-0.0051924241706728935,-0.0067570824176073074,0.012719239108264446
1686426764494073000,7.666072998046875,-0.003964617848396301,0.00031912350095808506,0.01848100870847702
1686426764504018200,7.67601806640625,-0.002652478404343128,0.005963160656392574,0.01630999892950058
1686426764513962500,7.68596240234375,-0.00007303059101104736,0.01448681578040123,0.01939714513719082
1686426764523907300,7.6959072265625,0.0037408825010061264,0.020113809034228325,0.026892878115177155
1686426764533852700,7.705852783203125,0.005554944276809692,0.02975238673388958,0.03420303389430046
1686426764543797500,7.715797607421875,0.0046151140704751015,0.04275846481323242,0.0329715870320797
1686426764553742300,7.725742431640625,0.0048818690702319145,0.04160613194108009,0.01641187258064747
1686426764563687700,7.735687744140625,0.002983834594488144,0.028902322053909302,0.005456959828734398
1686426764573632500,7.745632568359375,0.0029562264680862427,0.017138836905360222,-0.008931263349950314
1686426764583577600,7.75557763671875,0.004969576373696327,0.011102249845862389,-0.01278805360198021
1686426764593522400,7.7655224609375,0.0044571878388524055,0.005201970227062702,-0.012683672830462456
1686426764603466500,7.775466552734375,0.0018440941348671913,-0.0015558006707578897,-0.01493510976433754
1686426764613411300,7.785411376953125,0.0020525269210338593,-0.005576026625931263,-0.020912863314151764
1686426764623356700,7.795356689453125,0.003544430248439312,-0.0070602064952254295,-0.01889951340854168
1686426764633301500,7.805301513671875,0.0007530832663178444,-0.008711842820048332,-0.011399679817259312
1686426764643246300,7.815246337890625,-0.002362548839300871,-0.012723894789814949,-0.00363496714271605
1686426764653191700,7.825191650390625,-0.00476347841322422,-0.014359700493514538,-0.000958558521233499
1686426764663136500,7.835136474609375,-0.007523578125983477,-0.011567908339202404,0.0015591939445585012
1686426764673081600,7.84508154296875,-0.007879022508859634,-0.007091990206390619,0.008452149108052254
1686426764683026400,7.8550263671875,-0.005014793016016483,0.0013680735137313604,0.011604532599449158
1686426764692971500,7.864971435546875,-0.0062765926122665405,0.018566669896245003,0.0201735720038414
1686426764702916600,7.87491650390625,-0.004170031752437353,0.02570394054055214,0.0314219631254673
1686426764712861400,7.884861328125,-0.0014564529992640018,0.024459509178996086,0.03561776131391525
1686426764722806500,7.894806640625,0.0004929807037115097,0.015222867019474506,0.032320767641067505
1686426764732751600,7.904751708984375,-0.0033791670575737953,0.01277883816510439,0.03054986521601677
1686426764742696400,7.914696533203125,-0.004952296148985624,0.012555665336549282,0.028166068717837334
1686426764752641500,7.9246416015625,-0.007334580644965172,0.014217139221727848,0.029090259224176407
1686426764762585300,7.93458544921875,-0.006003532558679581,0.0171977486461401,0.03186474367976189
1686426764772530400,7.944530517578125,-0.0073363590054214,0.013062720187008381,0.02680072747170925
1686426764782475500,7.9544755859375,-0.0035227122716605663,0.01586276851594448,0.020686376839876175
1686426764792420600,7.964420654296875,-0.0025760470889508724,0.013467833399772644,0.01926468126475811
1686426764802365400,7.974365478515625,-0.00017707142978906631,0.0165733452886343,0.01626702770590782
1686426764812310500,7.984310546875,-0.00027657952159643173,0.012157147750258446,0.011040723882615566
1686426764822255600,7.994255615234375,0.0005474025383591652,0.003644353011623025,0.009175445884466171
1686426764832200400,8.004200439453125,-0.0023452402092516422,-0.006609159056097269,0.002499984111636877
1686426764842145500,8.0141455078125,-0.0034379353746771812,-0.013454815372824669,0.002792665269225836
1686426764852090600,8.024090576171876,-0.0016873492859303951,-0.017533747479319572,-0.002840948523953557
1686426764862035500,8.034035400390625,-0.0016447384841740131,-0.024416420608758926,-0.00546895619481802
1686426764871980500,8.04398046875,-0.004672126844525337,-0.02477237395942211,-0.006499653682112694
1686426764881925600,8.053925537109375,-0.0027645048685371876,-0.025281570851802826,-0.00491107814013958
1686426764891870500,8.063870361328124,-0.002351276110857725,-0.0267803817987442,-0.0003854832611978054
1686426764901815300,8.073815185546875,-0.001020494382828474,-0.0225606020539999,-0.002478195121511817
1686426764911759600,8.083759521484374,-0.00185752147808671,-0.013415682129561901,-0.010389268398284912
1686426764921704400,8.093704345703125,0.0017507951706647873,-0.013571477495133877,-0.014341665431857109
1686426764931649500,8.1036494140625,-0.00036686286330223083,-0.008365309797227383,-0.01698129251599312
1686426764941594600,8.1135947265625,0.0028840582817792892,-0.006346900016069412,-0.011401437222957611
1686426764951539500,8.12353955078125,0.0023990049958229065,0.0024360702373087406,0.001635715365409851
1686426764961484500,8.133484619140624,0.0025212448090314865,0.015094340778887272,0.013321932405233383
1686426764971429600,8.1434296875,0.0038208672776818275,0.013824844732880592,0.024285180494189262
1686426764981374500,8.15337451171875,0.008805505000054836,0.01224692165851593,0.027119848877191544
1686426764991319300,8.1633193359375,0.00903267227113247,0.0020732320845127106,0.017269441857933998
1686426765001264600,8.1732646484375,0.009065961465239525,-0.0007928616832941771,0.008099645376205444
1686426765011209500,8.18320947265625,0.0077489400282502174,-0.00414825975894928,-0.006798207759857178
1686426765021154300,8.193154296875,0.00016452372074127197,-0.0002419350203126669,-0.012692315503954887
1686426765031099600,8.203099609375,0.003937424160540104,0.003432544181123376,-0.011646931059658527
1686426765041044500,8.21304443359375,0.0048980265855789185,0.006619282998144627,-0.020221777260303497
1686426765050989600,8.222989501953125,-0.0003062221221625805,0.00621902197599411,-0.024054601788520813
1686426765060934700,8.2329345703125,0.000952388159930706,0.011593014933168888,-0.024242354556918144
1686426765070879500,8.24287939453125,-0.00004559941589832306,0.016144344583153725,-0.02265084534883499
1686426765080823300,8.2528232421875,0.001162409782409668,0.023015299811959267,-0.009054344147443771
1686426765090768600,8.2627685546875,0.00794211309403181,0.03318990394473076,-0.0006141363410279155
1686426765100713500,8.27271337890625,0.009992212988436222,0.030943527817726135,0.000274027930572629
1686426765110658300,8.282658203125,0.009409958496689796,0.03254945948719978,9.548384696245193e-7
1686426765120603600,8.292603759765624,0.007794484496116638,0.026905421167612076,-0.00030770571902394295
1686426765130548500,8.302548583984375,0.008509366773068905,0.023766180500388145,-0.0009571823757141829
1686426765140493600,8.31249365234375,0.01269452553242445,0.019122425466775894,-0.0026879706420004368
1686426765150438700,8.322438720703126,0.012303922325372696,0.012728376314043999,-0.007835106924176216
1686426765160383500,8.332383544921875,0.011807775124907494,0.009290767833590508,-0.005848654545843601
1686426765170328600,8.34232861328125,0.016067057847976685,0.006277631502598524,-0.003938065376132727
1686426765180273400,8.3522734375,0.014636142179369926,0.002787026111036539,-0.006807355210185051
1686426765190218500,8.362218505859374,0.01388122234493494,-0.0031376476399600506,-0.013801893219351768
1686426765200163600,8.37216357421875,0.015434644185006618,-0.007333724293857813,-0.016486892476677895
1686426765210108400,8.3821083984375,0.010736030526459217,-0.01085733063519001,-0.014761287719011307
1686426765220053500,8.392053466796876,0.009928294457495213,-0.014268042519688606,-0.015377810224890709
1686426765229998600,8.40199853515625,0.006852608174085617,-0.020252972841262817,-0.01878686062991619
1686426765239942700,8.411942626953126,0.004326866939663887,-0.027687188237905502,-0.025973668321967125
1686426765249887500,8.421887451171875,0.0001673707738518715,-0.031431470066308975,-0.024332212284207344
1686426765259832600,8.43183251953125,-0.00101400725543499,-0.0253759752959013,-0.014112063683569431
1686426765269777700,8.441777587890625,0.0017865728586912155,-0.01205670926719904,0.0010668886825442314
1686426765279722500,8.451722412109374,0.005154939368367195,0.004963553976267576,0.02263050340116024
1686426765289667600,8.46166748046875,0.00952066294848919,0.015300089493393898,0.04337140917778015
1686426765299612400,8.4716123046875,0.010438920930027962,0.017393866553902626,0.04180866479873657
1686426765309557500,8.4815576171875,0.012534817680716515,0.014065155759453773,0.03828761726617813
1686426765319502600,8.491502685546875,0.009276174008846283,0.008587565273046494,0.02786160632967949
1686426765329447400,8.501447509765624,0.010465011931955814,0.010143926367163658,0.01982199400663376
1686426765339392500,8.511392578125,0.008316640742123127,0.012966610491275787,0.012350496836006641
1686426765349337600,8.521337646484374,0.007609391584992409,0.010539487935602665,0.0056762127205729485
1686426765359282400,8.531282470703125,0.005605895072221756,0.007497891783714294,-0.0028136789333075285
1686426765369227500,8.5412275390625,0.004049284383654594,0.0025803828611969948,-0.010457871481776237
1686426765379172600,8.551172607421876,0.004766208119690418,-0.0019848081283271313,-0.013834228739142418
1686426765389117400,8.561117431640625,-0.00004550442099571228,-0.00289458897896111,-0.017468012869358063
1686426765399062500,8.5710625,-0.0012428611516952515,0.006831541657447815,-0.01750343292951584
1686426765409006600,8.581006591796875,-0.004525035619735718,0.018710065633058548,-0.01805601455271244
1686426765418951400,8.590951416015624,-0.005074978806078434,0.021111171692609787,-0.013427174650132656
1686426765428896500,8.600896484375,-0.009756365790963173,0.0191347673535347,-0.008019284345209599
1686426765438841600,8.610841552734374,-0.011058385483920574,0.011356472037732601,-0.0020154539961367846
1686426765448786400,8.620786376953125,-0.010340578854084015,0.004938465543091297,-0.003168709110468626
1686426765458731500,8.6307314453125,-0.012871647253632545,0.00429344829171896,0.001488360809162259
1686426765468676600,8.640676513671876,-0.01333486195653677,0.007474619895219803,0.011614788323640823
1686426765478621400,8.650621337890625,-0.00849030539393425,0.008629899471998215,0.01797468401491642
1686426765488566500,8.66056640625,-0.0052421363070607185,0.006548152305185795,0.018254216760396957
1686426765498511600,8.67051171875,-0.00039225397631525993,0.006495155394077301,0.01568746194243431
1686426765508457000,8.68045703125,-0.003162453882396221,0.004710485227406025,0.01379308756440878
1686426765518401800,8.69040185546875,0.0016240449622273445,0.0024441350251436234,0.010321657173335552
1686426765528347000,8.700346923828125,0.0009569069370627403,0.0004271627403795719,0.0027204076759517193
1686426765538292000,8.7102919921875,0.002694353461265564,-0.00691144447773695,-0.008886979892849922
1686426765548236800,8.72023681640625,0.0034905560314655304,-0.009472946636378765,-0.016702482476830482
1686426765558182000,8.730181884765624,0.004824267700314522,-0.008529122918844223,-0.018641263246536255
1686426765568127000,8.740126953125,0.005490324459969997,-0.009240453131496906,-0.01940212957561016
1686426765578070800,8.75007080078125,0.008361302316188812,-0.010854237712919712,-0.016003867611289024
1686426765588015900,8.760015869140625,0.0059681786224246025,-0.011801669374108315,-0.00864546187222004
1686426765597961000,8.7699609375,0.0029545463621616364,-0.010678613558411598,-0.005893085151910782
1686426765607905800,8.77990576171875,0.0018677078187465668,-0.007594012655317783,-0.006411039270460606
1686426765617851000,8.789850830078125,-0.0027992152608931065,-0.004967336542904377,-0.007816122844815254
1686426765627796000,8.7997958984375,-0.003435532096773386,0.0010965985711663961,-0.00430833688005805
1686426765637740800,8.80974072265625,-0.006386847235262394,0.009018969722092152,-0.0008768538245931268
1686426765647686000,8.819685791015624,-0.007830816321074963,0.016374079510569572,0.003664695890620351
1686426765657631000,8.829630859375,-0.006929069757461548,0.019557088613510132,0.004238341003656387
1686426765667575800,8.839575927734375,-0.006847302429378033,0.025159332901239395,0.001422192668542266
1686426765677521000,8.84952099609375,-0.007627342361956835,0.03187263011932373,0.0018387108575552702
1686426765687466000,8.859466064453125,-0.0030948123894631863,0.033038925379514694,0.007937358692288399
1686426765697410800,8.869410888671876,0.0015697143971920013,0.03096139430999756,0.0016397815197706223
1686426765707356000,8.87935595703125,0.0031994646415114403,0.030902687460184097,-0.00040860893204808235
1686426765717301000,8.889301025390624,0.003420506604015827,0.02954234555363655,0.0032247414346784353
1686426765727245800,8.899245849609375,0.0030637308955192566,0.02620277926325798,0.0031404332257807255
1686426765737191000,8.90919091796875,0.0037079500034451485,0.019896680489182472,0.002418716438114643
1686426765747135000,8.919135009765625,0.0067732613533735275,0.018704591318964958,0.003380719805136323
1686426765757079800,8.929079833984375,0.00236679520457983,0.01769525371491909,-0.0010877979220822453
1686426765767025000,8.93902490234375,-0.0006481721065938473,0.019012048840522766,-0.006598114501684904
1686426765776970000,8.948969970703125,-0.001493991818279028,0.01752334088087082,-0.0049070073291659355
1686426765786914800,8.958914794921874,-0.00003663450479507446,0.016405925154685974,0.0013360835146158934
1686426765796860000,8.96885986328125,0.0011679129675030708,0.017142288386821747,0.011691785417497158
1686426765806805000,8.978804931640624,-0.0015945625491440296,0.00796988233923912,0.018393531441688538
1686426765816749800,8.988749755859375,-0.002330926712602377,0.001993216574192047,0.020529918372631073
1686426765826695000,8.99869482421875,-0.0038914596661925316,0.0039243511855602264,0.02068616822361946
1686426765836640000,9.008639892578126,-0.0002780826762318611,0.002819938352331519,0.025112874805927277
1686426765846584800,9.018584716796875,0.00006715301424264908,0.006184134632349014,0.03281453996896744
1686426765856530000,9.028530029296874,0.005413714796304703,0.008330642245709896,0.029203027486801147
1686426765866474800,9.038474853515625,0.008621659129858017,0.005274152383208275,0.0228101909160614
1686426765876419800,9.048419921875,0.007691416889429092,0.00286665465682745,0.01278152596205473
1686426765886365000,9.058364990234375,0.011337474919855595,0.004510162863880396,0.011342871934175491
1686426765896309800,9.068309814453125,0.010842925868928432,0.009588278830051422,0.01181505061686039
1686426765906255000,9.078255126953126,0.009740562178194523,0.015410266816616058,0.010382377542555332
1686426765916200000,9.088199951171875,0.008710184134542942,0.02174273319542408,0.012706251814961433
1686426765926144000,9.09814404296875,0.009290025569498539,0.02604512870311737,0.01676175557076931
1686426765936088800,9.1080888671875,0.007333667017519474,0.02417612262070179,0.018776703625917435
1686426765946034000,9.118033935546874,0.004092974588274956,0.02431698888540268,0.019277237355709076
1686426765955978800,9.127978759765625,0.004831202328205109,0.03160552680492401,0.014691540040075779
1686426765965923800,9.137923828125,0.002348773181438446,0.02635660395026207,0.014051573351025581
1686426765975869000,9.147868896484376,-0.0025080335326492786,0.022904083132743835,0.011431287974119186
1686426765985813800,9.157813720703125,-0.003692437894642353,0.025851700454950333,0.011566865257918835
1686426765995759000,9.167759033203126,-0.0046458495780825615,0.022181598469614983,0.006869315169751644
1686426766005704000,9.177703857421875,-0.00426439568400383,0.022356126457452774,0.005955919623374939
1686426766015648800,9.187648681640624,-0.0054012988694012165,0.021344391629099846,0.0035641344729810953
1686426766025594000,9.197593994140625,-0.002980395220220089,0.015063684433698654,-0.0027703915257006884
1686426766035539000,9.2075390625,-0.0025998293422162533,0.011878542602062225,-0.01300358772277832
1686426766045483800,9.21748388671875,-0.0033809207379817963,0.013694172725081444,-0.017203543335199356
1686426766055428900,9.227428955078125,-0.000010424293577671051,0.011345529928803444,-0.0212068073451519
1686426766065374000,9.2373740234375,0.0008990243077278137,0.005354313645511866,-0.02118203416466713
1686426766075318800,9.24731884765625,0.0032870806753635406,0.0056515224277973175,-0.016947608441114426
1686426766085264000,9.257263916015624,-0.0003734305500984192,0.0004551718011498451,-0.014079444110393524
1686426766095209000,9.267208984375,-0.0021705315448343754,-0.003543298225849867,-0.013799546286463737
1686426766105152800,9.27715283203125,-0.0010272366926074028,-0.012166080996394157,-0.01366132777184248
1686426766115098000,9.28709814453125,-0.0016349698416888714,-0.0136294886469841,-0.01510982122272253
1686426766125043000,9.29704296875,-0.0012692264281213284,-0.012790362350642681,-0.015991555526852608
1686426766134987800,9.30698779296875,0.0028365692123770714,-0.008180963806807995,-0.01290388684719801
1686426766144932900,9.316932861328125,-0.00019162986427545547,-0.00984150916337967,-0.0136781120672822
1686426766154878000,9.3268779296875,0.002163936384022236,-0.011675627902150154,-0.011017082259058952
1686426766164822800,9.33682275390625,0.003405335359275341,-0.011742226779460907,-0.010663231834769249
1686426766174767900,9.346767822265624,0.0032098591327667236,-0.004345563240349293,-0.021888455376029015
1686426766184713000,9.356712890625,0.0038756411522626877,-0.006322178058326244,-0.024195963516831398
1686426766194657800,9.36665771484375,0.001102757640182972,0.004898251965641975,-0.03148157149553299
1686426766204603000,9.376602783203126,0.002355431206524372,-0.004408497363328934,-0.025896109640598297
1686426766214548000,9.3865478515625,0.002414819784462452,-0.005745138041675091,-0.01664242334663868
1686426766224492800,9.396492919921876,0.0034063979983329773,-0.0029973420314490795,-0.012369755655527115
1686426766234438000,9.40643798828125,-0.0018211212009191513,-0.006090070586651564,-0.014484038576483727
1686426766244383000,9.416383056640624,0.003125700168311596,-0.007626981008797884,-0.01474982313811779
1686426766254328000,9.426328125,0.00002072099596261978,-0.009160961955785751,-0.011851770803332329
1686426766264273000,9.43627294921875,-0.006980101112276316,-0.004235878586769104,-0.02730928175151348
1686426766274217700,9.4462177734375,-0.00506502203643322,-0.006936057470738888,-0.04588376358151436
1686426766284163000,9.4561630859375,-0.006423052400350571,-0.008492493070662022,-0.04573342576622963
1686426766294107000,9.46610693359375,-0.008206305094063282,0.006096569821238518,-0.04169687256217003
1686426766304052000,9.476052001953125,-0.009605169296264648,0.0072065358981490135,-0.04634298384189606
1686426766313996800,9.485996826171874,-0.0075428178533911705,0.010276361368596554,-0.04335411638021469
1686426766323942000,9.49594189453125,-0.0073967888019979,0.015091044828295708,-0.03409314155578613
1686426766333887000,9.505886962890624,0.0009564822539687157,0.02237958461046219,-0.022968318313360214
1686426766343831800,9.515831787109375,0.0028515709564089775,0.01685243844985962,-0.018731584772467613
1686426766353777000,9.52577685546875,0.010718549601733685,0.00912208016961813,-0.014187165535986423
1686426766363721700,9.5357216796875,0.013721082359552383,0.0005113645456731319,-0.016420895233750343
1686426766373667000,9.5456669921875,0.014172488823533058,-0.010039547458291054,-0.017681103199720383
1686426766383612000,9.55561181640625,0.014385735616087914,-0.016090447083115578,-0.02173338085412979
1686426766393556700,9.565556640625,0.01346268318593502,-0.01682361587882042,-0.023562975227832794
1686426766403502000,9.575502197265624,0.01124008558690548,-0.012790849432349205,-0.020914241671562195
1686426766413447000,9.585447021484375,0.01196659542620182,-0.014013240113854408,-0.01144164428114891
1686426766423391700,9.595391845703125,0.010398623533546925,-0.013459736481308937,0.003325059777125716
1686426766433337000,9.605337158203126,0.008120021782815456,-0.012444008141756058,0.011651965789496899
1686426766443282000,9.615281982421875,0.008878766559064388,-0.011274470016360283,0.018645871430635452
1686426766453226800,9.625226806640624,0.011525149457156658,-0.008085068315267563,0.021180134266614914
1686426766463171800,9.635171875,0.009626742452383041,-0.007408068981021643,0.021327754482626915
1686426766473117000,9.645116943359374,0.007204065099358559,-0.007974524050951004,0.016737530007958412
1686426766483060700,9.655060791015625,0.0014494182541966438,-0.005301995202898979,0.012000465765595436
1686426766493006000,9.665006103515625,0.003970633260905743,-0.004147515166550875,0.008824646472930908
1686426766502951000,9.674950927734375,0.005643466487526894,0.005364869721233845,0.00741445180028677
1686426766512895700,9.684895751953125,0.005519895814359188,0.008758535608649254,0.009327400475740433
1686426766522841000,9.694841064453126,0.008439422585070133,0.012393918819725513,0.008004331961274147
1686426766532786000,9.704785888671875,0.01185279618948698,0.017369769513607025,0.01054685190320015
1686426766542730800,9.714730712890624,0.010204206220805645,0.017830533906817436,0.009785949252545834
1686426766552675800,9.72467578125,0.014420789666473866,0.02199971303343773,0.005274553783237934
1686426766562621000,9.734620849609374,0.014828521758317947,0.02329840511083603,0.0009572734124958515
1686426766572565800,9.744565673828125,0.01256057433784008,0.019850943237543106,-0.0007769771618768573
1686426766582510800,9.7545107421875,0.009252472780644894,0.013342777267098427,-0.002913912758231163
1686426766592456000,9.7644560546875,0.0047871507704257965,0.014011231251060963,-0.003718453925102949
1686426766602400800,9.77440087890625,0.0037766583263874054,0.016181349754333496,-0.009974554181098938
1686426766612345900,9.784345947265624,-0.002819725312292576,0.019615493714809418,-0.014288874343037605
1686426766622291000,9.794291015625,-0.007509781513363123,0.015276055783033371,-0.01565520092844963
1686426766632236000,9.804236083984375,-0.004725446924567223,0.017751997336745262,-0.013450901955366135
1686426766642180900,9.814180908203125,-0.0037797712720930576,0.013292125426232815,-0.005236825905740261
1686426766652126000,9.8241259765625,-0.004956621676683426,0.012286515906453133,-0.0033257417380809784
1686426766662071000,9.834071044921876,-0.003137769643217325,0.008883841335773468,0.0007463993970304728
1686426766672016000,9.844015869140625,-0.0011433283798396587,0.009304087609052658,-0.0027708373963832855
1686426766681960000,9.8539599609375,-0.0007643760181963444,0.007266351953148842,-0.0026849345304071903
1686426766691904800,9.86390478515625,-0.0015774392522871494,0.0030327248387038708,-0.003448196453973651
1686426766701849900,9.873849853515624,-0.0005847830325365067,0.0037894276902079582,-0.003320355899631977
1686426766711795000,9.883794921875,-0.0011246060021221638,0.0016804704209789634,-0.0022945061791688204
1686426766721740000,9.893739990234375,-0.0027099885046482086,-0.0007101197261363268,-0.0012917960993945599
1686426766731684900,9.903684814453126,-0.0026737693697214127,0.0000539412721991539,-0.00006168195977807045
1686426766741630000,9.9136298828125,-0.0015743346884846687,0.0028989429119974375,-0.0007326395716518164
1686426766751575000,9.923574951171876,-0.00003369618207216263,0.0012421903666108847,-0.0047598714008927345
1686426766761519900,9.933519775390625,0.0013785762712359428,0.004537981003522873,-0.009783628396689892
1686426766771464700,9.943464599609374,0.0012376951053738594,0.0013027729000896215,-0.020894603803753853
1686426766781410000,9.95341015625,0.0027958275750279427,0.006253376603126526,-0.02228466607630253
1686426766791355000,9.96335498046875,0.0023153936490416527,0.008406275883316994,-0.022248180583119392
1686426766801299700,9.9732998046875,0.0023681214079260826,0.009684989228844643,-0.029052793979644775
1686426766811245000,9.9832451171875,0.001702863723039627,0.009086044505238533,-0.031110618263483047
1686426766821190000,9.99318994140625,-0.0012300512753427029,0.014072969555854797,-0.027620753273367882
1686426766831134700,10.003134765625,0.0015843771398067474,0.019192099571228027,-0.016330283135175705
1686426766841080000,10.013080078125,0.0011187735944986343,0.024187037721276283,-0.0071116117760539055
1686426766851025000,10.02302490234375,0.0013310275971889496,0.023667721077799797,-0.0005391964223235846
1686426766860969700,10.0329697265625,0.0036804508417844772,0.02202986553311348,0.0037645893171429634
1686426766870914800,10.042914794921876,0.0057121766731143,0.020458335056900978,0.0013882508501410484
1686426766880859000,10.05285888671875,0.004270441830158234,0.02719729393720627,-0.0014312275452539325
1686426766890803700,10.0628037109375,0.004387354478240013,0.026075037196278572,-0.012132607400417328
1686426766900749000,10.0727490234375,-0.0022831824608147144,0.03491714969277382,-0.020528584718704224
1686426766910694000,10.08269384765625,-0.002930863294750452,0.043011561036109924,-0.03248538076877594
1686426766920638700,10.092638671875,-0.00816201139241457,0.04158247634768486,-0.0418781042098999
1686426766930584000,10.102583984375,-0.009208634495735168,0.04326106980443001,-0.03681889548897743
1686426766940529000,10.11252880859375,-0.013324721716344357,0.039588797837495804,-0.031017694622278214
1686426766950473700,10.1224736328125,-0.014289053156971931,0.031336456537246704,-0.026415754109621048
1686426766960418800,10.132418701171876,-0.010527428239583969,0.0286705419421196,-0.025707419961690903
1686426766970364000,10.142364013671875,-0.008862154558300972,0.018728163093328476,-0.03549373894929886
1686426766980309000,10.15230908203125,-0.008734660223126411,0.0181130301207304,-0.03864261135458946
1686426766990253800,10.16225390625,-0.008570076897740364,0.014413634315133095,-0.03294797241687775
1686426767000199000,10.172198974609374,-0.005111726000905037,0.020327551290392876,-0.031907472759485245
1686426767010144000,10.18214404296875,-0.004251524806022644,0.02185913547873497,-0.03381376713514328
1686426767020088800,10.1920888671875,-0.0002421978861093521,0.028323499485850334,-0.03258132562041283
1686426767030034000,10.202033935546876,0.0030761007219552994,0.03155258297920227,-0.025217950344085693
1686426767039979000,10.21197900390625,0.005801579914987087,0.03141303360462189,-0.01881917379796505
1686426767049923800,10.221923828125,0.007055396214127541,0.028697142377495766,-0.0173720121383667
1686426767059869000,10.231868896484375,0.008901740424335003,0.017678018659353256,-0.016083601862192154
1686426767069814000,10.24181396484375,0.004671575501561165,0.011131701059639454,-0.008879219181835651
1686426767079758800,10.2517587890625,0.0031349314376711845,-0.0029468333814293146,0.003714869497343898
1686426767089703000,10.261702880859374,0.0015354370698332787,-0.009938696399331093,0.016296174377202988
1686426767099648000,10.27164794921875,0.0006735576316714287,-0.015989473089575768,0.021527500823140144
1686426767109592800,10.2815927734375,0.00023413635790348053,-0.012497270479798317,0.02468734048306942
1686426767119538000,10.291537841796876,-0.0014119455590844154,-0.01049415860325098,0.023453349247574806
1686426767129483000,10.30148291015625,-0.0051062824204564095,-0.012003371492028236,0.021985948085784912
1686426767139427800,10.311427734375,-0.007489374838769436,-0.010266417637467384,0.01849503442645073
1686426767149373000,10.321373046875,-0.009963983669877052,-0.01081715989857912,0.014555155299603939
1686426767159318000,10.331318115234374,-0.0078316954895854,-0.013047661632299423,0.014093680307269096
1686426767169262800,10.341262939453125,-0.006073475815355778,-0.014311332255601883,0.01310058869421482
1686426767179207700,10.351207763671875,-0.0037337103858590126,-0.017595231533050537,0.018483269959688187
1686426767189153000,10.361153076171876,0.0007513193413615227,-0.02346164360642433,0.016351941972970963
1686426767199097900,10.371097900390625,0.0024154623970389366,-0.024203799664974213,0.019093923270702362
1686426767209042700,10.381042724609374,0.0023294417187571526,-0.031369034200906754,0.013635506853461266
1686426767218988000,10.390988037109375,0.0037058359012007713,-0.02957092598080635,0.010416495613753796
1686426767228932900,10.400932861328124,0.00294523686170578,-0.026356492191553116,0.008871861733496189
1686426767238878000,10.4108779296875,0.002855599857866764,-0.020167596638202667,0.01701759360730648
1686426767248823000,10.420822998046875,0.0024739690124988556,-0.017089782282710075,0.022600378841161728
1686426767258768000,10.430767822265626,0.0007486771792173386,-0.018185101449489594,0.023332176730036736
1686426767268713000,10.440712890625,0.00031964201480150223,-0.02833547256886959,0.01847856491804123
1686426767278657800,10.45065771484375,-0.0010145418345928192,-0.03931376710534096,0.005907214246690273
1686426767288603000,10.460602783203125,-0.0011477000080049038,-0.04348108172416687,-0.006071950308978558
1686426767298546700,10.470546630859374,-0.0006165597587823868,-0.042985618114471436,-0.010104620829224586
1686426767308492000,10.480491943359375,0.0003070244565606117,-0.03422515094280243,-0.009017517790198326
1686426767318436900,10.490436767578124,0.0014802385121583939,-0.024880826473236084,0.0010687403846532106
1686426767328381700,10.500381591796875,-0.0013978397473692894,-0.021214451640844345,0.0009134782012552023
1686426767338327000,10.5103271484375,-0.00400454830378294,-0.021301545202732086,0.006778084672987461
1686426767348271900,10.52027197265625,-0.0002891719341278076,-0.017573386430740356,0.01920332759618759
1686426767358217000,10.530217041015625,-0.004181004595011473,-0.01670495606958866,0.024158859625458717
1686426767368161800,10.540161865234374,-0.004048112779855728,-0.022141000255942345,0.02573465183377266
1686426767378107000,10.55010693359375,-0.002120001707226038,-0.02177083119750023,0.019867561757564545
1686426767388052000,10.560052001953125,-0.004252927377820015,-0.018805934116244316,0.012616838328540325
1686426767397996800,10.569996826171876,-0.00510360999032855,-0.014443354681134224,0.0006230764556676149
1686426767407942000,10.57994189453125,-0.006948115304112434,-0.007754292339086533,-0.0057410793378949165
1686426767417887000,10.589886962890626,-0.004782878793776035,-0.010432412847876549,-0.009266206994652748
1686426767427831800,10.599831787109375,-0.004636405035853386,-0.008626788854598999,-0.004542292095720768
1686426767437777000,10.60977685546875,-0.0030119004659354687,-0.006508795544505119,-0.004759695380926132
1686426767447722000,10.619721923828125,0.0024771401658654213,-0.006910666823387146,-0.015363337472081184
1686426767457666800,10.629666748046875,0.004621629603207111,-0.01723071001470089,-0.027354300022125244
1686426767467612000,10.63961181640625,0.0027853799983859062,-0.023873431608080864,-0.03666124865412712
1686426767477557000,10.649556884765625,0.007599108852446079,-0.014940988272428513,-0.03247794508934021
1686426767487501800,10.659501708984376,0.008858784101903439,-0.005994630046188831,-0.019925400614738464
1686426767497447000,10.669447021484375,0.002234550192952156,-0.0005608731880784035,-0.016165392473340034
1686426767507392000,10.67939208984375,0.0012830030173063278,0.00004419684410095215,-0.017004821449518204
1686426767517337000,10.689337158203125,0.0006555626168847084,0.004111642949283123,-0.013892117887735367
1686426767527281200,10.69928125,-0.003041437827050686,0.0025776620022952557,-0.01078580692410469
1686426767537226000,10.70922607421875,-0.0033897007815539837,0.0029145011212676764,-0.015560964122414589
1686426767547171000,10.719171142578125,-0.003976928070187569,0.007932429201900959,-0.015856841579079628
1686426767557116000,10.729115966796876,-0.00612074788659811,0.019058195874094963,-0.008601737208664417
1686426767567061000,10.73906103515625,-0.004340956918895245,0.018592143431305885,-0.0042312233708798885
1686426767577006000,10.749006103515624,-0.0034968587569892406,0.016137797385454178,-0.007069751154631376
1686426767586951000,10.758950927734375,-0.00390059407800436,0.013660791330039501,-0.012726837769150734
1686426767596896300,10.768896240234374,-0.001829992514103651,0.017251789569854736,-0.009805822744965553
1686426767606841000,10.778841064453125,0.002866758033633232,0.02324230596423149,-0.00849474873393774
1686426767616786000,10.788785888671875,-0.0007681534625589848,0.023909319192171097,-0.006628404371440411
1686426767626731300,10.798731201171876,0.0005596987903118134,0.029869740828871727,-0.0036523216404020786
1686426767636676000,10.808676025390625,0.0006788838654756546,0.029889866709709167,-0.0037632095627486706
1686426767646621000,10.818620849609376,0.001133752055466175,0.025951851159334183,0.0027287781704217196
1686426767656566000,10.82856591796875,0.003881974145770073,0.020791281014680862,-0.0028998625930398703
1686426767666511000,10.838510986328124,0.007207196205854416,0.01337331160902977,-0.0015738748479634523
1686426767676456000,10.8484560546875,0.004658806137740612,0.011563818901777267,-0.000655527925118804
1686426767686401000,10.858401123046875,0.004842563532292843,0.003878468181937933,0.001626801211386919
1686426767696346000,10.86834619140625,0.006383392959833145,-0.004317754879593849,-0.001813657465390861
1686426767706291000,10.878291015625,0.01089691836386919,-0.010206004604697227,-0.004957785364240408
1686426767716236000,10.888236083984374,0.012905392795801163,-0.02582712657749653,-0.008547588251531124
1686426767726181000,10.89818115234375,0.015670020133256912,-0.035023290663957596,-0.019888926297426224
1686426767736126000,10.9081259765625,0.01779121346771717,-0.041499704122543335,-0.028229326009750366
1686426767746071000,10.918071044921875,0.020147578790783882,-0.04202328249812126,-0.027670860290527344
1686426767756015000,10.92801513671875,0.0176401324570179,-0.040111612528562546,-0.024217164143919945
1686426767765960000,10.9379599609375,0.01650935411453247,-0.03296901658177376,-0.01624738983809948
1686426767775905000,10.947905029296875,0.014423307031393051,-0.02162141725420952,0.0013345051556825638
1686426767785850000,10.95785009765625,0.010488752275705338,-0.005732998717576265,0.02424541302025318
1686426767795795000,10.967794921875,0.006215900182723999,0.0019284329609945416,0.03744548186659813
1686426767805740000,10.977739990234374,-0.0008310903795063496,-0.0036444978322833776,0.043320149183273315
1686426767815685000,10.98768505859375,0.003517753444612026,-0.007891932502388954,0.044530246406793594
1686426767825630000,10.9976298828125,0.0016048047691583633,-0.006953168194741011,0.04807464778423309
1686426767835575000,11.007574951171875,-0.00399579294025898,-0.01021779514849186,0.03844904527068138
1686426767845520100,11.01752001953125,-0.006831260398030281,-0.00805291160941124,0.03491050377488136
1686426767855465200,11.02746533203125,-0.010099360719323158,0.0031311912462115288,0.038026027381420135
1686426767865410000,11.03741015625,-0.015214493498206139,0.015609432011842728,0.03907238692045212
1686426767875355000,11.04735498046875,-0.02175096422433853,0.02438906952738762,0.03416716679930687
1686426767885300200,11.05730029296875,-0.022314488887786865,0.03023950196802616,0.026485543698072433
1686426767895245000,11.0672451171875,-0.021256471052765846,0.03651010990142822,0.017917852848768234
1686426767905190000,11.07718994140625,-0.01887187734246254,0.04407535120844841,0.007948309183120728
1686426767915135200,11.08713525390625,-0.015745794400572777,0.041526250541210175,0.006889680400490761
1686426767925080000,11.097080078125,-0.015933813527226448,0.039131537079811096,0.011538760736584663
1686426767935025000,11.10702490234375,-0.011473271995782852,0.030375204980373383,0.0193055160343647
1686426767944970200,11.11697021484375,-0.004899791441857815,0.02657114528119564,0.024211058393120766
1686426767954915000,11.1269150390625,0.0008157268166542053,0.02322777546942234,0.026866745203733444
1686426767964860000,11.13685986328125,0.0004466129466891289,0.018144866451621056,0.02953976020216942
1686426767974805000,11.146804931640625,0.006151990965008736,0.01902899146080017,0.03447975590825081
1686426767984750000,11.15675,0.0075743841007351875,0.017961597070097923,0.04026148095726967
1686426767994695000,11.16669482421875,0.0071899909526109695,0.017847653478384018,0.037670984864234924
1686426768004639200,11.17663916015625,0.00887284241616726,0.016286242753267288,0.0275855902582407
1686426768014584000,11.186583984375,0.011299260891973972,0.009730609133839607,0.021224306896328926
1686426768024529000,11.19652880859375,0.00875061471015215,0.004246627911925316,0.016346992924809456
1686426768034474200,11.20647412109375,0.01206668559461832,0.0016548811690881848,0.014377012848854065
1686426768044419000,11.216419189453125,0.009383817203342915,-0.006555378437042236,0.012102140113711357
1686426768054364000,11.226364013671875,0.011087784543633461,-0.01693350076675415,0.006195937283337116
1686426768064309200,11.236309326171876,0.013340286910533905,-0.03082668036222458,0.006635625846683979
1686426768074254000,11.246254150390625,0.014457695186138153,-0.03934474289417267,0.009096914902329445
1686426768084199000,11.256198974609376,0.02238219790160656,-0.04685592278838158,0.014521242119371891
1686426768094144000,11.26614404296875,0.025653518736362457,-0.05042571946978569,0.015350003726780415
1686426768104089000,11.276089111328124,0.032256826758384705,-0.0462631955742836,0.013059152290225029
1686426768114034200,11.2860341796875,0.029364366084337234,-0.047754835337400436,0.007458791136741638
1686426768123979000,11.29597900390625,0.027710702270269394,-0.053186845034360886,0.001705582020804286
1686426768133924000,11.305924072265626,0.02676234021782875,-0.052258074283599854,-0.00024083442986011505
1686426768143869200,11.315869140625,0.02296280674636364,-0.03823386877775192,0.011037386022508144
1686426768153814000,11.32581396484375,0.017030850052833557,-0.029283717274665833,0.027504656463861465
1686426768163759000,11.335759033203125,0.005360878072679043,-0.024007996544241905,0.033275727182626724
1686426768173704200,11.3457041015625,-0.0068801697343587875,-0.02003917656838894,0.03587969392538071
1686426768183649000,11.35564892578125,-0.017979159951210022,-0.021535340696573257,0.029202084988355637
1686426768193593900,11.36559375,-0.027709033340215683,-0.028760502114892006,0.024767179042100906
1686426768203539200,11.375539306640626,-0.033738695085048676,-0.02860257588326931,0.01762830838561058
1686426768213484000,11.385484130859375,-0.03564558923244476,-0.020939547568559647,0.011638972908258438
1686426768223428900,11.395428955078126,-0.03759848698973656,-0.015814825892448425,0.006233554799109697
1686426768233374200,11.405374267578125,-0.03426148742437363,-0.011374322697520256,0.004591927397996187
1686426768243319000,11.415319091796874,-0.030285652726888657,-0.006289016455411911,0.006877186242491007
1686426768253263000,11.42526318359375,-0.024101346731185913,-0.004510778933763504,0.006323150359094143
1686426768263208200,11.435208251953124,-0.01553262583911419,-0.002084106672555208,0.013294774107635021
1686426768273153000,11.445153076171875,-0.013193760067224503,0.0010650313924998045,0.017384212464094162
1686426768283097900,11.455097900390625,-0.005483110435307026,0.0017713018460199237,0.023948904126882553
1686426768293043200,11.465043212890626,0.00029718875885009766,0.0029296865686774254,0.030662130564451218
1686426768302988000,11.474988037109375,0.0021209213882684708,0.006795797497034073,0.028165685012936592
1686426768312932900,11.484932861328126,0.003585495986044407,0.012546190060675144,0.0215674489736557
1686426768322878200,11.494878173828125,0.004831588827073574,0.0170701015740633,0.013210982084274292
1686426768332823000,11.504822998046874,0.0009976159781217575,0.026048995554447174,0.003717513522133231
1686426768342767900,11.514767822265625,0.0011715199798345566,0.03442223742604256,-0.0066773369908332825
1686426768352713200,11.524713134765625,-0.0008015232160687447,0.04350131005048752,-0.012898677960038185
1686426768362658000,11.534657958984376,-0.002810345496982336,0.04736315831542015,-0.016218308359384537
1686426768372603100,11.54460302734375,-0.005826115608215332,0.057647354900836945,-0.024183262139558792
1686426768382548000,11.5545478515625,-0.005280966404825449,0.06616175174713135,-0.022942494601011276
1686426768392493000,11.5644931640625,-0.004937659949064255,0.07678323984146118,-0.018566502258181572
1686426768402438100,11.574438232421874,-0.004819948226213455,0.09500565379858017,-0.02042059414088726
1686426768412383000,11.584383056640625,-0.0015610563568770885,0.11157543957233429,-0.022046102210879326
1686426768422328000,11.594328125,-0.0009301537647843361,0.11825011670589447,-0.018207423388957977
1686426768432273200,11.604273193359376,0.0026329075917601585,0.12528951466083527,-0.016880720853805542
1686426768442218000,11.614218017578125,0.003418274223804474,0.12704826891422272,-0.016375519335269928
1686426768452163000,11.6241630859375,0.005503043532371521,0.11844953149557114,-0.01926395110785961
1686426768462108200,11.634108154296875,0.003842029720544815,0.10906349122524261,-0.032050054520368576
1686426768472053000,11.644052978515624,0.007599140517413616,0.10997753590345383,-0.025792580097913742
1686426768481998000,11.653998046875,0.00997015368193388,0.11316746473312378,-0.015635551884770393
1686426768491943200,11.663943115234375,0.0071542030200362206,0.11060545593500137,-0.00857242476195097
1686426768501888000,11.673887939453126,0.00678934995085001,0.09799779206514359,-0.008697593584656715
1686426768511831800,11.683831787109375,0.00463193841278553,0.0921405777335167,-0.007832951843738556
1686426768521776600,11.693776611328126,0.01097958255559206,0.08146023750305176,-0.009229513816535473
1686426768531721700,11.7037216796875,0.008875050581991673,0.06541325896978378,-0.014830418862402439
1686426768541666800,11.713666748046874,0.010866030119359493,0.04878900945186615,-0.01919853687286377
1686426768551611600,11.723611572265625,0.009580390527844429,0.040745168924331665,-0.01891930028796196
1686426768561556700,11.733556640625,0.009091965854167938,0.022851120680570602,-0.017912892624735832
1686426768571501800,11.743501708984375,0.009447918273508549,0.007349965162575245,-0.02207726240158081
1686426768581447000,11.753447021484375,0.006516577675938606,-0.01358727365732193,-0.02351962961256504
1686426768591391700,11.763391845703126,0.007067978382110596,-0.03017294779419899,-0.023727161809802055
1686426768601336800,11.7733369140625,0.006747333332896233,-0.04201016575098038,-0.02152739092707634
1686426768611282000,11.783281982421874,0.004284407012164593,-0.053102899342775345,-0.022366145625710487
1686426768621226800,11.793226806640625,0.0021408284083008766,-0.06055735796689987,-0.020973047241568565
1686426768631171600,11.803171630859374,0.004306006245315075,-0.07319245487451553,-0.017532089725136757
1686426768641117000,11.813116943359375,0.002962707541882992,-0.07920187711715698,-0.019190972670912743
1686426768651061800,11.823061767578125,0.0022972626611590385,-0.08507032692432404,-0.017703736200928688
1686426768661006600,11.833006591796876,-0.001227696891874075,-0.09129440039396286,-0.01711784116923809
1686426768670952000,11.842951904296875,0.0002367822453379631,-0.09008066356182098,-0.015069365501403809
1686426768680896800,11.852896728515624,0.0013204216957092285,-0.0810522809624672,-0.00972440093755722
1686426768690841600,11.862841552734375,0.00030237529426813126,-0.07862313091754913,-0.0046099405735731125
1686426768700787000,11.872786865234374,-0.0005833916366100311,-0.07229705154895782,-0.007943153381347656
1686426768710731800,11.882731689453125,0.00026668980717658997,-0.06822854280471802,-0.011991423554718494
1686426768720676600,11.892676513671875,0.002042219042778015,-0.06321967393159866,-0.009843850508332253
1686426768730621700,11.90262158203125,0.0018263161182403564,-0.05526472255587578,-0.007031160406768322
1686426768740566800,11.91256689453125,0.0033435188233852386,-0.05136638507246971,-0.004456415772438049
1686426768750511900,11.922511962890624,0.004850723780691624,-0.04392249137163162,-0.005540897138416767
1686426768760456700,11.932456787109375,0.004373219795525074,-0.039610035717487335,-0.00871325470507145
1686426768770401800,11.94240185546875,0.0017916839569807053,-0.034985288977622986,-0.00901755504310131
1686426768780347000,11.952346923828125,0.002619394101202488,-0.03254450112581253,-0.006355459336191416
1686426768790291700,11.962291748046875,-0.0005984851159155369,-0.028208736330270767,-0.00982963852584362
1686426768800235800,11.97223583984375,0.001985314302146435,-0.028677985072135925,-0.006965408567339182
1686426768810180600,11.9821806640625,0.0016975915059447289,-0.026872053742408752,-0.0047885822132229805
1686426768820125700,11.992125732421876,0.0029479460790753365,-0.028928810730576515,-0.003907075617462397
