time,seconds_elapsed,z,y,x
1686445353704529000,0.13452880859375,-0.758087158203125,-0.09906005859375,0.6427764892578125
1686445353714545700,0.144545654296875,-0.7558135986328125,-0.098663330078125,0.6429443359375
1686445353724562700,0.154562744140625,-0.755889892578125,-0.0984344482421875,0.642181396484375
1686445353734578700,0.16457861328125,-0.7593841552734375,-0.0991058349609375,0.641143798828125
1686445353744595700,0.174595703125,-0.7639617919921875,-0.09881591796875,0.64031982421875
1686445353754612700,0.18461279296875,-0.76617431640625,-0.0992584228515625,0.6415557861328125
1686445353764628700,0.194628662109375,-0.7680511474609375,-0.0991363525390625,0.6409149169921875
1686445353774645800,0.204645751953125,-0.76513671875,-0.099029541015625,0.640167236328125
1686445353784662800,0.214662841796875,-0.762298583984375,-0.1000823974609375,0.6399078369140625
1686445353794678800,0.2246787109375,-0.759429931640625,-0.10040283203125,0.64019775390625
1686445353804695600,0.234695556640625,-0.7592010498046875,-0.10009765625,0.6397857666015625
1686445353814711800,0.2447119140625,-0.7600250244140625,-0.1008758544921875,0.6399383544921875
1686445353824728800,0.254728759765625,-0.76336669921875,-0.1001434326171875,0.6395111083984375
1686445353834745600,0.26474560546875,-0.7659149169921875,-0.0999298095703125,0.6400146484375
1686445353844761600,0.27476171875,-0.7684478759765625,-0.0995025634765625,0.639190673828125
1686445353854779000,0.28477880859375,-0.7708740234375,-0.09771728515625,0.638671875
1686445353864795600,0.294795654296875,-0.770751953125,-0.0958709716796875,0.63787841796875
1686445353874811600,0.304811767578125,-0.7690277099609375,-0.0957794189453125,0.6378936767578125
1686445353884829000,0.314828857421875,-0.76513671875,-0.09564208984375,0.6380157470703125
1686445353894845700,0.324845703125,-0.76080322265625,-0.09759521484375,0.6386871337890625
1686445353904861700,0.33486181640625,-0.75762939453125,-0.0997467041015625,0.640289306640625
1686445353914878700,0.344878662109375,-0.7536163330078125,-0.101470947265625,0.6387481689453125
1686445353924895700,0.354895751953125,-0.752105712890625,-0.1026611328125,0.637542724609375
1686445353934911700,0.364911865234375,-0.754364013671875,-0.1042022705078125,0.6374359130859375
1686445353944928800,0.3749287109375,-0.757904052734375,-0.1027374267578125,0.6346282958984375
1686445353954945800,0.38494580078125,-0.7611541748046875,-0.1026458740234375,0.633758544921875
1686445353964961800,0.3949619140625,-0.762664794921875,-0.1025848388671875,0.634002685546875
1686445353974978600,0.404978515625,-0.7617645263671875,-0.1035003662109375,0.6352996826171875
1686445353984994600,0.41499462890625,-0.759918212890625,-0.104522705078125,0.6359710693359375
1686445353995011800,0.42501171875,-0.759857177734375,-0.10321044921875,0.6356048583984375
1686445354005028600,0.435028564453125,-0.76251220703125,-0.1015777587890625,0.63726806640625
1686445354015044600,0.445044677734375,-0.7653656005859375,-0.099578857421875,0.639007568359375
1686445354025061600,0.4550615234375,-0.768310546875,-0.0970001220703125,0.64044189453125
1686445354035078700,0.46507861328125,-0.7707061767578125,-0.0947113037109375,0.6417999267578125
1686445354045094700,0.4750947265625,-0.7724456787109375,-0.0930938720703125,0.6419830322265625
1686445354055111700,0.485111572265625,-0.7722015380859375,-0.0932464599609375,0.641204833984375
1686445354065128700,0.495128662109375,-0.7698516845703125,-0.09429931640625,0.641876220703125
1686445354075144700,0.505144775390625,-0.765869140625,-0.09442138671875,0.64227294921875
1686445354085161700,0.51516162109375,-0.7652740478515625,-0.09417724609375,0.6439208984375
1686445354095178500,0.525178466796875,-0.7633056640625,-0.0939788818359375,0.6452178955078125
1686445354105194800,0.53519482421875,-0.76177978515625,-0.0925750732421875,0.6472930908203125
1686445354115211800,0.545211669921875,-0.7592926025390625,-0.0937042236328125,0.6494140625
1686445354125227800,0.555227783203125,-0.7586669921875,-0.094818115234375,0.6479339599609375
1686445354135244500,0.56524462890625,-0.757568359375,-0.09521484375,0.649383544921875
1686445354145261800,0.57526171875,-0.754058837890625,-0.097747802734375,0.648895263671875
1686445354155277800,0.58527783203125,-0.7530059814453125,-0.102142333984375,0.64703369140625
1686445354165294600,0.595294677734375,-0.75018310546875,-0.103668212890625,0.64599609375
1686445354175312000,0.605311767578125,-0.7487640380859375,-0.1053314208984375,0.6467742919921875
1686445354185327900,0.615327880859375,-0.750579833984375,-0.10321044921875,0.645660400390625
1686445354195344600,0.6253447265625,-0.7538299560546875,-0.100860595703125,0.644683837890625
1686445354205361700,0.635361572265625,-0.7570648193359375,-0.09979248046875,0.6431121826171875
1686445354215378000,0.6453779296875,-0.7590179443359375,-0.0989532470703125,0.641754150390625
1686445354225394700,0.655394775390625,-0.7625732421875,-0.10052490234375,0.6381378173828125
1686445354235411700,0.66541162109375,-0.7647857666015625,-0.1034698486328125,0.6348724365234375
1686445354245427700,0.675427734375,-0.7657623291015625,-0.1058502197265625,0.6327362060546875
1686445354255444700,0.68544482421875,-0.767059326171875,-0.1052703857421875,0.63311767578125
1686445354265460700,0.695460693359375,-0.7675323486328125,-0.10345458984375,0.6335906982421875
1686445354275477800,0.705477783203125,-0.7678070068359375,-0.1009063720703125,0.6340179443359375
1686445354285494800,0.715494873046875,-0.768524169921875,-0.0957183837890625,0.63531494140625
1686445354295510800,0.7255107421875,-0.771331787109375,-0.091033935546875,0.6344451904296875
1686445354305527800,0.73552783203125,-0.7730560302734375,-0.087982177734375,0.6358184814453125
1686445354315544600,0.745544677734375,-0.7727203369140625,-0.0889739990234375,0.63836669921875
1686445354325560800,0.755560791015625,-0.768463134765625,-0.0951080322265625,0.638458251953125
1686445354335577600,0.76557763671875,-0.76422119140625,-0.101837158203125,0.6376800537109375
1686445354345594600,0.7755947265625,-0.7627410888671875,-0.105377197265625,0.6358489990234375
1686445354355610600,0.785610595703125,-0.7610626220703125,-0.10626220703125,0.63623046875
1686445354365627600,0.795627685546875,-0.757781982421875,-0.1060638427734375,0.6377105712890625
1686445354375644700,0.805644775390625,-0.755401611328125,-0.103790283203125,0.6405487060546875
1686445354385660700,0.81566064453125,-0.7538604736328125,-0.102325439453125,0.6422271728515625
1686445354395677700,0.825677734375,-0.753509521484375,-0.1007080078125,0.6414031982421875
1686445354405693700,0.835693603515625,-0.7539520263671875,-0.0993499755859375,0.64263916015625
1686445354415710700,0.845710693359375,-0.7556610107421875,-0.0988311767578125,0.6446685791015625
1686445354425727500,0.8557275390625,-0.7564849853515625,-0.0997161865234375,0.6461029052734375
1686445354435743700,0.86574365234375,-0.7591400146484375,-0.101318359375,0.6453094482421875
1686445354445760800,0.8757607421875,-0.762451171875,-0.1016387939453125,0.6436004638671875
1686445354455777500,0.885777587890625,-0.76519775390625,-0.10101318359375,0.6417999267578125
1686445354465793500,0.89579345703125,-0.7675018310546875,-0.0994110107421875,0.6389617919921875
1686445354475810800,0.905810791015625,-0.7683868408203125,-0.09893798828125,0.6386260986328125
1686445354485827600,0.91582763671875,-0.76910400390625,-0.099456787109375,0.6407928466796875
1686445354495843600,0.925843505859375,-0.7676544189453125,-0.10076904296875,0.642608642578125
1686445354505860900,0.93586083984375,-0.764923095703125,-0.10198974609375,0.64404296875
1686445354515877600,0.945877685546875,-0.7642822265625,-0.1016387939453125,0.6454315185546875
1686445354525893600,0.9558935546875,-0.7632598876953125,-0.10015869140625,0.6451263427734375
1686445354535910700,0.96591064453125,-0.7625579833984375,-0.100189208984375,0.643890380859375
1686445354545927000,0.975927001953125,-0.7624969482421875,-0.0992279052734375,0.64263916015625
1686445354555942700,0.985942626953125,-0.7598724365234375,-0.0978240966796875,0.6404571533203125
1686445354565960000,0.9959599609375,-0.758941650390625,-0.0969696044921875,0.6381378173828125
1686445354575976000,1.005975830078125,-0.7578125,-0.0966796875,0.6383209228515625
1686445354585992700,1.01599267578125,-0.7580108642578125,-0.0977935791015625,0.6403045654296875
1686445354596009700,1.026009765625,-0.7564239501953125,-0.09674072265625,0.6433258056640625
1686445354606026000,1.03602587890625,-0.75372314453125,-0.0971527099609375,0.6430511474609375
1686445354616042800,1.046042724609375,-0.7529296875,-0.098052978515625,0.641357421875
1686445354626059800,1.056059814453125,-0.7556304931640625,-0.0988616943359375,0.6403656005859375
1686445354636075800,1.06607568359375,-0.75677490234375,-0.0997314453125,0.638214111328125
1686445354646092800,1.0760927734375,-0.759368896484375,-0.1018524169921875,0.636627197265625
1686445354656109800,1.08610986328125,-0.7601318359375,-0.1046295166015625,0.636993408203125
1686445354666125800,1.096125732421875,-0.7627105712890625,-0.1052398681640625,0.6381683349609375
1686445354676142800,1.106142822265625,-0.764190673828125,-0.1030731201171875,0.6382293701171875
1686445354686158800,1.116158935546875,-0.7662811279296875,-0.102264404296875,0.6377410888671875
1686445354696175900,1.12617578125,-0.7667694091796875,-0.101776123046875,0.6378173828125
1686445354706192600,1.136192626953125,-0.766693115234375,-0.1010894775390625,0.637237548828125
1686445354716209000,1.146208984375,-0.7662811279296875,-0.1016998291015625,0.63623046875
1686445354726226000,1.156225830078125,-0.7659454345703125,-0.101837158203125,0.6366729736328125
1686445354736242700,1.16624267578125,-0.766754150390625,-0.100341796875,0.639739990234375
1686445354746258700,1.1762587890625,-0.767181396484375,-0.0970916748046875,0.6424560546875
1686445354756276000,1.18627587890625,-0.7701568603515625,-0.0967254638671875,0.64501953125
1686445354766292700,1.196292724609375,-0.770965576171875,-0.0982208251953125,0.6452484130859375
1686445354776308700,1.206308837890625,-0.7706146240234375,-0.0997314453125,0.64129638671875
1686445354786326000,1.216325927734375,-0.7687835693359375,-0.0993804931640625,0.6369781494140625
1686445354796342800,1.2263427734375,-0.7664947509765625,-0.099029541015625,0.6316986083984375
1686445354806358800,1.23635888671875,-0.7636566162109375,-0.0994720458984375,0.6247100830078125
1686445354816375800,1.246375732421875,-0.763519287109375,-0.1004486083984375,0.6253204345703125
1686445354826392800,1.256392822265625,-0.76385498046875,-0.100067138671875,0.636688232421875
1686445354836408800,1.266408935546875,-0.7632904052734375,-0.0980377197265625,0.6472015380859375
1686445354846425900,1.27642578125,-0.7630157470703125,-0.0997314453125,0.655792236328125
1686445354856441900,1.28644189453125,-0.7618255615234375,-0.1031494140625,0.660797119140625
1686445354866459000,1.296458984375,-0.7584228515625,-0.10565185546875,0.6620941162109375
1686445354876476000,1.306475830078125,-0.7564849853515625,-0.1039276123046875,0.6576690673828125
1686445354886491600,1.31649169921875,-0.7574462890625,-0.1036224365234375,0.6495208740234375
1686445354896509000,1.326509033203125,-0.7558135986328125,-0.10382080078125,0.6407318115234375
1686445354906526000,1.33652587890625,-0.7523345947265625,-0.101531982421875,0.634063720703125
1686445354916541700,1.346541748046875,-0.749603271484375,-0.1018524169921875,0.633575439453125
1686445354926558700,1.356558837890625,-0.748931884765625,-0.10052490234375,0.6359710693359375
1686445354936576000,1.366575927734375,-0.744659423828125,-0.0993499755859375,0.640899658203125
1686445354946591700,1.376591796875,-0.741912841796875,-0.0975341796875,0.6418304443359375
1686445354956608800,1.38660888671875,-0.7409210205078125,-0.098419189453125,0.6422576904296875
1686445354966624800,1.396624755859375,-0.742645263671875,-0.0993194580078125,0.64605712890625
1686445354976641800,1.406641845703125,-0.7490692138671875,-0.1016082763671875,0.6475067138671875
1686445354986658800,1.416658935546875,-0.7574005126953125,-0.103729248046875,0.649627685546875
1686445354996674800,1.4266748046875,-0.767547607421875,-0.10443115234375,0.6480255126953125
1686445355006691800,1.43669189453125,-0.776214599609375,-0.105072021484375,0.645050048828125
1686445355016708900,1.446708984375,-0.7793731689453125,-0.1063690185546875,0.638458251953125
1686445355026724900,1.456724853515625,-0.77337646484375,-0.1055450439453125,0.62823486328125
1686445355036741600,1.46674169921875,-0.7628631591796875,-0.1056365966796875,0.61773681640625
1686445355046759000,1.476759033203125,-0.755950927734375,-0.107635498046875,0.61322021484375
1686445355056775000,1.48677490234375,-0.759918212890625,-0.1100616455078125,0.6189727783203125
1686445355066791700,1.496791748046875,-0.7675933837890625,-0.111328125,0.6300506591796875
1686445355076809000,1.50680908203125,-0.7715911865234375,-0.111419677734375,0.641143798828125
1686445355086825000,1.516824951171875,-0.772308349609375,-0.113739013671875,0.6502838134765625
1686445355096841700,1.526841796875,-0.7721710205078125,-0.1186676025390625,0.6566162109375
1686445355106857700,1.536857666015625,-0.7775421142578125,-0.1228179931640625,0.6625823974609375
1686445355116875000,1.546875,-0.7887115478515625,-0.1251983642578125,0.6643829345703125
1686445355126891800,1.556891845703125,-0.8016357421875,-0.125030517578125,0.661865234375
1686445355136907800,1.56690771484375,-0.806732177734375,-0.1265106201171875,0.657440185546875
1686445355146924800,1.5769248046875,-0.7938385009765625,-0.1287994384765625,0.6497802734375
1686445355156941800,1.58694189453125,-0.7724456787109375,-0.1316680908203125,0.6410369873046875
1686445355166957800,1.596957763671875,-0.7508544921875,-0.1348724365234375,0.6359100341796875
1686445355176974800,1.606974853515625,-0.7314910888671875,-0.1338043212890625,0.63494873046875
1686445355186991900,1.616991943359375,-0.715728759765625,-0.13262939453125,0.639678955078125
1686445355197008000,1.6270078125,-0.7060089111328125,-0.132843017578125,0.649505615234375
1686445355207025000,1.63702490234375,-0.70367431640625,-0.13629150390625,0.664703369140625
1686445355217041700,1.647041748046875,-0.7041473388671875,-0.1421661376953125,0.6820831298828125
1686445355227058000,1.657057861328125,-0.7082672119140625,-0.1456146240234375,0.690582275390625
1686445355237075000,1.667074951171875,-0.7072296142578125,-0.1453094482421875,0.69775390625
1686445355247091000,1.677091064453125,-0.6944427490234375,-0.1408538818359375,0.7025146484375
1686445355257107700,1.687107666015625,-0.6748046875,-0.1328582763671875,0.70123291015625
1686445355267125000,1.697125,-0.6535186767578125,-0.122344970703125,0.7071990966796875
1686445355277140700,1.707140625,-0.623565673828125,-0.1079559326171875,0.712005615234375
1686445355287157800,1.71715771484375,-0.601348876953125,-0.094146728515625,0.7184600830078125
1686445355297175000,1.727175048828125,-0.589447021484375,-0.08526611328125,0.7342681884765625
1686445355307190800,1.737190673828125,-0.586395263671875,-0.085357666015625,0.7566375732421875
1686445355317207800,1.747207763671875,-0.5938873291015625,-0.0950927734375,0.7748260498046875
1686445355327224800,1.757224853515625,-0.60296630859375,-0.1073455810546875,0.7841644287109375
1686445355337240800,1.76724072265625,-0.60821533203125,-0.1147613525390625,0.7861175537109375
1686445355347257900,1.7772578125,-0.6040191650390625,-0.114105224609375,0.7855682373046875
1686445355357273900,1.78727392578125,-0.5996856689453125,-0.1081695556640625,0.7838287353515625
1686445355367290600,1.79729052734375,-0.59552001953125,-0.0975341796875,0.791534423828125
1686445355377308000,1.807307861328125,-0.5932159423828125,-0.0895538330078125,0.8016510009765625
1686445355387324000,1.817323974609375,-0.587005615234375,-0.08306884765625,0.8087921142578125
1686445355397340700,1.827340576171875,-0.576751708984375,-0.0755462646484375,0.7935028076171875
1686445355407358000,1.83735791015625,-0.563995361328125,-0.06402587890625,0.7516326904296875
1686445355417374000,1.8473740234375,-0.5463409423828125,-0.065521240234375,0.7649078369140625
1686445355427390700,1.857390625,-0.5508270263671875,-0.076446533203125,0.80364990234375
1686445355437407700,1.86740771484375,-0.569122314453125,-0.079559326171875,0.7810516357421875
1686445355447424000,1.877424072265625,-0.5771484375,-0.08642578125,0.7902069091796875
1686445355457440800,1.887440673828125,-0.5814056396484375,-0.0921173095703125,0.8160552978515625
1686445355467457800,1.897457763671875,-0.576324462890625,-0.093017578125,0.834075927734375
1686445355477473800,1.907473876953125,-0.571044921875,-0.0869598388671875,0.8438873291015625
1686445355487490800,1.91749072265625,-0.560089111328125,-0.0786285400390625,0.84637451171875
1686445355497506800,1.9275068359375,-0.546600341796875,-0.06829833984375,0.8538818359375
1686445355507523800,1.93752392578125,-0.5444793701171875,-0.06170654296875,0.8602752685546875
1686445355517540900,1.947540771484375,-0.5472564697265625,-0.063140869140625,0.8764495849609375
1686445355527556900,1.957556884765625,-0.5516510009765625,-0.06683349609375,0.900909423828125
1686445355537574000,1.967573974609375,-0.5617523193359375,-0.070159912109375,0.9097900390625
1686445355547590700,1.977590576171875,-0.557159423828125,-0.0665740966796875,0.9100799560546875
1686445355557607000,1.98760693359375,-0.5406951904296875,-0.0622711181640625,0.9207611083984375
1686445355567624200,1.997624267578125,-0.5285797119140625,-0.0519866943359375,0.910797119140625
1686445355577641000,2.007640869140625,-0.501068115234375,-0.0423583984375,0.8951263427734375
1686445355587657000,2.017656982421875,-0.468353271484375,-0.033203125,0.8874053955078125
1686445355597674000,2.027674072265625,-0.4452362060546875,-0.0269317626953125,0.87994384765625
1686445355607691000,2.03769091796875,-0.4296722412109375,-0.02374267578125,0.876434326171875
1686445355617707000,2.04770703125,-0.4201202392578125,-0.027130126953125,0.8824920654296875
1686445355627724000,2.05772412109375,-0.4200592041015625,-0.0350494384765625,0.885223388671875
1686445355637739800,2.06773974609375,-0.4279022216796875,-0.037353515625,0.88104248046875
1686445355647757000,2.077757080078125,-0.448577880859375,-0.03741455078125,0.891754150390625
1686445355657774000,2.087774169921875,-0.4822235107421875,-0.0312957763671875,0.88677978515625
1686445355667789800,2.097789794921875,-0.502410888671875,-0.0090789794921875,0.8489990234375
1686445355677807000,2.10780712890625,-0.497406005859375,0.00579833984375,0.834075927734375
1686445355687824100,2.11782421875,-0.49676513671875,0.0093536376953125,0.8273162841796875
1686445355697839900,2.12783984375,-0.5023345947265625,0.0034027099609375,0.8249969482421875
1686445355707857000,2.13785693359375,-0.496856689453125,-0.0084075927734375,0.83123779296875
1686445355717874200,2.147874267578125,-0.4874114990234375,-0.019775390625,0.83111572265625
1686445355727890000,2.157889892578125,-0.4727783203125,-0.030487060546875,0.842559814453125
1686445355737907000,2.167906982421875,-0.479644775390625,-0.039306640625,0.8504180908203125
1686445355747924000,2.177924072265625,-0.4996795654296875,-0.0417633056640625,0.8556671142578125
1686445355757940000,2.18793994140625,-0.524688720703125,-0.0377197265625,0.859375
1686445355767957000,2.19795703125,-0.54931640625,-0.030120849609375,0.8619842529296875
1686445355777973000,2.207972900390625,-0.5699310302734375,-0.021881103515625,0.861968994140625
1686445355787990000,2.217989990234375,-0.589599609375,-0.0145416259765625,0.84814453125
1686445355798007000,2.228007080078125,-0.595367431640625,-0.0052490234375,0.8255462646484375
1686445355808023000,2.23802294921875,-0.5915374755859375,-0.0029296875,0.8152618408203125
1686445355818039800,2.248039794921875,-0.5880279541015625,-0.0059967041015625,0.8230438232421875
1686445355828057000,2.25805712890625,-0.580322265625,-0.0102081298828125,0.831390380859375
1686445355838073000,2.268072998046875,-0.5641632080078125,-0.01513671875,0.83966064453125
1686445355848089900,2.27808984375,-0.549713134765625,-0.0228271484375,0.8555145263671875
1686445355858107100,2.288107177734375,-0.5449371337890625,-0.0252685546875,0.8643798828125
1686445355868123100,2.298123046875,-0.5514373779296875,-0.02880859375,0.8682098388671875
1686445355878140000,2.308139892578125,-0.56353759765625,-0.033172607421875,0.8717803955078125
1686445355888156000,2.318156005859375,-0.574432373046875,-0.031982421875,0.8662872314453125
1686445355898173200,2.328173095703125,-0.5835723876953125,-0.0322723388671875,0.857818603515625
1686445355908190000,2.33818994140625,-0.58099365234375,-0.02783203125,0.8422088623046875
1686445355918206000,2.3482060546875,-0.569854736328125,-0.019287109375,0.8311309814453125
1686445355928223000,2.358222900390625,-0.5622711181640625,-0.01593017578125,0.8264617919921875
1686445355938240000,2.368239990234375,-0.5605316162109375,-0.0113372802734375,0.82763671875
1686445355948256000,2.378256103515625,-0.5622406005859375,-0.008636474609375,0.832855224609375
1686445355958273000,2.38827294921875,-0.5638580322265625,-0.0070037841796875,0.83697509765625
1686445355968290000,2.3982900390625,-0.5657806396484375,-0.0063018798828125,0.8442840576171875
1686445355978306000,2.40830615234375,-0.5691680908203125,-0.000274658203125,0.843719482421875
1686445355988323000,2.418322998046875,-0.5884857177734375,0.010955810546875,0.806640625
1686445355998339800,2.42833984375,-0.5960540771484375,0.01531982421875,0.814544677734375
1686445356008356000,2.438356201171875,-0.612823486328125,0.0163116455078125,0.83056640625
1686445356018373000,2.448373046875,-0.6273193359375,0.0196685791015625,0.8307342529296875
1686445356028388900,2.458388916015625,-0.6239166259765625,0.0235443115234375,0.831146240234375
1686445356038406000,2.468406005859375,-0.617462158203125,0.025238037109375,0.8223114013671875
1686445356048423200,2.478423095703125,-0.6068267822265625,0.0262298583984375,0.8125
1686445356058439000,2.48843896484375,-0.596160888671875,0.0284881591796875,0.8018646240234375
1686445356068456000,2.4984560546875,-0.582672119140625,0.0281982421875,0.8005218505859375
1686445356078473200,2.50847314453125,-0.564178466796875,0.0225677490234375,0.7971038818359375
1686445356088489000,2.518489013671875,-0.5421600341796875,0.015655517578125,0.7932586669921875
1686445356098506000,2.528506103515625,-0.5152740478515625,0.0032501220703125,0.7974395751953125
1686445356108523000,2.53852294921875,-0.49615478515625,-0.0085296630859375,0.802764892578125
1686445356118539000,2.5485390625,-0.494781494140625,-0.0200653076171875,0.8053436279296875
1686445356128556000,2.55855615234375,-0.51422119140625,-0.0314178466796875,0.8062896728515625
1686445356138572000,2.568572021484375,-0.54010009765625,-0.037109375,0.8173980712890625
1686445356148588800,2.5785888671875,-0.568878173828125,-0.0385284423828125,0.8352813720703125
1686445356158606000,2.588606201171875,-0.595428466796875,-0.0389556884765625,0.83538818359375
1686445356168622000,2.5986220703125,-0.608154296875,-0.0381011962890625,0.7982635498046875
1686445356178638800,2.608638916015625,-0.586395263671875,-0.0297088623046875,0.77276611328125
1686445356188656000,2.61865625,-0.5698394775390625,-0.023529052734375,0.766937255859375
1686445356198672100,2.628672119140625,-0.57366943359375,-0.025604248046875,0.7638702392578125
1686445356208689000,2.63868896484375,-0.5770263671875,-0.0310821533203125,0.767913818359375
1686445356218706000,2.648705810546875,-0.579498291015625,-0.033660888671875,0.7765045166015625
1686445356228722200,2.65872216796875,-0.5840606689453125,-0.0334320068359375,0.7845458984375
1686445356238739000,2.668739013671875,-0.5918731689453125,-0.0306396484375,0.787933349609375
1686445356248756000,2.678755859375,-0.604156494140625,-0.0285186767578125,0.7910003662109375
1686445356258772000,2.68877197265625,-0.612762451171875,-0.0229949951171875,0.79345703125
1686445356268789000,2.6987890625,-0.619964599609375,-0.016845703125,0.794525146484375
1686445356278805000,2.708804931640625,-0.62664794921875,-0.0102386474609375,0.792938232421875
1686445356288822000,2.718822021484375,-0.63189697265625,-0.003265380859375,0.78924560546875
1686445356298839000,2.728839111328125,-0.6356201171875,0.0025482177734375,0.7836151123046875
1686445356308855000,2.73885498046875,-0.6380767822265625,0.004913330078125,0.7803802490234375
1686445356318872000,2.7488720703125,-0.6406097412109375,0.0056915283203125,0.778717041015625
1686445356328888800,2.758888916015625,-0.6405181884765625,0.0073394775390625,0.779144287109375
1686445356338905000,2.768905029296875,-0.638580322265625,0.0068206787109375,0.779998779296875
1686445356348922000,2.778922119140625,-0.637054443359375,0.0003814697265625,0.78106689453125
1686445356358939000,2.78893896484375,-0.6381378173828125,-0.0078582763671875,0.7787017822265625
1686445356368955000,2.798954833984375,-0.6375579833984375,-0.0157318115234375,0.7750091552734375
1686445356378972200,2.80897216796875,-0.6313934326171875,-0.0231781005859375,0.76763916015625
1686445356388989000,2.818989013671875,-0.6281890869140625,-0.0299224853515625,0.7591705322265625
1686445356399005000,2.8290048828125,-0.630035400390625,-0.03271484375,0.753326416015625
1686445356409022200,2.839022216796875,-0.63409423828125,-0.0311126708984375,0.7520751953125
1686445356419038000,2.849037841796875,-0.637725830078125,-0.028167724609375,0.75677490234375
1686445356429055000,2.859054931640625,-0.6380615234375,-0.0281982421875,0.76324462890625
1686445356439072000,2.869072021484375,-0.632568359375,-0.0284576416015625,0.771270751953125
1686445356449088000,2.879087890625,-0.6228485107421875,-0.02691650390625,0.77825927734375
1686445356459105000,2.88910498046875,-0.6187286376953125,-0.026947021484375,0.78778076171875
1686445356469122000,2.8991220703125,-0.6202545166015625,-0.0271148681640625,0.7949066162109375
1686445356479137800,2.9091376953125,-0.620880126953125,-0.029327392578125,0.79925537109375
1686445356489155000,2.919155029296875,-0.6202850341796875,-0.03228759765625,0.797821044921875
1686445356499172000,2.929172119140625,-0.6153411865234375,-0.0365142822265625,0.7921600341796875
1686445356509187800,2.939187744140625,-0.6084442138671875,-0.043365478515625,0.7818603515625
1686445356519205000,2.949205078125,-0.60614013671875,-0.0506744384765625,0.7733612060546875
1686445356529222000,2.959221923828125,-0.6159210205078125,-0.0569915771484375,0.7657318115234375
1686445356539238000,2.96923779296875,-0.6411285400390625,-0.0618133544921875,0.7589569091796875
1686445356549255000,2.9792548828125,-0.674102783203125,-0.06317138671875,0.7532196044921875
1686445356559271000,2.98927099609375,-0.7058258056640625,-0.063934326171875,0.746673583984375
1686445356569288000,2.999287841796875,-0.73223876953125,-0.066558837890625,0.7398834228515625
1686445356579305000,3.009304931640625,-0.743804931640625,-0.069061279296875,0.73126220703125
1686445356589321000,3.019321044921875,-0.7383880615234375,-0.0669097900390625,0.7248687744140625
1686445356599338000,3.029337890625,-0.71728515625,-0.06219482421875,0.725555419921875
1686445356609355000,3.03935498046875,-0.691802978515625,-0.0550384521484375,0.7340240478515625
1686445356619371000,3.04937109375,-0.666900634765625,-0.0494842529296875,0.74725341796875
1686445356629387800,3.0593876953125,-0.6488037109375,-0.044952392578125,0.7597808837890625
1686445356639405000,3.069405029296875,-0.632965087890625,-0.040283203125,0.767578125
1686445356649421000,3.079421142578125,-0.6203155517578125,-0.039306640625,0.7747039794921875
1686445356659437800,3.089437744140625,-0.61358642578125,-0.037750244140625,0.7774505615234375
1686445356669453800,3.099453857421875,-0.6110687255859375,-0.038299560546875,0.777801513671875
1686445356679471000,3.10947119140625,-0.6106109619140625,-0.039703369140625,0.7743072509765625
1686445356689488000,3.11948779296875,-0.6081695556640625,-0.0427398681640625,0.76812744140625
1686445356699503900,3.12950390625,-0.6054229736328125,-0.0463409423828125,0.7626495361328125
1686445356709521200,3.139521240234375,-0.607452392578125,-0.05133056640625,0.7598876953125
1686445356719538000,3.149537841796875,-0.615234375,-0.054656982421875,0.7589111328125
1686445356729554000,3.159553955078125,-0.62396240234375,-0.0548858642578125,0.7623443603515625
1686445356739571000,3.169571044921875,-0.6311492919921875,-0.05364990234375,0.763214111328125
1686445356749588000,3.179587890625,-0.6299591064453125,-0.05267333984375,0.7643585205078125
1686445356759604000,3.18960400390625,-0.6279449462890625,-0.0512542724609375,0.76953125
1686445356769621000,3.19962109375,-0.6258392333984375,-0.0492401123046875,0.7778472900390625
1686445356779638000,3.209637939453125,-0.6227569580078125,-0.048553466796875,0.784149169921875
1686445356789654000,3.219654052734375,-0.6179962158203125,-0.0473480224609375,0.7884521484375
1686445356799671000,3.229671142578125,-0.618072509765625,-0.04730224609375,0.7874603271484375
1686445356809686800,3.239686767578125,-0.620086669921875,-0.0443115234375,0.78546142578125
1686445356819704000,3.2497041015625,-0.621612548828125,-0.0437469482421875,0.784027099609375
1686445356829721000,3.25972119140625,-0.6239013671875,-0.0436553955078125,0.7835235595703125
1686445356839736800,3.26973681640625,-0.6290740966796875,-0.043426513671875,0.784423828125
1686445356849753900,3.27975390625,-0.6363983154296875,-0.0423431396484375,0.7890777587890625
1686445356859771100,3.289771240234375,-0.64398193359375,-0.0426177978515625,0.79022216796875
1686445356869787000,3.299786865234375,-0.646026611328125,-0.04449462890625,0.7864227294921875
1686445356879804000,3.309803955078125,-0.64398193359375,-0.0485076904296875,0.7809295654296875
1686445356889821000,3.319821044921875,-0.63958740234375,-0.0519256591796875,0.7761993408203125
1686445356899837000,3.3298369140625,-0.6379241943359375,-0.053863525390625,0.7736053466796875
1686445356909854000,3.33985400390625,-0.6368255615234375,-0.0542144775390625,0.771942138671875
1686445356919870000,3.349869873046875,-0.634613037109375,-0.054290771484375,0.7721710205078125
1686445356929887000,3.359886962890625,-0.6358795166015625,-0.0545806884765625,0.774627685546875
1686445356939904000,3.369904052734375,-0.6381988525390625,-0.0536956787109375,0.77850341796875
1686445356949920000,3.379919921875,-0.6399993896484375,-0.0533447265625,0.778839111328125
1686445356959936800,3.389936767578125,-0.6396331787109375,-0.05206298828125,0.7788848876953125
1686445356969954000,3.3999541015625,-0.637451171875,-0.050201416015625,0.7805328369140625
1686445356979970000,3.409969970703125,-0.6383056640625,-0.049163818359375,0.7778472900390625
1686445356989986800,3.41998681640625,-0.63922119140625,-0.048675537109375,0.773345947265625
1686445357000004000,3.430004150390625,-0.6357269287109375,-0.050689697265625,0.7655181884765625
1686445357010020000,3.44002001953125,-0.627838134765625,-0.0544891357421875,0.7566375732421875
1686445357020036900,3.450036865234375,-0.62274169921875,-0.0574798583984375,0.75146484375
1686445357030054000,3.460053955078125,-0.621917724609375,-0.0587005615234375,0.7496337890625
1686445357040070100,3.470070068359375,-0.625030517578125,-0.0602874755859375,0.7505035400390625
1686445357050087000,3.4800869140625,-0.6260223388671875,-0.061431884765625,0.758453369140625
1686445357060104000,3.49010400390625,-0.6251220703125,-0.05963134765625,0.76483154296875
1686445357070120000,3.500119873046875,-0.6234893798828125,-0.05731201171875,0.7680511474609375
1686445357080137000,3.510136962890625,-0.624176025390625,-0.056549072265625,0.768829345703125
1686445357090153000,3.520153076171875,-0.6239776611328125,-0.05706787109375,0.76568603515625
1686445357100170000,3.530169921875,-0.623626708984375,-0.057861328125,0.7606048583984375
1686445357110187000,3.54018701171875,-0.6240997314453125,-0.0590362548828125,0.758758544921875
1686445357120203000,3.550203125,-0.625762939453125,-0.0577545166015625,0.76171875
1686445357130220000,3.560219970703125,-0.6322021484375,-0.0570831298828125,0.76812744140625
1686445357140236800,3.57023681640625,-0.636627197265625,-0.0572052001953125,0.777069091796875
1686445357150253000,3.580253173828125,-0.637420654296875,-0.05517578125,0.783172607421875
1686445357160270000,3.59027001953125,-0.634857177734375,-0.0537567138671875,0.784576416015625
1686445357170286800,3.600286865234375,-0.6319732666015625,-0.0534820556640625,0.7819061279296875
1686445357180302800,3.610302734375,-0.62896728515625,-0.0538787841796875,0.77545166015625
1686445357190320000,3.620320068359375,-0.6296844482421875,-0.05548095703125,0.77069091796875
1686445357200336000,3.6303359375,-0.6330108642578125,-0.058197021484375,0.7690277099609375
1686445357210353000,3.640352783203125,-0.635009765625,-0.0622100830078125,0.766845703125
1686445357220370200,3.6503701171875,-0.63519287109375,-0.0648956298828125,0.7632598876953125
1686445357230386000,3.660385986328125,-0.6371612548828125,-0.068939208984375,0.759033203125
1686445357240403000,3.67040283203125,-0.6392364501953125,-0.06683349609375,0.7575531005859375
1686445357250420000,3.680419921875,-0.6442413330078125,-0.060028076171875,0.7606658935546875
1686445357260436000,3.69043603515625,-0.647552490234375,-0.0544281005859375,0.760711669921875
1686445357270453000,3.700452880859375,-0.64910888671875,-0.0514984130859375,0.7617340087890625
1686445357280470000,3.710469970703125,-0.6516265869140625,-0.051422119140625,0.76678466796875
1686445357290485800,3.72048583984375,-0.653961181640625,-0.0510406494140625,0.7755889892578125
1686445357300503000,3.7305029296875,-0.65496826171875,-0.0498504638671875,0.7832183837890625
1686445357310519800,3.740519775390625,-0.6540679931640625,-0.0494842529296875,0.7866058349609375
1686445357320535800,3.750535888671875,-0.6486358642578125,-0.04998779296875,0.7880096435546875
1686445357330553000,3.760552978515625,-0.639068603515625,-0.0501708984375,0.785247802734375
1686445357340569000,3.770569091796875,-0.629791259765625,-0.0513763427734375,0.7835693359375
1686445357350585900,3.7805859375,-0.6207733154296875,-0.051361083984375,0.779754638671875
1686445357360603000,3.790602783203125,-0.6144866943359375,-0.0507659912109375,0.7763214111328125
1686445357370619100,3.800619140625,-0.6120758056640625,-0.0501251220703125,0.7726287841796875
1686445357380636000,3.810635986328125,-0.6140289306640625,-0.0507354736328125,0.76800537109375
1686445357390653000,3.82065283203125,-0.6171417236328125,-0.0550689697265625,0.7629241943359375
1686445357400669000,3.8306689453125,-0.623565673828125,-0.0577392578125,0.7587738037109375
1686445357410686000,3.84068603515625,-0.6310577392578125,-0.059600830078125,0.7576904296875
1686445357420703000,3.850702880859375,-0.6370086669921875,-0.059967041015625,0.7587127685546875
1686445357430719000,3.860718994140625,-0.638397216796875,-0.057708740234375,0.7571258544921875
1686445357440736000,3.870736083984375,-0.636810302734375,-0.0547637939453125,0.75469970703125
1686445357450753000,3.8807529296875,-0.637451171875,-0.050018310546875,0.7530364990234375
1686445357460769000,3.89076904296875,-0.63995361328125,-0.0462188720703125,0.7526092529296875
1686445357470785800,3.900785888671875,-0.6443634033203125,-0.0458221435546875,0.75341796875
1686445357480802000,3.910802001953125,-0.647003173828125,-0.0486297607421875,0.7550811767578125
1686445357490819000,3.920819091796875,-0.647857666015625,-0.0525054931640625,0.7566375732421875
1686445357500835800,3.9308359375,-0.6497802734375,-0.0558929443359375,0.7552642822265625
1686445357510851800,3.940851806640625,-0.6490020751953125,-0.05712890625,0.7528076171875
1686445357520869000,3.950869140625,-0.647369384765625,-0.0570831298828125,0.75201416015625
1686445357530886000,3.960885986328125,-0.645599365234375,-0.0573883056640625,0.7514801025390625
1686445357540902000,3.97090185546875,-0.6451568603515625,-0.0582275390625,0.753570556640625
1686445357550919200,3.980919189453125,-0.64471435546875,-0.0596771240234375,0.7584381103515625
1686445357560936700,3.990936767578125,-0.644622802734375,-0.06201171875,0.7611846923828125
1686445357570952700,4.00095263671875,-0.64227294921875,-0.0654296875,0.7625579833984375
1686445357580969500,4.010969482421875,-0.6462860107421875,-0.068603515625,0.7613067626953125
1686445357590985500,4.0209853515625,-0.6500244140625,-0.0700225830078125,0.756591796875
1686445357601002800,4.031002685546875,-0.65106201171875,-0.07196044921875,0.7516021728515625
1686445357611019500,4.04101953125,-0.652099609375,-0.0727386474609375,0.7477874755859375
1686445357621035500,4.051035400390625,-0.6533966064453125,-0.0702362060546875,0.751434326171875
1686445357631052500,4.061052490234375,-0.6537017822265625,-0.065155029296875,0.75579833984375
1686445357641069600,4.071069580078125,-0.652313232421875,-0.0615081787109375,0.762176513671875
1686445357651085600,4.08108544921875,-0.650421142578125,-0.05877685546875,0.7677764892578125
1686445357661102600,4.0911025390625,-0.6469879150390625,-0.054840087890625,0.77069091796875
1686445357671119600,4.10111962890625,-0.64825439453125,-0.050933837890625,0.7714996337890625
1686445357681135600,4.111135498046875,-0.6527099609375,-0.048736572265625,0.7712249755859375
1686445357691152600,4.121152587890625,-0.659576416015625,-0.0473480224609375,0.769287109375
1686445357701169400,4.13116943359375,-0.661529541015625,-0.0451812744140625,0.7644195556640625
1686445357711185700,4.141185546875,-0.6604156494140625,-0.0460357666015625,0.7576904296875
1686445357721202700,4.15120263671875,-0.657562255859375,-0.048065185546875,0.7500457763671875
1686445357731219500,4.161219482421875,-0.6550750732421875,-0.048858642578125,0.7427825927734375
1686445357741235500,4.1712353515625,-0.654754638671875,-0.04827880859375,0.74041748046875
1686445357751252700,4.181252685546875,-0.65423583984375,-0.0485687255859375,0.74005126953125
1686445357761268700,4.191268798828125,-0.65203857421875,-0.04815673828125,0.7402801513671875
1686445357771285500,4.201285400390625,-0.648406982421875,-0.0478515625,0.7448272705078125
1686445357781302800,4.211302734375,-0.644744873046875,-0.04888916015625,0.7506561279296875
1686445357791318500,4.221318603515625,-0.64459228515625,-0.04840087890625,0.7569427490234375
1686445357801335600,4.23133544921875,-0.6468048095703125,-0.04864501953125,0.7618865966796875
1686445357811352600,4.2413525390625,-0.6500091552734375,-0.0494232177734375,0.765350341796875
1686445357821368600,4.25136865234375,-0.6559295654296875,-0.0514373779296875,0.769073486328125
1686445357831385600,4.261385498046875,-0.6674041748046875,-0.051788330078125,0.76971435546875
1686445357841402600,4.271402587890625,-0.6732177734375,-0.052001953125,0.764984130859375
1686445357851418400,4.28141845703125,-0.6731414794921875,-0.0519561767578125,0.7566070556640625
1686445357861435600,4.291435546875,-0.6650848388671875,-0.04962158203125,0.7488555908203125
1686445357871451600,4.30145166015625,-0.6539459228515625,-0.04840087890625,0.747283935546875
1686445357881468400,4.311468505859375,-0.6473541259765625,-0.047821044921875,0.7516021728515625
1686445357891485700,4.321485595703125,-0.64642333984375,-0.0474090576171875,0.760467529296875
1686445357901501700,4.331501708984375,-0.64666748046875,-0.0486907958984375,0.7672576904296875
1686445357911518500,4.3415185546875,-0.6483306884765625,-0.0515289306640625,0.767669677734375
1686445357921535500,4.351535400390625,-0.6498565673828125,-0.054840087890625,0.7635040283203125
1686445357931551700,4.3615517578125,-0.655029296875,-0.057159423828125,0.75958251953125
1686445357941568500,4.371568603515625,-0.6626434326171875,-0.0563507080078125,0.7562255859375
1686445357951585500,4.38158544921875,-0.6717681884765625,-0.0546722412109375,0.7525787353515625
1686445357961601500,4.3916015625,-0.67425537109375,-0.0525360107421875,0.7476959228515625
1686445357971618600,4.40161865234375,-0.6730194091796875,-0.05047607421875,0.7434844970703125
1686445357981635600,4.411635498046875,-0.670440673828125,-0.052215576171875,0.739532470703125
1686445357991651600,4.421651611328125,-0.6641387939453125,-0.0525360107421875,0.73968505859375
1686445358001668600,4.431668701171875,-0.65850830078125,-0.0525970458984375,0.74102783203125
1686445358011685600,4.441685546875,-0.6546783447265625,-0.053802490234375,0.7436981201171875
1686445358021701600,4.45170166015625,-0.653350830078125,-0.054229736328125,0.744903564453125
1686445358031718400,4.461718505859375,-0.6543121337890625,-0.054412841796875,0.745635986328125
1686445358041735700,4.471735595703125,-0.6565399169921875,-0.054168701171875,0.7424468994140625
1686445358051751700,4.481751708984375,-0.6571502685546875,-0.053619384765625,0.739654541015625
1686445358061768400,4.4917685546875,-0.6570281982421875,-0.054779052734375,0.737457275390625
1686445358071785700,4.50178564453125,-0.6573333740234375,-0.0540771484375,0.736846923828125
1686445358081801700,4.5118017578125,-0.6615447998046875,-0.053009033203125,0.7394256591796875
1686445358091818500,4.521818603515625,-0.6653289794921875,-0.051513671875,0.7423553466796875
1686445358101834500,4.53183447265625,-0.6632232666015625,-0.0520782470703125,0.743621826171875
1686445358111851800,4.541851806640625,-0.655792236328125,-0.05426025390625,0.7451629638671875
1686445358121868500,4.55186865234375,-0.6484527587890625,-0.0565032958984375,0.7458648681640625
1686445358131884500,4.561884521484375,-0.6468963623046875,-0.05743408203125,0.748199462890625
1686445358141901600,4.571901611328125,-0.65045166015625,-0.0563201904296875,0.7510833740234375
1686445358151918600,4.581918701171875,-0.6555633544921875,-0.0555267333984375,0.7524871826171875
1686445358161934600,4.5919345703125,-0.66302490234375,-0.0557098388671875,0.752685546875
1686445358171951600,4.60195166015625,-0.669830322265625,-0.0567474365234375,0.7512359619140625
1686445358181968600,4.61196875,-0.6721954345703125,-0.05694580078125,0.7478485107421875
1686445358191984600,4.621984619140625,-0.6702880859375,-0.05535888671875,0.7445220947265625
1686445358202001700,4.632001708984375,-0.6654205322265625,-0.0547943115234375,0.7454376220703125
1686445358212018400,4.642018310546875,-0.6642608642578125,-0.0542144775390625,0.7471923828125
1686445358222034700,4.65203466796875,-0.66448974609375,-0.0529632568359375,0.750946044921875
1686445358232051700,4.6620517578125,-0.6657562255859375,-0.0530853271484375,0.753326416015625
1686445358242068500,4.672068359375,-0.6645355224609375,-0.055084228515625,0.7537384033203125
1686445358252084500,4.68208447265625,-0.6639556884765625,-0.0577850341796875,0.7516021728515625
1686445358262101800,4.692101806640625,-0.66534423828125,-0.0589141845703125,0.7508392333984375
1686445358272117500,4.702117431640625,-0.667449951171875,-0.0608978271484375,0.7487640380859375
1686445358282134500,4.712134521484375,-0.6690673828125,-0.06097412109375,0.747802734375
1686445358292151800,4.72215185546875,-0.672698974609375,-0.060302734375,0.7472686767578125
1686445358302167600,4.73216748046875,-0.674957275390625,-0.0586700439453125,0.7472076416015625
1686445358312184600,4.7421845703125,-0.6762847900390625,-0.0569610595703125,0.7454833984375
1686445358322201600,4.75220166015625,-0.6751861572265625,-0.056427001953125,0.7443695068359375
1686445358332217600,4.762217529296875,-0.6715087890625,-0.0576324462890625,0.7440643310546875
1686445358342234600,4.772234619140625,-0.664276123046875,-0.0596466064453125,0.741943359375
1686445358352251600,4.782251708984375,-0.656158447265625,-0.061553955078125,0.7398834228515625
1686445358362267400,4.792267333984375,-0.64959716796875,-0.0623321533203125,0.737518310546875
1686445358372284700,4.80228466796875,-0.650054931640625,-0.0611572265625,0.7371368408203125
1686445358382301700,4.8123017578125,-0.6539459228515625,-0.06103515625,0.7388916015625
1686445358392317400,4.8223173828125,-0.6555633544921875,-0.0602569580078125,0.7403106689453125
1686445358402334700,4.832334716796875,-0.65869140625,-0.0587921142578125,0.74169921875
1686445358412351500,4.8423515625,-0.6636199951171875,-0.058074951171875,0.743499755859375
1686445358422367500,4.852367431640625,-0.6690673828125,-0.0583343505859375,0.7456817626953125
1686445358432384500,4.862384521484375,-0.671661376953125,-0.0573272705078125,0.7469940185546875
1686445358442401500,4.872401611328125,-0.6698150634765625,-0.056304931640625,0.74615478515625
1686445358452417500,4.88241748046875,-0.667449951171875,-0.056060791015625,0.7456817626953125
1686445358462434600,4.8924345703125,-0.6647491455078125,-0.0539093017578125,0.746337890625
1686445358472451600,4.90245166015625,-0.6633453369140625,-0.0521392822265625,0.7474517822265625
1686445358482467600,4.912467529296875,-0.6639251708984375,-0.052886962890625,0.747802734375
1686445358492484600,4.922484619140625,-0.6636199951171875,-0.054901123046875,0.7464447021484375
1686445358502500600,4.93250048828125,-0.66259765625,-0.0562744140625,0.7449951171875
1686445358512517600,4.942517578125,-0.6617889404296875,-0.0571441650390625,0.74493408203125
1686445358522534700,4.95253466796875,-0.6602325439453125,-0.0578460693359375,0.7457427978515625
1686445358532550700,4.962550537109375,-0.6614227294921875,-0.056549072265625,0.7467193603515625
1686445358542567400,4.9725673828125,-0.6606903076171875,-0.0563812255859375,0.749176025390625
1686445358552584700,4.982584716796875,-0.6593475341796875,-0.0561981201171875,0.748748779296875
1686445358562600700,4.9926005859375,-0.65631103515625,-0.0562286376953125,0.7459869384765625
1686445358572617700,5.00261767578125,-0.651947021484375,-0.0560150146484375,0.7465667724609375
1686445358582634800,5.012634765625,-0.6480712890625,-0.05657958984375,0.7499542236328125
1686445358592650800,5.022650634765625,-0.64874267578125,-0.0551300048828125,0.75067138671875
1686445358602667800,5.032667724609375,-0.649993896484375,-0.05206298828125,0.7494354248046875
1686445358612684800,5.042684814453125,-0.653839111328125,-0.05462646484375,0.748291015625
1686445358622700800,5.05270068359375,-0.653472900390625,-0.0597991943359375,0.7436676025390625
1686445358632717600,5.062717529296875,-0.6523590087890625,-0.0616302490234375,0.736602783203125
1686445358642734800,5.07273486328125,-0.6555633544921875,-0.0580291748046875,0.7375335693359375
1686445358652750800,5.082750732421875,-0.6649017333984375,-0.0564727783203125,0.741790771484375
1686445358662767600,5.092767578125,-0.6767730712890625,-0.0568695068359375,0.746673583984375
1686445358672783600,5.10278369140625,-0.6799163818359375,-0.057586669921875,0.752410888671875
1686445358682801000,5.11280078125,-0.67913818359375,-0.0575408935546875,0.7565765380859375
1686445358692817700,5.122817626953125,-0.67816162109375,-0.056640625,0.7600860595703125
1686445358702833700,5.132833740234375,-0.6729278564453125,-0.0566253662109375,0.7587890625
1686445358712850700,5.1428505859375,-0.66827392578125,-0.0558929443359375,0.7558135986328125
1686445358722867700,5.15286767578125,-0.6628265380859375,-0.0555572509765625,0.7530975341796875
1686445358732883700,5.1628837890625,-0.659912109375,-0.0573883056640625,0.7500457763671875
1686445358742900700,5.172900634765625,-0.6571197509765625,-0.058837890625,0.745635986328125
1686445358752917800,5.182917724609375,-0.654144287109375,-0.0605926513671875,0.7448883056640625
1686445358762933800,5.192933837890625,-0.651458740234375,-0.06170654296875,0.7450103759765625
1686445358772950500,5.202950439453125,-0.65118408203125,-0.06231689453125,0.74346923828125
1686445358782967800,5.2129677734375,-0.6532440185546875,-0.0605010986328125,0.7441253662109375
1686445358792983800,5.22298388671875,-0.6557769775390625,-0.0586700439453125,0.7460479736328125
1686445358803000600,5.23300048828125,-0.6573028564453125,-0.05670166015625,0.7483062744140625
1686445358813017600,5.243017578125,-0.657379150390625,-0.0568084716796875,0.749420166015625
1686445358823033900,5.253033935546875,-0.656341552734375,-0.057373046875,0.7512969970703125
1686445358833050600,5.263050537109375,-0.6592559814453125,-0.05694580078125,0.7528228759765625
1686445358843067600,5.273067626953125,-0.6605682373046875,-0.0566558837890625,0.753631591796875
1686445358853083600,5.283083740234375,-0.6598052978515625,-0.0556793212890625,0.752166748046875
1686445358863100700,5.2931005859375,-0.65887451171875,-0.0538177490234375,0.7496185302734375
1686445358873116700,5.30311669921875,-0.655517578125,-0.053253173828125,0.745880126953125
1686445358883133700,5.3131337890625,-0.65283203125,-0.05194091796875,0.743743896484375
1686445358893150700,5.323150634765625,-0.648773193359375,-0.05255126953125,0.742584228515625
1686445358903166700,5.333166748046875,-0.64666748046875,-0.0520172119140625,0.7426300048828125
1686445358913183700,5.343183837890625,-0.6476287841796875,-0.051300048828125,0.7458038330078125
1686445358923200500,5.353200439453125,-0.6501312255859375,-0.0506591796875,0.7480010986328125
1686445358933216800,5.363216796875,-0.6529541015625,-0.05084228515625,0.7489471435546875
1686445358943233800,5.37323388671875,-0.65374755859375,-0.051422119140625,0.746978759765625
1686445358953250600,5.38325048828125,-0.65618896484375,-0.05303955078125,0.747039794921875
1686445358963266600,5.3932666015625,-0.6627197265625,-0.05523681640625,0.7464752197265625
1686445358973283800,5.403283935546875,-0.668609619140625,-0.057281494140625,0.74786376953125
1686445358983300600,5.413300537109375,-0.67218017578125,-0.0580902099609375,0.7466888427734375
1686445358993316600,5.423316650390625,-0.67291259765625,-0.0585784912109375,0.74609375
1686445359003334000,5.433333984375,-0.6747894287109375,-0.06207275390625,0.746612548828125
1686445359013350700,5.4433505859375,-0.673248291015625,-0.0658416748046875,0.745208740234375
1686445359023366700,5.45336669921875,-0.6750030517578125,-0.0666046142578125,0.743072509765625
1686445359033383700,5.4633837890625,-0.6774444580078125,-0.066864013671875,0.7420654296875
1686445359043400700,5.473400634765625,-0.6807708740234375,-0.0662384033203125,0.742218017578125
1686445359053416700,5.483416748046875,-0.686126708984375,-0.0644683837890625,0.7408905029296875
1686445359063433700,5.493433837890625,-0.6867218017578125,-0.0653076171875,0.740570068359375
1686445359073449700,5.50344970703125,-0.6826019287109375,-0.0638885498046875,0.74267578125
1686445359083466800,5.513466796875,-0.6805267333984375,-0.06304931640625,0.7444000244140625
1686445359093483800,5.52348388671875,-0.6766204833984375,-0.062255859375,0.7443389892578125
1686445359103499800,5.533499755859375,-0.6729736328125,-0.06268310546875,0.7439117431640625
1686445359113516800,5.543516845703125,-0.66961669921875,-0.0630035400390625,0.7418365478515625
1686445359123533800,5.553533935546875,-0.6666107177734375,-0.061981201171875,0.7388458251953125
1686445359133549600,5.563549560546875,-0.6651763916015625,-0.062164306640625,0.7342681884765625
1686445359143566600,5.573566650390625,-0.6644134521484375,-0.06304931640625,0.7328033447265625
1686445359153583900,5.583583984375,-0.662017822265625,-0.062652587890625,0.7315216064453125
1686445359163599600,5.593599609375,-0.660797119140625,-0.062347412109375,0.7335052490234375
1686445359173616600,5.60361669921875,-0.661041259765625,-0.0611724853515625,0.7389373779296875
1686445359183634000,5.613634033203125,-0.66143798828125,-0.0589599609375,0.7425079345703125
1686445359193649700,5.623649658203125,-0.662109375,-0.0584564208984375,0.7446441650390625
1686445359203666700,5.633666748046875,-0.6645965576171875,-0.0583343505859375,0.7451934814453125
1686445359213683700,5.64368359375,-0.66326904296875,-0.058624267578125,0.7453765869140625
1686445359223699700,5.65369970703125,-0.6629180908203125,-0.0567169189453125,0.745025634765625
1686445359233716700,5.663716796875,-0.6636505126953125,-0.0549468994140625,0.7451934814453125
1686445359243733800,5.673733642578125,-0.663055419921875,-0.0545196533203125,0.7462921142578125
1686445359253749500,5.68374951171875,-0.6625823974609375,-0.0534820556640625,0.7473907470703125
1686445359263766800,5.693766845703125,-0.66094970703125,-0.054046630859375,0.7458648681640625
1686445359273783800,5.70378369140625,-0.6579437255859375,-0.056427001953125,0.7469635009765625
1686445359283799600,5.713799560546875,-0.655120849609375,-0.05712890625,0.748870849609375
1686445359293816800,5.72381689453125,-0.656158447265625,-0.0572052001953125,0.7521209716796875
1686445359303832800,5.733832763671875,-0.6588134765625,-0.055694580078125,0.7522430419921875
1686445359313849600,5.743849609375,-0.6620635986328125,-0.0557708740234375,0.751495361328125
1686445359323866600,5.75386669921875,-0.664093017578125,-0.056915283203125,0.7488861083984375
1686445359333883000,5.7638828125,-0.6641693115234375,-0.058990478515625,0.746063232421875
1686445359343899600,5.773899658203125,-0.6637115478515625,-0.059356689453125,0.7432403564453125
1686445359353916700,5.783916748046875,-0.6640625,-0.0596160888671875,0.744232177734375
1686445359363932700,5.7939326171875,-0.6645660400390625,-0.060211181640625,0.7449493408203125
1686445359373949700,5.80394970703125,-0.6652374267578125,-0.0587921142578125,0.7475128173828125
1686445359383966700,5.813966796875,-0.665283203125,-0.0581817626953125,0.7496185302734375
1686445359393982700,5.823982666015625,-0.665679931640625,-0.0571746826171875,0.7513580322265625
1686445359403999700,5.833999755859375,-0.665771484375,-0.0562896728515625,0.7505035400390625
1686445359414016800,5.844016845703125,-0.6651611328125,-0.054718017578125,0.7487335205078125
1686445359424032800,5.85403271484375,-0.666351318359375,-0.0544586181640625,0.74786376953125
1686445359434049500,5.864049560546875,-0.6673431396484375,-0.0552978515625,0.7450714111328125
1686445359444065800,5.874065673828125,-0.6672210693359375,-0.0561065673828125,0.7420806884765625
1686445359454082800,5.884082763671875,-0.668121337890625,-0.0572662353515625,0.7403106689453125
1686445359464099600,5.894099609375,-0.668060302734375,-0.058013916015625,0.739990234375
1686445359474115600,5.904115478515625,-0.66650390625,-0.059814453125,0.740447998046875
1686445359484132900,5.9141328125,-0.66558837890625,-0.0631561279296875,0.7401885986328125
1686445359494149600,5.924149658203125,-0.665771484375,-0.06463623046875,0.7388763427734375
1686445359504165600,5.93416552734375,-0.6656646728515625,-0.06378173828125,0.7376861572265625
1686445359514183000,5.944182861328125,-0.66583251953125,-0.063079833984375,0.7364349365234375
1686445359524199700,5.95419970703125,-0.6656951904296875,-0.0612335205078125,0.7363433837890625
1686445359534215700,5.964215576171875,-0.665313720703125,-0.062255859375,0.7392578125
1686445359544232700,5.974232666015625,-0.6628265380859375,-0.0626220703125,0.742431640625
1686445359554249700,5.984249755859375,-0.661468505859375,-0.0623626708984375,0.7440032958984375
1686445359564265500,5.994265380859375,-0.662322998046875,-0.060821533203125,0.744842529296875
1686445359574282800,6.00428271484375,-0.6635894775390625,-0.059844970703125,0.7447052001953125
1686445359584299500,6.014299560546875,-0.663360595703125,-0.058013916015625,0.74334716796875
1686445359594315500,6.0243154296875,-0.662506103515625,-0.0563201904296875,0.7434234619140625
1686445359604332800,6.034332763671875,-0.6630706787109375,-0.0558624267578125,0.7431793212890625
1686445359614349600,6.044349609375,-0.66473388671875,-0.0556488037109375,0.7429351806640625
1686445359624365600,6.054365478515625,-0.662567138671875,-0.0543060302734375,0.745635986328125
1686445359634382600,6.064382568359375,-0.6630859375,-0.05523681640625,0.747406005859375
1686445359644399600,6.074399658203125,-0.6656646728515625,-0.0556640625,0.74713134765625
1686445359654415600,6.08441552734375,-0.6673431396484375,-0.0554656982421875,0.7470550537109375
1686445359664432600,6.0944326171875,-0.6661529541015625,-0.056884765625,0.7460174560546875
1686445359674448400,6.104448486328125,-0.66558837890625,-0.0562286376953125,0.7458038330078125
1686445359684465700,6.114465576171875,-0.6638946533203125,-0.0567474365234375,0.7473297119140625
1686445359694482700,6.124482666015625,-0.6626434326171875,-0.0565338134765625,0.747955322265625
1686445359704498400,6.13449853515625,-0.6612701416015625,-0.058258056640625,0.7473907470703125
1686445359714515700,6.144515625,-0.6613616943359375,-0.05865478515625,0.74737548828125
1686445359724532500,6.154532470703125,-0.663177490234375,-0.05816650390625,0.747161865234375
1686445359734548500,6.164548583984375,-0.6671142578125,-0.058197021484375,0.7463836669921875
1686445359744565500,6.1745654296875,-0.6667022705078125,-0.0573272705078125,0.7449493408203125
1686445359754582500,6.18458251953125,-0.6652679443359375,-0.05743408203125,0.7445526123046875
1686445359764598500,6.1945986328125,-0.6645355224609375,-0.0578765869140625,0.7432098388671875
1686445359774615600,6.204615478515625,-0.663726806640625,-0.05816650390625,0.7452545166015625
1686445359784632600,6.214632568359375,-0.6633148193359375,-0.0584259033203125,0.744720458984375
1686445359794648600,6.224648681640625,-0.662750244140625,-0.060760498046875,0.7434844970703125
1686445359804665600,6.23466552734375,-0.6651763916015625,-0.061798095703125,0.74267578125
1686445359814682400,6.244682373046875,-0.666412353515625,-0.0616912841796875,0.7437286376953125
1686445359824698600,6.25469873046875,-0.6676788330078125,-0.0621185302734375,0.7432708740234375
1686445359834715600,6.264715576171875,-0.66766357421875,-0.0628204345703125,0.7415924072265625
1686445359844731600,6.274731689453125,-0.666473388671875,-0.0620880126953125,0.7405548095703125
1686445359854748400,6.28474853515625,-0.6652679443359375,-0.0602569580078125,0.7397918701171875
1686445359864765700,6.294765625,-0.664276123046875,-0.0587615966796875,0.740997314453125
1686445359874781700,6.30478173828125,-0.66180419921875,-0.0576934814453125,0.7430267333984375
1686445359884798500,6.314798583984375,-0.6606903076171875,-0.057647705078125,0.7440032958984375
1686445359894815700,6.324815673828125,-0.660980224609375,-0.0590362548828125,0.7443084716796875
1686445359904831700,6.334831787109375,-0.661895751953125,-0.06005859375,0.7427215576171875
1686445359914848500,6.3448486328125,-0.6628265380859375,-0.060821533203125,0.741729736328125
1686445359924865500,6.354865478515625,-0.6658477783203125,-0.059295654296875,0.7397003173828125
1686445359934881800,6.3648818359375,-0.6672515869140625,-0.0576629638671875,0.7393951416015625
1686445359944898600,6.374898681640625,-0.667327880859375,-0.057342529296875,0.741241455078125
1686445359954915600,6.38491552734375,-0.6673736572265625,-0.05694580078125,0.7449798583984375
1686445359964931600,6.394931640625,-0.665771484375,-0.057708740234375,0.7494354248046875
1686445359974948600,6.404948486328125,-0.6639404296875,-0.0582733154296875,0.751190185546875
1686445359984965600,6.414965576171875,-0.6647796630859375,-0.0587005615234375,0.7517852783203125
1686445359994981600,6.424981689453125,-0.664642333984375,-0.057586669921875,0.7506103515625
1686445360004998700,6.43499853515625,-0.6658782958984375,-0.05718994140625,0.7480010986328125
1686445360015014700,6.4450146484375,-0.6656036376953125,-0.056671142578125,0.746307373046875
1686445360025031700,6.45503173828125,-0.664337158203125,-0.057037353515625,0.7447509765625
1686445360035048400,6.46504833984375,-0.6619415283203125,-0.0580291748046875,0.74346923828125
1686445360045064700,6.475064697265625,-0.6613922119140625,-0.0573577880859375,0.7452545166015625
1686445360055081700,6.485081787109375,-0.661285400390625,-0.057586669921875,0.7472686767578125
1686445360065098500,6.495098388671875,-0.6606903076171875,-0.05865478515625,0.7489471435546875
1686445360075114500,6.505114501953125,-0.66070556640625,-0.0566253662109375,0.7505035400390625
1686445360085131500,6.515131591796875,-0.662109375,-0.058074951171875,0.7503509521484375
1686445360095148500,6.5251484375,-0.6641082763671875,-0.0585479736328125,0.748321533203125
1686445360105164500,6.53516455078125,-0.6642913818359375,-0.0591278076171875,0.7459869384765625
1686445360115181600,6.545181640625,-0.6625518798828125,-0.0590972900390625,0.7435455322265625
1686445360125198600,6.555198486328125,-0.660400390625,-0.0592803955078125,0.742401123046875
1686445360135214600,6.565214599609375,-0.6598358154296875,-0.0595550537109375,0.7432098388671875
1686445360145231400,6.5752314453125,-0.6606597900390625,-0.05975341796875,0.7437896728515625
1686445360155248600,6.58524853515625,-0.6625213623046875,-0.0604400634765625,0.742919921875
1686445360165264600,6.5952646484375,-0.6634521484375,-0.06011962890625,0.742706298828125
1686445360175281400,6.605281494140625,-0.6628875732421875,-0.0594635009765625,0.741851806640625
1686445360185298700,6.615298583984375,-0.663177490234375,-0.05963134765625,0.7414398193359375
1686445360195314700,6.625314697265625,-0.66400146484375,-0.0595550537109375,0.7429046630859375
1686445360205331500,6.63533154296875,-0.6631317138671875,-0.0587005615234375,0.7439117431640625
1686445360215347500,6.645347412109375,-0.66400146484375,-0.0596466064453125,0.7445831298828125
1686445360225364700,6.65536474609375,-0.664886474609375,-0.0607147216796875,0.7444000244140625
1686445360235381500,6.665381591796875,-0.667327880859375,-0.0603485107421875,0.7443389892578125
1686445360245397500,6.6753974609375,-0.6698760986328125,-0.060150146484375,0.7446441650390625
1686445360255414500,6.68541455078125,-0.6692962646484375,-0.0601959228515625,0.7427520751953125
1686445360265431600,6.695431640625,-0.667938232421875,-0.058563232421875,0.74151611328125
1686445360275447600,6.705447509765625,-0.66400146484375,-0.0577392578125,0.74285888671875
1686445360285464600,6.715464599609375,-0.66229248046875,-0.057830810546875,0.74444580078125
1686445360295481600,6.725481689453125,-0.6619873046875,-0.0583038330078125,0.747283935546875
1686445360305497600,6.73549755859375,-0.6617279052734375,-0.0586700439453125,0.7484588623046875
1686445360315514600,6.7455146484375,-0.6630401611328125,-0.0603179931640625,0.747650146484375
1686445360325531400,6.755531494140625,-0.66485595703125,-0.06146240234375,0.746368408203125
1686445360335547600,6.765547607421875,-0.66461181640625,-0.0604095458984375,0.745635986328125
1686445360345564700,6.775564697265625,-0.664642333984375,-0.0600738525390625,0.7454071044921875
1686445360355581400,6.78558154296875,-0.666168212890625,-0.058197021484375,0.7453155517578125
1686445360365597400,6.795597412109375,-0.665069580078125,-0.055633544921875,0.7453765869140625
1686445360375614700,6.80561474609375,-0.662811279296875,-0.055694580078125,0.746673583984375
1686445360385630700,6.815630615234375,-0.6614990234375,-0.05584716796875,0.7487640380859375
1686445360395647500,6.8256474609375,-0.6620635986328125,-0.0567169189453125,0.7519683837890625
1686445360405664800,6.835664794921875,-0.662750244140625,-0.0572357177734375,0.7510833740234375
1686445360415680800,6.8456806640625,-0.6645660400390625,-0.0578765869140625,0.747802734375
1686445360425697500,6.855697509765625,-0.6638336181640625,-0.05828857421875,0.7449493408203125
1686445360435714600,6.865714599609375,-0.6634368896484375,-0.058685302734375,0.7424468994140625
1686445360445730600,6.87573046875,-0.6651763916015625,-0.0594940185546875,0.7421112060546875
1686445360455747600,6.88574755859375,-0.6640167236328125,-0.060394287109375,0.74127197265625
1686445360465764600,6.8957646484375,-0.6623077392578125,-0.06085205078125,0.741729736328125
1686445360475780600,6.905780517578125,-0.662994384765625,-0.0614013671875,0.7431793212890625
1686445360485797600,6.915797607421875,-0.6636810302734375,-0.061767578125,0.7451019287109375
1686445360495814700,6.925814697265625,-0.6625213623046875,-0.06121826171875,0.7464141845703125
1686445360505830400,6.935830322265625,-0.6610260009765625,-0.0606536865234375,0.745513916015625
1686445360515847700,6.94584765625,-0.663482666015625,-0.0598297119140625,0.744384765625
1686445360525864700,6.95586474609375,-0.662933349609375,-0.0594940185546875,0.74395751953125
1686445360535880400,6.96588037109375,-0.6627044677734375,-0.0598297119140625,0.7419891357421875
1686445360545897500,6.9758974609375,-0.6635894775390625,-0.0597991943359375,0.741363525390625
1686445360555913700,6.985913818359375,-0.6637725830078125,-0.0599517822265625,0.7404327392578125
1686445360565930200,6.99593017578125,-0.6645660400390625,-0.0605926513671875,0.740509033203125
1686445360575947300,7.005947265625,-0.6659088134765625,-0.0598297119140625,0.741912841796875
1686445360585963300,7.01596337890625,-0.666229248046875,-0.0595245361328125,0.7435150146484375
1686445360595980300,7.025980224609375,-0.667694091796875,-0.0583648681640625,0.7466888427734375
1686445360605997000,7.0359970703125,-0.66741943359375,-0.0579376220703125,0.7484588623046875
1686445360616013300,7.046013427734375,-0.66729736328125,-0.05859375,0.7481536865234375
1686445360626030000,7.056030029296875,-0.6648712158203125,-0.0597991943359375,0.74603271484375
1686445360636047000,7.066047119140625,-0.662994384765625,-0.0590667724609375,0.74456787109375
1686445360646063000,7.07606298828125,-0.6612701416015625,-0.0587921142578125,0.7442474365234375
1686445360656080100,7.086080078125,-0.6591339111328125,-0.05889892578125,0.744415283203125
1686445360666097200,7.09609716796875,-0.65728759765625,-0.0601654052734375,0.7452545166015625
1686445360676113200,7.106113037109375,-0.6575164794921875,-0.0602874755859375,0.7455291748046875
1686445360686130200,7.116130126953125,-0.6594085693359375,-0.0603790283203125,0.74615478515625
1686445360696147200,7.126147216796875,-0.663238525390625,-0.0599822998046875,0.74609375
1686445360706163200,7.1361630859375,-0.666259765625,-0.05975341796875,0.746795654296875
1686445360716180000,7.146179931640625,-0.6658935546875,-0.0585174560546875,0.746124267578125
1686445360726197200,7.156197265625,-0.66473388671875,-0.058349609375,0.7462005615234375
1686445360736213200,7.166213134765625,-0.6621856689453125,-0.05877685546875,0.7469635009765625
1686445360746230000,7.17622998046875,-0.6606903076171875,-0.0577545166015625,0.748992919921875
1686445360756246000,7.18624609375,-0.6594390869140625,-0.058502197265625,0.7483673095703125
1686445360766263300,7.19626318359375,-0.6612091064453125,-0.05999755859375,0.7479705810546875
1686445360776280000,7.206280029296875,-0.663665771484375,-0.0605010986328125,0.7466888427734375
1686445360786296000,7.216296142578125,-0.6648101806640625,-0.0615997314453125,0.74420166015625
1686445360796313300,7.226313232421875,-0.66558837890625,-0.0612030029296875,0.7435302734375
1686445360806330000,7.236330078125,-0.663543701171875,-0.0604248046875,0.7441253662109375
1686445360816346000,7.24634619140625,-0.6610107421875,-0.0593109130859375,0.7457275390625
1686445360826363100,7.256363037109375,-0.66180419921875,-0.0574951171875,0.7485504150390625
1686445360836380200,7.266380126953125,-0.66046142578125,-0.0581512451171875,0.7482757568359375
1686445360846396200,7.276396240234375,-0.6602935791015625,-0.059722900390625,0.7475433349609375
1686445360856413200,7.2864130859375,-0.6613922119140625,-0.0596771240234375,0.7462005615234375
1686445360866430200,7.29643017578125,-0.663360595703125,-0.060211181640625,0.743804931640625
1686445360876446200,7.3064462890625,-0.6640777587890625,-0.060211181640625,0.74224853515625
1686445360886463200,7.316463134765625,-0.6631317138671875,-0.0599822998046875,0.741729736328125
1686445360896480300,7.326480224609375,-0.6620635986328125,-0.058349609375,0.7433013916015625
1686445360906496300,7.336496337890625,-0.663116455078125,-0.058013916015625,0.7454986572265625
1686445360916513300,7.34651318359375,-0.662567138671875,-0.05902099609375,0.7460784912109375
1686445360926529300,7.356529296875,-0.660675048828125,-0.0595245361328125,0.746612548828125
1686445360936546000,7.366546142578125,-0.6611328125,-0.0599365234375,0.7471923828125
1686445360946563300,7.376563232421875,-0.6634674072265625,-0.0603179931640625,0.7471160888671875
1686445360956579300,7.386579345703125,-0.666473388671875,-0.060089111328125,0.746246337890625
1686445360966596000,7.39659619140625,-0.6657257080078125,-0.06072998046875,0.7444915771484375
1686445360976613400,7.40661328125,-0.664215087890625,-0.0606842041015625,0.744140625
1686445360986629000,7.416629150390625,-0.6635589599609375,-0.06024169921875,0.7452850341796875
1686445360996646100,7.426646240234375,-0.6623077392578125,-0.059783935546875,0.7476959228515625
1686445361006663400,7.436663330078125,-0.6622161865234375,-0.0594635009765625,0.7480010986328125
1686445361016679200,7.44667919921875,-0.6618804931640625,-0.05950927734375,0.746917724609375
1686445361026696200,7.4566962890625,-0.662506103515625,-0.05914306640625,0.74658203125
1686445361036713200,7.466713134765625,-0.6626434326171875,-0.05963134765625,0.74658203125
1686445361046729000,7.47672900390625,-0.6629486083984375,-0.059844970703125,0.745758056640625
1686445361056746200,7.486746337890625,-0.6633148193359375,-0.06072998046875,0.745697021484375
1686445361066763300,7.49676318359375,-0.661102294921875,-0.060333251953125,0.7451324462890625
1686445361076779000,7.506779052734375,-0.66192626953125,-0.0601043701171875,0.745208740234375
1686445361086796300,7.51679638671875,-0.6623687744140625,-0.0599212646484375,0.745849609375
1686445361096813300,7.526813232421875,-0.661865234375,-0.0596160888671875,0.7449951171875
1686445361106829000,7.5368291015625,-0.661529541015625,-0.0582427978515625,0.7452239990234375
1686445361116846300,7.546846435546875,-0.6614990234375,-0.0579833984375,0.74517822265625
1686445361126862300,7.5568623046875,-0.6601409912109375,-0.0590362548828125,0.746246337890625
1686445361136879000,7.566879150390625,-0.6609344482421875,-0.0604705810546875,0.746185302734375
1686445361146896100,7.576896240234375,-0.6627655029296875,-0.059844970703125,0.746978759765625
1686445361156912000,7.586912109375,-0.664764404296875,-0.0595855712890625,0.747283935546875
1686445361166929200,7.59692919921875,-0.6640777587890625,-0.059539794921875,0.747161865234375
1686445361176946200,7.6069462890625,-0.664215087890625,-0.060028076171875,0.74676513671875
1686445361186962200,7.616962158203125,-0.66278076171875,-0.0602569580078125,0.7475433349609375
1686445361196979200,7.626979248046875,-0.6636810302734375,-0.0587310791015625,0.7470245361328125
1686445361206996200,7.636996337890625,-0.6627349853515625,-0.0583953857421875,0.7466888427734375
1686445361217012200,7.64701220703125,-0.6609649658203125,-0.05908203125,0.74755859375
1686445361227029000,7.657029052734375,-0.6613311767578125,-0.0594940185546875,0.747802734375
1686445361237046300,7.66704638671875,-0.660797119140625,-0.0594329833984375,0.747955322265625
1686445361247062300,7.677062255859375,-0.6621551513671875,-0.0593109130859375,0.7466278076171875
1686445361257079000,7.6870791015625,-0.661834716796875,-0.0601959228515625,0.7465057373046875
1686445361267096300,7.697096435546875,-0.662322998046875,-0.05987548828125,0.745147705078125
1686445361277112300,7.7071123046875,-0.66339111328125,-0.06072998046875,0.744781494140625
1686445361287129000,7.717129150390625,-0.662689208984375,-0.0606231689453125,0.745452880859375
1686445361297146400,7.727146484375,-0.6626129150390625,-0.0602264404296875,0.7461700439453125
1686445361307162400,7.737162353515625,-0.6637420654296875,-0.0601654052734375,0.745819091796875
1686445361317179100,7.74717919921875,-0.6631011962890625,-0.060211181640625,0.7460784912109375
1686445361327195100,7.757195068359375,-0.6634979248046875,-0.0603179931640625,0.7451934814453125
1686445361337212200,7.767212158203125,-0.6631317138671875,-0.059173583984375,0.743408203125
1686445361347229200,7.777229248046875,-0.66326904296875,-0.0594329833984375,0.7425994873046875
1686445361357245200,7.7872451171875,-0.6629638671875,-0.0599517822265625,0.74267578125
1686445361367262200,7.79726220703125,-0.6615447998046875,-0.0601043701171875,0.744354248046875
1686445361377279200,7.807279296875,-0.659942626953125,-0.0610809326171875,0.74542236328125
1686445361387295200,7.817295166015625,-0.659210205078125,-0.0616302490234375,0.74609375
1686445361397312300,7.827312255859375,-0.6612396240234375,-0.061767578125,0.7480316162109375
1686445361407329300,7.837329345703125,-0.662200927734375,-0.060546875,0.74932861328125
1686445361417345300,7.84734521484375,-0.6640167236328125,-0.060302734375,0.74859619140625
1686445361427362300,7.8573623046875,-0.6644439697265625,-0.0594482421875,0.7456207275390625
1686445361437379000,7.867379150390625,-0.6643829345703125,-0.0596160888671875,0.7442474365234375
1686445361447395000,7.87739501953125,-0.665130615234375,-0.05963134765625,0.7440338134765625
1686445361457412400,7.887412353515625,-0.665374755859375,-0.05743408203125,0.7472991943359375
1686445361467429000,7.89742919921875,-0.6642913818359375,-0.058074951171875,0.74884033203125
1686445361477445000,7.907445068359375,-0.6638336181640625,-0.057769775390625,0.7485198974609375
1686445361487462400,7.91746240234375,-0.6632537841796875,-0.05743408203125,0.7482757568359375
1686445361497478100,7.92747802734375,-0.664520263671875,-0.05718994140625,0.7484893798828125
1686445361507495200,7.9374951171875,-0.6628265380859375,-0.0574951171875,0.748321533203125
1686445361517512400,7.947512451171875,-0.6644744873046875,-0.0585479736328125,0.7474822998046875
1686445361527528200,7.957528076171875,-0.6667938232421875,-0.06048583984375,0.74658203125
1686445361537545200,7.967545166015625,-0.6666412353515625,-0.061431884765625,0.7448577880859375
1686445361547562200,7.977562255859375,-0.665374755859375,-0.0609283447265625,0.7441864013671875
1686445361557578000,7.987577880859375,-0.6637420654296875,-0.0605926513671875,0.74481201171875
1686445361567595500,7.997595458984375,-0.663238525390625,-0.06024169921875,0.7464447021484375
1686445361577612300,8.0076123046875,-0.660858154296875,-0.0595855712890625,0.7465972900390625
1686445361587628300,8.017628173828125,-0.658599853515625,-0.059356689453125,0.7462615966796875
1686445361597645600,8.0276455078125,-0.6578216552734375,-0.05987548828125,0.74639892578125
1686445361607661600,8.03766162109375,-0.6601409912109375,-0.0590667724609375,0.7455596923828125
1686445361617678300,8.04767822265625,-0.660125732421875,-0.058929443359375,0.74395751953125
1686445361627695600,8.057695556640626,-0.6593017578125,-0.0597381591796875,0.7433319091796875
1686445361637711600,8.067711669921875,-0.6603546142578125,-0.061981201171875,0.7431182861328125
1686445361647728400,8.077728271484375,-0.6622314453125,-0.0627593994140625,0.74298095703125
1686445361657745400,8.087745361328125,-0.6627960205078125,-0.06146240234375,0.7426300048828125
1686445361667761700,8.09776171875,-0.6623077392578125,-0.059661865234375,0.7436981201171875
1686445361677778400,8.1077783203125,-0.66302490234375,-0.0579376220703125,0.7471923828125
1686445361687795500,8.11779541015625,-0.6639556884765625,-0.05596923828125,0.7497100830078125
1686445361697811500,8.1278115234375,-0.663909912109375,-0.05596923828125,0.7512664794921875
1686445361707828500,8.137828369140625,-0.6626129150390625,-0.056671142578125,0.7521209716796875
1686445361717845500,8.147845458984374,-0.6595611572265625,-0.0570068359375,0.750701904296875
1686445361727861500,8.157861572265626,-0.657196044921875,-0.0578155517578125,0.7476654052734375
1686445361737878500,8.16787841796875,-0.65350341796875,-0.0579833984375,0.7471466064453125
1686445361747895600,8.1778955078125,-0.653228759765625,-0.0579681396484375,0.7464752197265625
1686445361757911600,8.18791162109375,-0.65423583984375,-0.0571441650390625,0.747528076171875
1686445361767928300,8.19792822265625,-0.654327392578125,-0.05810546875,0.7507171630859375
1686445361777945600,8.207945556640626,-0.6553802490234375,-0.0572662353515625,0.7519683837890625
1686445361787961600,8.217961669921875,-0.656219482421875,-0.0567779541015625,0.754364013671875
1686445361797978400,8.227978271484375,-0.657257080078125,-0.0553436279296875,0.75439453125
1686445361807994400,8.237994384765624,-0.6599884033203125,-0.055328369140625,0.754364013671875
1686445361818011600,8.24801171875,-0.6589813232421875,-0.05572509765625,0.7538299560546875
1686445361828028400,8.2580283203125,-0.65673828125,-0.0563812255859375,0.753021240234375
1686445361838044400,8.26804443359375,-0.6561737060546875,-0.0565032958984375,0.75042724609375
1686445361848061400,8.2780615234375,-0.656005859375,-0.0572357177734375,0.74871826171875
1686445361858078500,8.288078369140624,-0.6550140380859375,-0.0579986572265625,0.7481842041015625
1686445361868094500,8.298094482421876,-0.6555633544921875,-0.0572509765625,0.7498626708984375
1686445361878111500,8.308111572265625,-0.65667724609375,-0.05755615234375,0.750640869140625
1686445361888128500,8.31812841796875,-0.65771484375,-0.058807373046875,0.74993896484375
1686445361898144500,8.32814453125,-0.660736083984375,-0.0581817626953125,0.750152587890625
1686445361908161300,8.338161376953124,-0.6623382568359375,-0.057464599609375,0.7513580322265625
1686445361918178600,8.348178466796876,-0.6615142822265625,-0.0563812255859375,0.7522735595703125
1686445361928194600,8.358194580078125,-0.6610260009765625,-0.0565185546875,0.7522735595703125
1686445361938211300,8.36821142578125,-0.657989501953125,-0.05657958984375,0.7525177001953125
1686445361948228400,8.378228271484375,-0.65899658203125,-0.056182861328125,0.7514495849609375
1686445361958244600,8.38824462890625,-0.6590118408203125,-0.056365966796875,0.7484130859375
1686445361968261400,8.398261474609376,-0.6562652587890625,-0.0570220947265625,0.7464447021484375
1686445361978278400,8.4082783203125,-0.6559600830078125,-0.0582733154296875,0.74652099609375
1686445361988294400,8.41829443359375,-0.6569976806640625,-0.058197021484375,0.7465972900390625
1686445361998311400,8.4283115234375,-0.65716552734375,-0.058319091796875,0.7469635009765625
1686445362008327400,8.438327392578126,-0.65521240234375,-0.0601043701171875,0.7459564208984375
1686445362018344400,8.448344482421875,-0.6558380126953125,-0.06072998046875,0.7464599609375
1686445362028361500,8.458361572265625,-0.6576385498046875,-0.05975341796875,0.7479095458984375
1686445362038378500,8.46837841796875,-0.6606597900390625,-0.058807373046875,0.74908447265625
1686445362048394500,8.47839453125,-0.6620330810546875,-0.058685302734375,0.7507171630859375
1686445362058411300,8.488411376953126,-0.6645965576171875,-0.0583038330078125,0.749725341796875
1686445362068428500,8.498428466796875,-0.66387939453125,-0.0579986572265625,0.7481231689453125
1686445362078444500,8.508444580078125,-0.661529541015625,-0.057830810546875,0.7480621337890625
1686445362088461300,8.51846142578125,-0.659820556640625,-0.057281494140625,0.7481231689453125
1686445362098478600,8.528478515625,-0.657958984375,-0.0575408935546875,0.7493743896484375
1686445362108494600,8.53849462890625,-0.657073974609375,-0.055908203125,0.7508392333984375
1686445362118511400,8.548511474609375,-0.6573944091796875,-0.0561370849609375,0.75274658203125
1686445362128528400,8.5585283203125,-0.657440185546875,-0.0568389892578125,0.7518463134765625
1686445362138544600,8.568544677734375,-0.6593017578125,-0.05780029296875,0.7519073486328125
1686445362148561400,8.5785615234375,-0.6613311767578125,-0.0572509765625,0.7516326904296875
1686445362158577400,8.588577392578125,-0.66180419921875,-0.0572509765625,0.7487945556640625
1686445362168594400,8.598594482421875,-0.659332275390625,-0.0576324462890625,0.745391845703125
1686445362178611500,8.608611572265625,-0.6573028564453125,-0.0577392578125,0.7449951171875
1686445362188627500,8.61862744140625,-0.654144287109375,-0.057464599609375,0.7470703125
1686445362198644500,8.62864453125,-0.6545257568359375,-0.0578155517578125,0.750152587890625
1686445362208661500,8.63866162109375,-0.653350830078125,-0.0578155517578125,0.7506256103515625
1686445362218677500,8.648677490234375,-0.65643310546875,-0.058563232421875,0.7504425048828125
1686445362228694500,8.658694580078125,-0.6585693359375,-0.0583953857421875,0.750885009765625
1686445362238711300,8.668711181640624,-0.6609954833984375,-0.0570220947265625,0.7507171630859375
1686445362248727600,8.6787275390625,-0.6618194580078125,-0.0565643310546875,0.7510223388671875
1686445362258744600,8.68874462890625,-0.662139892578125,-0.05609130859375,0.75
1686445362268761300,8.69876123046875,-0.6609649658203125,-0.05682373046875,0.74932861328125
1686445362278777300,8.70877734375,-0.6590576171875,-0.0576171875,0.749481201171875
1686445362288794600,8.718794677734374,-0.658905029296875,-0.0576324462890625,0.7499237060546875
1686445362298811400,8.728811279296876,-0.6577911376953125,-0.0579071044921875,0.74957275390625
1686445362308827400,8.738827392578125,-0.6571502685546875,-0.0584869384765625,0.74951171875
1686445362318844700,8.7488447265625,-0.6574859619140625,-0.0587005615234375,0.749420166015625
1686445362328861400,8.758861328125,-0.660400390625,-0.0579376220703125,0.7487030029296875
1686445362338877400,8.76887744140625,-0.662322998046875,-0.0579376220703125,0.7475738525390625
1686445362348894500,8.77889453125,-0.6619110107421875,-0.0594329833984375,0.7460479736328125
1686445362358911500,8.788911376953125,-0.6613922119140625,-0.059783935546875,0.7456817626953125
1686445362368927500,8.798927490234375,-0.6605682373046875,-0.058990478515625,0.7463531494140625
1686445362378944500,8.808944580078125,-0.6603546142578125,-0.058013916015625,0.748321533203125
1686445362388961500,8.81896142578125,-0.6610107421875,-0.056365966796875,0.7505950927734375
1686445362398977500,8.8289775390625,-0.66143798828125,-0.057952880859375,0.7525177001953125
1686445362408994600,8.83899462890625,-0.6612701416015625,-0.05810546875,0.7518310546875
1686445362419011300,8.84901123046875,-0.6623687744140625,-0.0573272705078125,0.748046875
1686445362429027600,8.859027587890624,-0.6613311767578125,-0.0551300048828125,0.7448577880859375
1686445362439044400,8.86904443359375,-0.659088134765625,-0.05517578125,0.7436676025390625
1686445362449060400,8.879060302734375,-0.656585693359375,-0.054962158203125,0.7457122802734375
1686445362459077400,8.889077392578125,-0.6546173095703125,-0.0572967529296875,0.7477874755859375
1686445362469094400,8.899094482421875,-0.653289794921875,-0.0585784912109375,0.7496490478515625
1686445362479110400,8.9091103515625,-0.654815673828125,-0.059173583984375,0.7513885498046875
1686445362489127400,8.91912744140625,-0.65728759765625,-0.0594940185546875,0.7515716552734375
1686445362499144400,8.92914453125,-0.658966064453125,-0.058685302734375,0.7509918212890625
1686445362509160400,8.939160400390625,-0.66241455078125,-0.05755615234375,0.7495269775390625
1686445362519177500,8.949177490234375,-0.6637725830078125,-0.0552825927734375,0.7484130859375
1686445362529194200,8.9591943359375,-0.6625518798828125,-0.053253173828125,0.7485198974609375
1686445362539210500,8.96921044921875,-0.6612396240234375,-0.0547943115234375,0.7484588623046875
1686445362549227500,8.9792275390625,-0.660064697265625,-0.0558624267578125,0.75128173828125
1686445362559244300,8.989244384765625,-0.6583404541015625,-0.054840087890625,0.75201416015625
1686445362569260300,8.99926025390625,-0.65972900390625,-0.053741455078125,0.751983642578125
1686445362579277600,9.009277587890624,-0.659881591796875,-0.0546417236328125,0.751922607421875
1686445362589294300,9.01929443359375,-0.659271240234375,-0.056243896484375,0.7508392333984375
1686445362599310300,9.029310302734375,-0.6591796875,-0.05889892578125,0.74871826171875
1686445362609327600,9.03932763671875,-0.6613006591796875,-0.0604400634765625,0.74835205078125
1686445362619344400,9.049344482421875,-0.663482666015625,-0.0607452392578125,0.748046875
1686445362629360400,9.0593603515625,-0.663055419921875,-0.059600830078125,0.7476043701171875
1686445362639377400,9.06937744140625,-0.661773681640625,-0.0587921142578125,0.74676513671875
1686445362649394400,9.07939453125,-0.6601104736328125,-0.0589141845703125,0.7479400634765625
1686445362659410400,9.089410400390625,-0.658843994140625,-0.0568695068359375,0.7491302490234375
1686445362669427500,9.099427490234374,-0.65582275390625,-0.057769775390625,0.750732421875
1686445362679444500,9.109444580078126,-0.6541290283203125,-0.057403564453125,0.7491607666015625
1686445362689460500,9.11946044921875,-0.652984619140625,-0.0566864013671875,0.748138427734375
1686445362699477500,9.1294775390625,-0.6552581787109375,-0.0552215576171875,0.7469329833984375
1686445362709494300,9.139494384765625,-0.658721923828125,-0.0549774169921875,0.7458343505859375
1686445362719510500,9.149510498046874,-0.661529541015625,-0.0558013916015625,0.743682861328125
1686445362729527600,9.159527587890626,-0.66455078125,-0.0566558837890625,0.7427215576171875
1686445362739544300,9.16954443359375,-0.66461181640625,-0.0576934814453125,0.7428436279296875
1686445362749560300,9.179560302734375,-0.663848876953125,-0.0578765869140625,0.7433929443359375
1686445362759577600,9.18957763671875,-0.6627197265625,-0.05804443359375,0.7462310791015625
1686445362769594400,9.199594482421874,-0.6599578857421875,-0.056060791015625,0.7493133544921875
1686445362779610400,9.2096103515625,-0.6554718017578125,-0.05645751953125,0.7513275146484375
1686445362789627600,9.219627685546875,-0.6547393798828125,-0.0562591552734375,0.7518157958984375
1686445362799643400,9.229643310546875,-0.6561737060546875,-0.0569610595703125,0.75238037109375
1686445362809660400,9.239660400390624,-0.6563262939453125,-0.057281494140625,0.7506103515625
1686445362819677400,9.249677490234374,-0.6581878662109375,-0.0582733154296875,0.7487030029296875
1686445362829693400,9.259693359375,-0.662139892578125,-0.05859375,0.7472686767578125
1686445362839710500,9.26971044921875,-0.6613311767578125,-0.0581207275390625,0.7460784912109375
1686445362849727500,9.2797275390625,-0.65911865234375,-0.0580902099609375,0.7473602294921875
1686445362859743200,9.2897431640625,-0.658477783203125,-0.058013916015625,0.7487335205078125
1686445362869760500,9.299760498046876,-0.6575469970703125,-0.0565185546875,0.75146484375
1686445362879777500,9.309777587890625,-0.65802001953125,-0.0555572509765625,0.75299072265625
1686445362889793300,9.319793212890625,-0.6573333740234375,-0.0559234619140625,0.7537841796875
1686445362899810600,9.329810546875,-0.6610565185546875,-0.056304931640625,0.7510528564453125
1686445362909827600,9.33982763671875,-0.660736083984375,-0.0574951171875,0.751373291015625
1686445362919843300,9.34984326171875,-0.6620025634765625,-0.058074951171875,0.7501373291015625
1686445362929860400,9.3598603515625,-0.66278076171875,-0.0587921142578125,0.749542236328125
1686445362939877600,9.369877685546875,-0.6638336181640625,-0.058319091796875,0.74896240234375
1686445362949893400,9.379893310546874,-0.6629638671875,-0.05743408203125,0.7477264404296875
1686445362959910400,9.389910400390624,-0.6609954833984375,-0.0564727783203125,0.747344970703125
1686445362969927400,9.399927490234376,-0.6579742431640625,-0.056396484375,0.7478790283203125
1686445362979943400,9.409943359375,-0.6549530029296875,-0.0551300048828125,0.747955322265625
1686445362989960400,9.41996044921875,-0.654022216796875,-0.0546722412109375,0.74932861328125
1686445362999977500,9.4299775390625,-0.6553955078125,-0.0555419921875,0.748138427734375
1686445363009993500,9.439993408203126,-0.656341552734375,-0.056976318359375,0.746551513671875
1686445363020010500,9.450010498046876,-0.6595306396484375,-0.0576629638671875,0.7455291748046875
1686445363030027300,9.46002734375,-0.660797119140625,-0.05792236328125,0.7455291748046875
1686445363040043300,9.470043212890625,-0.6612701416015625,-0.0573883056640625,0.746826171875
1686445363050060500,9.480060546875,-0.662567138671875,-0.057586669921875,0.74798583984375
1686445363060077300,9.490077392578126,-0.659576416015625,-0.058074951171875,0.7495574951171875
1686445363070093300,9.50009326171875,-0.6584320068359375,-0.05810546875,0.7488250732421875
1686445363080110600,9.510110595703125,-0.6589202880859375,-0.05810546875,0.74835205078125
1686445363090127400,9.52012744140625,-0.6587982177734375,-0.0582122802734375,0.7467193603515625
1686445363100143400,9.530143310546874,-0.6581573486328125,-0.0582427978515625,0.7462921142578125
1686445363110160400,9.540160400390626,-0.658843994140625,-0.0587921142578125,0.746124267578125
1686445363120176600,9.5501767578125,-0.6586456298828125,-0.058746337890625,0.7466583251953125
1686445363130193400,9.560193359375,-0.6593475341796875,-0.057586669921875,0.750091552734375
1686445363140210400,9.57021044921875,-0.659698486328125,-0.0570068359375,0.7521209716796875
1686445363150226400,9.580226318359376,-0.661773681640625,-0.057281494140625,0.7519683837890625
1686445363160243500,9.590243408203126,-0.66400146484375,-0.05743408203125,0.750946044921875
1686445363170260500,9.600260498046875,-0.6647796630859375,-0.0568084716796875,0.75115966796875
1686445363180276500,9.6102763671875,-0.6642608642578125,-0.0555877685546875,0.75
1686445363190293500,9.62029345703125,-0.662567138671875,-0.055877685546875,0.7501220703125
1686445363200310500,9.630310546875,-0.659454345703125,-0.0556488037109375,0.74945068359375
1686445363210326500,9.640326416015625,-0.65704345703125,-0.0576019287109375,0.749114990234375
1686445363220343300,9.65034326171875,-0.656158447265625,-0.0578460693359375,0.7486572265625
1686445363230360600,9.660360595703125,-0.65673828125,-0.0581207275390625,0.7486114501953125
1686445363240376600,9.67037646484375,-0.658172607421875,-0.057098388671875,0.747894287109375
1686445363250393300,9.680393310546876,-0.65869140625,-0.0562286376953125,0.7481536865234375
1686445363260410600,9.69041064453125,-0.65869140625,-0.0564117431640625,0.7488555908203125
1686445363270426600,9.700426513671875,-0.6569366455078125,-0.05792236328125,0.74884033203125
1686445363280443400,9.710443359375,-0.6580657958984375,-0.05780029296875,0.7492218017578125
1686445363290460400,9.72046044921875,-0.65838623046875,-0.0571746826171875,0.7495574951171875
1686445363300476700,9.7304765625,-0.65863037109375,-0.0574493408203125,0.7496185302734375
1686445363310493400,9.740493408203125,-0.6597747802734375,-0.05755615234375,0.7491607666015625
1686445363320510500,9.750510498046875,-0.66064453125,-0.0583343505859375,0.747314453125
1686445363330526500,9.7605263671875,-0.661865234375,-0.0580596923828125,0.7483062744140625
1686445363340543500,9.77054345703125,-0.66168212890625,-0.0570831298828125,0.74713134765625
1686445363350560500,9.780560546875,-0.660675048828125,-0.05865478515625,0.747039794921875
1686445363360576500,9.790576416015625,-0.6593017578125,-0.0580902099609375,0.7481536865234375
1686445363370593500,9.800593505859375,-0.6587371826171875,-0.0577239990234375,0.748199462890625
1686445363380610600,9.810610595703125,-0.659759521484375,-0.0581512451171875,0.7497100830078125
1686445363390626300,9.820626220703126,-0.6602630615234375,-0.058074951171875,0.749664306640625
1686445363400643300,9.830643310546876,-0.6613006591796875,-0.057586669921875,0.7484893798828125
1686445363410660600,9.84066064453125,-0.6617889404296875,-0.0587158203125,0.748016357421875
1686445363420676400,9.85067626953125,-0.661407470703125,-0.0570831298828125,0.745819091796875
1686445363430693400,9.860693359375,-0.65966796875,-0.056610107421875,0.748291015625
1686445363440709400,9.87070947265625,-0.6604156494140625,-0.056640625,0.7501220703125
1686445363450726400,9.880726318359375,-0.66021728515625,-0.057403564453125,0.75048828125
1686445363460743400,9.890743408203125,-0.6585540771484375,-0.0593109130859375,0.75128173828125
1686445363470759400,9.900759521484375,-0.659210205078125,-0.0614471435546875,0.752044677734375
1686445363480776400,9.9107763671875,-0.6603546142578125,-0.06195068359375,0.749969482421875
1686445363490793500,9.92079345703125,-0.6611785888671875,-0.0586700439453125,0.7493743896484375
1686445363500809500,9.9308095703125,-0.661102294921875,-0.05401611328125,0.7489776611328125
1686445363510826200,9.940826171875,-0.6606292724609375,-0.05218505859375,0.7488861083984375
1686445363520843500,9.950843505859375,-0.6596527099609375,-0.0531158447265625,0.747406005859375
1686445363530859500,9.960859619140624,-0.6565093994140625,-0.0559234619140625,0.744384765625
1686445363540876300,9.970876220703126,-0.6557769775390625,-0.0596466064453125,0.7435150146484375
1686445363550893600,9.9808935546875,-0.6564483642578125,-0.061309814453125,0.7435302734375
1686445363560909600,9.99090966796875,-0.6543426513671875,-0.062347412109375,0.744720458984375
1686445363570926300,10.00092626953125,-0.65386962890625,-0.06146240234375,0.747283935546875
1686445363580943400,10.010943359375,-0.6551513671875,-0.0599365234375,0.7495880126953125
1686445363590959400,10.02095947265625,-0.6579437255859375,-0.0574493408203125,0.7512359619140625
1686445363600976100,10.03097607421875,-0.6603851318359375,-0.055694580078125,0.7523345947265625
1686445363610993400,10.040993408203125,-0.6609344482421875,-0.0551300048828125,0.7521514892578125
1686445363621009400,10.051009521484374,-0.66290283203125,-0.0555267333984375,0.752960205078125
1686445363631026200,10.061026123046876,-0.66400146484375,-0.054718017578125,0.753204345703125
1686445363641043500,10.07104345703125,-0.6647796630859375,-0.0552825927734375,0.7500762939453125
1686445363651059500,10.0810595703125,-0.6649627685546875,-0.0555572509765625,0.749298095703125
1686445363661076200,10.091076171875,-0.663604736328125,-0.0554046630859375,0.747955322265625
1686445363671093200,10.10109326171875,-0.6624755859375,-0.055267333984375,0.75079345703125
1686445363681109500,10.111109619140626,-0.65985107421875,-0.05517578125,0.7521820068359375
1686445363691126300,10.121126220703125,-0.6604461669921875,-0.056976318359375,0.7536468505859375
1686445363701143300,10.131143310546875,-0.661163330078125,-0.058563232421875,0.752593994140625
1686445363711159300,10.1411591796875,-0.659393310546875,-0.0588836669921875,0.7500457763671875
1686445363721176300,10.15117626953125,-0.659393310546875,-0.05987548828125,0.7493438720703125
1686445363731193300,10.161193359375,-0.6592864990234375,-0.0615692138671875,0.7466583251953125
1686445363741209300,10.171209228515625,-0.6576995849609375,-0.06341552734375,0.7459259033203125
1686445363751226400,10.181226318359375,-0.6575164794921875,-0.0628204345703125,0.745635986328125
1686445363761242400,10.191242431640624,-0.65606689453125,-0.0597076416015625,0.746185302734375
1686445363771259400,10.20125927734375,-0.656402587890625,-0.0581817626953125,0.7480621337890625
1686445363781276200,10.211276123046876,-0.657012939453125,-0.0554962158203125,0.7481689453125
1686445363791292400,10.22129248046875,-0.659423828125,-0.055633544921875,0.74688720703125
1686445363801309400,10.231309326171875,-0.6616973876953125,-0.0547637939453125,0.7448272705078125
1686445363811326200,10.241326171875,-0.661956787109375,-0.0553436279296875,0.7422027587890625
1686445363821342200,10.25134228515625,-0.6620941162109375,-0.0572509765625,0.741546630859375
1686445363831359500,10.261359375,-0.660491943359375,-0.0592498779296875,0.7427978515625
1686445363841376300,10.271376220703125,-0.660797119140625,-0.060455322265625,0.744232177734375
1686445363851392300,10.281392333984375,-0.660400390625,-0.060302734375,0.744232177734375
1686445363861409500,10.291409423828124,-0.6599884033203125,-0.0590362548828125,0.7459259033203125
1686445363871426300,10.30142626953125,-0.661163330078125,-0.0576019287109375,0.7476348876953125
1686445363881442300,10.3114423828125,-0.6607818603515625,-0.0567169189453125,0.7487030029296875
1686445363891459300,10.321459228515625,-0.659576416015625,-0.05816650390625,0.748565673828125
1686445363901476400,10.331476318359375,-0.658447265625,-0.0581817626953125,0.7478179931640625
1686445363911492400,10.341492431640624,-0.657928466796875,-0.0582733154296875,0.7469940185546875
1686445363921509400,10.35150927734375,-0.6597747802734375,-0.0573272705078125,0.747711181640625
1686445363931526400,10.3615263671875,-0.6607818603515625,-0.058349609375,0.749114990234375
1686445363941542400,10.37154248046875,-0.6609344482421875,-0.058197021484375,0.7500762939453125
1686445363951559400,10.381559326171875,-0.6604156494140625,-0.0579986572265625,0.7511749267578125
1686445363961576200,10.391576171875,-0.6591644287109375,-0.0577545166015625,0.7527618408203125
1686445363971592400,10.401592529296876,-0.658660888671875,-0.0578765869140625,0.753265380859375
1686445363981609500,10.411609375,-0.660797119140625,-0.0570220947265625,0.753753662109375
1686445363991626200,10.421626220703125,-0.6611480712890625,-0.057037353515625,0.7523651123046875
1686445364001642200,10.431642333984374,-0.661376953125,-0.059112548828125,0.7491912841796875
1686445364011659300,10.4416591796875,-0.6622161865234375,-0.058990478515625,0.7451171875
1686445364021676300,10.45167626953125,-0.6621856689453125,-0.0574951171875,0.745697021484375
1686445364031692300,10.4616923828125,-0.6635284423828125,-0.05767822265625,0.74786376953125
1686445364041709300,10.471709228515625,-0.6622314453125,-0.058013916015625,0.747772216796875
1686445364051726300,10.481726318359375,-0.661224365234375,-0.0599212646484375,0.750640869140625
1686445364061742300,10.491742431640626,-0.661712646484375,-0.0624237060546875,0.7492218017578125
1686445364071759000,10.501759033203125,-0.66033935546875,-0.0602264404296875,0.743499755859375
1686445364081775400,10.511775390625,-0.660400390625,-0.0547637939453125,0.7430877685546875
1686445364091792400,10.52179248046875,-0.6620025634765625,-0.0546112060546875,0.7440185546875
1686445364101809200,10.53180908203125,-0.6596527099609375,-0.054412841796875,0.746490478515625
1686445364111825200,10.5418251953125,-0.656768798828125,-0.0559539794921875,0.749237060546875
1686445364121842400,10.551842529296875,-0.6557769775390625,-0.059967041015625,0.7497406005859375
1686445364131859200,10.561859130859375,-0.657958984375,-0.061798095703125,0.748291015625
1686445364141875200,10.571875244140625,-0.6618499755859375,-0.0612030029296875,0.745941162109375
1686445364151892500,10.581892578125,-0.6614990234375,-0.0612945556640625,0.743896484375
1686445364161909200,10.5919091796875,-0.6602325439453125,-0.062469482421875,0.743865966796875
1686445364171925200,10.60192529296875,-0.6592254638671875,-0.06005859375,0.7449951171875
1686445364181942300,10.6119423828125,-0.6594696044921875,-0.0568389892578125,0.749969482421875
1686445364191959300,10.621959228515625,-0.6600341796875,-0.0561981201171875,0.7522735595703125
1686445364201975300,10.631975341796876,-0.661285400390625,-0.05755615234375,0.752410888671875
1686445364211992300,10.641992431640626,-0.6581573486328125,-0.0588836669921875,0.75103759765625
1686445364222009300,10.65200927734375,-0.6590423583984375,-0.0578155517578125,0.7497100830078125
1686445364232025300,10.662025390625,-0.65899658203125,-0.0575408935546875,0.749298095703125
1686445364242042400,10.67204248046875,-0.660675048828125,-0.058197021484375,0.747314453125
1686445364252059100,10.68205908203125,-0.662567138671875,-0.0581207275390625,0.74615478515625
1686445364262075400,10.692075439453125,-0.6633758544921875,-0.0577392578125,0.7460784912109375
1686445364272092400,10.702092529296875,-0.6638946533203125,-0.05792236328125,0.7476043701171875
1686445364282109200,10.712109130859375,-0.6610870361328125,-0.0572052001953125,0.74871826171875
1686445364292125200,10.722125244140624,-0.66021728515625,-0.0579833984375,0.7512359619140625
1686445364302142500,10.732142578125,-0.6599273681640625,-0.0583343505859375,0.7523193359375
1686445364312159200,10.7421591796875,-0.6616668701171875,-0.0591278076171875,0.7519989013671875
1686445364322175200,10.75217529296875,-0.659271240234375,-0.0600128173828125,0.750762939453125
1686445364332192500,10.762192626953125,-0.65673828125,-0.0611419677734375,0.747833251953125
1686445364342209300,10.772209228515624,-0.6549530029296875,-0.0590362548828125,0.7470245361328125
1686445364352225300,10.782225341796876,-0.6560211181640625,-0.058929443359375,0.745513916015625
1686445364362242300,10.7922421875,-0.6576080322265625,-0.057647705078125,0.74627685546875
1686445364372259300,10.80225927734375,-0.6593017578125,-0.0570831298828125,0.7463226318359375
1686445364382275300,10.812275390625,-0.6593475341796875,-0.057647705078125,0.7472381591796875
1686445364392292400,10.822292236328124,-0.66021728515625,-0.0580902099609375,0.7485198974609375
1686445364402309400,10.832309326171876,-0.6585235595703125,-0.059234619140625,0.7482757568359375
1686445364412325400,10.842325439453125,-0.6579132080078125,-0.0599212646484375,0.7477264404296875
1686445364422342400,10.85234228515625,-0.6582183837890625,-0.058349609375,0.7487945556640625
1686445364432359200,10.862359130859375,-0.661895751953125,-0.057373046875,0.74853515625
1686445364442375400,10.87237548828125,-0.6639251708984375,-0.0576934814453125,0.748199462890625
1686445364452392400,10.882392333984376,-0.66290283203125,-0.0580291748046875,0.746307373046875
1686445364462408200,10.892408203125,-0.6611328125,-0.059844970703125,0.7462921142578125
1686445364472425200,10.90242529296875,-0.6605987548828125,-0.0593414306640625,0.74871826171875
1686445364482442500,10.9124423828125,-0.6616973876953125,-0.0595245361328125,0.7508697509765625
1686445364492458200,10.922458251953126,-0.662200927734375,-0.0607757568359375,0.749053955078125
1686445364502475300,10.932475341796875,-0.661651611328125,-0.0613555908203125,0.747772216796875
1686445364512492500,10.942492431640625,-0.6594085693359375,-0.0595855712890625,0.745880126953125
1686445364522508300,10.95250830078125,-0.66094970703125,-0.0574951171875,0.748077392578125
1686445364532525300,10.962525390625,-0.6631622314453125,-0.05780029296875,0.7498321533203125
1686445364542542300,10.972542236328126,-0.6639404296875,-0.0595245361328125,0.7493896484375
1686445364552558300,10.982558349609375,-0.662933349609375,-0.0591278076171875,0.7478790283203125
1686445364562574800,10.992574951171875,-0.66131591796875,-0.0596160888671875,0.7483062744140625
1686445364572591900,11.002591796875,-0.6607513427734375,-0.0583038330078125,0.7485504150390625
1686445364582608000,11.01260791015625,-0.6595611572265625,-0.05780029296875,0.7488861083984375
1686445364592625000,11.022625,-0.6575469970703125,-0.057098388671875,0.7491607666015625
1686445364602642000,11.032641845703125,-0.6569366455078125,-0.0585784912109375,0.7489776611328125
1686445364612657700,11.04265771484375,-0.6577301025390625,-0.0591888427734375,0.74786376953125
1686445364622675000,11.052675048828124,-0.6573638916015625,-0.0583038330078125,0.7479400634765625
1686445364632692000,11.06269189453125,-0.658660888671875,-0.0582733154296875,0.749237060546875
1686445364642707700,11.072707763671875,-0.6607513427734375,-0.0576324462890625,0.7485504150390625
1686445364652724700,11.082724853515625,-0.6591033935546875,-0.056427001953125,0.747772216796875
1686445364662742000,11.092741943359375,-0.6583404541015625,-0.056854248046875,0.747100830078125
1686445364672757800,11.1027578125,-0.6587677001953125,-0.05731201171875,0.7484283447265625
1686445364682774800,11.11277490234375,-0.6594696044921875,-0.0580902099609375,0.74859619140625
1686445364692792000,11.1227919921875,-0.6584625244140625,-0.058013916015625,0.7476348876953125
1686445364702807800,11.132807861328125,-0.6592254638671875,-0.0590667724609375,0.746337890625
1686445364712824800,11.142824951171875,-0.6598052978515625,-0.059783935546875,0.746246337890625
1686445364722841900,11.152841796875,-0.6576690673828125,-0.061676025390625,0.7462615966796875
1686445364732857900,11.16285791015625,-0.657196044921875,-0.0616302490234375,0.7473907470703125
1686445364742875000,11.172875,-0.6607818603515625,-0.060272216796875,0.74859619140625
1686445364752892000,11.182891845703125,-0.6646575927734375,-0.0587615966796875,0.7488555908203125
1686445364762907600,11.19290771484375,-0.663177490234375,-0.0582427978515625,0.7479095458984375
1686445364772925000,11.202925048828124,-0.6625823974609375,-0.0579376220703125,0.7481842041015625
1686445364782941000,11.21294091796875,-0.662445068359375,-0.0577850341796875,0.7512969970703125
1686445364792957700,11.222957763671875,-0.6641845703125,-0.0566558837890625,0.7534332275390625
1686445364802975000,11.23297509765625,-0.664886474609375,-0.05596923828125,0.751190185546875
1686445364812991000,11.242990966796874,-0.6648101806640625,-0.0566864013671875,0.7484893798828125
1686445364823007700,11.2530078125,-0.66375732421875,-0.0564727783203125,0.7469329833984375
1686445364833024800,11.263024658203125,-0.6635284423828125,-0.0578765869140625,0.747100830078125
1686445364843041000,11.273041015625,-0.66290283203125,-0.0582275390625,0.7483673095703125
1686445364853057800,11.283057861328125,-0.661834716796875,-0.0586090087890625,0.748443603515625
1686445364863074800,11.29307470703125,-0.661468505859375,-0.059844970703125,0.7462158203125
1686445364873090800,11.3030908203125,-0.6589813232421875,-0.0609588623046875,0.744537353515625
1686445364883107800,11.31310791015625,-0.657623291015625,-0.0613555908203125,0.7451019287109375
1686445364893124900,11.323124755859375,-0.657867431640625,-0.06219482421875,0.746429443359375
1686445364903140900,11.333140869140625,-0.6580047607421875,-0.0609588623046875,0.7479095458984375
1686445364913158000,11.343157958984374,-0.656585693359375,-0.0601806640625,0.7478485107421875
1686445364923175000,11.3531748046875,-0.6555328369140625,-0.0601654052734375,0.7489471435546875
1686445364933191000,11.36319091796875,-0.658355712890625,-0.0581207275390625,0.749420166015625
1686445364943207700,11.373207763671875,-0.6622467041015625,-0.0568084716796875,0.7494964599609375
1686445364953225000,11.383224853515625,-0.661895751953125,-0.0556793212890625,0.7493133544921875
1686445364963241000,11.393240966796874,-0.6624298095703125,-0.05560302734375,0.7480926513671875
1686445364973257700,11.4032578125,-0.66156005859375,-0.05487060546875,0.748779296875
1686445364983275000,11.41327490234375,-0.65838623046875,-0.0558624267578125,0.7472991943359375
1686445364993291000,11.423291015625,-0.654693603515625,-0.0556182861328125,0.7480010986328125
1686445365003307800,11.433307861328124,-0.6531982421875,-0.0561065673828125,0.749237060546875
1686445365013324800,11.44332470703125,-0.6538848876953125,-0.05706787109375,0.7502593994140625
1686445365023341000,11.453341064453125,-0.65167236328125,-0.0579071044921875,0.75030517578125
1686445365033357800,11.46335791015625,-0.6517333984375,-0.0585479736328125,0.74859619140625
1686445365043374800,11.473374755859375,-0.6561126708984375,-0.0585479736328125,0.746368408203125
1686445365053390800,11.483390869140624,-0.6598052978515625,-0.0584564208984375,0.7473602294921875
1686445365063407900,11.493407958984376,-0.661346435546875,-0.057159423828125,0.748321533203125
1686445365073425000,11.5034248046875,-0.663116455078125,-0.0568084716796875,0.7486419677734375
1686445365083441000,11.51344091796875,-0.6632843017578125,-0.0572052001953125,0.7507781982421875
1686445365093458000,11.5234580078125,-0.6640625,-0.0558319091796875,0.75225830078125
1686445365103475000,11.533474853515624,-0.6638031005859375,-0.056060791015625,0.752532958984375
1686445365113491000,11.543490966796876,-0.6589508056640625,-0.056549072265625,0.7517547607421875
1686445365123507700,11.5535078125,-0.6568450927734375,-0.0584564208984375,0.75067138671875
1686445365133525000,11.56352490234375,-0.6576995849609375,-0.058837890625,0.75054931640625
1686445365143540700,11.573540771484375,-0.6596527099609375,-0.0595703125,0.7510223388671875
1686445365153557800,11.583557861328124,-0.6596527099609375,-0.0599822998046875,0.74920654296875
1686445365163575000,11.593574951171876,-0.659210205078125,-0.0602874755859375,0.7482147216796875
1686445365173590800,11.6035908203125,-0.6603851318359375,-0.059967041015625,0.748443603515625
1686445365183607800,11.61360791015625,-0.6605377197265625,-0.0588226318359375,0.7491302490234375
1686445365193624800,11.623624755859375,-0.662689208984375,-0.0590057373046875,0.749969482421875
1686445365203640800,11.633640869140624,-0.6641998291015625,-0.0592803955078125,0.7497406005859375
1686445365213657900,11.643657958984376,-0.6634368896484375,-0.0583953857421875,0.7486419677734375
1686445365223673900,11.653673828125,-0.659393310546875,-0.057861328125,0.74627685546875
1686445365233690600,11.663690673828125,-0.6569976806640625,-0.057891845703125,0.7451324462890625
1686445365243708000,11.6737080078125,-0.654937744140625,-0.0571136474609375,0.7449951171875
1686445365253724000,11.683723876953126,-0.6554718017578125,-0.056610107421875,0.745635986328125
1686445365263740700,11.69374072265625,-0.653472900390625,-0.057037353515625,0.746429443359375
1686445365273758000,11.703758056640625,-0.6541595458984375,-0.0568084716796875,0.7483062744140625
1686445365283774000,11.71377392578125,-0.6577606201171875,-0.056610107421875,0.7500152587890625
1686445365293790700,11.723790771484374,-0.6596832275390625,-0.0555877685546875,0.75006103515625
1686445365303807700,11.733807861328126,-0.660064697265625,-0.05804443359375,0.7499542236328125
1686445365313824000,11.743823974609375,-0.6599578857421875,-0.0588531494140625,0.7485198974609375
1686445365323840800,11.7538408203125,-0.65948486328125,-0.058380126953125,0.7476806640625
1686445365333857800,11.76385791015625,-0.6610870361328125,-0.0564422607421875,0.7474822998046875
1686445365343873800,11.773873779296874,-0.6603851318359375,-0.055877685546875,0.74755859375
1686445365353890800,11.783890869140626,-0.6571044921875,-0.0571136474609375,0.74822998046875
1686445365363907800,11.793907958984375,-0.6551055908203125,-0.0583038330078125,0.74920654296875
1686445365373923800,11.803923828125,-0.6549224853515625,-0.05853271484375,0.7500457763671875
1686445365383940900,11.81394091796875,-0.657989501953125,-0.0577239990234375,0.750396728515625
1686445365393958000,11.8239580078125,-0.6622161865234375,-0.0573577880859375,0.7504425048828125
1686445365403974000,11.833973876953126,-0.664398193359375,-0.0583953857421875,0.75103759765625
1686445365413990700,11.84399072265625,-0.664520263671875,-0.058319091796875,0.7499237060546875
1686445365424008000,11.854008056640625,-0.664276123046875,-0.058349609375,0.7494049072265625
1686445365434024000,11.86402392578125,-0.6619720458984375,-0.0592193603515625,0.748748779296875
1686445365444040700,11.874040771484376,-0.660675048828125,-0.057708740234375,0.7484130859375
1686445365454058000,11.88405810546875,-0.6592559814453125,-0.05584716796875,0.749542236328125
1686445365464074000,11.894073974609375,-0.6571502685546875,-0.0559844970703125,0.7513275146484375
1686445365474090800,11.9040908203125,-0.656768798828125,-0.056365966796875,0.750701904296875
1686445365484107800,11.914107666015624,-0.657501220703125,-0.0576171875,0.7506256103515625
1686445365494124000,11.9241240234375,-0.6596221923828125,-0.0572052001953125,0.75030517578125
1686445365504140800,11.934140869140625,-0.660430908203125,-0.0572967529296875,0.7477874755859375
1686445365514157800,11.94415771484375,-0.660491943359375,-0.05731201171875,0.74725341796875
1686445365524173800,11.954173828125,-0.6598968505859375,-0.0567779541015625,0.7465057373046875
1686445365534190800,11.96419091796875,-0.6591949462890625,-0.057586669921875,0.7467041015625
1686445365544208000,11.974207763671876,-0.6588897705078125,-0.05767822265625,0.7467041015625
1686445365554223900,11.984223876953125,-0.6572265625,-0.0576171875,0.7477264404296875
1686445365564241200,11.9942412109375,-0.656036376953125,-0.0571441650390625,0.7490081787109375
1686445365574257200,12.004257080078125,-0.6570587158203125,-0.056640625,0.7510833740234375
1686445365584274200,12.014274169921874,-0.6592864990234375,-0.0580291748046875,0.751556396484375
1686445365594291200,12.024291259765626,-0.65985107421875,-0.058074951171875,0.75018310546875
1686445365604307200,12.03430712890625,-0.66131591796875,-0.058441162109375,0.7483062744140625
1686445365614324000,12.044323974609375,-0.660400390625,-0.0585784912109375,0.746337890625
1686445365624341200,12.05434130859375,-0.6620025634765625,-0.0590362548828125,0.7448883056640625
1686445365634357200,12.064357177734376,-0.6635589599609375,-0.0587615966796875,0.74615478515625
1686445365644374000,12.0743740234375,-0.660675048828125,-0.058074951171875,0.747467041015625
1686445365654391300,12.084391357421875,-0.6587982177734375,-0.0565032958984375,0.7489776611328125
1686445365664407300,12.0944072265625,-0.658477783203125,-0.0575714111328125,0.7494049072265625
1686445365674424000,12.104424072265624,-0.659027099609375,-0.057525634765625,0.7498626708984375
1686445365684441000,12.114441162109374,-0.6586456298828125,-0.05596923828125,0.7509765625
1686445365694457300,12.124457275390625,-0.65924072265625,-0.056121826171875,0.7507476806640625
1686445365704474000,12.13447412109375,-0.66082763671875,-0.056610107421875,0.750579833984375
1686445365714491100,12.1444912109375,-0.6621551513671875,-0.056640625,0.75054931640625
1686445365724507100,12.154507080078124,-0.662567138671875,-0.0576324462890625,0.749786376953125
1686445365734524200,12.164524169921876,-0.6622772216796875,-0.0572052001953125,0.749267578125
1686445365744541200,12.174541259765626,-0.6598358154296875,-0.0564422607421875,0.748870849609375
1686445365754557200,12.18455712890625,-0.65875244140625,-0.05633544921875,0.7475738525390625
1686445365764574200,12.19457421875,-0.658172607421875,-0.0558319091796875,0.748931884765625
1686445365774591200,12.20459130859375,-0.6574554443359375,-0.0555267333984375,0.74871826171875
1686445365784607200,12.214607177734376,-0.656829833984375,-0.05633544921875,0.7479400634765625
1686445365794624000,12.2246240234375,-0.657012939453125,-0.0578460693359375,0.7479248046875
1686445365804641300,12.234641357421875,-0.657470703125,-0.05938720703125,0.748260498046875
1686445365814657300,12.2446572265625,-0.659149169921875,-0.0594329833984375,0.748565673828125
1686445365824674000,12.254674072265624,-0.6615753173828125,-0.058868408203125,0.74908447265625
1686445365834690000,12.26468994140625,-0.6637725830078125,-0.05828857421875,0.7493438720703125
1686445365844707300,12.274707275390625,-0.661407470703125,-0.056549072265625,0.7482147216796875
1686445365854724000,12.28472412109375,-0.6612396240234375,-0.05517578125,0.748260498046875
1686445365864740000,12.294739990234374,-0.6605377197265625,-0.05535888671875,0.747222900390625
1686445365874757400,12.30475732421875,-0.658721923828125,-0.0550994873046875,0.748565673828125
1686445365884774100,12.314774169921876,-0.658416748046875,-0.0545654296875,0.751678466796875
1686445365894790100,12.3247900390625,-0.6594085693359375,-0.055267333984375,0.7525787353515625
1686445365904807200,12.33480712890625,-0.6617584228515625,-0.0558013916015625,0.749237060546875
1686445365914824200,12.34482421875,-0.66400146484375,-0.056793212890625,0.748382568359375
1686445365924840200,12.354840087890626,-0.6627044677734375,-0.0571136474609375,0.7478179931640625
1686445365934857200,12.364857177734375,-0.663177490234375,-0.057342529296875,0.747650146484375
1686445365944874200,12.374874267578125,-0.6617279052734375,-0.0590362548828125,0.7474517822265625
1686445365954890200,12.38489013671875,-0.6605072021484375,-0.0600128173828125,0.747314453125
1686445365964907300,12.3949072265625,-0.65924072265625,-0.0587921142578125,0.748291015625
1686445365974924000,12.404924072265626,-0.65838623046875,-0.058746337890625,0.748046875
1686445365984940300,12.414940185546875,-0.6572418212890625,-0.057830810546875,0.749267578125
1686445365994957300,12.424957275390625,-0.6566925048828125,-0.0580291748046875,0.74896240234375
1686445366004974000,12.43497412109375,-0.658538818359375,-0.0577545166015625,0.7488250732421875
1686445366014990000,12.444989990234374,-0.6573944091796875,-0.0576934814453125,0.748138427734375
1686445366025007400,12.45500732421875,-0.65789794921875,-0.05670166015625,0.746337890625
1686445366035024100,12.465024169921875,-0.6612396240234375,-0.056396484375,0.7464141845703125
1686445366045040000,12.4750400390625,-0.6623992919921875,-0.0554656982421875,0.7450714111328125
1686445366055057400,12.485057373046875,-0.6620635986328125,-0.0548095703125,0.744140625
1686445366065074200,12.49507421875,-0.6629486083984375,-0.0550384521484375,0.7451934814453125
1686445366075090200,12.505090087890625,-0.6624298095703125,-0.0553436279296875,0.747161865234375
1686445366085107200,12.515107177734375,-0.661529541015625,-0.0548553466796875,0.7493133544921875
1686445366095124200,12.525124267578125,-0.6600799560546875,-0.0563507080078125,0.75115966796875
1686445366105140200,12.53514013671875,-0.6580047607421875,-0.057586669921875,0.7510986328125
1686445366115157200,12.5451572265625,-0.657196044921875,-0.0577545166015625,0.75
1686445366125174300,12.55517431640625,-0.659393310546875,-0.056884765625,0.748931884765625
1686445366135190300,12.565190185546875,-0.6603546142578125,-0.0560150146484375,0.7468719482421875
1686445366145207000,12.57520703125,-0.6613006591796875,-0.0574798583984375,0.745635986328125
1686445366155224000,12.58522412109375,-0.6596832275390625,-0.05712890625,0.7444000244140625
1686445366165240300,12.595240234375,-0.657257080078125,-0.05755615234375,0.74530029296875
1686445366175257000,12.605257080078125,-0.6574554443359375,-0.057373046875,0.747467041015625
1686445366185274000,12.615274169921875,-0.6573944091796875,-0.0567169189453125,0.7502899169921875
1686445366195290000,12.6252900390625,-0.6581268310546875,-0.056549072265625,0.75177001953125
1686445366205307100,12.63530712890625,-0.660186767578125,-0.0572662353515625,0.752532958984375
1686445366215324200,12.64532421875,-0.6622314453125,-0.0577239990234375,0.752471923828125
1686445366225340200,12.655340087890625,-0.662994384765625,-0.05767822265625,0.7499237060546875
1686445366235357200,12.665357177734375,-0.664093017578125,-0.0574951171875,0.7493743896484375
1686445366245374200,12.675374267578125,-0.665557861328125,-0.0576171875,0.747802734375
1686445366255390200,12.68539013671875,-0.665008544921875,-0.0579071044921875,0.74676513671875
1686445366265407000,12.695406982421876,-0.662811279296875,-0.056732177734375,0.7457427978515625
1686445366275424300,12.70542431640625,-0.66094970703125,-0.05865478515625,0.7439727783203125
1686445366285440300,12.715440185546875,-0.6593475341796875,-0.0583038330078125,0.747222900390625
1686445366295457000,12.72545703125,-0.6567535400390625,-0.0577850341796875,0.7481536865234375
1686445366305474300,12.735474365234374,-0.6575164794921875,-0.0569000244140625,0.74932861328125
1686445366315490300,12.745490234375,-0.6598663330078125,-0.05712890625,0.7510986328125
1686445366325507000,12.755507080078125,-0.660980224609375,-0.056427001953125,0.7495880126953125
1686445366335524400,12.7655244140625,-0.6611785888671875,-0.0561981201171875,0.7484893798828125
1686445366345540400,12.775540283203124,-0.6610870361328125,-0.0567474365234375,0.746307373046875
1686445366355557000,12.78555712890625,-0.6619873046875,-0.0555267333984375,0.747314453125
1686445366365574100,12.79557421875,-0.6613922119140625,-0.0561370849609375,0.7465057373046875
1686445366375590100,12.805590087890625,-0.6593780517578125,-0.055938720703125,0.7469329833984375
1686445366385607200,12.815607177734375,-0.658050537109375,-0.057373046875,0.746795654296875
1686445366395624200,12.825624267578124,-0.6564178466796875,-0.0577392578125,0.7463836669921875
1686445366405640200,12.83564013671875,-0.6563568115234375,-0.0572662353515625,0.747039794921875
1686445366415657200,12.8456572265625,-0.6555938720703125,-0.0583343505859375,0.7469482421875
1686445366425674200,12.85567431640625,-0.6557769775390625,-0.0580596923828125,0.7484283447265625
1686445366435690200,12.865690185546875,-0.657745361328125,-0.056732177734375,0.7499847412109375
1686445366445707300,12.875707275390624,-0.661651611328125,-0.0566558837890625,0.7512054443359375
1686445366455724300,12.885724365234376,-0.6634674072265625,-0.0573272705078125,0.751129150390625
1686445366465740300,12.895740234375,-0.6639251708984375,-0.0588531494140625,0.748687744140625
1686445366475757000,12.905757080078125,-0.6634979248046875,-0.0596923828125,0.74609375
1686445366485774300,12.9157744140625,-0.6643829345703125,-0.0592041015625,0.7461700439453125
1686445366495790300,12.925790283203124,-0.663421630859375,-0.0570068359375,0.7472991943359375
1686445366505807000,12.93580712890625,-0.6630096435546875,-0.0568389892578125,0.7471160888671875
1686445366515824400,12.945824462890625,-0.6623687744140625,-0.0571746826171875,0.7479095458984375
1686445366525840400,12.95584033203125,-0.659759521484375,-0.0579071044921875,0.7477264404296875
1686445366535857200,12.965857177734375,-0.6593780517578125,-0.05828857421875,0.7490234375
1686445366545874200,12.975874267578124,-0.6606292724609375,-0.058929443359375,0.748626708984375
1686445366555890400,12.985890380859376,-0.66162109375,-0.057403564453125,0.7490081787109375
1686445366565907200,12.9959072265625,-0.6623077392578125,-0.0569915771484375,0.7492218017578125
