"Time (s)","Linear Acceleration x (m/s^2)","Linear Acceleration y (m/s^2)","Linear Acceleration z (m/s^2)"
7.305328100E-2,0.000000000E0,0.000000000E0,0.000000000E0
7.807328100E-2,2.847156525E-1,2.730798721E-2,3.009319305E-1
8.310562500E-2,5.547747612E-1,-1.473140717E-2,4.373369217E-1
8.813447900E-2,8.173699379E-1,-8.276987076E-2,5.501079559E-1
9.322390600E-2,1.124064445E0,-2.310330868E-1,5.860309601E-1
9.827411400E-2,1.436017036E0,-3.847994804E-1,2.897596359E-1
1.033832290E-1,1.637301207E0,-5.166046619E-1,-2.198057175E-1
1.083745830E-1,1.644530296E0,-5.505027771E-1,-7.221889496E-1
1.134069270E-1,1.270856142E0,-4.991741180E-1,-1.863346100E0
1.184750000E-1,1.034620404E0,-3.251483440E-1,-2.539572716E0
1.235252080E-1,1.211216211E0,-2.956910133E-1,-1.304354668E0
1.285754170E-1,1.140326023E0,-4.233421087E-1,-7.196426392E-2
1.336256770E-1,6.105952263E-1,-6.187887192E-1,7.059507370E-1
1.386758850E-1,-2.406775951E-1,-8.891389370E-1,1.343357086E0
1.437260940E-1,-1.007935166E0,-1.143272877E0,1.580242157E0
1.488938020E-1,-1.592343926E0,-1.364163160E0,1.450506210E0
1.539440100E-1,-1.905016065E0,-1.470472813E0,9.091529846E-1
1.589942710E-1,-2.067273617E0,-1.364745140E0,2.767333984E-1
1.640444270E-1,-2.151431561E0,-1.240037560E0,-2.702579498E-1
1.690946870E-1,-2.226336956E0,-1.193711877E0,-6.023645401E-1
1.741448960E-1,-2.224542618E0,-1.148289204E0,-9.039592743E-1
1.791951040E-1,-2.153457165E0,-1.019273520E0,-1.169246674E0
1.842844790E-1,-2.013871193E0,-8.778582215E-1,-1.306488991E0
1.892955210E-1,-1.879620790E0,-7.223674059E-1,-1.339315414E0
1.943457810E-1,-1.749104738E0,-5.977617502E-1,-1.383332253E0
1.993959890E-1,-1.709768176E0,-5.888837576E-1,-1.599308014E0
2.044461980E-1,-1.691481709E0,-5.996644497E-1,-1.920188904E0
2.094964060E-1,-1.620390534E0,-6.604351997E-1,-2.204343796E0
2.145466140E-1,-1.506620049E0,-6.916348934E-1,-2.488253593E0
2.195968230E-1,-1.301909804E0,-7.421107292E-1,-2.858931541E0
2.246470310E-1,-1.028194070E0,-7.899032831E-1,-3.407634735E0
2.296972920E-1,-7.304526567E-1,-8.512709141E-1,-3.947030067E0
2.347475000E-1,-4.799212217E-1,-8.825960159E-1,-4.495391846E0
2.397977080E-1,-2.878533006E-1,-9.952633381E-1,-4.832402229E0
2.448479170E-1,-1.675949097E-1,-1.089434505E0,-4.839258194E0
2.498981250E-1,-2.300580740E-1,-1.263353348E0,-4.336872101E0
2.549483330E-1,-3.978506923E-1,-1.440982819E0,-3.648530483E0
2.599985420E-1,-6.500140429E-1,-1.577433109E0,-3.075664520E0
2.650487500E-1,-8.034326434E-1,-1.583439827E0,-2.831433296E0
2.700990100E-1,-8.920254707E-1,-1.523536444E0,-2.849747658E0
2.751492190E-1,-8.232676387E-1,-1.465795636E0,-2.802426338E0
2.801994270E-1,-4.773212671E-1,-1.464721680E0,-2.618040085E0
2.852496350E-1,5.909985304E-1,-1.620589733E0,-2.001828194E0
2.902998440E-1,1.968997240E0,-1.786923766E0,-7.176971436E-1
2.953500520E-1,2.690624714E0,-1.212590933E0,-2.043815613E0
3.004002600E-1,2.270840645E0,-7.292149067E-1,-3.910280228E0
3.054505210E-1,1.271296263E0,-4.485548139E-1,-3.787895203E0
3.105007290E-1,3.522220254E-1,1.149231195E-1,-2.263120651E0
3.155509370E-1,4.154574871E-1,8.166440129E-1,-4.096865654E0
3.206011460E-1,2.737872601E-1,8.629717231E-1,-4.098028183E0
3.256513540E-1,-9.086346626E-1,5.450085998E-1,-1.886149406E0
3.307015620E-1,-9.095376134E-1,2.158651352E-1,-8.740739822E-1
3.357517710E-1,-4.431875944E-1,-4.305443168E-2,-4.987125397E-1
3.408019790E-1,-2.022801638E-1,-2.796578109E-1,-1.995658875E-2
3.458522390E-1,-3.200346231E-2,-3.932542205E-1,9.277534485E-2
3.509024480E-1,6.388205290E-2,-5.001099110E-1,-1.080703735E-1
3.559918230E-1,1.848917007E-1,-4.867035747E-1,-5.761260986E-1
3.610420310E-1,3.969910741E-1,-6.264535189E-1,-1.040088654E0
3.660530730E-1,4.559055567E-1,-7.330951691E-1,-1.513489723E0
3.711032810E-1,5.888236165E-1,-9.021036625E-1,-1.895413399E0
3.761534890E-1,6.339332461E-1,-1.115875721E0,-2.285720825E0
3.812429170E-1,6.813260913E-1,-1.285565734E0,-2.565750122E0
3.862539580E-1,7.163600326E-1,-1.415963531E0,-2.779965401E0
3.913433330E-1,8.718353510E-1,-1.472830296E0,-2.998958111E0
3.963543750E-1,9.907251000E-1,-1.422431588E0,-3.228842258E0
4.014437500E-1,9.738246202E-1,-1.248944879E0,-3.062797546E0
4.064547920E-1,7.218413353E-1,-9.863865376E-1,-2.521708488E0
4.115441670E-1,4.112696648E-1,-5.127557516E-1,-2.218130112E0
4.165552600E-1,-4.130709171E-2,3.728665411E-2,-1.935628891E0
4.216054690E-1,-2.368410826E-1,4.732618928E-1,-1.564592361E0
4.266556770E-1,-2.311303020E-1,7.159324288E-1,-1.319279671E0
4.317058850E-1,-5.387187004E-3,7.716714144E-1,-9.811916351E-1
4.367560940E-1,3.393245935E-1,8.285527229E-1,-6.774034500E-1
4.418063540E-1,5.171036720E-1,8.990064859E-1,-4.043512344E-1
4.468565620E-1,6.202570200E-1,9.893578291E-1,-3.674812317E-1
4.519067190E-1,7.261319160E-1,1.163675189E0,-5.786781311E-1
4.569569790E-1,8.806045055E-1,1.316021204E0,-8.333129883E-1
4.620071870E-1,1.259712577E0,1.419391394E0,-1.436229706E0
4.670573960E-1,1.560785294E0,1.319401741E0,-1.972519875E0
4.721467710E-1,1.482534647E0,1.157167554E0,-2.269653320E0
4.771578120E-1,1.117285728E0,9.253469110E-1,-2.334005356E0
4.822080730E-1,6.234014034E-1,6.500077248E-1,-2.635180950E0
4.872582810E-1,1.937460899E-2,3.774973154E-1,-3.068343639E0
4.923084890E-1,-6.643973589E-1,1.814986467E-1,-3.649528980E0
4.973586980E-1,-1.452318072E0,7.505917549E-2,-4.293515682E0
5.024089060E-1,-2.073369503E0,-7.997250557E-2,-4.810571671E0
5.074591140E-1,-2.481368065E0,-3.366558552E-1,-5.017362595E0
5.124914580E-1,-3.194926739E0,-7.128044367E-1,-5.575570107E0
5.176323440E-1,-3.720682621E0,-1.114358068E0,-6.407535076E0
5.226097920E-1,-2.925678253E0,-1.351532817E0,-7.423108101E0
5.276599480E-1,-2.096986294E0,-1.349317312E0,-8.269268990E0
5.327102080E-1,-1.775102258E0,-1.031536818E0,-8.739449501E0
5.377604170E-1,-1.755086660E0,-6.470391750E-1,-8.736997604E0
5.428106250E-1,-1.848102331E0,-3.026626110E-1,-8.499050140E0
5.478608330E-1,-1.868277311E0,-1.856414080E-1,-7.938710690E0
5.529110420E-1,-1.800609589E0,-2.415965796E-1,-7.042733669E0
5.579612500E-1,-1.229036808E0,-4.496879578E-1,-5.272224903E0
5.630114580E-1,-9.208209515E-1,-4.785856009E-1,-2.573412895E0
5.680617190E-1,-1.218548059E0,-3.588503599E-1,-2.527361870E0
5.731119270E-1,-1.387087107E0,-4.516990185E-1,-2.292028427E0
5.781621350E-1,-1.072029591E0,-8.135039806E-1,-8.985233307E-1
5.832123440E-1,-6.743347645E-1,-1.236384034E0,-2.518458366E-1
5.882625520E-1,-4.782793522E-1,-1.569914103E0,-1.002917290E-1
5.933127600E-1,-2.502994537E-1,-1.970285892E0,-3.377723694E-2
5.983629690E-1,-1.132907867E-1,-2.344991684E0,-1.934046745E-1
6.034131770E-1,-2.170343399E-1,-2.633891106E0,-4.514493942E-1
6.084617710E-1,-4.981045723E-1,-2.919075966E0,-5.906114578E-1
6.135057810E-1,-7.540342808E-1,-3.263685703E0,-5.123362541E-1
6.185498440E-1,-1.003619194E0,-3.513808250E0,-5.402803421E-1
6.235938540E-1,-1.404611111E0,-3.816001892E0,-6.953248978E-1
6.286378640E-1,-1.883555651E0,-4.176228523E0,-8.608074188E-1
6.336818750E-1,-2.278570890E0,-4.587915897E0,-1.147346497E0
6.387630730E-1,-2.335654497E0,-5.069765568E0,-1.497134209E0
6.438070830E-1,-2.230185032E0,-5.518845558E0,-1.816269875E0
6.488511460E-1,-2.134278774E0,-5.919810772E0,-1.922389984E0
6.538951560E-1,-2.245221376E0,-6.217356205E0,-1.832395077E0
6.589391670E-1,-2.445126057E0,-6.422380447E0,-1.713592052E0
6.639831770E-1,-2.692762613E0,-6.575375557E0,-1.558500290E0
6.690643750E-1,-2.872873306E0,-6.718670845E0,-1.443506241E0
6.741083850E-1,-2.911127090E0,-6.819774628E0,-1.252328873E0
6.791524480E-1,-2.855595350E0,-6.917910099E0,-8.884549141E-1
6.841964580E-1,-2.724006653E0,-7.045718193E0,-4.754762650E-1
6.892404690E-1,-2.545394897E0,-7.129840374E0,-2.301502228E-2
6.942844790E-1,-2.352637768E0,-7.167316437E0,3.925466537E-1
6.993656250E-1,-2.034087181E0,-7.259737968E0,7.564554214E-1
7.044096350E-1,-1.497943401E0,-7.473789692E0,1.207332611E0
7.094536980E-1,-8.594202995E-1,-7.732054710E0,1.699776649E0
7.144977080E-1,-2.504281998E-1,-7.812308788E0,2.278664112E0
7.195417190E-1,1.865124702E-1,-7.776148319E0,2.921379566E0
7.245857290E-1,6.436767578E-1,-7.664614677E0,3.607698917E0
7.296669270E-1,1.259669304E0,-7.545101166E0,4.035624504E0
7.347109370E-1,1.959130764E0,-7.414314270E0,4.379695415E0
7.397550000E-1,2.597930908E0,-7.334244728E0,4.640711784E0
7.447990100E-1,3.059421062E0,-7.249979019E0,4.902065754E0
7.498430210E-1,3.502367973E0,-7.088623047E0,5.155355930E0
7.548870310E-1,4.047422886E0,-6.846633911E0,5.325904369E0
7.599681770E-1,4.493573666E0,-6.504742146E0,5.399617672E0
7.650121870E-1,4.719363213E0,-6.284875870E0,5.344594955E0
7.700562500E-1,4.960526466E0,-6.189597130E0,5.324272633E0
7.751002600E-1,5.174401760E0,-5.984735489E0,5.256430149E0
7.801442710E-1,5.290505409E0,-5.616720200E0,5.202169895E0
7.851882810E-1,5.455742836E0,-5.180910110E0,5.121845722E0
7.902694790E-1,5.983715534E0,-4.932769775E0,5.030385017E0
7.953134890E-1,6.853402615E0,-4.901773930E0,4.947121620E0
8.003575520E-1,7.766454697E0,-4.862942219E0,4.920199871E0
8.054015620E-1,8.720836639E0,-4.764564514E0,4.954108715E0
8.104455730E-1,9.975599289E0,-4.563394547E0,5.130156040E0
8.154895830E-1,1.142183590E1,-4.179854870E0,5.615387440E0
8.205707810E-1,1.279831123E1,-3.670422077E0,6.495299339E0
8.256147920E-1,1.399366093E1,-3.075788975E0,7.758681774E0
8.306588540E-1,1.515292454E1,-2.435582638E0,8.921227455E0
8.357028640E-1,1.610547066E1,-1.763978958E0,9.752487183E0
8.407468750E-1,1.671036911E1,-1.061533928E0,1.013833427E1
8.457908850E-1,1.684500694E1,-3.536643982E-1,9.724493027E0
8.508720310E-1,1.668372154E1,1.915345192E-1,8.923263550E0
8.559160420E-1,1.617193222E1,6.302719116E-1,7.577321053E0
8.609601040E-1,1.535349655E1,8.732223511E-1,5.777508736E0
8.660041140E-1,1.440612698E1,1.146780491E0,3.840788841E0
8.710481250E-1,1.357214737E1,1.397897720E0,1.894491673E0
8.760921350E-1,1.276520538E1,1.457232952E0,3.383541107E-2
8.812127600E-1,1.178003311E1,1.583271503E0,-1.602986813E0
8.862567710E-1,1.242563629E1,1.694635868E0,-3.851568699E0
8.913007810E-1,2.494302368E1,3.479617596E0,-1.913556862E1
8.963447920E-1,2.969222450E1,8.016592026E0,-3.223671341E1
9.013888540E-1,2.196919441E1,1.030180359E1,-2.778022194E1
9.064328640E-1,1.440674210E1,9.572772026E0,-1.783703423E1
9.114745830E-1,1.071487999E1,6.581203938E0,-1.148235703E1
9.165185940E-1,8.067140579E0,3.321743488E0,-7.004565239E0
9.215626560E-1,5.306894302E0,8.415455818E-1,-2.934527874E0
9.266066670E-1,3.761487961E0,-9.212055206E-1,5.098741055E-1
9.316506770E-1,3.330176353E0,-1.755845070E0,2.953923464E0
9.366946870E-1,3.210666656E0,-1.842260361E0,4.345195293E0
9.417759370E-1,2.884737015E0,-1.596161842E0,4.652997971E0
9.468199480E-1,2.483501434E0,-1.237318516E0,4.461894989E0
9.518640100E-1,2.131879807E0,-9.294776917E-1,3.073627234E0
9.569080210E-1,2.254225731E0,-6.838321686E-1,1.239318609E0
9.619520310E-1,2.566535950E0,-2.343487740E-1,-3.758177757E-1
9.669960420E-1,1.679562569E0,1.165196896E0,-6.538205147E-1
9.720771870E-1,1.510553360E-1,2.587093830E0,-8.844133615E-1
9.771211980E-1,-3.969211578E-1,2.952943802E0,-9.349212646E-1
9.821652600E-1,-1.310310364E0,3.325830460E0,-1.201094866E0
9.872092710E-1,-1.781632423E0,3.553164482E0,-1.570629835E0
9.922532810E-1,-1.744989395E0,3.325740814E0,-9.005391598E-1
9.972972920E-1,-1.799062729E0,3.179337978E0,-3.922188282E-2
1.002378489E0,-2.076458931E0,3.123129606E0,6.962813139E-1
1.007422500E0,-2.412076473E0,3.020714283E0,1.431463838E0
1.012466562E0,-2.805093765E0,2.933696270E0,2.354295254E0
1.017510573E0,-3.174765587E0,2.869252205E0,2.692773342E0
1.022554583E0,-3.407651901E0,2.947024345E0,3.046120644E0
1.027598594E0,-3.603501320E0,3.121767998E0,2.983521938E0
1.032679739E0,-3.522402763E0,3.171463728E0,2.805121899E0
1.037723750E0,-3.115140915E0,3.104354858E0,3.656125546E0
1.042767812E0,-3.763062477E0,3.474089146E0,6.300256729E0
1.047811823E0,-4.376363277E0,3.621961832E0,4.127913475E0
1.052855833E0,-5.886644840E0,4.112112522E0,2.396275997E0
1.057899844E0,-7.735719681E0,4.672973156E0,-9.350824356E-1
1.062981042E0,-8.046614647E0,4.731051445E0,-4.510952950E0
1.068025052E0,-7.962461472E0,4.928581715E0,-7.176847935E0
1.073069114E0,-7.774615765E0,5.051500320E0,-8.228316307E0
1.078113125E0,-7.714103222E0,5.158408642E0,-5.368072510E0
1.083157135E0,-8.166166306E0,5.100870132E0,-3.474497080E0
1.088201146E0,-8.307860374E0,4.979503155E0,-3.477606058E0
1.093282292E0,-8.921833038E0,5.325766087E0,-4.246872425E0
1.098326302E0,-1.014260292E1,5.927834988E0,-7.269119263E0
1.103370364E0,-1.122475052E1,5.949229717E0,-9.576394081E0
1.108414375E0,-1.127205467E1,5.256847382E0,-9.302530289E0
1.113458385E0,-1.029505157E1,4.043574333E0,-7.560761929E0
1.118502396E0,-9.095545769E0,3.346328259E0,-5.902084351E0
1.123583333E0,-8.530693054E0,3.482222080E0,-4.566158295E0
1.128632292E0,-8.155008316E0,4.136055946E0,-3.792731762E0
1.133681302E0,-7.799326420E0,4.802749634E0,-3.625756025E0
1.138730260E0,-7.286779404E0,5.189125538E0,-3.939551353E0
1.143779219E0,-6.627877235E0,5.186423302E0,-4.302526474E0
1.148828229E0,-5.847730637E0,5.036610603E0,-4.583211899E0
1.153884583E0,-4.916246414E0,4.615733147E0,-4.695910454E0
1.158933542E0,-3.972734690E0,4.081518173E0,-4.506381035E0
1.163982552E0,-2.933866978E0,3.223862171E0,-3.946380138E0
1.169031510E0,-2.289916039E0,2.674803495E0,-3.369767427E0
1.174080469E0,-1.828462601E0,2.373373747E0,-3.189899206E0
1.179129479E0,-1.073085308E0,1.837110996E0,-2.790393353E0
1.184185885E0,-7.677612305E-1,1.397832394E0,-2.297812223E0
1.189234844E0,-1.079251766E0,1.285082340E0,-1.485865831E0
1.194283854E0,-9.899902344E-1,7.876195908E-1,-1.162569761E0
1.199332812E0,-3.571472168E-1,-1.819753647E-1,-1.521426082E0
1.204381771E0,4.983959198E-1,-1.006801605E0,-1.841522455E0
1.209430781E0,1.045291424E0,-1.438559532E0,-2.188820839E0
1.214487135E0,1.632518291E0,-1.525428295E0,-2.539308548E0
1.219536094E0,2.176878452E0,-1.417903900E0,-2.709725857E0
1.224585104E0,2.748177052E0,-1.019802570E0,-2.761110067E0
1.229634062E0,2.976605415E0,-8.498711586E-1,-3.207337141E0
1.234683021E0,2.826687813E0,-6.542582512E-1,-4.021470547E0
1.239732031E0,3.342339039E0,-9.937090874E-1,-4.168893337E0
1.244788385E0,3.440311909E0,-1.251526356E0,-4.159636497E0
1.249837344E0,2.926612854E0,-1.080915451E0,-3.703990459E0
1.254886354E0,2.680391312E0,-1.238591194E0,-2.612616777E0
1.259935312E0,2.640407562E0,-1.246541023E0,-2.691929817E0
1.264984271E0,2.902399540E0,-1.405934334E0,-2.435250044E0
1.270033281E0,3.123451233E0,-2.137997150E0,-1.859008074E0
1.275089635E0,2.488304615E0,-1.971907139E0,-1.289592505E0
1.280138594E0,1.180448055E0,-5.501174927E-1,-7.478159666E-1
1.285187604E0,-4.015002251E-1,-8.622121811E-1,-1.117883205E0
1.290236562E0,6.140604019E-1,-3.738572121E0,1.194998622E-2
1.295285521E0,6.275205612E-1,-5.314863682E0,2.173195601E0
1.300334531E0,-6.912269592E-1,-5.246653080E0,3.295445681E0
1.305390885E0,-8.181858063E-1,-4.625159264E0,3.351626873E0
1.310439844E0,-5.267896652E-1,-4.212606430E0,2.327097654E0
1.315488854E0,9.644126892E-2,-3.967752457E0,6.917006969E-1
1.320537812E0,8.750805855E-1,-3.690660477E0,-1.168711185E0
1.325586771E0,1.363157272E0,-3.448765278E0,-2.607582092E0
1.330635781E0,1.759630680E0,-3.067994595E0,-3.620666981E0
1.335692187E0,2.081264019E0,-2.685007095E0,-3.961075306E0
1.340741146E0,1.946868896E0,-2.168154716E0,-3.932791948E0
1.345790156E0,2.511041164E0,-2.344228745E0,-3.572452784E0
1.350839114E0,2.219087124E0,-2.290586948E0,-3.437059641E0
1.355888073E0,1.366308212E0,-1.564635277E0,-2.996471882E0
1.360937083E0,8.643593788E-1,-8.737559319E-1,-2.504745722E0
1.365993437E0,5.238199234E-1,-5.565295219E-1,-2.547806740E0
1.371042396E0,-6.751251221E-2,-2.909321785E-1,-2.562253952E0
1.376091406E0,-3.681802750E-2,-8.591318130E-1,-2.017076254E0
1.381140364E0,4.396476746E-1,-2.075486660E0,-1.104709744E0
1.386189323E0,4.360947609E-1,-2.957566738E0,4.448328912E-1
1.391238333E0,1.166117668E0,-4.014936447E0,2.670882225E0
1.396294687E0,1.406165600E0,-4.965025425E0,4.616065025E0
1.401343646E0,1.620222569E0,-5.448045731E0,5.796556473E0
1.406392656E0,1.537456036E0,-6.043154716E0,6.170045376E0
1.411441614E0,1.610985756E0,-6.688749313E0,6.458107471E0
1.416490573E0,1.122519970E0,-7.208268642E0,6.404539585E0
1.421539583E0,6.176757812E-1,-7.078939438E0,5.999807358E0
1.426635364E0,3.821744919E-1,-6.094015121E0,4.732755661E0
1.431684375E0,-7.935142517E-2,-5.671262741E0,4.031452656E0
1.436733333E0,-5.886693001E-1,-4.395235062E0,3.211989164E0
1.441782292E0,-8.746032715E-1,-2.851040840E0,2.407125711E0
1.446831302E0,-1.132446289E0,-1.603734970E0,2.138838530E0
1.451880260E0,-1.235503674E0,-4.953031540E-1,2.230702162E0
1.456897239E0,-1.100507736E0,3.214778900E-1,2.647858381E0
1.461946198E0,-1.031133175E0,4.422197342E-1,3.287026644E0
1.466995208E0,-1.358234406E0,7.807350159E-2,3.938004494E0
1.472044167E0,-1.516453743E0,-1.488666534E-1,4.446288586E0
1.477093125E0,-1.339357376E0,-4.995632172E-2,5.170701981E0
1.482142135E0,-7.499179840E-1,1.025266647E-1,5.616302013E0
1.487198489E0,-6.393389702E-1,3.283967972E-1,6.109114170E0
1.492247448E0,-8.811478615E-1,4.929981232E-1,5.812570095E0
1.497296458E0,-1.037901402E0,7.576246262E-1,4.439266682E0
1.502345417E0,-9.410834312E-1,1.003643036E0,2.589886427E0
1.507394375E0,-1.007708549E0,1.272743225E0,5.130279064E-1
1.512443385E0,-1.289565563E0,1.475688934E0,-1.673866749E0
1.517499739E0,-1.411330938E0,1.399253845E0,-3.233549595E0
1.522548698E0,-1.201159000E0,1.212704182E0,-3.720009804E0
1.527597708E0,-8.976411819E-1,1.206119537E0,-3.410410404E0
1.532646667E0,-9.688086510E-1,1.405337334E0,-2.851023912E0
1.537695625E0,-9.965238571E-1,1.690456390E0,-2.636229038E0
1.542744635E0,-1.111124992E0,1.955957413E0,-2.660006523E0
1.547800937E0,-9.698390961E-1,2.586101532E0,-2.684777021E0
1.552849896E0,-9.558730125E-1,3.092036247E0,-2.352744102E0
1.557898906E0,-7.701320648E-1,3.332317352E0,-1.880528688E0
1.562947864E0,-9.668774605E-1,3.356073380E0,-1.150460601E0
1.567996823E0,-1.029524803E0,3.533175468E0,-3.100343943E-1
1.573045833E0,-1.297366858E0,3.674098015E0,1.972638369E-1
1.578102239E0,-1.376102924E0,3.998515606E0,6.226900816E-1
1.583151198E0,-2.479605675E0,4.408948421E0,6.363983154E-1
1.588200208E0,-2.653189421E0,4.727070808E0,1.006159425E0
1.593249167E0,-1.183794498E0,4.218083382E0,1.079036951E0
1.598298125E0,8.638381958E-2,3.196811199E0,5.083155632E-1
1.603347135E0,1.802692413E-1,3.364714622E0,2.389459610E-1
1.608403437E0,-2.036147118E-1,3.768193245E0,1.070084572E-1
1.613452396E0,-6.469125748E-1,3.951710224E0,-3.818448782E-1
1.618501406E0,-9.291372299E-1,3.524688244E0,-7.179574370E-1
1.623550364E0,-1.008292675E0,3.267318726E0,-1.149522305E0
1.628599323E0,-9.154710770E-1,3.185625076E0,-1.558101892E0
1.633648333E0,-8.820276260E-1,3.005874634E0,-1.758659601E0
1.638704687E0,-8.886890411E-1,3.132723808E0,-1.887040377E0
1.643754635E0,-3.776345253E-1,2.706175804E0,-1.760399342E0
1.648804635E0,3.790054321E-1,2.359401703E0,-1.587361336E0
1.653854583E0,9.716873169E-1,2.800201893E0,-1.594685555E0
1.658904531E0,1.536836147E0,2.834971905E0,-1.686339021E0
1.663954479E0,1.596034527E0,2.823352814E0,-1.619620204E0
1.669005885E0,2.065429688E0,2.102678776E0,-1.350112677E0
1.674055833E0,2.163639069E0,1.354923248E0,-1.194572449E0
1.679105833E0,1.451055050E0,3.152732849E-1,-5.292916298E-1
1.684155781E0,9.900879860E-1,-9.013080597E-2,-2.320057154E-1
1.689205729E0,5.886831284E-1,-6.619901657E-1,1.810808182E-1
1.694255677E0,1.081670284E0,-8.966217041E-1,7.863178253E-1
1.699307135E0,1.334659100E0,-8.427572250E-1,1.771319389E0
1.704357083E0,1.125553131E0,-4.577589035E-1,2.394910812E0
1.709407083E0,3.143310547E-1,1.262996197E0,3.079249382E0
1.714457031E0,-6.798312664E-1,2.631925583E0,1.846853018E0
1.719506979E0,-1.449160099E0,2.097504139E0,1.925631285E0
1.724556927E0,-1.962036848E0,9.729452133E-1,1.471107721E0
1.729608437E0,-1.728218317E0,-2.065114975E-1,1.719001532E-1
1.734658385E0,-1.274782419E0,-1.190506935E0,-1.002631664E0
1.739708385E0,-9.448895454E-1,-1.818884850E0,-1.967514634E0
1.744758333E0,-7.551128864E-1,-1.747664452E0,-2.841400146E0
1.749808281E0,-8.665673733E-1,-1.615550995E0,-3.181851387E0
1.754858229E0,-6.248233318E-1,-9.140615463E-1,-3.453114033E0
1.759949114E0,-1.707632542E-1,3.109865189E-1,-3.320477009E0
1.764999114E0,-5.887825489E-1,2.845698357E0,-2.859097719E0
1.770049062E0,-9.905390739E-1,3.855220318E0,-1.549333572E0
1.775099010E0,-8.057255745E-1,3.305553436E0,-2.484467506E0
1.780149010E0,-1.191197872E0,2.321325302E0,-2.369272232E0
1.785198958E0,-1.821841002E0,1.267060280E0,-1.789313674E0
1.790210937E0,-2.283594131E0,6.364946365E-1,-1.231483936E0
1.795260885E0,-2.092815399E0,9.287099838E-1,-9.030009508E-1
1.800310885E0,-1.516851902E0,1.974880219E0,-1.037718534E0
1.805360833E0,-9.905838966E-1,1.970324039E0,-1.793453097E0
1.810410781E0,-7.791144848E-1,2.079737186E0,-2.267190933E0
1.815460729E0,-6.861450672E-1,1.967614174E0,-2.418146133E0
1.820512135E0,-7.559833527E-1,1.749983788E0,-2.542818308E0
1.825562083E0,-8.429877758E-1,1.561634541E0,-2.785894394E0
1.830612083E0,-9.356641769E-1,1.488814354E0,-2.693828821E0
1.835662031E0,-1.236558914E0,1.518254757E0,-2.447173357E0
1.840711979E0,-1.785290360E0,1.545886993E0,-2.104956388E0
1.845761927E0,-2.556499243E0,1.767471313E0,-1.635718107E0
1.850852812E0,-2.869609833E0,2.080468178E0,-1.147069573E0
1.855902812E0,-2.793720961E0,2.609564781E0,-8.250038624E-1
1.860952760E0,-2.691105127E0,2.844322205E0,-5.259478092E-1
1.866002708E0,-2.346919298E0,3.171208382E0,-1.528849602E-1
1.871052708E0,-1.980208635E0,3.436056614E0,1.500504017E-1
1.876102656E0,-1.457424402E0,3.704864502E0,3.488292694E-1
1.881114635E0,-7.949341536E-1,3.736621380E0,4.312758446E-1
1.886164583E0,-2.827448845E-1,2.806377411E0,5.543177128E-1
1.891214583E0,3.081691265E-1,1.471377373E0,3.188006878E-1
1.896264531E0,6.542366743E-1,8.422470093E-1,-1.560337543E-1
1.901314479E0,1.911603212E-1,1.454644680E0,-6.864047050E-1
1.906364427E0,-3.597800732E-1,2.275955200E0,-7.875596285E-1
1.911415885E0,-3.665575981E-1,2.300828934E0,-5.990018845E-1
1.916465833E0,-2.131751180E-1,2.062310696E0,-1.596195698E-1
1.921515833E0,-2.025878429E-2,1.738245010E0,2.631776333E-1
1.926565781E0,2.345191240E-1,1.443771362E0,8.130714893E-1
1.931615729E0,4.148595333E-1,1.230885506E0,8.943216801E-1
1.936665677E0,6.061860323E-1,1.313543320E0,1.458709717E0
1.941717135E0,7.708896399E-1,2.059129715E0,4.234481335E0
1.946767083E0,8.323995471E-1,2.548980713E0,5.331497192E0
1.951817083E0,7.417858243E-1,2.908282757E0,3.448947906E0
1.956867031E0,5.031827688E-1,3.040250778E0,1.426631927E0
1.961916979E0,6.705946922E-1,2.922139168E0,4.435303211E-1
1.966966927E0,6.494411826E-1,2.190620422E0,-1.641186833E0
1.972057812E0,3.449248374E-1,5.250520706E-1,-4.899997234E0
1.977107812E0,4.077100754E-1,-1.305573463E0,-5.006331921E0
1.982157760E0,1.662255287E0,-6.638245583E0,-3.423131704E0
1.987207708E0,7.466467619E-1,-4.896922302E1,-3.842540741E0
1.992257708E0,-2.065165043E0,-6.852943420E1,-3.785573483E0
1.997307656E0,1.811504841E0,-6.946663666E1,-3.226832390E0
2.002319583E0,3.261751175E0,-6.326879120E1,-4.596328735E-2
2.007369531E0,1.478632331E0,-3.407596970E1,3.134772539E0
2.012419531E0,-5.242462158E-1,-1.158792591E1,4.259393692E0
2.017469479E0,-2.585958481E0,4.975776672E-1,4.533296108E0
2.022519427E0,-3.472497940E0,6.181038380E0,3.146884203E0
2.027569375E0,-3.698814869E0,8.155411720E0,1.363188982E0
2.032660260E0,-4.158167362E0,8.265838623E0,-1.113498211E-1
2.037710260E0,-4.985634327E0,6.692220688E0,-1.505445361E0
2.042760208E0,-5.150733948E0,3.986118317E0,-2.587460041E0
2.047810156E0,-4.949848652E0,1.345850945E0,-3.329152584E0
2.052860156E0,-4.965307236E0,-6.073904037E-1,-3.829276085E0
2.057910104E0,-5.111076355E0,-1.824407578E0,-3.957094669E0
2.062922031E0,-4.987147331E0,-2.597092628E0,-3.562072754E0
2.067971979E0,-4.440158367E0,-3.097912788E0,-2.835140467E0
2.073021979E0,-3.535495758E0,-3.348544121E0,-1.967770100E0
2.078071927E0,-2.413047791E0,-3.294764519E0,-1.164169550E0
2.083121875E0,-1.189803123E0,-2.852405548E0,-4.057403803E-1
2.088171823E0,-2.085822821E-1,-2.324328423E0,4.140904546E-1
2.093223281E0,2.890779972E-1,-2.135747910E0,1.110334158E0
2.098273229E0,5.039393902E-1,-2.076444626E0,1.587397814E0
2.103323229E0,4.011186361E-1,-1.948863983E0,1.798219442E0
2.108373177E0,1.064196825E-1,-1.977814674E0,1.835327744E0
2.113423125E0,1.314866543E-1,-2.029057503E0,1.661671042E0
2.118473073E0,3.642110825E-1,-1.971007347E0,1.474127293E0
2.123602864E0,3.495266438E-1,-1.848381996E0,1.652892828E0
2.128652864E0,-1.511209011E-1,-1.827377319E0,2.036081076E0
2.133702812E0,-7.658760548E-1,-1.867609978E0,2.305169344E0
2.138752812E0,-1.461015344E0,-1.911984444E0,2.485635996E0
2.143802760E0,-2.104840040E0,-1.829332352E0,3.079380989E0
2.148852708E0,-2.446853638E0,-1.890853882E0,5.648096561E0
2.153902708E0,-2.128854513E0,-1.979617119E0,1.056281757E1
2.158875885E0,-1.347475648E0,-1.647722244E0,1.239464760E1
2.163926042E0,-4.249663353E-1,-9.648075104E-1,1.118244362E1
2.168976198E0,2.834773064E-1,-3.179035187E-1,9.357378006E0
2.174026354E0,4.659256935E-1,3.281383514E-1,7.257099152E0
2.179076510E0,3.425058126E-1,1.049800873E0,5.513593197E0
2.184126667E0,2.928466797E-1,1.902075768E0,4.120781898E0
2.189177083E0,3.735805750E-1,2.734399319E0,2.662093163E0
2.194227239E0,6.658498049E-1,3.193575859E0,1.730593681E0
2.199277396E0,1.015764952E0,3.373303413E0,1.328727484E0
2.204327552E0,1.644335032E0,3.366235733E0,1.195254683E0
2.209377708E0,2.369204760E0,3.100476265E0,1.062854290E0
2.214427864E0,2.919515610E0,2.780669212E0,8.570380211E-1
2.219478333E0,3.395223379E0,2.406886101E0,8.417658806E-1
2.224528489E0,3.687013149E0,2.121601105E0,9.386532307E-1
2.229578646E0,3.902978420E0,1.832633018E0,8.867514133E-1
2.234628802E0,3.994966507E0,1.552791595E0,9.119505882E-1
2.239678958E0,4.013059139E0,1.107293129E0,1.001727581E0
2.244729114E0,3.966674805E0,6.276044846E-1,1.303074360E0
2.249779531E0,3.764123917E0,4.464721680E-1,1.683704615E0
2.254829687E0,3.487090111E0,4.423379898E-1,2.078184843E0
2.259879844E0,3.169895172E0,3.853778839E-1,2.435282230E0
2.264930000E0,2.787370682E0,5.939149857E-1,2.794828892E0
2.269980156E0,2.253428698E0,1.015539169E0,2.935850143E0
2.275030312E0,1.908820271E0,1.405744553E0,2.936868191E0
2.280080781E0,1.620015740E0,1.795379639E0,2.942179203E0
2.285130937E0,1.316829801E0,2.159114838E0,2.868672371E0
2.290181094E0,1.095058918E0,2.507436752E0,2.872752190E0
2.295231250E0,8.708987236E-1,2.782825947E0,2.872373581E0
2.300281406E0,6.683812141E-1,3.108283997E0,2.862192869E0
2.305331562E0,4.398281574E-1,3.416556358E0,2.959834814E0
2.310381979E0,2.383036613E-1,3.677508831E0,3.090226650E0
2.315432135E0,1.200344563E-1,3.935420990E0,3.084890842E0
2.320482292E0,2.482533455E-2,4.106609344E0,3.105756760E0
2.325532448E0,-1.320290565E-2,4.260641098E0,3.126697540E0
2.330582604E0,-7.120895386E-2,4.475409985E0,3.089167595E0
2.335632760E0,-1.103444099E-1,4.636315346E0,3.003935099E0
2.340683177E0,-9.285569191E-2,4.829692841E0,2.855531931E0
2.345733333E0,-7.555317879E-2,4.930079937E0,2.706390858E0
2.350783489E0,-4.930400848E-2,4.925943375E0,2.588628292E0
2.355833646E0,-1.726150513E-4,4.843959808E0,2.457878113E0
2.360883802E0,1.222252846E-2,4.822876930E0,2.316552639E0
2.365933958E0,6.690478325E-2,4.732372761E0,2.164452791E0
2.370984375E0,1.019186974E-1,4.596316338E0,2.031659126E0
2.376034531E0,1.619071960E-1,4.407443523E0,1.888368368E0
2.381084687E0,1.372029781E-1,4.193085670E0,1.743274212E0
2.386134844E0,2.005052567E-1,3.829981804E0,1.610874653E0
2.391185000E0,2.706093788E-1,3.405458450E0,1.367140293E0
2.396235156E0,3.676345348E-1,2.911252499E0,1.056638241E0
2.401285625E0,4.478440285E-1,2.405849457E0,6.091024876E-1
2.406335781E0,5.324480534E-1,1.829290390E0,1.705265045E-2
2.411385937E0,4.704649448E-1,1.285614014E0,-6.722478867E-1
2.416436094E0,5.096166134E-1,7.026677132E-1,-1.609673023E0
2.421486250E0,4.228806496E-1,1.411857605E-1,-2.676502705E0
2.426536406E0,2.833000422E-1,-3.767728806E-1,-3.691931248E0
2.431586823E0,1.130663157E-1,-8.241472244E-1,-4.527845860E0
2.436636979E0,-1.191776991E-1,-1.298274040E0,-5.287108898E0
2.441687135E0,-4.155690670E-1,-1.830595016E0,-5.750957966E0
2.446737292E0,-6.643677950E-1,-2.336336136E0,-6.043469906E0
2.451787448E0,-9.674136639E-1,-2.595687866E0,-6.000950336E0
2.456837604E0,-1.227472305E0,-2.726164818E0,-5.587258339E0
2.461888021E0,-1.351015925E0,-2.570143700E0,-5.010080814E0
2.466938177E0,-1.194240212E0,-2.197239876E0,-4.427625179E0
2.471988333E0,-7.812156677E-1,-1.696073532E0,-4.092752457E0
2.477038489E0,-2.940561771E-1,-1.231643677E0,-4.004357815E0
2.482088646E0,1.230895519E-1,-7.939386368E-1,-4.057457924E0
2.487138802E0,2.918043137E-1,-4.795894623E-1,-4.274701118E0
2.492189219E0,3.326931000E-1,-2.093658447E-1,-4.641471863E0
2.497239375E0,2.681491375E-1,-6.317234039E-2,-5.218459129E0
2.502289531E0,1.284619570E-1,4.302597046E-2,-5.645859718E0
2.507339687E0,-1.223260164E-1,-9.118938446E-2,-5.926326752E0
2.512439844E0,-3.200179338E-1,-3.095741272E-1,-5.850096226E0
2.517490000E0,-5.387371778E-1,-6.415662766E-1,-5.591850758E0
2.522540156E0,-7.130012512E-1,-1.071516037E0,-5.300382614E0
2.527590312E0,-8.874510527E-1,-1.746390343E0,-4.996236801E0
2.532640469E0,-1.096347213E0,-2.672101021E0,-4.657838821E0
2.537690625E0,-1.347117782E0,-3.862695694E0,-4.395734310E0
2.542740781E0,-1.539574742E0,-5.314045906E0,-4.343355656E0
2.547741458E0,-1.570554137E0,-7.089514732E0,-4.170474052E0
2.552791614E0,-1.555764437E0,-9.038774490E0,-4.092998981E0
2.557841771E0,-1.925129652E0,-1.080143356E1,-4.048308372E0
2.562891927E0,-2.343372345E0,-1.154917431E1,-2.667207241E0
2.567942083E0,-2.852324486E0,-1.051262188E1,1.041592598E0
2.572992239E0,-2.742769003E0,-7.879357338E0,3.459142923E0
2.578042656E0,-2.314169884E0,-4.354757309E0,2.761680841E0
2.583092812E0,-2.357172251E0,-1.173933983E0,6.860878468E-1
2.588142969E0,-2.622938871E0,1.452694893E0,-8.936390877E-1
2.593193125E0,-2.599209785E0,3.246953011E0,-8.365263939E-1
2.598243281E0,-2.322245121E0,4.215041161E0,2.388033867E0
2.603293437E0,-2.737981796E0,4.330955505E0,7.844752312E0
2.608343854E0,-4.074414730E0,4.442345619E0,1.210562706E1
2.613394010E0,-5.784928799E0,4.696910858E0,1.454042339E1
2.618444167E0,-7.337362766E0,4.823499680E0,1.579845810E1
2.623494323E0,-8.569808006E0,4.268479347E0,1.597731686E1
2.628544479E0,-8.871747971E0,3.370641232E0,1.430774117E1
2.633594635E0,-1.035513306E1,3.147196770E0,9.885703087E0
2.638645052E0,-1.229635429E1,3.160928249E0,5.718216896E0
2.643695208E0,-1.246235847E1,3.162554264E0,3.122481823E0
2.648745364E0,-1.029127502E1,2.761273384E0,7.291438580E-1
2.653795521E0,-6.830891609E0,1.758469105E0,-1.414184809E0
2.658845677E0,-3.854645014E0,3.030519485E-1,-2.622464180E0
2.663895833E0,-1.473636866E0,-1.071254730E0,-2.912971258E0
2.668946250E0,7.276704311E-1,-2.118568420E0,-2.237058163E0
2.673996458E0,3.622227192E0,-2.683379173E0,-3.055157661E-1
2.679046614E0,8.017843246E0,-3.445932388E0,2.919322014E0
2.684096823E0,1.227135372E1,-4.436292648E0,5.419653893E0
2.689147031E0,1.451049614E1,-5.053663254E0,6.700108528E0
2.694197187E0,1.477770710E1,-5.217825890E0,7.056184769E0
2.699247448E0,1.340199089E1,-4.719125748E0,6.528747559E0
2.704297656E0,1.165616512E1,-4.037268639E0,5.480592728E0
2.709347812E0,1.032290936E1,-3.352924347E0,4.270456314E0
2.714398021E0,9.332060814E0,-2.714669228E0,3.244301796E0
2.719448229E0,8.355150223E0,-2.218943596E0,2.987662315E0
2.724498385E0,7.589740276E0,-1.961005211E0,3.468948603E0
2.729548646E0,6.653300285E0,-1.834961891E0,4.015352249E0
2.734598854E0,5.341257572E0,-1.667076111E0,4.326163292E0
2.739649010E0,3.768129826E0,-1.316941261E0,3.950062513E0
2.744699219E0,2.426163197E0,-8.728713989E-1,3.421746731E0
2.749749427E0,1.591500998E0,-6.704502106E-1,3.205165863E0
2.754799583E0,9.909399748E-1,-6.454076767E-1,2.959959030E0
2.759849844E0,4.577221274E-1,-7.040128708E-1,2.590790272E0
2.764900052E0,-3.583134413E-1,-5.439291000E-1,1.967413545E0
2.769950208E0,-1.234034538E0,-1.792860031E-1,1.416021109E0
2.775000417E0,-1.690355539E0,5.063343048E-2,1.239439249E0
2.780050625E0,-2.191280365E0,2.327528000E-1,9.526122212E-1
2.785100781E0,-3.387381554E0,1.071610451E0,3.236138821E-2
2.790151042E0,-4.277278900E0,1.410516739E0,-9.265645742E-1
2.795201250E0,-4.913678646E0,1.733161926E0,-1.716066718E0
2.800251406E0,-5.017863274E0,1.835177422E0,-2.387320518E0
2.805301614E0,-4.904417992E0,1.964744568E0,-2.867062807E0
2.810351823E0,-4.544827938E0,2.059952736E0,-3.059069872E0
2.815401979E0,-3.848882198E0,2.071034908E0,-3.084578276E0
2.820452239E0,-2.987966061E0,2.009194851E0,-2.847115993E0
2.825502448E0,-2.214049578E0,1.861663818E0,-2.619442463E0
2.830552604E0,-1.521120667E0,1.782897949E0,-2.348864079E0
2.835602812E0,-9.993160367E-1,1.852808952E0,-2.127882481E0
2.840653021E0,-5.646295547E-1,1.958602905E0,-1.936953306E0
2.845703177E0,-2.840517163E-1,2.023571014E0,-1.738905191E0
2.850753437E0,-2.534765005E-2,1.998736382E0,-1.502710700E0
2.855803646E0,1.763321757E-1,1.964369774E0,-1.215480804E0
2.860853802E0,2.590846419E-1,1.927730560E0,-9.161916375E-1
2.865904010E0,3.513011336E-1,1.908039093E0,-8.682637215E-1
2.870954219E0,4.789425433E-1,1.799009323E0,-9.433715343E-1
2.876004375E0,5.746322274E-1,1.645175934E0,-6.458850503E-1
2.881054635E0,5.946325660E-1,1.471809387E0,-3.239825368E-1
2.886104844E0,6.756348014E-1,1.328023911E0,-4.822504520E-2
2.891155000E0,5.246086717E-1,1.131267548E0,4.556856453E-1
2.896205208E0,1.714662313E-1,1.075220108E0,6.511300802E-1
2.901255417E0,-2.077372074E-1,1.010069847E0,5.666453242E-1
2.906305573E0,-6.549386978E-1,9.573135376E-1,1.674647927E-1
2.911355833E0,-9.798997641E-1,9.408388138E-1,-4.506024718E-1
2.916406042E0,-1.281776071E0,1.141130447E0,-1.104620576E0
2.921456198E0,-1.454166651E0,1.416680336E0,-1.739012718E0
2.926506406E0,-1.505999923E0,1.694402695E0,-2.268562078E0
2.931556614E0,-1.381861925E0,1.941952229E0,-2.735514641E0
2.936606771E0,-1.116267920E0,2.170095444E0,-2.966691971E0
2.941656979E0,-7.903808355E-1,2.296300888E0,-2.973431587E0
2.946707187E0,-4.221204519E-1,2.361318588E0,-2.775532246E0
2.951757344E0,8.862555027E-3,2.379597664E0,-2.220005035E0
2.956807552E0,4.208981395E-1,2.269837379E0,-1.451221108E0
2.961857760E0,9.543656111E-1,2.108763695E0,-5.257554054E-1
2.966907917E0,1.464373827E0,1.744745255E0,4.084911346E-1
2.971958177E0,1.895470738E0,1.245205879E0,1.448528647E0
2.977008385E0,2.177919865E0,8.520727158E-1,2.388870716E0
2.982058542E0,2.239995480E0,6.454744339E-1,3.080726862E0
2.987108750E0,2.131361485E0,5.560121536E-1,3.421314001E0
2.992158958E0,1.807300687E0,4.964570999E-1,3.303094387E0
2.997209114E0,1.459370136E0,4.216022491E-1,2.648744583E0
3.002259375E0,1.106914997E0,1.655387878E-1,1.413267851E0
3.007309583E0,7.707418799E-1,-2.891130447E-1,-2.761712074E-1
3.012359739E0,5.425485969E-1,-9.716682434E-1,-2.174248457E0
3.017409948E0,4.272115231E-1,-1.721404076E0,-4.176292419E0
3.022460156E0,4.695256650E-1,-2.450909615E0,-6.103926182E0
3.027510312E0,6.588226557E-1,-2.984533310E0,-7.708927155E0
3.032560573E0,1.082694054E0,-3.374122620E0,-8.829530716E0
3.037610781E0,1.567263365E0,-3.541027069E0,-9.335184097E0
3.042660937E0,1.928865433E0,-3.458006859E0,-8.924160004E0
3.047711146E0,2.056240082E0,-3.250895500E0,-7.710205078E0
3.052761354E0,1.772139788E0,-2.856789589E0,-5.924176693E0
3.057811510E0,1.196168900E0,-2.572895050E0,-3.857703924E0
3.062861719E0,4.020262361E-1,-2.401878357E0,-2.004357338E0
3.067911927E0,-4.972178936E-1,-2.342520714E0,-4.062831402E-1
3.072962083E0,-1.387428999E0,-2.301427841E0,7.345688343E-1
3.078012292E0,-2.067170143E0,-2.182715416E0,1.359671116E0
3.083062500E0,-2.514909744E0,-2.038755417E0,1.303420782E0
3.088112656E0,-2.717896938E0,-1.909770966E0,7.285203934E-1
3.093162917E0,-2.720993519E0,-1.782327652E0,-1.767716408E-1
3.098213125E0,-2.412468195E0,-1.846385956E0,-1.197317123E0
3.103263281E0,-1.776655912E0,-2.040420532E0,-2.290385008E0
3.108313489E0,-8.803065419E-1,-2.490563393E0,-3.356550217E0
3.113363698E0,1.379475594E-1,-3.230806351E0,-4.207289219E0
3.118413854E0,1.357696891E0,-4.275938034E0,-4.820682526E0
3.123464114E0,2.536504030E0,-5.468918800E0,-5.038447380E0
3.128514323E0,3.386685848E0,-6.453455925E0,-4.944641113E0
3.133564479E0,4.051301956E0,-7.206007957E0,-4.439506531E0
3.138614687E0,4.386982918E0,-7.594347000E0,-3.637870312E0
3.143664896E0,4.388391018E0,-7.854739189E0,-2.733159304E0
3.148715052E0,4.070677280E0,-8.079705238E0,-1.679722190E0
3.153804739E0,3.392767429E0,-8.178406715E0,-7.612676620E-1
3.158854948E0,2.576628685E0,-8.007752419E0,-5.963301659E-2
3.163905156E0,1.592094660E0,-7.402709007E0,1.687614918E-1
3.168955364E0,5.631867647E-1,-6.355410576E0,-8.268356323E-4
3.174005521E0,-3.382961154E-1,-5.189230919E0,-5.572481155E-1
3.179055729E0,-8.236061335E-1,-4.234475136E0,-1.010576248E0
3.184066458E0,-9.195589423E-1,-3.659869194E0,-1.365690708E0
3.189116667E0,-9.017260671E-1,-3.284202576E0,-1.517048001E0
3.194166875E0,-9.144987464E-1,-2.690586090E0,-1.455572486E0
3.199217031E0,-1.121180534E0,-2.036311150E0,-1.682512522E0
3.204267239E0,-1.640846252E0,-1.436219215E0,-2.382129431E0
3.209317448E0,-2.458807468E0,-9.536228180E-1,-3.310694456E0
3.214367604E0,-3.484919786E0,-6.785154343E-1,-4.053195000E0
3.219417812E0,-4.457290173E0,-4.585800171E-1,-4.499279976E0
3.224468021E0,-5.202758789E0,-3.072099686E-1,-4.561993122E0
3.229518177E0,-5.326931953E0,-4.399108887E-1,-4.082108974E0
3.234568385E0,-4.882981300E0,-8.909320831E-1,-3.303495407E0
3.239618594E0,-4.059904099E0,-1.636492729E0,-2.394924641E0
3.244668802E0,-2.997738838E0,-2.435851097E0,-1.292255521E0
3.249719010E0,-2.380124807E0,-3.118800163E0,-2.323042005E-1
3.254769219E0,-2.075163841E0,-3.570123672E0,7.635697126E-1
3.259819375E0,-2.117702007E0,-3.953262329E0,1.539827347E0
3.264869583E0,-2.226311922E0,-4.451691628E0,1.968111515E0
3.269919792E0,-2.736858130E0,-4.861268997E0,2.157565594E0
3.274969948E0,-3.093546391E0,-5.304876328E0,2.196654320E0
3.280020156E0,-3.190881491E0,-5.536884308E0,2.289752960E0
3.285070364E0,-2.940313339E0,-5.533424377E0,2.279811859E0
3.290120521E0,-2.443796158E0,-5.293498039E0,2.103327751E0
3.295170729E0,-1.987106800E0,-5.172853470E0,2.056587219E0
3.300220937E0,-1.668716431E0,-5.090139389E0,2.235265732E0
3.305271146E0,-1.207897067E0,-5.062241554E0,2.329671860E0
3.310321354E0,-1.241721630E0,-5.010568619E0,2.472832918E0
3.315371562E0,-1.439249635E0,-4.768158913E0,2.852965593E0
3.320421719E0,-1.691386461E0,-4.448947906E0,3.808371305E0
3.325471927E0,-1.157887816E0,-4.348781586E0,5.552367687E0
3.330522135E0,-3.512945175E-1,-4.094347954E0,5.745709419E0
3.335572292E0,8.435046673E-2,-3.507901192E0,5.282691002E0
3.340622500E0,8.018773794E-1,-2.964122772E0,5.754782200E0
3.345672708E0,1.422268033E0,-2.362667084E0,7.302722931E0
3.350722864E0,2.054485321E0,-1.866752625E0,9.729645729E0
3.355773073E0,2.682920933E0,-1.544362068E0,1.018409348E1
3.360823281E0,2.823437691E0,-9.847030640E-1,8.676219940E0
3.365873437E0,2.443015337E0,-1.502437592E-1,7.074166298E0
3.370923646E0,2.095535278E0,6.844139099E-1,5.911993504E0
3.375973854E0,1.984004140E0,1.397401810E0,4.822518349E0
3.381024010E0,2.084540606E0,1.885306835E0,3.837315559E0
3.386074219E0,2.335013628E0,2.180662155E0,3.090113163E0
3.391124427E0,2.636788845E0,2.322102547E0,2.365284681E0
3.396174583E0,2.954747915E0,2.421356678E0,1.774761081E0
3.401224792E0,3.244346380E0,2.435011387E0,1.660362720E0
3.406275000E0,3.452235937E0,2.424876213E0,1.734274864E0
3.411325156E0,3.583446264E0,2.313943863E0,2.212190151E0
3.416375364E0,3.721481085E0,2.139139175E0,2.789710045E0
3.421425573E0,3.699599743E0,2.017198086E0,3.337188721E0
3.426475781E0,3.645299196E0,1.920038223E0,3.800634861E0
3.431525989E0,3.401631355E0,1.939989090E0,4.131642818E0
3.436576198E0,3.159861565E0,1.990962029E0,4.563133240E0
3.441626354E0,2.916201830E0,2.069272995E0,4.915451527E0
3.446676562E0,2.626692057E0,2.313639641E0,5.112291813E0
3.451726771E0,2.375326633E0,2.654611588E0,5.288904667E0
3.456776927E0,2.052241087E0,2.986778259E0,5.398870945E0
3.461827135E0,1.655887365E0,3.323404789E0,5.514883041E0
3.466877344E0,1.311658859E0,3.741416931E0,5.460141182E0
3.471927500E0,1.003961205E0,4.149897575E0,5.249269485E0
3.476977708E0,7.965413332E-1,4.495285988E0,5.119501114E0
3.482027917E0,5.868139267E-1,4.795711040E0,4.946779728E0
3.487078073E0,3.621389866E-1,5.089427471E0,4.792831898E0
3.492128281E0,2.361562252E-1,5.344452381E0,4.602898598E0
3.497178489E0,6.928730011E-2,5.508262157E0,4.461182594E0
3.502228646E0,-1.086618900E-1,5.638845444E0,4.255290031E0
3.507278854E0,-3.059179783E-1,5.797443867E0,4.050244331E0
3.512329062E0,-5.109722614E-1,5.967313290E0,3.855844975E0
3.517379219E0,-6.908657551E-1,6.037089825E0,3.694114208E0
3.522429427E0,-8.229868412E-1,6.006940842E0,3.520703793E0
3.527479635E0,-9.322860241E-1,5.997754097E0,3.298409939E0
3.532529792E0,-9.854907990E-1,5.954460144E0,3.040463448E0
3.537580000E0,-9.928324223E-1,5.870826721E0,2.736134768E0
3.542630208E0,-9.905662537E-1,5.720168591E0,2.417817354E0
3.547680364E0,-9.056842327E-1,5.473329067E0,2.135797977E0
3.552730573E0,-6.387064457E-1,5.193404198E0,1.827012539E0
3.557780781E0,-4.035222530E-1,4.903939247E0,1.502561569E0
3.562830937E0,-2.209897041E-1,4.561379433E0,1.215488434E0
3.567881146E0,-7.501673698E-2,4.168019295E0,9.082245827E-1
3.572931354E0,6.558179855E-3,3.715136528E0,5.798034668E-1
3.577981510E0,1.249556541E-1,3.180872917E0,1.372718811E-1
3.583031719E0,3.164869547E-1,2.537274837E0,-4.340038300E-1
3.588081927E0,4.988453388E-1,1.807982445E0,-1.218109131E0
3.593132083E0,6.014871597E-1,1.008890629E0,-2.231926918E0
3.598182292E0,6.782554388E-1,1.942501068E-1,-3.426580429E0
3.603232500E0,6.714050770E-1,-6.296291351E-1,-4.793663502E0
3.608282656E0,3.558166027E-1,-1.536479950E0,-6.094086170E0
3.613332864E0,-2.247891426E-1,-2.462961197E0,-7.039256573E0
3.618383073E0,-1.030656815E0,-3.314511299E0,-7.709077835E0
3.623433229E0,-1.966619134E0,-3.933006287E0,-7.992815495E0
3.628483437E0,-2.939139366E0,-4.347240448E0,-7.984586239E0
3.633533646E0,-3.646271229E0,-4.576330185E0,-7.598038673E0
3.638583802E0,-3.825558662E0,-4.476664543E0,-6.844733238E0
3.643634010E0,-3.523870945E0,-4.019554138E0,-5.817093849E0
3.648684219E0,-3.073780060E0,-3.087852478E0,-4.736169338E0
3.653734375E0,-2.659154654E0,-1.869912148E0,-3.958365440E0
3.658784583E0,-2.162096024E0,-6.303796768E-1,-3.524584770E0
3.663834792E0,-1.640770912E0,4.706134796E-1,-3.378411770E0
3.668884896E0,-1.139122367E0,1.268565178E0,-3.331011772E0
3.673935104E0,-5.289061069E-1,1.828039169E0,-3.174170971E0
3.678985312E0,1.622629166E-2,2.272266388E0,-2.948198795E0
3.684035469E0,5.272929668E-1,2.533098698E0,-2.622398376E0
3.689085677E0,9.918356538E-1,2.625964165E0,-2.090629101E0
3.694135885E0,1.434930325E0,2.568490028E0,-1.613963604E0
3.699186094E0,1.522237062E0,2.124064445E0,-1.603493690E0
3.704236302E0,1.236229420E0,1.490634441E0,-1.323117733E0
3.709286458E0,6.297421455E-1,8.608694077E-1,-1.177658558E0
3.714336667E0,4.366648197E-2,2.036724091E-1,-1.150673389E0
3.719386875E0,-5.630116463E-1,-7.044715881E-1,-1.026288509E0
3.724437083E0,-1.199901223E0,-1.841778755E0,-9.665889740E-1
3.729487187E0,-1.907904744E0,-3.269259453E0,-9.958171844E-1
3.734537396E0,-2.547378063E0,-5.044514656E0,-1.358812332E0
3.739587552E0,-3.020929575E0,-7.039962769E0,-1.904599667E0
3.744637760E0,-3.148328781E0,-8.777628899E0,-2.467897415E0
3.749687969E0,-2.752709866E0,-9.687106133E0,-2.902448177E0
3.754738177E0,-2.019624472E0,-9.557854652E0,-3.477365017E0
3.759788333E0,-1.592504263E0,-8.663669586E0,-3.674597979E0
3.764838542E0,-2.124851227E0,-7.755289078E0,-3.229377508E0
3.769888698E0,-2.897118568E0,-7.386887550E0,-2.997160435E0
3.774938906E0,-3.117787361E0,-7.687398911E0,-3.009279728E0
3.779989114E0,-2.683800220E0,-8.026344299E0,-2.513746500E0
3.785039323E0,-1.256294012E0,-7.479919434E0,-6.512856483E-1
3.790089479E0,6.551504135E-3,-5.538145065E0,2.788111925E0
3.795139687E0,1.711019278E-1,-2.762294769E0,7.463171959E0
3.800189844E0,-6.564962864E-1,1.928157806E-1,1.156105614E1
3.805240052E0,-2.127327204E0,2.630599022E0,1.337313080E1
3.810290260E0,-3.729001760E0,4.569436073E0,1.397539520E1
3.815340469E0,-5.244311810E0,5.904131889E0,1.350145149E1
3.820390625E0,-7.208936691E0,6.859173775E0,1.215968513E1
3.825440833E0,-8.402015686E0,7.285393715E0,1.028883743E1
3.830490989E0,-8.514928818E0,7.352510452E0,8.127676964E0
3.835541198E0,-8.382447243E0,7.314566612E0,5.983404636E0
3.840591406E0,-7.732330799E0,7.132344246E0,3.850033283E0
3.845641614E0,-6.495777130E0,6.589478493E0,1.387455463E0
3.850691719E0,-4.811122894E0,5.478826523E0,-8.491041660E-1
3.855741927E0,-2.911026955E0,3.833166122E0,-1.787035942E0
3.860792083E0,-5.499755144E-1,2.082167625E0,-1.371561527E0
3.865842292E0,2.423707247E0,3.346424103E-1,-1.935472488E-1
3.870892500E0,5.745972633E0,-1.637773514E0,1.718063354E0
3.875942708E0,9.148242950E0,-3.815966606E0,3.904528856E0
3.880992864E0,1.190879822E1,-5.863540649E0,5.531066895E0
3.886043073E0,1.342015457E1,-7.345028877E0,6.317234516E0
3.891093229E0,1.363397312E1,-8.209495544E0,6.400189400E0
3.896143437E0,1.282984447E1,-8.488573074E0,5.822667122E0
3.901193646E0,1.139751816E1,-8.403943062E0,5.223286629E0
3.906243854E0,9.738326073E0,-7.793542862E0,4.668539047E0
3.911294010E0,7.960351944E0,-6.660059929E0,3.943704367E0
3.916344219E0,6.337374210E0,-5.231410980E0,3.885181189E0
3.921394375E0,4.664438725E0,-3.624869347E0,3.324097157E0
3.926444583E0,3.195730209E0,-2.114123344E0,2.786466360E0
3.931494792E0,2.233856916E0,-1.057302475E0,2.551746368E0
3.936545000E0,1.270286560E0,-3.144931793E-1,2.438152313E0
3.941595156E0,2.856829762E-1,1.749887466E-1,2.488832474E0
3.946645364E0,-4.913544655E-1,4.620437622E-1,2.572340727E0
3.951695521E0,-1.373504639E0,8.459539413E-1,2.429718018E0
3.956745729E0,-1.981754303E0,8.660564423E-1,2.586734772E0
3.961795937E0,-3.261485338E0,1.655130386E0,1.714909196E0
3.966846146E0,-4.334923267E0,2.401423454E0,3.254560232E-1
3.971896250E0,-5.168305874E0,3.013357162E0,-7.112479210E-1
3.976946458E0,-5.701528549E0,3.481187820E0,-1.702645421E0
3.981996614E0,-5.839148521E0,3.717709541E0,-2.479514122E0
3.987046823E0,-5.676074982E0,3.770110607E0,-2.768368721E0
3.992097031E0,-5.279837132E0,3.634192467E0,-2.677607536E0
3.997147239E0,-4.681387424E0,3.293796062E0,-2.545441151E0
4.002197396E0,-3.954356909E0,2.875008583E0,-2.515540600E0
4.007247604E0,-3.225191832E0,2.470148087E0,-2.570245266E0
4.012297760E0,-2.508954525E0,2.024236679E0,-2.563603640E0
4.017347969E0,-1.735592127E0,1.609150887E0,-2.340344429E0
4.022398177E0,-1.031969428E0,1.343259811E0,-2.027210236E0
4.027448385E0,-3.981275260E-1,1.176131248E0,-1.643149853E0
4.032498542E0,1.286813617E-1,1.026313782E0,-1.265717030E0
4.037548750E0,5.089499354E-1,8.555202484E-1,-8.334112167E-1
4.042598906E0,7.489504814E-1,8.205041885E-1,-4.285658002E-1
4.047649114E0,9.435817003E-1,8.744554520E-1,-1.437976211E-1
4.052699323E0,1.000864983E0,9.479217529E-1,1.149342954E-1
4.057749531E0,1.136804700E0,9.500684738E-1,4.324343503E-1
4.062799687E0,1.200315237E0,9.552259445E-1,8.010967970E-1
4.067849896E0,1.239993691E0,8.414478302E-1,1.137129784E0
4.072900052E0,1.165540695E0,7.548627853E-1,1.438244462E0
4.077950260E0,9.880918860E-1,7.253074646E-1,1.632477045E0
4.083000469E0,8.239370584E-1,6.497745514E-1,1.680739403E0
4.088050677E0,6.370422244E-1,6.012277603E-1,1.543100357E0
4.093100781E0,5.449190140E-1,5.855169296E-1,1.282688618E0
4.098150989E0,5.018447042E-1,6.216535568E-1,8.898186684E-1
4.103201146E0,5.664647818E-1,6.281194687E-1,4.360867739E-1
4.108251354E0,6.807634234E-1,6.491231918E-1,-1.479560733E-1
4.113301562E0,7.690395117E-1,6.905755997E-1,-7.981882691E-1
4.118351771E0,7.944977283E-1,7.715139389E-1,-1.304837704E0
4.123401927E0,7.023423910E-1,9.780149460E-1,-1.587016344E0
4.128452135E0,5.386269689E-1,1.187937737E0,-1.753912926E0
4.133502292E0,3.302947283E-1,1.373827934E0,-1.781885624E0
4.138552500E0,1.576748192E-1,1.517889023E0,-1.635434508E0
4.143602708E0,-4.124885798E-2,1.664524078E0,-1.372801542E0
4.148652917E0,-1.910216808E-1,1.775562286E0,-1.029519320E0
4.153742448E0,-2.700350285E-1,1.751670361E0,-7.058027983E-1
4.158792656E0,-2.642084062E-1,1.710540771E0,-4.312044382E-1
4.163842864E0,-2.776589096E-1,1.670036316E0,-2.640396357E-1
4.168893073E0,-2.411459982E-1,1.564438820E0,-3.547554016E-1
4.173943229E0,-2.109796703E-1,1.324585915E0,-6.152589321E-1
4.178993437E0,-1.562546194E-1,9.520225525E-1,-1.018469453E0
4.184004167E0,-2.232992053E-1,3.898868561E-1,-1.535305977E0
4.189054375E0,-3.722007871E-1,-1.989040375E-1,-2.199605465E0
4.194104531E0,-5.693017840E-1,-7.899761200E-1,-2.837486029E0
4.199154739E0,-6.481451392E-1,-1.307817459E0,-3.338780880E0
4.204204948E0,-6.891371608E-1,-1.785940170E0,-3.783983469E0
4.209255156E0,-6.733109355E-1,-2.158531189E0,-3.987887383E0
4.214305312E0,-6.114745140E-1,-2.422265053E0,-3.969581127E0
4.219355469E0,-4.453251958E-1,-2.559514999E0,-3.646622658E0
4.224405677E0,-2.685565948E-1,-2.539559364E0,-3.282450914E0
4.229455885E0,-4.185163975E-2,-2.343561172E0,-3.018823147E0
4.234506042E0,1.298298836E-1,-2.218252182E0,-2.858296871E0
4.239556250E0,3.414428830E-1,-2.076133728E0,-2.854214668E0
4.244606406E0,6.301133633E-1,-2.036646843E0,-2.930330038E0
4.249656562E0,9.468239546E-1,-2.009786606E0,-3.072864532E0
4.254706771E0,1.333385468E0,-2.046901703E0,-3.184670210E0
4.259756979E0,1.653108478E0,-2.082075119E0,-3.220338821E0
4.264807135E0,1.984519720E0,-2.134438515E0,-3.300961971E0
4.269857344E0,2.201792240E0,-2.256675720E0,-3.317995071E0
4.274907552E0,2.330814838E0,-2.347009659E0,-3.332712173E0
4.279957708E0,2.306187630E0,-2.494143486E0,-3.307298660E0
4.285007917E0,2.174262047E0,-2.496888161E0,-3.272580147E0
4.290058125E0,1.927177906E0,-2.468885422E0,-3.241043806E0
4.295108281E0,1.665026426E0,-2.565551758E0,-3.108015060E0
4.300158489E0,1.494431376E0,-2.769826889E0,-2.898193121E0
4.305208646E0,1.470091820E0,-3.123290062E0,-2.614811420E0
4.310258802E0,1.640136719E0,-3.589807510E0,-2.320173502E0
4.315309010E0,1.924249649E0,-4.238512039E0,-2.114722967E0
4.320359219E0,2.072375774E0,-4.834787369E0,-1.833835006E0
4.325409375E0,2.168432474E0,-5.243412018E0,-1.796933651E0
4.330459583E0,2.201173306E0,-5.428669930E0,-1.976089001E0
4.335509739E0,2.081715107E0,-5.390885353E0,-2.246417522E0
4.340559896E0,1.910146832E0,-5.397187233E0,-2.502122402E0
4.345610104E0,1.692904234E0,-5.356677055E0,-2.726027012E0
4.350660312E0,1.551815510E0,-5.214138031E0,-2.879644632E0
4.355710469E0,1.423883677E0,-4.920446396E0,-2.910304546E0
4.360760677E0,1.266842008E0,-4.528074265E0,-2.909333229E0
4.365810885E0,1.117328286E0,-4.124235153E0,-2.895106316E0
4.370861042E0,1.013738871E0,-3.650260925E0,-2.789561749E0
4.375911250E0,9.361146688E-1,-3.032464027E0,-2.758968353E0
4.380961458E0,7.157334685E-1,-2.466340065E0,-2.797910213E0
4.386011614E0,2.612367868E-1,-2.024093628E0,-3.270746231E0
4.391061823E0,-4.836698771E-1,-1.719197273E0,-3.914979458E0
4.396111979E0,-1.174873352E0,-1.651591301E0,-4.408182144E0
4.401162135E0,-1.926370502E0,-1.631755829E0,-4.622742653E0
4.406212344E0,-2.428130865E0,-1.685886383E0,-4.482635498E0
4.411262552E0,-2.920079231E0,-1.716877937E0,-4.007931709E0
4.416312708E0,-3.668280125E0,-1.571512222E0,-3.162344694E0
4.421362917E0,-4.015329361E0,-1.566676140E0,-1.970197082E0
4.426413073E0,-4.125230789E0,-1.712183952E0,-6.702915430E-1
4.431463229E0,-3.903770685E0,-1.989729881E0,5.995230079E-1
4.436513437E0,-3.726816654E0,-2.439096451E0,1.759478807E0
4.441563646E0,-3.928037167E0,-2.903788567E0,2.752462149E0
4.446613854E0,-4.297505856E0,-3.445385933E0,3.657072306E0
4.451664010E0,-4.667517662E0,-4.074099541E0,4.281463623E0
4.456714219E0,-5.015867233E0,-4.583903313E0,4.076230049E0
4.461764375E0,-5.070134163E0,-5.070636749E0,3.414720297E0
4.466814583E0,-4.700196266E0,-5.382484436E0,2.896950245E0
4.471864792E0,-4.066579342E0,-5.513552666E0,2.559431553E0
4.476914948E0,-3.306970358E0,-5.444707870E0,2.374454975E0
4.481965156E0,-2.441290379E0,-5.327804565E0,2.290689468E0
4.487015312E0,-1.707042098E0,-5.218721390E0,2.279386997E0
4.492065469E0,-1.416671872E0,-5.205809593E0,2.303929567E0
4.497115677E0,-1.689612746E0,-4.999647141E0,2.077297211E0
4.502165885E0,-1.750233054E0,-4.809874535E0,2.046627283E0
4.507216042E0,-1.626859307E0,-4.527292252E0,2.617896557E0
4.512266250E0,-8.606485128E-1,-4.674424171E0,5.117167473E0
4.517316406E0,6.571944952E-1,-5.099040985E0,7.205347061E0
4.522366562E0,1.407424212E0,-5.083230019E0,8.437643051E0
4.527416771E0,1.916646004E0,-4.672570229E0,9.825063705E0
4.532466979E0,2.340114832E0,-3.658607483E0,7.916521072E0
4.537517135E0,2.138919592E0,-2.342536926E0,5.983058453E0
4.542567344E0,1.634387255E0,-1.158952713E0,3.958837271E0
4.547617500E0,1.481405139E0,1.813125610E-1,2.229900837E0
4.552667656E0,1.637118578E0,1.229890823E0,1.421868920E0
4.557717864E0,2.421374559E0,1.717496872E0,1.699997902E0
4.562768073E0,3.495858192E0,1.707421303E0,2.480819225E0
4.567818229E0,4.026850700E0,1.590298653E0,2.845449924E0
4.572868437E0,4.370503426E0,1.618458748E0,3.127389431E0
4.577918594E0,4.500852585E0,1.699419975E0,3.392024279E0
4.582968750E0,4.546172142E0,1.782560825E0,3.564089298E0
4.588018958E0,4.488492966E0,1.828640938E0,3.736942291E0
4.593069167E0,4.368985653E0,1.837792873E0,3.970420599E0
4.598119323E0,4.148210526E0,1.949827671E0,4.198863029E0
4.603169531E0,3.736621380E0,2.194110870E0,4.329522610E0
4.608219687E0,3.336314201E0,2.394315720E0,4.461030483E0
4.613269844E0,2.926498890E0,2.539492607E0,4.669037819E0
4.618320052E0,2.518694878E0,2.768217087E0,4.868806362E0
4.623370260E0,2.009712219E0,2.960613728E0,5.063908577E0
4.628420417E0,1.631799102E0,3.134748459E0,5.197508335E0
4.633470625E0,1.162834167E0,3.325642586E0,5.280944824E0
4.638520833E0,7.853856087E-1,3.516013622E0,5.231565952E0
4.643570989E0,4.766044617E-1,3.747499466E0,5.103043556E0
4.648621198E0,2.260680199E-1,3.921738148E0,4.919465542E0
4.653671406E0,3.724575043E-3,4.222490311E0,4.787422657E0
4.658721562E0,-2.625024319E-1,4.561807632E0,4.531934738E0
4.663771771E0,-5.510895252E-1,4.789894104E0,4.287154198E0
4.668821927E0,-7.328128815E-1,5.031929970E0,4.081086159E0
4.673872083E0,-9.231305122E-1,5.277925491E0,3.950619221E0
4.678922292E0,-1.079798937E0,5.496467113E0,3.887741566E0
4.683972500E0,-1.199098110E0,5.776946545E0,3.739838839E0
4.689022656E0,-1.225074530E0,5.947896957E0,3.652453899E0
4.694072864E0,-1.255220413E0,6.024856091E0,3.481276035E0
4.699122969E0,-1.282825232E0,6.037733555E0,3.281872272E0
4.704173125E0,-1.316805840E0,5.987580299E0,3.143443584E0
4.709223333E0,-1.252256870E0,5.845676422E0,3.057869196E0
4.714273542E0,-1.149219036E0,5.699307442E0,2.957190514E0
4.719323698E0,-1.069978476E0,5.446659565E0,2.828478813E0
4.724373906E0,-9.249389172E-1,5.134377480E0,2.672035694E0
4.729424114E0,-7.188119888E-1,4.781460285E0,2.604151726E0
4.734474271E0,-5.113074780E-1,4.331578732E0,2.515954971E0
4.739524479E0,-3.316905499E-1,3.939024925E0,2.392961502E0
4.744574687E0,-8.837080002E-2,3.495904922E0,2.244642496E0
4.749624844E0,1.331248283E-1,3.013013840E0,1.930700779E0
4.754675052E0,2.754722834E-1,2.552530289E0,1.512344837E0
4.759725156E0,4.358346462E-1,2.018751144E0,9.571762085E-1
4.764775312E0,5.855793953E-1,1.370930672E0,1.925249100E-1
4.769825521E0,7.798163891E-1,6.674547195E-1,-7.150197029E-1
4.774875729E0,9.001905918E-1,-3.977298737E-2,-1.997233868E0
4.779925885E0,8.998031616E-1,-7.732868195E-1,-3.559553623E0
4.784976094E0,6.775331497E-1,-1.477033615E0,-5.240085602E0
4.790026302E0,3.249542713E-1,-2.092191696E0,-6.808486938E0
4.795076458E0,-2.178472281E-1,-2.686431885E0,-7.893286705E0
4.800126667E0,-9.346477985E-1,-3.067311287E0,-8.440420151E0
4.805176875E0,-1.598412871E0,-3.239306450E0,-8.546854019E0
4.810227031E0,-2.088522434E0,-3.254541397E0,-8.296763420E0
4.815277239E0,-2.264421463E0,-3.077839851E0,-7.770314217E0
4.820327344E0,-2.101458311E0,-2.751012802E0,-7.095526695E0
4.825377500E0,-1.672881961E0,-2.210984230E0,-6.305772781E0
4.830427708E0,-1.212494612E0,-1.439121246E0,-5.243162155E0
4.835477917E0,-8.168158531E-1,-6.774215698E-1,-4.249011517E0
4.840528073E0,-4.474886656E-1,-1.551723480E-2,-3.459331512E0
4.845578281E0,-9.007608891E-2,5.851817131E-1,-2.908056736E0
4.850628489E0,2.891721725E-1,1.073852062E0,-2.549181938E0
4.855678646E0,6.618036032E-1,1.461968422E0,-2.336756229E0
4.860728854E0,1.052016854E0,1.715761185E0,-2.048188210E0
4.865779062E0,1.315290451E0,1.876972198E0,-1.680711269E0
4.870829219E0,1.443950534E0,1.857915401E0,-1.481352329E0
4.875879427E0,1.386734724E0,1.524171829E0,-1.117788315E0
4.880929531E0,1.088763475E0,1.065326214E0,-7.795329094E-1
4.885979687E0,5.598809719E-1,2.626113892E-1,-7.003502846E-1
4.891029896E0,-2.671456337E-2,-8.052730560E-1,-5.833787918E-1
4.896080104E0,-5.625513792E-1,-2.069392204E0,-2.964072227E-1
4.901130260E0,-9.794538021E-1,-3.554589272E0,-1.315493584E-1
4.906180469E0,-1.659985185E0,-5.325813293E0,-1.951918602E-1
4.911230625E0,-2.921977043E0,-7.293851852E0,-2.608699799E-1
4.916280781E0,-4.240868568E0,-9.124196053E0,-1.114616394E-1
4.921330989E0,-5.341263294E0,-1.027029514E1,4.261822701E-1
4.926381198E0,-6.150519371E0,-1.019357681E1,7.043566704E-1
4.931431354E0,-6.688773155E0,-8.848467827E0,-1.559829712E-2
4.936481562E0,-6.775857925E0,-6.871432304E0,-1.575779438E0
4.941531719E0,-6.434324741E0,-4.947077751E0,-3.176439285E0
4.946581875E0,-6.042883396E0,-3.559869766E0,-3.740494728E0
4.951632083E0,-5.403195381E0,-3.001846313E0,-2.097661972E0
4.956682292E0,-4.990452766E0,-2.650240898E0,1.637607813E0
4.961732448E0,-4.878621101E0,-2.006748199E0,5.845880508E0
4.966782656E0,-5.128622055E0,-1.028779030E0,8.690366745E0
4.971832812E0,-5.775825500E0,1.563444138E-1,1.002316666E1
4.976882969E0,-6.363624573E0,1.463041306E0,1.035905457E1
4.981933177E0,-6.596390724E0,2.766522408E0,9.593356133E0
4.986983385E0,-6.811940193E0,3.896255016E0,7.984415054E0
4.992033542E0,-6.800175667E0,4.724896431E0,6.004949570E0
4.997083750E0,-6.411118031E0,5.058891296E0,4.117757797E0
5.002133906E0,-5.504097939E0,4.946815491E0,2.293708324E0
5.007184062E0,-4.198056698E0,4.534259796E0,3.924615383E-1
5.012234271E0,-2.572081327E0,3.707112789E0,-1.196789742E0
5.017284479E0,-1.027592659E0,2.468977928E0,-1.938776255E0
5.022334635E0,3.154001236E-1,1.074213505E0,-1.454230309E0
5.027384844E0,1.547794580E0,-1.977186203E-1,-6.407318115E-1
5.032435000E0,2.887874842E0,-1.258757591E0,4.147791862E-2
5.037485156E0,5.403528214E0,-2.257451057E0,1.960206747E0
5.042535364E0,7.990859985E0,-3.225368500E0,3.826822758E0
5.047585573E0,1.025898361E1,-4.062065125E0,5.457887650E0
5.052635729E0,1.199826908E1,-4.679326057E0,6.806188107E0
5.057685937E0,1.298708057E1,-5.006878853E0,7.378726482E0
5.062736042E0,1.308184624E1,-4.988351822E0,7.184208870E0
5.067786198E0,1.258203316E1,-4.805478096E0,6.725819588E0
5.072836406E0,1.152475262E1,-4.357247353E0,5.842441559E0
5.077886614E0,9.798201561E0,-3.673262596E0,4.346042633E0
5.082936771E0,7.906355381E0,-2.781255722E0,2.890698433E0
5.087986979E0,6.406929970E0,-1.925353050E0,2.387365818E0
5.093037135E0,5.219435692E0,-1.078019142E0,2.776004791E0
5.098087292E0,4.052647114E0,-4.290733337E-1,3.412148714E0
5.103137500E0,3.063404322E0,4.212760925E-2,4.044919491E0
5.108187708E0,2.094390869E0,3.424291611E-1,4.347476959E0
5.113237864E0,1.101780653E0,6.072797775E-1,4.209700584E0
5.118288073E0,2.260197401E-1,7.825164795E-1,3.706333637E0
5.123338229E0,-3.514346480E-1,9.025440216E-1,3.758926392E0
5.128388385E0,-1.187743187E0,1.111850739E0,3.526342154E0
5.133438594E0,-1.963267088E0,1.367845535E0,3.008518219E0
5.138488802E0,-2.107198238E0,1.054207802E0,2.987618446E0
5.143538958E0,-2.847503662E0,8.952722549E-1,2.430983305E0
5.148589167E0,-3.714951038E0,1.130708694E0,1.210876703E0
5.153639323E0,-4.746547699E0,1.197487831E0,1.690375805E-2
5.158689479E0,-5.321443558E0,1.300306320E0,-9.660501480E-1
5.163739687E0,-5.622698784E0,1.538628578E0,-1.606473088E0
5.168789896E0,-5.654947758E0,1.830123901E0,-2.069902897E0
5.173840052E0,-5.383825779E0,2.007636070E0,-2.367714167E0
5.178890260E0,-5.030603886E0,2.091935158E0,-2.630917549E0
5.183940364E0,-4.497624874E0,2.064157486E0,-2.876280546E0
5.188990521E0,-3.759196758E0,1.895831108E0,-2.977898121E0
5.194040729E0,-2.992639303E0,1.733009338E0,-3.019229650E0
5.199090937E0,-2.260249138E0,1.528927803E0,-3.109195232E0
5.204141094E0,-1.629870653E0,1.299109459E0,-2.928298950E0
5.209191302E0,-1.090134621E0,1.117729187E0,-2.468994379E0
5.214280885E0,-6.524392366E-1,9.572744370E-1,-1.810115576E0
5.219331094E0,-2.714595795E-1,8.475570679E-1,-1.287737608E0
5.224381250E0,8.959889412E-3,7.790060043E-1,-8.302530050E-1
5.229431458E0,2.438524365E-1,7.624053955E-1,-4.565659165E-1
5.234481667E0,4.665120244E-1,7.439393997E-1,-1.378366798E-1
5.239531823E0,6.536204815E-1,8.026561737E-1,1.185046136E-1
5.244542552E0,8.023169637E-1,8.248949051E-1,4.132016897E-1
5.249592708E0,9.821699262E-1,7.139043808E-1,6.671524644E-1
5.254642917E0,1.074849367E0,6.158485413E-1,8.487460017E-1
5.259693073E0,1.039177179E0,6.096773148E-1,9.189884663E-1
5.264743281E0,9.423615932E-1,6.210584641E-1,8.878298998E-1
5.269793437E0,7.413110137E-1,7.097272873E-1,7.440055609E-1
5.274843646E0,5.331599712E-1,8.599567413E-1,4.968785346E-1
5.279893802E0,2.684484720E-1,9.710721970E-1,1.989361942E-1
5.284944010E0,1.033605337E-1,1.072916985E0,-2.264280319E-1
5.289994167E0,4.195418954E-2,1.184562683E0,-6.482657790E-1
5.295044375E0,6.343722343E-4,1.181524277E0,-1.044771671E0
5.300094531E0,1.341428757E-1,1.160778046E0,-1.427692652E0
5.305144687E0,3.071267903E-1,1.172549248E0,-1.770425916E0
5.310194844E0,4.966852665E-1,1.176100731E0,-2.041703463E0
5.315245052E0,7.363189459E-1,1.145098686E0,-2.100148201E0
5.320295208E0,9.734448195E-1,1.134578705E0,-1.949519157E0
5.325345417E0,1.198503971E0,1.094229698E0,-1.538554907E0
5.330395573E0,1.394701481E0,1.126935005E0,-9.392365813E-1
5.335445781E0,1.621784329E0,1.169145584E0,-1.123884916E-1
5.340495989E0,1.773954511E0,1.208975792E0,6.602004766E-1
5.345546146E0,1.880570054E0,1.299175262E0,1.358970523E0
5.350596302E0,1.832002878E0,1.334550858E0,2.009772062E0
5.355646510E0,1.652630091E0,1.354869843E0,2.417383671E0
5.360696667E0,1.242942810E0,1.320885658E0,2.474024057E0
5.365746875E0,7.739194632E-1,1.241348267E0,2.169233084E0
5.370797031E0,3.069380522E-1,1.170325279E0,1.468003988E0
5.375847239E0,-1.617124975E-1,1.037330627E0,5.358467102E-1
5.380897396E0,-6.085243225E-1,9.093627930E-1,-6.395179033E-1
5.385947604E0,-8.196790218E-1,6.284761429E-1,-2.086842299E0
5.390997760E0,-8.330465555E-1,1.566534042E-1,-3.597565413E0
5.396047917E0,-6.978438497E-1,-3.454818726E-1,-5.133106232E0
5.401098073E0,-3.927827477E-1,-1.038163185E0,-6.376468658E0
5.406148281E0,-1.096852720E-1,-1.692488670E0,-7.187542915E0
5.411198437E0,2.223812342E-1,-2.303608894E0,-7.420748234E0
5.416248646E0,5.862766504E-1,-2.651375771E0,-6.915276051E0
5.421298802E0,8.365616202E-1,-2.793644905E0,-5.798310280E0
5.426349010E0,8.385583162E-1,-2.977187157E0,-4.341508865E0
5.431399167E0,6.623708606E-1,-3.168719292E0,-2.925619364E0
5.436449375E0,4.664333761E-1,-3.223661423E0,-1.819295406E0
5.441499531E0,3.433320224E-1,-3.058387756E0,-1.097453475E0
5.446549739E0,1.838734746E-1,-2.845207214E0,-8.869557381E-1
5.451599896E0,6.299197674E-2,-2.645991325E0,-1.010217428E0
5.456650104E0,-8.735054731E-2,-2.473525047E0,-1.355754852E0
5.461700260E0,-1.867696643E-1,-2.414966583E0,-1.901472688E0
5.466750469E0,-2.161753774E-1,-2.391101837E0,-2.544017315E0
5.471800625E0,-1.849756837E-1,-2.411462784E0,-3.210414171E0
5.476850833E0,-1.360099912E-1,-2.393461227E0,-3.814585686E0
5.481900989E0,-3.886139393E-2,-2.444780350E0,-4.381650448E0
5.486951146E0,7.692065835E-2,-2.536649704E0,-4.778934479E0
5.492001302E0,2.373507023E-1,-2.617679596E0,-4.937441349E0
5.497051510E0,4.930436015E-1,-2.796743393E0,-4.820322990E0
5.502101667E0,8.282711506E-1,-3.056847572E0,-4.496927261E0
5.507151875E0,1.217339993E0,-3.440834999E0,-3.951650858E0
5.512202031E0,1.678566456E0,-3.874389648E0,-3.412187099E0
5.517252239E0,2.170369864E0,-4.429192543E0,-2.902455091E0
5.522302396E0,2.511049509E0,-5.125571251E0,-2.275870562E0
5.527352604E0,2.708977222E0,-5.794768333E0,-1.808235168E0
5.532402760E0,2.882493973E0,-6.208267212E0,-1.480288029E0
5.537452969E0,3.006534815E0,-6.272865295E0,-1.378707409E0
5.542503125E0,2.891900063E0,-6.045060158E0,-1.398579359E0
5.547553281E0,2.523303986E0,-5.740631104E0,-1.541999340E0
5.552603437E0,2.024283409E0,-5.449348450E0,-1.876370788E0
5.557653646E0,1.433397770E0,-5.155371666E0,-2.297089338E0
5.562703802E0,8.511604071E-1,-4.824931145E0,-2.774943352E0
5.567754010E0,3.197837174E-1,-4.414759636E0,-3.090367794E0
5.572804167E0,2.975463867E-4,-3.952130318E0,-3.291306019E0
5.577854375E0,2.468806505E-2,-3.412170410E0,-3.239342213E0
5.582904531E0,1.768923104E-1,-3.017924309E0,-2.934730530E0
5.587954739E0,3.625772893E-1,-2.672101974E0,-2.359497309E0
5.593004896E0,4.459654391E-1,-2.363406181E0,-2.164996624E0
5.598055104E0,2.403720021E-1,-2.035745621E0,-2.655115604E0
5.603105260E0,-6.331417561E-1,-1.767998695E0,-3.724331379E0
5.608155417E0,-1.639036179E0,-1.391708374E0,-4.579618454E0
5.613205573E0,-2.780311584E0,-9.198331833E-1,-5.076495171E0
5.618255781E0,-3.541474819E0,-4.936914444E-1,-5.042411804E0
5.623305937E0,-3.936033249E0,-1.912288666E-1,-4.504230499E0
5.628356146E0,-3.898440838E0,-1.954832077E-1,-3.522910118E0
5.633406302E0,-3.405697346E0,-6.289405823E-1,-2.228052616E0
5.638456510E0,-3.145020962E0,-1.285582542E0,-1.054579020E0
5.643506667E0,-3.094393730E0,-1.856220245E0,1.353961676E-1
5.648556875E0,-3.299486876E0,-2.531801224E0,1.171056986E0
5.653607031E0,-3.495970488E0,-3.512498856E0,1.883219600E0
5.658657239E0,-3.614489079E0,-4.474263191E0,2.358066559E0
5.663707396E0,-3.511591911E0,-5.310056686E0,2.615777731E0
5.668757552E0,-3.182706118E0,-5.939232826E0,2.689723015E0
5.673807708E0,-2.986479521E0,-6.350816727E0,2.744149685E0
5.678857917E0,-3.000118732E0,-6.269672394E0,2.879047394E0
5.683908073E0,-2.945534706E0,-5.942800522E0,2.842397451E0
5.688958281E0,-2.724174738E0,-5.247512817E0,2.525858164E0
5.694008437E0,-2.308677673E0,-4.712100983E0,2.335634232E0
5.699058646E0,-1.767452121E0,-4.317315102E0,2.327534914E0
5.704108802E0,-1.261691451E0,-4.104807854E0,2.456479549E0
5.709159010E0,-7.458875179E-1,-4.010824203E0,2.702670097E0
5.714209167E0,-9.320510626E-1,-3.922719955E0,3.545333385E0
5.719259375E0,-1.220153570E0,-3.964867592E0,7.286802292E0
5.724309531E0,3.294364214E-1,-4.413424492E0,1.016213703E1
5.729359687E0,1.539858341E0,-4.442318916E0,9.028585434E0
5.734409844E0,2.516308308E0,-3.965859413E0,7.859615326E0
5.739460052E0,2.796127796E0,-3.177222252E0,7.250033379E0
5.744510208E0,2.913719416E0,-2.299413681E0,5.937210083E0
5.749560417E0,2.773859978E0,-1.555055618E0,4.821282387E0
5.754610573E0,2.502216816E0,-6.901264191E-1,3.755969048E0
5.759660729E0,2.481064081E0,4.454231262E-2,2.518393755E0
5.764710885E0,2.514935493E0,8.307027817E-1,1.554852605E0
5.769761094E0,2.601410151E0,1.482979774E0,7.920374870E-1
5.774811250E0,2.674573660E0,2.046434402E0,3.469827175E-1
5.779861458E0,3.026849031E0,2.126728535E0,9.026789665E-1
5.784911614E0,3.212435722E0,1.892696857E0,1.447402239E0
5.789961823E0,3.222587109E0,1.566795349E0,2.056481600E0
5.795011979E0,3.121909380E0,1.354250908E0,2.773635387E0
5.800062187E0,3.102493048E0,1.206936359E0,3.325664759E0
5.805112344E0,2.993952990E0,1.066288948E0,3.618601799E0
5.810162552E0,2.721488953E0,1.070671082E0,3.724746704E0
5.815212708E0,2.439186573E0,1.196474552E0,3.923463345E0
5.820262864E0,2.212659836E0,1.389296532E0,4.183074951E0
5.825313021E0,2.023045301E0,1.641602516E0,4.422862053E0
5.830363229E0,1.811386347E0,2.016151428E0,4.636526585E0
5.835413385E0,1.495979428E0,2.444408417E0,4.982150078E0
5.840463594E0,1.222616673E0,2.805164337E0,5.203832150E0
5.845513750E0,1.072731256E0,3.172601700E0,5.232533455E0
5.850563906E0,9.908560514E-1,3.547873497E0,5.192041874E0
5.855614062E0,9.618313313E-1,3.866467953E0,5.161728382E0
5.860664271E0,8.703842163E-1,4.200358391E0,5.171578884E0
5.865714427E0,8.081811666E-1,4.528250694E0,5.203566074E0
5.870764635E0,6.826908588E-1,4.789568901E0,5.391268730E0
5.875814792E0,6.168560982E-1,5.043519020E0,5.494752884E0
5.880865000E0,5.346484184E-1,5.204299450E0,5.560724735E0
5.885915156E0,4.310109615E-1,5.327446938E0,5.563790798E0
5.890965364E0,3.209569454E-1,5.415792942E0,5.555294514E0
5.896015521E0,2.424249649E-1,5.487772465E0,5.540849686E0
5.901065729E0,1.520152092E-1,5.518579483E0,5.455678940E0
5.906115885E0,4.544162750E-2,5.512322903E0,5.296030521E0
5.911166042E0,4.054975510E-2,5.517196655E0,5.183937550E0
5.916216198E0,5.551648140E-2,5.526448727E0,5.032733917E0
5.921266406E0,7.807707787E-2,5.529315948E0,4.894002914E0
5.926316562E0,1.045413017E-1,5.507914543E0,4.701808929E0
5.931366771E0,1.688272953E-1,5.498958588E0,4.499523163E0
5.936416927E0,2.261154652E-1,5.389658928E0,4.293083191E0
5.941467083E0,2.279324532E-1,5.239617825E0,3.965262651E0
5.946517239E0,2.359383106E-1,4.975214005E0,3.494043589E0
5.951567448E0,2.091543674E-1,4.572127342E0,3.068757057E0
5.956617604E0,2.414128780E-1,4.105548382E0,2.605665684E0
5.961667812E0,3.099205494E-1,3.603878975E0,2.113580942E0
5.966717969E0,2.770264149E-1,3.099182129E0,1.519806147E0
5.971768125E0,4.012393951E-1,2.490721703E0,9.658098221E-1
5.976818281E0,4.254746437E-1,1.811633110E0,2.940754890E-1
5.981868489E0,4.399437904E-1,1.064784050E0,-7.107305527E-1
5.986918646E0,3.236951828E-1,1.996345520E-1,-2.203868866E0
5.991968854E0,1.308212280E-1,-6.958770752E-1,-4.155385971E0
5.997019010E0,-1.198415756E-1,-1.737456322E0,-6.236603737E0
6.002069167E0,-4.500124454E-1,-2.836169243E0,-7.929280281E0
6.007119323E0,-9.158303738E-1,-3.959258080E0,-8.628885269E0
6.012169531E0,-1.570143461E0,-4.994023323E0,-8.099678040E0
6.017219687E0,-2.477814913E0,-5.723804474E0,-7.255305767E0
6.022269896E0,-3.403065920E0,-6.032777786E0,-6.879113197E0
6.027320052E0,-3.923603535E0,-5.816621780E0,-7.130354404E0
6.032370208E0,-3.887969494E0,-5.095623970E0,-7.666220665E0
6.037420364E0,-3.335914373E0,-3.751022339E0,-8.078084946E0
6.042470573E0,-2.718744278E0,-1.972753525E0,-7.931016445E0
6.047520729E0,-2.317977190E0,-3.366165161E-1,-7.147406578E0
6.052570937E0,-1.948117018E0,1.049056530E0,-6.110250473E0
6.057621094E0,-1.575789213E0,2.136032104E0,-5.101943016E0
6.062671302E0,-1.206954956E0,2.882484436E0,-4.246311665E0
6.067721458E0,-8.790683746E-1,3.361753464E0,-3.612355232E0
6.072771667E0,-6.415653229E-1,3.521185398E0,-3.142714500E0
6.077821823E0,-2.986638546E-1,3.421650410E0,-2.893308640E0
6.082872031E0,-1.252982616E-1,3.005147934E0,-2.517108440E0
6.087922187E0,-3.048405647E-1,2.222256660E0,-2.078272343E0
6.092972344E0,-7.079820633E-1,1.046730042E0,-1.697999001E0
6.098022500E0,-1.115738153E0,-2.637710571E-1,-1.160812378E0
6.103072708E0,-1.383867264E0,-1.776428223E0,-2.644600868E-1
6.108122864E0,-1.709967375E0,-3.547532082E0,8.146586418E-1
6.113173073E0,-2.209173203E0,-5.600332260E0,1.957115650E0
6.118223229E0,-3.006977081E0,-7.693398476E0,2.731865644E0
6.123273385E0,-3.690495968E0,-9.500158310E0,3.018456936E0
6.128323542E0,-3.793735504E0,-1.016740513E1,2.878421545E0
6.133373750E0,-3.162451506E0,-9.183025360E0,1.943534493E0
6.138423906E0,-2.597123623E0,-7.020028114E0,4.717845917E-1
6.143474114E0,-2.747441053E0,-5.154792786E0,-1.252300978E0
6.148524271E0,-3.542843819E0,-4.477774620E0,-3.119863033E0
6.153574427E0,-4.395823002E0,-5.153058052E0,-4.250250816E0
6.158624583E0,-5.071247578E0,-6.631662369E0,-2.485468864E0
6.163674792E0,-5.547375202E0,-7.812044144E0,2.644462585E0
6.168724948E0,-5.841201305E0,-7.557986259E0,7.339122772E0
6.173775156E0,-6.028135300E0,-5.909146309E0,9.298201561E0
6.178825312E0,-6.160329819E0,-3.117865562E0,8.552322388E0
6.183875521E0,-6.331668854E0,9.281635284E-2,6.635975838E0
6.188925677E0,-5.967336178E0,2.772068501E0,4.696098328E0
6.193975885E0,-4.861400604E0,4.369626522E0,3.563594818E0
6.199026042E0,-3.947824717E0,5.281823635E0,3.340490818E0
6.204076250E0,-3.266392469E0,5.792162418E0,3.495429516E0
6.209126406E0,-2.299069881E0,6.079361916E0,3.599465132E0
6.214176562E0,-1.047805786E0,6.055465698E0,3.450961113E0
6.219226719E0,1.063914299E-1,5.586260319E0,3.125332355E0
6.224276927E0,9.779502153E-1,4.703265190E0,2.689619541E0
6.229327083E0,1.801352739E0,3.642308235E0,2.454211235E0
6.234377292E0,2.887329340E0,2.525909424E0,2.608757973E0
6.239427448E0,4.429373741E0,1.397193432E0,3.105986357E0
6.244477604E0,6.117049217E0,2.850704193E-1,3.648913383E0
6.249527760E0,7.786892414E0,-9.719839096E-1,4.451733112E0
6.254577969E0,9.491380692E0,-2.397524834E0,5.694333076E0
6.259628125E0,1.094462013E1,-3.821166992E0,6.829649925E0
6.264678333E0,1.183521843E1,-4.966403008E0,7.649826050E0
6.269728489E0,1.228610229E1,-5.783496857E0,7.853939056E0
6.274778646E0,1.231879044E1,-6.474367142E0,7.797972679E0
6.279828802E0,1.152977657E1,-6.904541016E0,7.340251923E0
6.284879010E0,1.012269020E1,-6.857410431E0,6.461083412E0
6.289929167E0,8.490175247E0,-6.365524292E0,5.283146858E0
6.294979323E0,7.185133934E0,-5.491866112E0,4.352912903E0
6.300029531E0,5.724386215E0,-4.267942429E0,3.641791105E0
6.305079687E0,4.171435356E0,-2.964349747E0,2.822011948E0
6.310129844E0,2.822026730E0,-1.833392143E0,1.838672876E0
6.315180052E0,1.631572247E0,-8.544759750E-1,1.359503031E0
6.320230208E0,4.861261845E-1,-1.538543701E-1,1.352514982E0
6.325280364E0,-4.941607714E-1,3.778333664E-1,1.442735791E0
6.330330573E0,-1.384089828E0,9.600076675E-1,1.899461269E0
6.335380729E0,-1.957935691E0,1.540176392E0,1.977890968E0
6.340430885E0,-2.792032719E0,2.049819946E0,8.974592686E-1
6.345481094E0,-3.595301867E0,2.510190010E0,2.162300348E-1
6.350531250E0,-3.991595984E0,2.660426617E0,-1.523361206E-1
6.355581406E0,-4.847444534E0,2.945676804E0,-2.464612722E-1
6.360631614E0,-5.538600922E0,3.309063435E0,-1.421948791E0
6.365681771E0,-5.972825050E0,3.477284431E0,-2.482773304E0
6.370731927E0,-5.912820816E0,3.452836514E0,-3.343127489E0
6.375782135E0,-5.325983524E0,3.294762611E0,-3.720366955E0
6.380832292E0,-4.550606728E0,3.057484627E0,-3.364639044E0
6.385882448E0,-3.731987000E0,2.686442852E0,-2.956299782E0
6.390932656E0,-2.886815786E0,2.196377277E0,-2.717660904E0
6.395982864E0,-2.058304310E0,1.646187782E0,-2.488427639E0
6.401033021E0,-1.277222872E0,1.216652870E0,-2.208603621E0
6.406083229E0,-6.446206570E-1,8.837461472E-1,-1.821873903E0
6.411133385E0,-1.236932278E-1,7.478685379E-1,-1.414204836E0
6.416183542E0,1.617863774E-1,7.943830490E-1,-1.080724597E0
6.421233750E0,3.403536081E-1,8.711566925E-1,-6.500247717E-1
6.426283906E0,4.316365421E-1,9.949178696E-1,-3.350648880E-1
6.431334062E0,4.465651512E-1,1.044826508E0,-5.778676271E-2
6.436384271E0,4.807476401E-1,9.911336899E-1,1.902764440E-1
6.441434427E0,5.864959955E-1,8.424072266E-1,3.922843337E-1
6.446484583E0,5.610720515E-1,6.981315613E-1,5.360742211E-1
6.451534792E0,5.443993807E-1,6.707925797E-1,5.065369606E-1
6.456584896E0,4.587953687E-1,7.387332916E-1,4.279505014E-1
6.461635052E0,3.831726313E-1,8.683500290E-1,3.019178212E-1
6.466685260E0,4.096041918E-1,1.047585487E0,1.442525685E-1
6.471735417E0,4.354095459E-1,1.289477348E0,-7.087114453E-2
6.476785573E0,5.239989161E-1,1.486200333E0,-3.315058351E-1
6.481835781E0,6.156864166E-1,1.666409492E0,-5.248615146E-1
6.486885989E0,6.665731072E-1,1.758183479E0,-6.413503289E-1
6.491936146E0,7.606529593E-1,1.743526459E0,-6.816829443E-1
6.496986354E0,7.974228859E-1,1.691789627E0,-5.434203148E-1
6.502036510E0,7.292535901E-1,1.498806953E0,-3.687843680E-1
6.507086667E0,5.971020460E-1,1.387166023E0,4.875791073E-2
6.512136875E0,4.657401443E-1,1.167752266E0,5.703347921E-1
6.517187031E0,3.237425089E-1,9.819469452E-1,1.102702737E0
6.522237187E0,1.554254889E-1,9.997053146E-1,1.603075147E0
6.527287396E0,4.835397005E-2,1.119252205E0,2.032885075E0
6.532337552E0,-1.498311758E-2,1.388410568E0,2.241801739E0
6.537387708E0,-8.545786142E-2,1.723405838E0,2.010535717E0
6.542437917E0,-7.244062424E-2,1.948513985E0,1.324897408E0
6.547488021E0,6.088376045E-3,1.991150856E0,2.103366852E-1
6.552538177E0,2.792491019E-1,1.953536034E0,-1.209546328E0
6.557588385E0,7.340022326E-1,1.678098202E0,-2.494749308E0
6.562638542E0,1.288002849E0,1.088797569E0,-3.805238724E0
6.567688698E0,1.650412440E0,1.095666885E-1,-5.014024734E0
6.572738906E0,1.920461297E0,-9.970226288E-1,-5.971594334E0
6.577789062E0,2.148643017E0,-1.959389687E0,-6.334792137E0
6.582839219E0,2.202102184E0,-2.787380219E0,-6.169808865E0
6.587889427E0,2.069891930E0,-3.337728500E0,-5.600181580E0
6.592939583E0,1.761208296E0,-3.553392410E0,-4.806335926E0
6.597989739E0,1.366541862E0,-3.480145454E0,-3.872197151E0
6.603039948E0,8.957167864E-1,-3.304845810E0,-2.945919514E0
6.608090156E0,3.966019154E-1,-3.041933060E0,-2.040638685E0
6.613140312E0,-2.086424828E-2,-2.763197899E0,-1.220751524E0
6.618190521E0,-3.997806311E-1,-2.559616089E0,-7.197015285E-1
6.623240677E0,-7.679325938E-1,-2.346213341E0,-5.877182484E-1
6.628290833E0,-9.483504295E-1,-2.182854652E0,-8.796267509E-1
6.633341042E0,-9.762454629E-1,-1.935461044E0,-1.548305869E0
6.638391146E0,-7.848036885E-1,-1.721333504E0,-2.548977613E0
6.643441302E0,-4.003044963E-1,-1.613283157E0,-3.550660133E0
6.648491510E0,1.239262819E-1,-1.663843155E0,-4.504310608E0
6.653541667E0,6.153457165E-1,-1.793806076E0,-5.219375134E0
6.658591823E0,1.124120593E0,-2.024680138E0,-5.559807301E0
6.663642031E0,1.479135513E0,-2.258421898E0,-5.407084942E0
6.668692187E0,1.606541038E0,-2.339720726E0,-4.872552872E0
6.673742344E0,1.436893463E0,-2.423167229E0,-4.077879906E0
6.678792552E0,1.110773563E0,-2.392662048E0,-3.293789625E0
6.683842708E0,6.365318298E-1,-2.227828979E0,-2.624989033E0
6.688892864E0,2.202852964E-1,-2.215803146E0,-2.081603289E0
6.693943073E0,-6.185132265E-2,-2.283137321E0,-1.621969938E0
6.698993229E0,-1.089038253E-1,-2.510816574E0,-1.227361202E0
6.704043385E0,1.203160882E-1,-2.851709366E0,-1.058397055E0
6.709093594E0,4.893453717E-1,-3.318606377E0,-1.202499509E0
6.714143750E0,1.124324560E0,-3.945686340E0,-1.591222048E0
6.719193906E0,1.761736035E0,-4.620267868E0,-2.047015667E0
6.724244114E0,2.317689896E0,-5.211926460E0,-2.536306858E0
6.729294271E0,2.709659100E0,-5.479264259E0,-3.027057648E0
6.734344427E0,2.933882713E0,-5.324456215E0,-3.446909428E0
6.739394635E0,2.893168926E0,-4.871067047E0,-3.890402317E0
6.744444792E0,2.668882370E0,-4.382320404E0,-4.231062889E0
6.749494948E0,2.310873508E0,-3.945361137E0,-4.316405296E0
6.754545156E0,1.898427486E0,-3.586539268E0,-4.053784370E0
6.759595312E0,1.545117021E0,-3.377972603E0,-3.567221165E0
6.764645469E0,1.126317263E0,-3.203975677E0,-3.212959290E0
6.769695677E0,8.463019133E-1,-2.997784615E0,-3.334870100E0
6.774745833E0,5.785665512E-1,-2.664988518E0,-3.826618671E0
6.779795989E0,1.244367361E-1,-2.380941391E0,-4.291941166E0
6.784846198E0,-1.902210712E-2,-2.346230507E0,-4.323853970E0
6.789896354E0,9.056031704E-2,-2.438317299E0,-4.223019600E0
6.794946510E0,2.486797571E-1,-2.240619659E0,-3.917106628E0
6.799996667E0,5.106638074E-1,-1.842982292E0,-3.243001938E0
6.805046875E0,6.367325783E-1,-1.387694359E0,-2.258981466E0
6.810097031E0,4.826709032E-1,-8.131322861E-1,-1.106216192E0
6.815147187E0,2.647756338E-1,-3.947162628E-1,-3.500664234E-2
6.820197396E0,-1.332899332E-1,-4.369497299E-1,9.114806652E-1
6.825247552E0,-7.118829489E-1,-1.035735130E0,1.463564873E0
6.830297708E0,-1.071904063E0,-2.234187126E0,1.807978153E0
6.835347917E0,-1.403592110E0,-3.356643677E0,2.094530582E0
6.840398073E0,-1.603946209E0,-4.303780556E0,2.305473089E0
6.845448229E0,-1.426332474E0,-5.031341553E0,2.383232594E0
6.850498385E0,-1.138542056E0,-5.619428635E0,2.376496553E0
6.855548542E0,-1.047997355E0,-6.090481758E0,2.565100670E0
6.860598698E0,-1.207475901E0,-6.350964546E0,2.691383839E0
6.865648906E0,-1.489238620E0,-6.319765091E0,2.583929300E0
6.870699062E0,-1.520375490E0,-6.263035774E0,2.453329563E0
6.875749219E0,-1.618692398E0,-6.174962997E0,2.343213797E0
6.880799427E0,-1.964505315E0,-5.971992493E0,2.396076441E0
6.885849583E0,-2.166991711E0,-5.577529907E0,3.240900040E0
6.890899739E0,-2.239127636E0,-5.271776199E0,5.788699150E0
6.895949948E0,-1.058329463E0,-5.585125923E0,7.427639008E0
6.901000104E0,-1.034108281E0,-5.429120064E0,6.760595322E0
6.906050260E0,2.012504339E-1,-4.883420944E0,6.426609516E0
6.911100469E0,1.068067789E0,-4.130716324E0,6.209260464E0
6.916150625E0,1.791494250E0,-3.445589066E0,5.698063850E0
6.921200781E0,2.093174934E0,-2.659971237E0,4.737079620E0
6.926250989E0,1.924921632E0,-1.809767723E0,3.670234680E0
6.931301146E0,1.519106865E0,-8.994197845E-1,3.180111647E0
6.936351302E0,1.331675529E0,-3.464508057E-2,2.695055962E0
6.941401510E0,1.509411454E0,7.175140381E-1,2.233643055E0
6.946451667E0,1.828907609E0,1.217370987E0,1.961027384E0
6.951501823E0,2.166596413E0,1.507365227E0,1.934070110E0
6.956552031E0,2.549734831E0,1.596581459E0,1.959163904E0
6.961602187E0,2.814009428E0,1.725021362E0,2.065552235E0
6.966652344E0,3.057622433E0,1.742358208E0,2.219130516E0
6.971702552E0,3.373385429E0,1.565376759E0,2.483812332E0
6.976752708E0,3.445349693E0,1.435084343E0,2.919819593E0
6.981802864E0,3.462123394E0,1.233196259E0,3.413888931E0
6.986853073E0,3.316188574E0,1.181077003E0,3.929604530E0
6.991903229E0,2.990881681E0,1.227106094E0,4.239226341E0
6.996953385E0,2.618602514E0,1.337417603E0,4.335016251E0
7.002003542E0,2.281269550E0,1.462751389E0,4.420722008E0
7.007053698E0,2.045150995E0,1.663993359E0,4.503560543E0
7.012103854E0,1.777928352E0,1.828758240E0,4.633229733E0
7.017154062E0,1.543609023E0,1.959721565E0,4.787479877E0
7.022204219E0,1.346949816E0,2.137735367E0,4.857474327E0
7.027254375E0,1.311124206E0,2.321534634E0,4.934375763E0
7.032304583E0,1.172564983E0,2.556145191E0,5.054183960E0
7.037354739E0,8.057475090E-1,3.077415466E0,5.068367481E0
7.042404896E0,6.026182175E-1,3.460837364E0,5.054513931E0
7.047455104E0,5.289003849E-1,3.629537582E0,5.120837212E0
7.052505260E0,4.166553020E-1,3.841710091E0,5.156355381E0
7.057555417E0,3.970413208E-1,4.165683270E0,4.936394215E0
7.062605625E0,4.386768341E-1,4.394540787E0,4.804039478E0
7.067655781E0,4.014673233E-1,4.608534336E0,4.675128937E0
7.072705937E0,3.325171471E-1,4.890124321E0,4.461909294E0
7.077756146E0,2.758011818E-1,5.080158710E0,4.377665520E0
7.082806302E0,2.373087406E-1,5.277919292E0,4.429694653E0
7.087856458E0,1.964671612E-1,5.373202324E0,4.381369114E0
7.092906614E0,6.213593483E-2,5.459514141E0,4.406287193E0
7.097956771E0,4.639148712E-3,5.549972057E0,4.378633976E0
7.103006927E0,2.413630486E-2,5.547589302E0,4.396519661E0
7.108057135E0,3.487181664E-2,5.558670998E0,4.358327389E0
7.113107292E0,6.826496124E-2,5.541458607E0,4.316254139E0
7.118157448E0,9.583067894E-2,5.480170250E0,4.203475952E0
7.123207656E0,7.748246193E-2,5.345892429E0,3.987731934E0
7.128257812E0,8.776855469E-2,5.140825272E0,3.741047859E0
7.133307969E0,1.223540306E-1,4.844351768E0,3.446887016E0
7.138358177E0,2.631306648E-1,4.470642090E0,3.143600225E0
7.143408333E0,3.189845085E-1,4.000432491E0,2.820373774E0
7.148458489E0,4.069635868E-1,3.407476425E0,2.435353518E0
7.153548125E0,4.898869991E-1,2.713339806E0,1.868968010E0
7.158598333E0,5.776633024E-1,1.962640762E0,1.170709610E0
7.163648489E0,6.385868788E-1,1.172094822E0,2.979846001E-1
7.168698646E0,6.614525318E-1,3.254814148E-1,-8.958239555E-1
7.173748854E0,6.659331322E-1,-5.589904785E-1,-2.303899288E0
7.178799010E0,5.560797453E-1,-1.482609749E0,-4.023455620E0
7.183849114E0,2.193872929E-1,-2.373631477E0,-5.786674500E0
7.188899323E0,-3.919651508E-1,-3.199333191E0,-7.307349205E0
7.193949479E0,-1.059711099E0,-3.965971947E0,-8.350046158E0
7.198999635E0,-1.862328649E0,-4.543045044E0,-8.852253914E0
7.204049844E0,-2.779335976E0,-4.868339539E0,-8.860269547E0
7.209100000E0,-3.446153641E0,-4.927783012E0,-8.679178238E0
7.214110729E0,-3.283663034E0,-4.540978432E0,-8.321846008E0
7.219160885E0,-2.622772455E0,-3.662580490E0,-8.143553734E0
7.224211042E0,-2.039934158E0,-2.351007462E0,-7.858186722E0
7.229261250E0,-1.666874290E0,-9.936370850E-1,-7.420984268E0
7.234311406E0,-1.336220145E0,1.652469635E-1,-6.957689285E0
7.239361562E0,-1.047814250E0,1.178591728E0,-6.405771255E0
7.244411719E0,-7.103775740E-1,1.953911781E0,-5.736573219E0
7.249461875E0,-3.134038448E-1,2.460243225E0,-5.108789444E0
7.254512031E0,1.708139181E-1,2.702933311E0,-4.550974846E0
7.259562239E0,6.171543598E-1,2.733594894E0,-4.032246590E0
7.264612396E0,9.305920601E-1,2.472230911E0,-3.673117161E0
7.269662552E0,1.061005592E0,1.801747322E0,-2.932397366E0
7.274712760E0,1.061293840E0,9.330339432E-1,-1.891215086E0
7.279762917E0,1.066663623E0,-1.427974701E-1,-4.686191082E-1
7.284813073E0,9.686732292E-1,-1.516013145E0,7.425076962E-1
7.289863281E0,6.854537725E-1,-3.088352203E0,1.950222015E0
7.294913437E0,5.658030510E-2,-4.908375740E0,2.918058395E0
7.299963594E0,-7.949292660E-1,-7.037597656E0,3.324287653E0
7.305013750E0,-1.670087099E0,-8.935428619E0,3.112419128E0
7.310063906E0,-2.147754192E0,-9.939531326E0,2.268176556E0
7.315114062E0,-2.171030760E0,-9.812045097E0,1.262083530E0
7.320164271E0,-2.030125618E0,-8.638214111E0,2.885041237E-1
7.325214427E0,-2.024343729E0,-7.162728310E0,-1.027392864E0
7.330264583E0,-2.161361217E0,-6.327116966E0,-3.053851366E0
7.335314792E0,-2.809236526E0,-6.344920158E0,-5.261232376E0
7.340364948E0,-3.682205200E0,-7.151421547E0,-6.237524986E0
7.345415104E0,-3.673150063E0,-8.166013718E0,-3.850718498E0
7.350465312E0,-3.494153023E0,-8.191459656E0,2.625082493E0
7.355515469E0,-3.826504707E0,-6.466284752E0,9.408982277E0
7.360565625E0,-4.148698807E0,-3.965660095E0,1.169050217E1
7.365615781E0,-4.270534039E0,-1.332384109E0,1.059267235E1
7.370665937E0,-4.339960098E0,1.429529190E0,7.848460197E0
7.375716094E0,-4.247152328E0,3.985945702E0,5.998362541E0
7.380766302E0,-4.079101086E0,5.818135738E0,5.155503273E0
7.385816458E0,-3.870146751E0,6.907151699E0,5.393683434E0
7.390866614E0,-3.661896467E0,7.400711536E0,5.759650230E0
7.395956250E0,-3.331729412E0,7.404427528E0,5.555662632E0
7.401006406E0,-2.745864630E0,6.937918663E0,4.968676090E0
7.406056614E0,-2.091285229E0,6.217047691E0,4.100387096E0
7.411106771E0,-1.463611364E0,5.415596485E0,3.362043142E0
7.416156927E0,-6.390917301E-1,4.534099579E0,3.154998779E0
7.421207135E0,5.977358818E-1,3.529312134E0,3.400686264E0
7.426217864E0,2.251015663E0,2.377417564E0,3.754063129E0
7.431268021E0,4.338251114E0,1.091053009E0,4.219841003E0
7.436318177E0,6.761960983E0,-3.653230667E-1,5.030413628E0
7.441368385E0,9.102543831E0,-2.172690392E0,5.835125923E0
7.446418542E0,1.078569031E1,-3.807424545E0,6.486201286E0
7.451468698E0,1.144150829E1,-5.093967438E0,6.763657093E0
7.456518854E0,1.103966713E1,-6.154381752E0,6.671217918E0
7.461569010E0,9.699070930E0,-6.617005348E0,5.970837593E0
7.466619167E0,7.807810307E0,-6.435010910E0,5.208632469E0
7.471669375E0,5.997017860E0,-5.581154823E0,4.530271053E0
7.476719531E0,4.481591225E0,-4.450004578E0,3.978713751E0
7.481769687E0,3.441415310E0,-3.327195168E0,4.024680614E0
7.486819844E0,2.697427273E0,-2.312417984E0,4.199048519E0
7.491870000E0,2.379690647E0,-1.584193230E0,4.694685936E0
7.496920156E0,1.712866426E0,-9.908714294E-1,5.263008118E0
7.501970364E0,6.068503857E-1,-1.093006134E-2,3.933365345E0
7.507020521E0,-4.793542624E-1,9.262638092E-1,2.231636763E0
7.512070677E0,-1.622643352E0,1.681582451E0,1.088751793E0
7.517120885E0,-2.296267986E0,2.214471817E0,3.650028706E-1
7.522171042E0,-2.573512793E0,2.505054474E0,-3.171557188E-1
7.527221198E0,-3.000311613E0,2.516644478E0,-1.207309723E0
7.532271406E0,-3.603165388E0,2.496077538E0,-2.003471851E0
7.537321562E0,-4.056836605E0,2.491292000E0,-2.644091606E0
7.542371719E0,-4.225226402E0,2.623131752E0,-3.018975019E0
7.547421875E0,-3.982772112E0,2.580538750E0,-3.223329544E0
7.552472031E0,-3.653815985E0,2.449861526E0,-3.345164776E0
7.557522187E0,-3.106997967E0,2.157018661E0,-3.379683971E0
7.562572396E0,-2.455082417E0,1.974916458E0,-3.222578526E0
7.567622552E0,-1.968411803E0,1.861473083E0,-3.107609987E0
7.572672708E0,-1.570138454E0,1.711279869E0,-2.913804293E0
7.577722917E0,-1.252442598E0,1.620074272E0,-2.490008354E0
7.582773073E0,-1.002816916E0,1.548315048E0,-1.923333764E0
7.587823229E0,-6.905183196E-1,1.475681305E0,-1.339355946E0
7.592873437E0,-3.601215482E-1,1.373542786E0,-6.853176951E-1
7.597923594E0,-2.018988132E-2,1.225261688E0,-1.084670797E-1
7.602973750E0,2.303382754E-1,1.077656746E0,4.319936633E-1
7.608023958E0,4.257252216E-1,9.918155670E-1,8.338050246E-1
7.613074114E0,5.823309422E-1,8.899707794E-1,1.100607395E0
7.618124271E0,5.802705288E-1,8.774452209E-1,1.209045529E0
7.623174479E0,5.978866816E-1,8.464698792E-1,1.206537127E0
7.628224635E0,5.823807716E-1,8.604660034E-1,9.562985301E-1
7.633274792E0,5.567027926E-1,9.552259445E-1,6.986449957E-1
7.638324948E0,5.497645736E-1,1.089904785E0,4.111513495E-1
7.643375104E0,6.059454083E-1,1.180621147E0,1.528400183E-2
7.648425260E0,6.818684340E-1,1.283584595E0,-5.143694282E-1
7.653475469E0,6.273064613E-1,1.421380043E0,-1.030958414E0
7.658525625E0,6.271433234E-1,1.477851868E0,-1.459991455E0
7.663575781E0,5.380233526E-1,1.565501213E0,-1.659967899E0
7.668625937E0,4.754716456E-1,1.531073570E0,-1.552166939E0
7.673676094E0,4.678081274E-1,1.444073677E0,-1.248026609E0
7.678726250E0,4.431321621E-1,1.473208427E0,-6.948512793E-1
7.683776458E0,4.926660061E-1,1.368397713E0,-1.267626286E-1
7.688826614E0,4.767331779E-1,1.368006706E0,4.882528782E-1
7.693876771E0,5.413413644E-1,1.366710663E0,1.068792582E0
7.698926979E0,5.862455368E-1,1.361057281E0,1.479042768E0
7.703977135E0,7.243365645E-1,1.323600769E0,1.635439873E0
7.709027292E0,9.548711777E-1,1.189901352E0,1.418984532E0
7.714077500E0,1.190275431E0,9.590263367E-1,8.558009863E-1
7.719127656E0,1.406945109E0,8.034868240E-1,-5.790722370E-2
7.724177812E0,1.646071672E0,5.775079727E-1,-1.178191662E0
7.729227969E0,1.796521664E0,3.758840561E-1,-2.359055996E0
7.734278125E0,1.912341118E0,4.806995392E-2,-3.470324755E0
7.739328281E0,1.942904592E0,-4.724721909E-1,-4.397461414E0
7.744378489E0,1.896848440E0,-1.074115753E0,-4.977951050E0
7.749428646E0,1.740303278E0,-1.694408417E0,-5.243396759E0
7.754478802E0,1.469395399E0,-2.195726395E0,-5.084566116E0
7.759529010E0,1.081208706E0,-2.524581909E0,-4.593003750E0
7.764579167E0,5.696165562E-1,-2.789113998E0,-4.006070137E0
7.769629323E0,-1.386451721E-2,-2.887940407E0,-3.211209297E0
7.774679531E0,-6.773176789E-1,-2.837040901E0,-2.549241781E0
7.779729687E0,-1.106015086E0,-2.649888039E0,-2.009708166E0
7.784779844E0,-1.305838704E0,-2.427090645E0,-1.762048960E0
7.789830000E0,-1.279950738E0,-2.191283226E0,-1.872230053E0
7.794880156E0,-9.906553030E-1,-2.082167625E0,-2.201103210E0
7.799930312E0,-5.729858279E-1,-2.038425446E0,-2.617458344E0
7.804980521E0,1.055723429E-2,-2.066999435E0,-3.009389162E0
7.810030677E0,6.857146025E-1,-2.148667336E0,-3.354288578E0
7.815080833E0,1.374380589E0,-2.253485680E0,-3.561558723E0
7.820131042E0,2.042327166E0,-2.444854736E0,-3.729828835E0
7.825181198E0,2.483106136E0,-2.588648796E0,-3.706168652E0
7.830231354E0,2.746648788E0,-2.743430138E0,-3.579200745E0
7.835281510E0,2.820801258E0,-2.906533241E0,-3.308928490E0
7.840331719E0,2.746221781E0,-3.179525375E0,-2.796036005E0
7.845381875E0,2.620619535E0,-3.514354706E0,-2.162842274E0
7.850432083E0,2.533590794E0,-4.047389030E0,-1.427775383E0
7.855482239E0,2.437473536E0,-4.660131454E0,-8.370747566E-1
7.860532396E0,2.300147533E0,-5.379954338E0,-4.780988693E-1
7.865582552E0,2.267805338E0,-5.939757347E0,-4.232215881E-1
7.870632760E0,2.209422112E0,-6.386174202E0,-6.427972317E-1
7.875682917E0,2.101820230E0,-6.618849754E0,-9.340062141E-1
7.880733073E0,1.948087454E0,-6.707373619E0,-1.415928364E0
7.885783229E0,1.771582365E0,-6.670848846E0,-2.003589630E0
7.890833385E0,1.504753590E0,-6.388307571E0,-2.633314610E0
7.895883542E0,1.168346405E0,-6.070176125E0,-3.160958052E0
7.900933750E0,6.765671968E-1,-5.618152618E0,-3.533536434E0
7.905983906E0,3.116987348E-1,-5.165067673E0,-3.805836678E0
7.911034062E0,1.162203550E-1,-4.660506248E0,-3.886285305E0
7.916084219E0,8.991807699E-2,-4.048467636E0,-3.853145361E0
7.921134375E0,1.579732299E-1,-3.596297264E0,-3.491214275E0
7.926184531E0,1.981387138E-1,-3.326169014E0,-2.900610685E0
7.931234739E0,4.326742887E-2,-2.998067856E0,-2.456091881E0
7.936284896E0,-4.930249453E-1,-2.634042740E0,-2.403187513E0
7.941335052E0,-1.417149544E0,-2.035729408E0,-2.725996017E0
7.946385208E0,-2.563431263E0,-1.404668808E0,-3.320817471E0
7.951435364E0,-3.780525208E0,-7.403469086E-1,-3.733989954E0
7.956485521E0,-4.682295799E0,-1.623001099E-1,-3.688485622E0
7.961535729E0,-5.293967247E0,3.116722107E-1,-3.457467556E0
7.966585885E0,-5.329818249E0,4.903020859E-1,-2.828499079E0
7.971636042E0,-4.723429203E0,3.707971573E-1,-2.020528078E0
7.976686198E0,-3.988016605E0,-2.641201019E-2,-1.024180174E0
7.981736354E0,-3.484516621E0,-4.699411392E-1,-6.712785363E-2
7.986786510E0,-3.352280140E0,-8.410177231E-1,8.829250932E-1
7.991836719E0,-3.665416241E0,-1.205295563E0,1.617389679E0
7.996886875E0,-3.904884100E0,-1.817299843E0,2.166586399E0
8.001937031E0,-3.876041174E0,-2.645154953E0,2.554798603E0
8.006987187E0,-3.497778893E0,-3.457144737E0,2.624063492E0
8.012037344E0,-2.988833427E0,-4.024306297E0,2.274843931E0
8.017087500E0,-2.299945831E0,-4.277215004E0,1.890216589E0
8.022137708E0,-1.691864491E0,-4.300955772E0,1.661219835E0
8.027187864E0,-1.290221572E0,-4.226156235E0,1.463526249E0
8.032238073E0,-8.113417625E-1,-4.196461678E0,1.483370543E0
8.037288229E0,-3.739818335E-1,-4.109964371E0,1.629357100E0
8.042338385E0,-1.011636257E-1,-4.147163391E0,1.960469723E0
8.047388542E0,-8.721828461E-3,-4.149765968E0,2.420310974E0
8.052438750E0,-3.239291906E-1,-4.231263161E0,3.277156830E0
8.057488906E0,-2.041971684E-2,-4.334779739E0,4.603080750E0
8.062539062E0,3.839489222E-1,-4.247893333E0,5.597707748E0
8.067589219E0,6.590461731E-1,-3.901260376E0,6.057056427E0
8.072639375E0,9.824203253E-1,-3.291624069E0,6.647144794E0
8.077689531E0,1.419498086E0,-2.505678177E0,6.433634758E0
8.082739739E0,1.407555699E0,-1.550708771E0,5.139973640E0
8.087789896E0,1.305494905E0,-5.954923630E-1,4.439589500E0
8.092879479E0,1.281063080E0,1.986160278E-1,3.841917515E0
8.097929635E0,1.404073000E0,6.969432831E-1,3.391926527E0
8.102979844E0,1.523793578E0,1.113588333E0,2.948449135E0
8.108030000E0,1.675815344E0,1.411751747E0,2.689537287E0
8.113080156E0,1.818059087E0,1.617928028E0,2.240823269E0
8.118130364E0,2.088612556E0,1.717212200E0,2.007363796E0
8.123141042E0,2.439334631E0,1.491919518E0,2.173213005E0
8.128191198E0,2.683448076E0,1.260862350E0,2.559170723E0
8.133241354E0,2.724684477E0,1.090020180E0,2.921718597E0
8.138291510E0,2.809709072E0,8.808679581E-1,3.317937374E0
8.143341719E0,2.794774294E0,7.179632187E-1,3.539685249E0
8.148391875E0,2.808612347E0,6.252593994E-1,3.633850574E0
8.153442031E0,2.772878885E0,5.548295975E-1,3.698776484E0
8.158492187E0,2.724168539E0,5.483789444E-1,3.706147671E0
8.163542344E0,2.570763826E0,6.571979523E-1,3.791503906E0
8.168592500E0,2.357858181E0,9.300765991E-1,3.930910587E0
8.173642708E0,2.214162350E0,1.216077805E0,4.024935246E0
8.178692864E0,2.066848278E0,1.539278984E0,4.122488976E0
8.183782500E0,1.919893622E0,1.926978588E0,4.153339863E0
8.188832656E0,1.689118266E0,2.344041348E0,4.158371925E0
8.193882864E0,1.386717319E0,2.736496925E0,4.099703789E0
8.198933021E0,1.114147186E0,3.144152164E0,4.069389820E0
8.203983177E0,8.541014194E-1,3.534994125E0,4.109224319E0
8.209033385E0,5.307142735E-1,3.782779217E0,4.144497395E0
8.214044062E0,2.897293568E-1,3.950352669E0,4.199894428E0
8.219094219E0,9.050011635E-2,4.091404915E0,4.246019363E0
8.224144375E0,-4.965949059E-2,4.275482178E0,4.280734539E0
8.229194531E0,-1.356680393E-1,4.463103771E0,4.320878983E0
8.234244739E0,-2.001149654E-1,4.714076996E0,4.397767544E0
8.239294896E0,-1.807847023E-1,4.904029846E0,4.384398460E0
8.244345052E0,-8.451008797E-2,5.090514183E0,4.278857231E0
8.249395208E0,2.330684662E-2,5.291613579E0,4.120922565E0
8.254445364E0,2.100660801E-1,5.403443336E0,3.957384109E0
8.259495521E0,3.355553150E-1,5.422411919E0,3.854262829E0
8.264545729E0,4.750425816E-1,5.413167953E0,3.864233494E0
8.269595885E0,5.564835072E-1,5.362238407E0,3.875833035E0
8.274646042E0,5.854294300E-1,5.240567684E0,3.904748917E0
8.279696198E0,5.794866085E-1,5.115921497E0,3.804094553E0
8.284746354E0,6.377723217E-1,4.983306408E0,3.716722012E0
8.289796510E0,6.219285727E-1,4.802844048E0,3.464655399E0
8.294846719E0,5.752714872E-1,4.552836418E0,3.182233334E0
8.299896875E0,5.409936905E-1,4.270311832E0,2.781007528E0
8.304947031E0,5.384712219E-1,3.817543983E0,2.331758499E0
8.309997187E0,4.540572166E-1,3.291535378E0,1.809426785E0
8.315047344E0,3.510465622E-1,2.689844131E0,1.186787605E0
8.320097500E0,2.182993889E-1,1.983832359E0,4.927477837E-1
8.325147708E0,7.265353203E-2,1.145618439E0,-2.574920654E-1
8.330197864E0,-1.443367004E-1,3.280239105E-1,-1.195965290E0
8.335248021E0,-5.155072212E-1,-5.417013168E-1,-2.337778568E0
8.340298177E0,-7.717192173E-1,-1.480237961E0,-3.583797932E0
8.345348333E0,-1.042320490E0,-2.372653961E0,-4.937801838E0
8.350398489E0,-1.319792747E0,-3.161335945E0,-6.167237759E0
8.355448646E0,-1.570579052E0,-3.943604469E0,-7.038614273E0
8.360498854E0,-1.917233706E0,-4.630732536E0,-7.084509850E0
8.365549010E0,-2.572533607E0,-5.047624588E0,-6.605983734E0
8.370599167E0,-3.297342777E0,-5.035511971E0,-6.407063484E0
8.375649323E0,-3.722280502E0,-4.342761993E0,-6.759196281E0
8.380699479E0,-3.697381973E0,-3.215773582E0,-7.374673843E0
8.385749635E0,-3.563981533E0,-1.869185448E0,-7.893672466E0
8.390799844E0,-3.387634754E0,-5.914287567E-1,-8.032592773E0
8.395850000E0,-3.194694996E0,6.204299927E-1,-7.632040024E0
8.400900156E0,-2.911876440E0,1.728851318E0,-6.757821083E0
8.405950312E0,-2.671510935E0,2.594587326E0,-5.709498405E0
8.411000469E0,-2.446848392E0,3.076090336E0,-4.839802265E0
8.416050625E0,-2.361717463E0,3.049802303E0,-4.106611252E0
8.421100833E0,-2.270618677E0,2.581312180E0,-3.466015577E0
8.426150989E0,-2.233760834E0,1.791267395E0,-3.093409300E0
8.431201146E0,-2.189641237E0,6.334114075E-1,-2.427269459E0
8.436251302E0,-1.922683001E0,-7.033700943E-1,-1.452280521E0
8.441301458E0,-1.649522305E0,-2.182644844E0,-3.474221230E-1
8.446351614E0,-1.547590494E0,-3.886836052E0,8.166511059E-1
8.451401823E0,-1.519149303E0,-5.762706757E0,1.994414330E0
8.456451979E0,-1.605984688E0,-7.628751755E0,2.839197159E0
8.461502135E0,-1.497713089E0,-8.737316132E0,3.242171288E0
8.466552292E0,-1.054796457E0,-8.722522736E0,3.039930820E0
8.471602448E0,-4.916477203E-1,-7.814597130E0,1.886139750E0
8.476652604E0,-2.279801369E-1,-6.535875320E0,1.350002289E-1
8.481702812E0,-6.068785191E-1,-5.822753906E0,-1.482214451E0
8.486752969E0,-1.257884264E0,-5.924516678E0,-2.552145958E0
8.491803125E0,-2.109569311E0,-6.598250389E0,-1.832617760E0
8.496853281E0,-3.022324562E0,-7.110763550E0,1.822135448E0
8.501903437E0,-3.918328047E0,-6.869125366E0,6.273954391E0
8.506953594E0,-4.926428318E0,-5.685617447E0,8.671090126E0
8.512003802E0,-5.674185753E0,-3.529732704E0,8.166271210E0
8.517054010E0,-6.103906631E0,-7.340526581E-1,5.653677940E0
8.522104167E0,-6.125761986E0,1.751457214E0,2.705321789E0
8.527154323E0,-5.348350525E0,3.379889011E0,8.348221779E-1
8.532204479E0,-4.295282364E0,4.221717834E0,5.088028908E-1
8.537254687E0,-3.415978432E0,4.649395466E0,1.191852808E0
8.542304844E0,-2.510773897E0,4.832529545E0,2.226159573E0
8.547355000E0,-1.301258087E0,4.865813255E0,3.119045258E0
8.552405156E0,-1.606917381E-2,4.643368721E0,3.542790413E0
8.557455312E0,9.417450428E-1,4.265408993E0,3.607637882E0
8.562505469E0,1.730086565E0,3.710797787E0,3.553533554E0
8.567555625E0,2.688322783E0,3.044555187E0,3.702866316E0
8.572605833E0,3.963896036E0,2.163435936E0,4.214525700E0
8.577655989E0,5.138679028E0,1.288723946E0,4.608345032E0
8.582706146E0,6.688678741E0,2.492504120E-1,5.152641773E0
8.587756302E0,8.411502838E0,-8.815240860E-1,5.772564411E0
8.592806458E0,9.966499329E0,-1.894183159E0,6.293593407E0
8.597856614E0,1.110352993E1,-2.666892052E0,6.623662949E0
8.602906823E0,1.139419365E1,-3.229101181E0,6.578289032E0
8.607956979E0,1.083547878E1,-3.602186203E0,6.154284477E0
8.613007135E0,9.807933807E0,-3.928255081E0,5.823063850E0
8.618057292E0,8.646547318E0,-4.115501404E0,5.617987633E0
8.623107448E0,7.421903133E0,-4.122055054E0,5.582198143E0
8.628157604E0,6.207103729E0,-3.903442383E0,5.748720169E0
8.633207812E0,4.931655884E0,-3.470109940E0,5.713693619E0
8.638258021E0,3.627498627E0,-2.843484879E0,5.266098022E0
8.643308177E0,2.417514801E0,-2.267757416E0,4.559803963E0
8.648358333E0,1.251666903E0,-1.699914932E0,3.846974134E0
8.653408489E0,1.944540739E-1,-1.143733025E0,3.203498840E0
8.658458646E0,-4.253404140E-1,-7.070064545E-1,2.685863972E0
8.663508854E0,-8.992472887E-1,-2.055473328E-1,1.573354840E0
8.668559010E0,-1.466601491E0,4.441051483E-1,9.655951858E-1
8.673609167E0,-1.875359774E0,8.638772964E-1,6.328709722E-1
8.678659323E0,-2.839687109E0,1.274163246E0,1.197367907E-1
8.683709479E0,-3.456234455E0,1.675927162E0,-6.112197638E-1
8.688759635E0,-4.088526726E0,1.919396877E0,-1.440253854E0
8.693809844E0,-4.517051220E0,2.177906990E0,-2.503968954E0
8.698860000E0,-4.724964619E0,2.377099037E0,-3.221370459E0
8.703910156E0,-4.653232574E0,2.507550240E0,-3.368275642E0
8.708960312E0,-4.254211426E0,2.308724403E0,-3.168735027E0
8.714010469E0,-3.826081038E0,2.106509209E0,-3.167927980E0
8.719060625E0,-3.300626040E0,1.987057686E0,-3.221711874E0
8.724110833E0,-2.668272495E0,1.922797680E0,-3.265335083E0
8.729160989E0,-2.037607670E0,1.920822144E0,-3.221653461E0
8.734211146E0,-1.472845793E0,1.933238983E0,-2.967417955E0
8.739261302E0,-9.400246739E-1,1.960068703E0,-2.513627768E0
8.744311458E0,-4.328153133E-1,1.902053356E0,-2.065259695E0
8.749361614E0,8.688122034E-2,1.755798340E0,-1.567513227E0
8.754411823E0,4.777823091E-1,1.615983009E0,-8.209956884E-1
8.759461979E0,8.653370142E-1,1.516166687E0,-1.446205825E-1
8.764512135E0,1.202529073E0,1.248207092E0,4.113246202E-1
8.769562292E0,1.440847635E0,9.284362793E-1,7.301938534E-1
8.774612448E0,1.658523798E0,6.443490982E-1,9.180251956E-1
8.779662604E0,1.708018303E0,4.798212051E-1,9.690228701E-1
8.784712812E0,1.627896547E0,3.822059631E-1,9.466389418E-1
8.789763021E0,1.396223783E0,3.574752808E-1,8.551820517E-1
8.794813177E0,1.035932422E0,4.450302124E-1,6.607746482E-1
8.799863333E0,7.367751598E-1,5.202503204E-1,3.470945954E-1
8.804913489E0,5.136303902E-1,5.926418304E-1,-6.138363481E-2
8.809963646E0,3.152790070E-1,6.980218887E-1,-5.532395840E-1
8.815013854E0,2.248254418E-1,7.417373657E-1,-9.675297737E-1
8.820064010E0,2.314588428E-1,7.883920670E-1,-1.393204451E0
8.825114167E0,3.532979488E-1,8.331308365E-1,-1.775236249E0
8.830164323E0,5.676171780E-1,8.495569229E-1,-2.013448954E0
8.835214479E0,7.847832441E-1,8.794994354E-1,-1.957352161E0
8.840264635E0,1.081166744E0,9.217090607E-1,-1.700492859E0
8.845314844E0,1.304775476E0,1.027596474E0,-1.227053523E0
8.850365000E0,1.510438561E0,1.130083084E0,-5.490608215E-1
8.855415156E0,1.564515948E0,1.220869064E0,2.200294733E-1
8.860465312E0,1.475210309E0,1.302358627E0,9.689460993E-1
8.865515469E0,1.287706852E0,1.387721062E0,1.623621583E0
8.870565625E0,8.306227326E-1,1.400441170E0,1.988387704E0
8.875615833E0,3.963493407E-1,1.393212318E0,2.192860126E0
8.880665989E0,-2.453714609E-2,1.502405167E0,2.016057014E0
8.885716146E0,-3.364051580E-1,1.532955170E0,1.377622962E0
8.890766302E0,-4.537836909E-1,1.509021759E0,2.109562159E-1
8.895816458E0,-4.213659167E-1,1.342403412E0,-1.211384773E0
8.900866614E0,-2.705690861E-1,1.062261581E0,-2.719057560E0
8.905916823E0,-1.378256083E-1,6.749124527E-1,-4.018048286E0
8.910966979E0,-7.233023643E-2,1.412286758E-1,-4.949950218E0
8.916017135E0,-2.027571201E-3,-5.528593063E-1,-5.448293686E0
8.921067292E0,1.185393333E-2,-1.237201691E0,-5.392977238E0
8.926117448E0,-9.474790096E-2,-1.873489380E0,-4.913146496E0
8.931167604E0,-2.863513231E-1,-2.272833824E0,-4.175123692E0
8.936217812E0,-6.255232096E-1,-2.521793365E0,-3.232768297E0
8.941267969E0,-9.196028113E-1,-2.586073875E0,-2.332564354E0
8.946318125E0,-1.049328566E0,-2.510325432E0,-1.470474005E0
8.951368281E0,-1.022493243E0,-2.313875198E0,-9.708290100E-1
8.956418437E0,-8.308206201E-1,-2.079344749E0,-8.269262314E-1
8.961468594E0,-5.582116246E-1,-1.910677910E0,-9.479751587E-1
8.966518802E0,-9.842717648E-2,-1.799217224E0,-1.199048638E0
8.971568958E0,3.779999316E-1,-1.821345329E0,-1.601376891E0
8.976619114E0,8.857713342E-1,-1.811691284E0,-2.035096169E0
8.981669271E0,1.295089483E0,-1.900681496E0,-2.550699472E0
8.986719427E0,1.591043472E0,-1.963692665E0,-3.052398920E0
8.991769583E0,1.754311085E0,-2.121625900E0,-3.525044441E0
8.996819792E0,1.750488162E0,-2.240410805E0,-3.977185488E0
9.001869948E0,1.619639158E0,-2.415812492E0,-4.323920727E0
9.006920104E0,1.437642336E0,-2.574822426E0,-4.552269936E0
9.011970260E0,1.107024550E0,-2.780934334E0,-4.566793442E0
9.017020417E0,7.065315843E-1,-2.871501923E0,-4.281728268E0
9.022070573E0,2.716799974E-1,-2.891037941E0,-3.848316669E0
9.027120781E0,-8.794355392E-2,-2.878987312E0,-3.508952856E0
9.032170937E0,-2.571791410E-1,-2.912921906E0,-3.160950661E0
9.037221094E0,-1.286419630E-1,-3.125314713E0,-2.875257015E0
9.042271250E0,1.487523317E-1,-3.436861992E0,-2.535372734E0
9.047321406E0,5.706384182E-1,-3.917828560E0,-2.355043411E0
9.052371562E0,9.485720396E-1,-4.522466660E0,-2.271711826E0
9.057421771E0,1.283250093E0,-5.117691040E0,-2.305225611E0
9.062471927E0,1.567180634E0,-5.611395836E0,-2.437508821E0
9.067522083E0,1.833669186E0,-5.753501892E0,-2.653413296E0
9.072572239E0,2.134831190E0,-5.422181129E0,-2.923961163E0
9.077622396E0,2.370724916E0,-4.897651672E0,-3.233116388E0
9.082672552E0,2.485122204E0,-4.407195091E0,-3.436573744E0
9.087722760E0,2.485376596E0,-4.039134979E0,-3.481633902E0
9.092772917E0,2.482550144E0,-3.822134972E0,-3.294974327E0
9.097823073E0,2.253871441E0,-3.551609993E0,-3.158015013E0
9.102873229E0,1.744904280E0,-3.108289719E0,-3.165262222E0
9.107923385E0,1.001958132E0,-2.588335991E0,-3.447713375E0
9.112973542E0,5.070364475E-2,-2.039994240E0,-3.969236612E0
9.118023750E0,-8.341300488E-1,-1.651868820E0,-4.530592918E0
9.123073906E0,-1.493791461E0,-1.389999390E0,-4.895817757E0
9.128124062E0,-1.795091867E0,-1.304480553E0,-4.953829288E0
9.133174219E0,-1.700805664E0,-1.201231003E0,-4.745252609E0
9.138224375E0,-1.287822127E0,-1.105031967E0,-4.202233791E0
9.143274531E0,-5.274783373E-1,-1.085771561E0,-3.453391075E0
9.148324739E0,-1.873016357E-3,-8.648071289E-1,-2.655949116E0
9.153374896E0,5.485272408E-2,-6.506710052E-1,-1.906574965E0
9.158425052E0,-8.021783829E-2,-5.940494537E-1,-1.020663738E0
9.163475208E0,-4.043296576E-1,-8.538198471E-1,-3.125197291E-1
9.168525364E0,-7.405467033E-1,-1.550169945E0,2.437289506E-1
9.173575521E0,-1.026227951E0,-2.577140808E0,6.466394067E-1
9.178625729E0,-9.124962091E-1,-3.648157120E0,1.048725128E0
9.183675885E0,-5.959159136E-1,-4.718508720E0,1.416264296E0
9.188726042E0,-3.963428736E-1,-5.444417000E0,1.712224960E0
9.193776198E0,-3.791545630E-1,-5.943166733E0,1.911441684E0
9.198826354E0,-4.900516272E-1,-6.328269958E0,2.289972782E0
9.203876510E0,-6.886627674E-1,-6.612569809E0,2.718466043E0
9.208926719E0,-9.939987659E-1,-6.909763336E0,2.959705353E0
9.213976823E0,-1.272459626E0,-7.173300743E0,3.134858131E0
9.219026979E0,-1.487976551E0,-7.135313034E0,3.634229660E0
9.224077135E0,-1.488261461E0,-7.000427246E0,4.724121571E0
9.229127292E0,-1.200953603E0,-6.886654854E0,5.607339859E0
9.234177448E0,-1.216298580E0,-6.515847206E0,6.968705177E0
9.239227656E0,-4.381573200E-2,-5.937860489E0,7.876917839E0
9.244277812E0,9.931869507E-1,-5.371368408E0,8.419867516E0
9.249327969E0,1.751700044E0,-4.653932571E0,7.579440117E0
9.254378125E0,2.066974878E0,-3.557041168E0,6.207071304E0
9.259428281E0,1.800484180E0,-2.443695068E0,4.859704494E0
9.264478437E0,1.242475748E0,-1.258679390E0,3.929693937E0
9.269528646E0,1.001363754E0,-3.232517242E-1,3.375860929E0
9.274578802E0,1.027029753E0,3.737354279E-1,3.147169352E0
9.279628958E0,1.214207053E0,8.447198868E-1,2.888614655E0
9.284679114E0,1.433266282E0,1.206124306E0,2.662543774E0
9.289729271E0,1.740574479E0,1.379458427E0,2.790018082E0
9.294779427E0,2.224903584E0,1.378941059E0,3.328423977E0
9.299829635E0,2.561252117E0,1.401718616E0,3.746922493E0
9.304879844E0,2.835361004E0,1.374121666E0,3.913229704E0
9.309930000E0,2.990682125E0,1.275937080E0,3.887793541E0
9.314980156E0,2.960027933E0,1.315161705E0,3.665829182E0
9.320030312E0,2.684643745E0,1.448199272E0,3.386301994E0
9.325080469E0,2.460126400E0,1.642334938E0,3.205598831E0
9.330130677E0,2.331456900E0,1.816135406E0,3.126204014E0
9.335180833E0,2.229245663E0,2.092863560E0,3.253116131E0
9.340230989E0,2.039024353E0,2.325635910E0,3.545582533E0
9.345281146E0,1.797227144E0,2.465839386E0,3.784751892E0
9.350331302E0,1.698358417E0,2.526118279E0,4.132060528E0
9.355381458E0,1.558677077E0,2.639971733E0,4.364758492E0
9.360431667E0,1.370755076E0,2.774311066E0,4.574039459E0
9.365481771E0,9.754003286E-1,3.111294746E0,4.611932755E0
9.370531927E0,7.651497126E-1,3.403510094E0,4.585822582E0
9.375582083E0,6.984217167E-1,3.712574005E0,4.533726215E0
9.380632239E0,5.687630177E-1,3.973096848E0,4.483004570E0
9.385682396E0,5.334608555E-1,4.233220100E0,4.509252548E0
9.390732604E0,4.600036144E-1,4.383131504E0,4.491798401E0
9.395782760E0,3.774278164E-1,4.550103188E0,4.538491249E0
9.400832917E0,3.666226864E-1,4.691183567E0,4.596832752E0
9.405883073E0,3.327307701E-1,4.865193367E0,4.635738850E0
9.410933229E0,3.160810471E-1,5.030430794E0,4.725799084E0
9.415983385E0,3.354465961E-1,5.170248985E0,4.737894535E0
9.421033594E0,3.330721855E-1,5.337340355E0,4.729713917E0
9.426083750E0,3.684954643E-1,5.466903687E0,4.716098785E0
9.431133906E0,3.939330578E-1,5.576993942E0,4.771056652E0
9.436184062E0,4.152903557E-1,5.624342442E0,4.786013603E0
9.441234219E0,3.546657562E-1,5.636392593E0,4.781590462E0
9.446284375E0,3.525271416E-1,5.567363262E0,4.760500431E0
9.451334583E0,3.746538162E-1,5.542657852E0,4.759941101E0
9.456384739E0,3.700208664E-1,5.498631954E0,4.679331779E0
9.461434896E0,3.941619396E-1,5.363140583E0,4.513051510E0
9.466485052E0,3.432741165E-1,5.098978043E0,4.330653191E0
9.471535208E0,2.862071991E-1,4.784906387E0,3.997112513E0
9.476585364E0,2.471473217E-1,4.342952728E0,3.597729206E0
9.481635573E0,1.043272018E-1,3.866235733E0,3.034785986E0
9.486685677E0,3.971362114E-2,3.231369019E0,2.492916107E0
9.491735833E0,6.477642059E-2,2.462271690E0,1.877982616E0
9.496785989E0,8.729124069E-2,1.551764488E0,1.198580980E0
9.501836146E0,6.972956657E-2,5.954909325E-1,2.614917755E-1
9.506886302E0,4.285311699E-2,-3.820562363E-1,-1.061953545E0
9.511936510E0,-5.455827713E-2,-1.395059586E0,-2.726029873E0
9.516986667E0,-2.928464413E-1,-2.491524696E0,-4.655644417E0
9.522036823E0,-7.001168728E-1,-3.610531807E0,-6.569976330E0
9.527086979E0,-1.139405012E0,-4.669103622E0,-8.128036499E0
9.532137135E0,-1.627689958E0,-5.621985435E0,-9.105758667E0
9.537187292E0,-2.323699474E0,-6.287304878E0,-9.478252411E0
9.542237500E0,-2.914217949E0,-6.490613937E0,-9.509104729E0
9.547287656E0,-2.849697590E0,-6.106729507E0,-9.481955528E0
9.552337812E0,-2.143732071E0,-5.138591766E0,-9.846547127E0
9.557387969E0,-1.508820653E0,-3.838042259E0,-9.945900917E0
9.562438125E0,-1.459192991E0,-2.380496025E0,-9.726955414E0
9.567488281E0,-1.617441297E0,-1.089367867E0,-8.980154037E0
9.572538489E0,-1.690393090E0,1.515607834E-1,-7.819118500E0
9.577588646E0,-1.604224920E0,1.191876411E0,-6.666590691E0
9.582638802E0,-1.463407993E0,2.012224197E0,-5.709685326E0
9.587688958E0,-1.111446857E0,2.550697327E0,-4.782868385E0
9.592739114E0,-6.468427181E-1,2.909694672E0,-3.701750755E0
9.597789271E0,-1.685837507E-1,3.101410866E0,-2.769629478E0
9.602839479E0,3.488591909E-1,2.914325714E0,-2.038113117E0
9.607889635E0,7.800645828E-1,2.207353592E0,-8.227987289E-1
9.612939792E0,1.067138672E0,1.212103844E0,7.859241962E-1
9.617989948E0,1.327089906E0,4.610633850E-2,2.516667843E0
9.623040104E0,1.140833735E0,-1.243911743E0,3.677400589E0
9.628090260E0,2.743369341E-1,-2.669352531E0,3.831696272E0
9.633140469E0,-6.335619688E-1,-4.413797379E0,3.617046356E0
9.638190625E0,-1.337826252E0,-6.321035385E0,3.465170860E0
9.643240781E0,-1.598243356E0,-7.762523651E0,3.186342478E0
9.648290937E0,-1.394767165E0,-8.145073891E0,2.537532806E0
9.653341094E0,-1.062558770E0,-7.775437355E0,1.656893015E0
9.658391250E0,-1.031727910E0,-6.938801765E0,5.267937183E-1
9.663441458E0,-1.428230882E0,-5.900003433E0,-6.086044312E-1
9.668491614E0,-2.008366108E0,-4.904797554E0,-1.308941603E0
9.673541771E0,-2.805826187E0,-4.160418510E0,-1.770438671E0
9.678591927E0,-4.232453346E0,-4.002112389E0,-1.111861706E0
9.683642083E0,-6.039108276E0,-4.442061424E0,1.014528275E0
9.688692239E0,-7.847417831E0,-5.517066956E0,3.139327526E0
9.693742448E0,-9.289466858E0,-6.800466537E0,3.717544317E0
9.698792552E0,-8.901857376E0,-7.535326004E0,3.826948404E0
9.703842708E0,-7.126521587E0,-6.450396538E0,4.132080078E0
9.708892864E0,-5.506043434E0,-3.236458778E0,3.649906874E0
9.713943021E0,-4.428103447E0,6.981287003E-1,3.007264376E0
9.718993177E0,-3.559795380E0,3.760213852E0,2.980267286E0
9.724043385E0,-2.858097315E0,5.839169979E0,3.729276657E0
9.729093542E0,-2.222593307E0,6.936562538E0,4.620482445E0
9.734143698E0,-1.520096302E0,7.392241955E0,5.370346069E0
9.739193854E0,-9.527672529E-1,7.336911201E0,5.734159946E0
9.744244010E0,-5.208734274E-1,6.989982605E0,5.457952023E0
9.749294167E0,1.607148647E-1,6.318293571E0,5.262625217E0
9.754344375E0,9.941990376E-1,5.477974892E0,5.266077995E0
9.759394531E0,1.807100296E0,4.349805355E0,5.473503590E0
9.764444687E0,2.706254005E0,3.100692749E0,5.767277718E0
9.769494844E0,3.861330986E0,1.676511765E0,6.089294434E0
9.774545000E0,5.364439964E0,-5.793190002E-2,6.441840172E0
9.779595156E0,7.236325264E0,-1.872371674E0,6.741961479E0
9.784645364E0,9.158315659E0,-3.630981445E0,7.028105736E0
9.789695521E0,1.056819248E1,-4.963696480E0,7.040816307E0
9.794745677E0,1.088744640E1,-5.837436676E0,6.589109898E0
9.799795833E0,1.046839523E1,-6.442451477E0,5.768150330E0
9.804845989E0,9.276040077E0,-6.532498360E0,4.518229485E0
9.809896146E0,7.770442963E0,-6.069602013E0,3.250980854E0
9.814946354E0,6.416173458E0,-5.196814537E0,2.503607512E0
9.819996458E0,5.145482063E0,-4.191478729E0,2.375041962E0
9.825046614E0,4.138646126E0,-3.300339699E0,2.631253481E0
9.830096771E0,3.313060522E0,-2.676770210E0,2.959774017E0
9.835146927E0,2.303782463E0,-1.932538033E0,2.597088814E0
9.840197083E0,1.458765626E0,-1.095275879E0,2.233635664E0
9.845247292E0,8.417375684E-1,-2.919502258E-1,1.736378551E0
9.850297448E0,3.335950375E-1,2.774457932E-1,1.260458589E0
9.855347604E0,-8.732832074E-1,1.152225494E0,2.220290899E-1
9.860397760E0,-1.868749738E0,1.801505566E0,-9.503155947E-1
9.865447917E0,-2.598631382E0,2.157077312E0,-1.609022617E0
9.870498073E0,-3.167227030E0,2.384202957E0,-2.492741108E0
9.875548281E0,-3.604372501E0,2.509215355E0,-3.038861275E0
9.880598437E0,-3.958556175E0,2.740428925E0,-3.091406584E0
9.885648594E0,-4.154825211E0,2.839719772E0,-3.085977554E0
9.890698750E0,-4.210333824E0,2.884955406E0,-3.073832273E0
9.895748906E0,-4.068341255E0,2.812789440E0,-3.060745239E0
9.900799062E0,-3.747758389E0,2.671178818E0,-2.993146420E0
9.905849271E0,-3.293084145E0,2.516503334E0,-2.852882147E0
9.910899427E0,-2.787161827E0,2.350046158E0,-2.638487577E0
9.915949583E0,-2.257679701E0,2.226924896E0,-2.246886015E0
9.920999739E0,-1.811502337E0,2.095764637E0,-1.892650366E0
9.926049896E0,-1.363268614E0,1.947051048E0,-1.478740692E0
9.931100052E0,-9.514361620E-1,1.759351730E0,-1.053033710E0
9.936150260E0,-5.084432960E-1,1.461050034E0,-6.086802483E-1
9.941200364E0,1.636427641E-2,1.143298149E0,-2.142270505E-1
9.946250521E0,5.345205069E-1,8.169927597E-1,2.276670337E-1
9.951300677E0,1.016220331E0,6.485109329E-1,6.374673247E-1
9.956350833E0,1.367572546E0,5.372095108E-1,9.449573755E-1
9.961400989E0,1.535072327E0,5.416803360E-1,1.125746727E0
9.966451198E0,1.557526112E0,6.772851944E-1,1.132927299E0
9.971501354E0,1.478276968E0,8.576984406E-1,9.572571516E-1
9.976551510E0,1.291734815E0,1.006279945E0,5.777039528E-1
9.981601667E0,1.087140560E0,1.161323547E0,1.409800351E-1
9.986651823E0,8.914831877E-1,1.307248116E0,-3.919722438E-1
9.991701979E0,6.359996796E-1,1.458405495E0,-9.024744034E-1
9.996752187E0,4.318968058E-1,1.603968620E0,-1.326025724E0
1.000180234E1,3.348059952E-1,1.676891327E0,-1.520786285E0
1.000685250E1,2.995804846E-1,1.713075638E0,-1.554672480E0
1.001190266E1,3.464020193E-1,1.603641510E0,-1.430762768E0
1.001695281E1,4.409946203E-1,1.412172318E0,-1.179167271E0
1.002200297E1,6.123768091E-1,1.171087265E0,-7.784215212E-1
1.002705318E1,7.110813260E-1,9.367084503E-1,-3.469802141E-1
1.003210333E1,7.755561471E-1,6.839542389E-1,2.480040789E-1
1.003715349E1,7.905085087E-1,5.492467880E-1,7.311770916E-1
1.004220365E1,7.158511877E-1,4.989748001E-1,9.939436913E-1
1.004725380E1,5.551248193E-1,5.186376572E-1,1.102203369E0
1.005230396E1,3.430749178E-1,5.925092697E-1,9.815814495E-1
1.005735417E1,2.538131475E-1,6.582851410E-1,5.189763308E-1
1.006240427E1,3.353724480E-1,6.824693680E-1,-2.861440182E-1
1.006745443E1,6.166741848E-1,6.963348389E-1,-1.355885148E0
1.007250458E1,8.865696192E-1,6.761398315E-1,-2.448344469E0
1.007755474E1,1.205870986E0,4.893894196E-1,-3.456897020E0
1.008260490E1,1.517607212E0,1.078186035E-1,-4.279007912E0
1.008765510E1,1.821858883E0,-4.093561172E-1,-4.700729370E0
1.009270526E1,1.995089889E0,-9.480876923E-1,-4.639549255E0
1.009775542E1,2.059638500E0,-1.377866745E0,-4.262569904E0
1.010280557E1,1.853640556E0,-1.652217865E0,-3.600800037E0
1.010785573E1,1.441603899E0,-1.822931290E0,-2.817129135E0
1.011290588E1,7.686967850E-1,-1.965754509E0,-2.087599039E0
1.011795609E1,7.862454653E-2,-2.079752922E0,-1.392678976E0
1.012300620E1,-6.447852850E-1,-2.173601151E0,-1.080179453E0
1.012805635E1,-1.235536933E0,-2.143228531E0,-9.938085079E-1
1.013310651E1,-1.709038973E0,-2.065204620E0,-1.243945003E0
1.013815667E1,-1.921400547E0,-1.995453835E0,-1.664912462E0
1.014320682E1,-1.830118179E0,-1.931195259E0,-2.224243402E0
1.014825703E1,-1.484176874E0,-2.002472878E0,-2.773777008E0
1.015330719E1,-8.930337429E-1,-2.126408577E0,-3.237957001E0
1.015835734E1,-1.964768171E-1,-2.210800171E0,-3.626730919E0
1.016340750E1,3.942897916E-1,-2.316769600E0,-4.049559593E0
1.016845766E1,8.053950071E-1,-2.498246193E0,-4.321491718E0
1.017350781E1,1.063555360E0,-2.706246376E0,-4.444490433E0
1.017855802E1,9.815660119E-1,-2.796077728E0,-4.507514954E0
1.018360818E1,7.325792909E-1,-2.817041397E0,-4.446350098E0
1.018865833E1,3.580263257E-1,-2.738026619E0,-4.351651192E0
1.019370849E1,-6.710404158E-2,-2.489639282E0,-4.037481785E0
1.019875865E1,-4.418957233E-1,-2.355512619E0,-3.681984663E0
1.020380880E1,-5.734636188E-1,-2.337814331E0,-3.323137999E0
1.020885901E1,-4.311361313E-1,-2.531987190E0,-2.919934273E0
1.021394854E1,-4.947471619E-2,-2.978199959E0,-2.524424553E0
1.021899870E1,4.208900630E-1,-3.752442360E0,-2.225661516E0
1.022404891E1,8.764331937E-1,-4.673693657E0,-2.048791409E0
1.022909906E1,1.384520769E0,-5.567217827E0,-2.016870499E0
1.023414922E1,1.745659828E0,-6.170031548E0,-2.168673515E0
1.023919938E1,1.984829187E0,-6.379689217E0,-2.531729221E0
1.024421010E1,2.087922335E0,-6.163142204E0,-3.148543358E0
1.024926026E1,2.057533503E0,-5.713081360E0,-3.752361536E0
1.025431042E1,1.787229061E0,-5.272064209E0,-4.250806808E0
1.025936057E1,1.340367556E0,-4.813329697E0,-4.389190674E0
1.026441073E1,9.031277895E-1,-4.359474182E0,-4.151955605E0
1.026946094E1,5.389814377E-1,-3.890461922E0,-3.541881800E0
1.027451109E1,2.482403517E-1,-3.536156654E0,-2.904950142E0
1.027956125E1,-7.239156961E-2,-3.146278381E0,-2.430021048E0
1.028461141E1,-3.309427500E-1,-2.732091904E0,-2.258435249E0
1.028966156E1,-6.060839891E-1,-2.230308533E0,-2.562105179E0
1.029471172E1,-1.023780584E0,-1.733417511E0,-3.003865719E0
1.029976193E1,-1.450391531E0,-1.233685493E0,-3.498782635E0
1.030481203E1,-1.547205448E0,-8.336687088E-1,-3.651876688E0
1.030986219E1,-1.449549198E0,-4.959535599E-1,-3.740883827E0
1.031491234E1,-1.257880688E0,-3.172302246E-1,-3.508023739E0
1.031996250E1,-8.759481907E-1,-2.683839798E-1,-2.886118412E0
1.032501266E1,-2.345676422E-1,-5.507802963E-1,-2.076625347E0
1.033006286E1,6.554019451E-2,-8.125371933E-1,-1.112248182E0
1.033511297E1,3.082096577E-2,-1.135012627E0,-3.405337334E-1
1.034016312E1,4.772603512E-2,-1.748681068E0,3.994987309E-1
1.034521328E1,5.127263069E-2,-2.695743561E0,9.535316229E-1
1.035026344E1,1.483993530E-1,-3.697776794E0,1.421647310E0
1.035531359E1,1.947761774E-1,-4.620247841E0,1.792960167E0
1.036036380E1,1.456254721E-1,-5.291706085E0,2.173761368E0
1.036541396E1,-9.300231934E-2,-5.630692482E0,2.839007854E0
1.037046411E1,-2.610938549E-1,-5.889547348E0,3.501628876E0
1.037551427E1,-2.294493914E-1,-6.236494064E0,3.580941677E0
1.038056443E1,-3.929823637E-1,-6.509697914E0,3.266705751E0
1.038561458E1,-6.980514526E-1,-6.569542885E0,2.994737148E0
1.039066479E1,-8.774878979E-1,-6.598383904E0,2.853007317E0
1.039571490E1,-1.074160099E0,-6.492457390E0,2.806618690E0
1.040076505E1,-1.157118797E0,-6.255565643E0,2.957392216E0
1.040581521E1,-1.508523226E0,-5.754930496E0,3.349987507E0
1.041086536E1,-1.397192478E0,-5.120881081E0,4.109558582E0
1.041591552E1,-6.986857653E-1,-4.479710579E0,4.731287956E0
1.042096568E1,-1.519322395E-3,-3.872735977E0,5.302179337E0
1.042601588E1,2.644565105E-1,-3.355544090E0,6.313761234E0
1.043106604E1,7.292944193E-1,-2.731672287E0,6.433416367E0
1.043611620E1,9.622097015E-1,-1.926161766E0,6.172556877E0
1.044116635E1,1.045114040E0,-1.206594467E0,5.410946846E0
1.044621651E1,9.874418974E-1,-5.129318237E-1,4.165190697E0
