time,seconds_elapsed,z,y,x
1686426032165748200,0.102748291015625,2.9710394250810146,1.2564449994504452,-0.5966388092640788
1686426032175692000,0.112692138671875,3.130757693350315,0.9124252257972956,-0.8186445338159799
1686426032185637000,0.12263720703125,3.4497675289094447,0.8569324711561203,-0.7685018349658698
1686426032195582200,0.132582275390625,3.7467052333921194,0.734735832029581,-0.5653452608559281
1686426032205526000,0.142526123046875,3.9109365951716897,0.578258153116703,-0.3648310910135507
1686426032215471000,0.15247119140625,3.989589276126027,0.4235322863072157,-0.1729448295891285
1686426032225416200,0.162416259765625,3.89424440356791,0.22726620236337183,0.0073549567395355545
1686426032235361000,0.172361083984375,3.5850814237624404,0.19983049842715261,0.0330554252478294
1686426032245305000,0.18230517578125,3.161815094915032,0.28348727127909656,-0.20973211657535284
1686426032255250200,0.192250244140625,2.740695130446553,0.25921909146308897,-0.5658426889840513
1686426032265195000,0.202195068359375,2.4319009839534758,0.32193244500756263,-1.036726362922415
1686426032275140000,0.21214013671875,2.376612227451801,0.33081542416512966,-1.4032573166564106
1686426032285084000,0.222083984375,2.5874188779234886,-0.04435585907697678,-1.7390213031396269
1686426032295029200,0.232029296875,2.9023277079045773,-0.5784656583875417,-1.9347820679098366
1686426032304974000,0.24197412109375,3.144256641870737,-1.118833933570981,-2.480875150480866
1686426032314919200,0.251919189453125,2.8313883778065443,-1.7159762353777885,-3.1965669670835135
1686426032324863200,0.26186328125,2.1369465622425077,-1.697701743018627,-3.239322697487473
1686426032334808000,0.27180810546875,1.036333345016837,-1.2684323743641375,-2.9338085955783724
1686426032344753200,0.281753173828125,-0.24897125369310377,-1.2269354118496179,-2.785155034419894
1686426032354697200,0.291697265625,-0.8666489785283803,-1.445060860902071,-2.1177467717319725
1686426032364642000,0.30164208984375,-0.7701274634063243,-1.6402806506633758,-1.2298767259985208
1686426032374587100,0.311587158203125,-0.5620312409371138,-1.9720044218450783,-0.6150849318630993
1686426032384532200,0.3215322265625,-0.13024609006941318,-1.9237644148111341,-0.29396365710794925
1686426032394476300,0.331476318359375,0.37559155448079107,-1.7004519185096025,-0.14052140036821364
1686426032404421000,0.341421142578125,0.6282534793853759,-1.3581091381579637,-0.056853521600365636
1686426032414366000,0.351365966796875,0.4805909750908613,-0.6406640481472015,0.3793514915362
1686426032424311000,0.36131103515625,0.028475568377971647,0.49491789886802434,1.0536300783850252
1686426032434255000,0.371255126953125,-0.4088824141860008,1.5878838162109254,1.4279261862277983
1686426032444200000,0.381199951171875,-0.20004384891688823,2.3869936284735798,1.9170181554213166
1686426032454145300,0.391145263671875,0.17936930967867373,3.1633991492360827,2.62685101686269
1686426032464089000,0.401089111328125,0.02778524802625179,3.879558875611424,3.480237778235972
1686426032474034200,0.4110341796875,-0.3055453738301992,4.513354791554808,4.206591858628392
1686426032483979300,0.420979248046875,-0.5503530781030654,5.095380188250541,4.53646941742152
1686426032493924000,0.430924072265625,-0.397501772993803,5.728024011549353,4.003961208088696
1686426032503868200,0.4408681640625,-0.2261433358132839,6.465899310648441,3.4117642537295816
1686426032513813000,0.45081298828125,-0.2536485978543758,7.09780254471302,3.0336306135505438
1686426032523758000,0.460758056640625,0.08648819688558577,7.32988462292552,2.8810125326752662
1686426032533703200,0.470703125,0.875599762225151,7.808106530797481,2.690176072564721
1686426032543647000,0.48064697265625,1.8621943860828876,7.822973845061659,2.2932126442313194
1686426032553592300,0.49059228515625,2.3588848475813866,7.013737191060185,1.3744494475841522
1686426032563537200,0.500537109375,2.49039876562953,6.172319099900126,0.4436421773999929
1686426032573481000,0.51048095703125,2.1470319029271603,5.317773816141486,-0.45933366752862925
1686426032583426300,0.52042626953125,1.777747924157977,3.925172041273117,-1.3140145603656768
1686426032593371100,0.53037109375,1.2885507410243153,2.199476083652675,-1.6064625522136686
1686426032603316000,0.54031591796875,0.479769137313962,0.8288494092270732,-1.5443950953572987
1686426032613260000,0.550260009765625,0.04572977777868509,0.028082185146212576,-0.992653193244338
1686426032623205000,0.560205078125,-0.3025140433102846,0.5204381245717405,-0.006568272474408149
1686426032633150200,0.570150146484375,-0.18116788353323934,1.4516162738949059,1.3649106348663567
1686426032643095000,0.580094970703125,0.07169453237950801,1.7538932935789227,3.2136282842606305
1686426032653039000,0.5900390625,-0.27336218310594557,1.4195149162352085,5.1415129938721655
1686426032662984200,0.599984130859375,-0.8635843302607535,0.9616584816522896,6.7671139617979525
1686426032672929000,0.609928955078125,-1.5503957970768212,0.39056685916408895,7.709055789458751
1686426032682874000,0.6198740234375,-2.0006518396586177,-0.1057904248572886,7.909856009700894
1686426032692818200,0.629818115234375,-2.494479312941432,0.1359656367599964,7.245083356213569
1686426032702763000,0.639762939453125,-3.0430133589237927,0.5327714268462732,6.145463826200365
1686426032712708400,0.649708251953125,-3.4559371574550863,-0.05226683769749943,5.172326649808883
1686426032722653200,0.659653076171875,-3.4088048194020986,-2.383469838261604,4.805025953811406
1686426032732597500,0.669597412109375,-3.4004502480328083,-4.939491707402468,4.476526989895105
1686426032742542800,0.67954296875,-2.436911505591869,-6.845345202469825,4.463832928016782
1686426032752487700,0.68948779296875,-1.2398679586589336,-8.167851112326979,4.440679431444407
1686426032762431700,0.699431640625,-0.4361035620560869,-8.520741590178012,4.272127283856272
1686426032772376800,0.709376953125,-0.04984682117607444,-8.10421479871869,4.430287216767669
1686426032782321700,0.71932177734375,0.3268131662538275,-7.984815681356191,4.91091443221569
1686426032792266500,0.7292666015625,1.2040075407266617,-8.377453063184022,5.912056052342057
1686426032802210600,0.73921044921875,2.6624218041986225,-9.341334335452318,7.139668340539932
1686426032812155600,0.74915576171875,4.412565682116151,-9.509932660269737,7.92327312515676
1686426032822100700,0.759100830078125,6.175526956030726,-8.584891698527336,7.639948350962996
1686426032832045600,0.769045654296875,7.492932912400365,-7.768976881936192,5.906931548935175
1686426032841989600,0.77898974609375,8.206068322518467,-7.219431028562783,3.166364428782463
1686426032851934700,0.788934814453125,8.911376400011777,-6.872668678203225,0.8818611607074737
1686426032861879600,0.798879638671875,13.900587539350985,-6.516729918697476,-0.3821078045070171
1686426032871824600,0.80882470703125,21.267010625600815,-6.7869286693364375,-3.064658204498887
1686426032881768700,0.818768798828125,20.100599532818794,-7.456028538373112,-4.642907638663053
1686426032891713500,0.828713623046875,11.802791084235906,-7.461900060755014,-3.1904291949808594
1686426032901659000,0.838658935546875,4.357724084860086,-7.1838055884301655,-2.0633014803171155
1686426032911602700,0.848602783203125,-0.5590817434817552,-4.435286632490158,-0.19312720139622688
1686426032921547800,0.8585478515625,-1.9411305601537225,-0.819360573130846,2.815306427055597
1686426032931492600,0.86849267578125,-3.956332610951364,1.2212747557394206,5.550113668507337
1686426032941437700,0.878437744140625,-7.288043961539864,2.226372858406603,6.759357356321812
1686426032951381800,0.8883818359375,-9.521549448305368,3.0636706547662613,6.983368940803408
1686426032961326600,0.89832666015625,-9.60315805645585,4.287369568912685,6.7041890113294125
1686426032971271700,0.908271728515625,-7.654646738401055,4.436171014109253,6.536755054116249
1686426032981216800,0.918216796875,-4.1468323864534495,3.913562267500162,5.879952941116691
1686426032991160600,0.92816064453125,1.859211570879817,2.556962364861369,4.153936957761645
1686426033001105700,0.938105712890625,4.573862744009494,0.7187937281407415,3.088112729844451
1686426033011050800,0.94805078125,4.42506334463954,0.1981912067875266,3.1509733829051254
1686426033020995600,0.95799560546875,6.696683750265836,0.42681291541308164,5.471689535611867
1686426033030939600,0.967939697265625,7.184968786990642,0.3562953178584575,7.96913237453401
1686426033040884700,0.977884765625,6.686262894016504,-0.33426585687994953,8.243034071344137
1686426033050829600,0.98782958984375,5.898710248556733,-0.8753446184203029,6.604623306205868
1686426033060773600,0.997773681640625,3.3692364868625995,-0.9071887864485383,4.966830380704999
1686426033070718700,1.00771875,0.5421081045880913,-0.5165037077322602,3.0937814231306313
1686426033080663800,1.017663818359375,-1.6993264216110109,-1.2345730671212076,0.20832944670319556
1686426033090608600,1.027608642578125,-1.6021189700514078,-1.5379039797723293,-1.7820546814411877
1686426033100552400,1.037552490234375,-0.40718423196598885,-3.0285873586863277,-2.763904741120338
1686426033110497800,1.047497802734375,-0.04473287569582462,-4.759750349541008,-3.0020804600328206
1686426033120442600,1.057442626953125,0.49181116502434014,-5.883039801216126,-3.521287873765826
1686426033130387500,1.067387451171875,1.3754694382816552,-6.920188554269075,-4.287133714330196
1686426033140331800,1.077331787109375,1.9466187823064625,-7.804197248399257,-5.198527843514085
1686426033150276600,1.087276611328125,1.6331443690426646,-8.044715146523714,-5.666363966450095
1686426033160221700,1.0972216796875,1.8327409125834702,-7.91150319238603,-6.574976940482855
1686426033170166800,1.107166748046875,2.080282571864873,-7.014855381435155,-8.338804475837945
1686426033180110600,1.117110595703125,1.1761809377767145,-6.199584123444557,-9.714726918584107
1686426033190055700,1.1270556640625,0.20369477263987062,-6.364476579481363,-10.63036759929657
1686426033200000800,1.137000732421875,-0.207425045209378,-5.49369210858345,-10.330540603113175
1686426033209944800,1.14694482421875,0.19663024108111857,-4.1052340093910695,-9.583324059695006
1686426033219889700,1.1568896484375,-0.1866770023435354,-2.8572940956965085,-9.320508989566564
1686426033229834500,1.16683447265625,-0.8611649210941046,-1.555027256269753,-9.217916045576333
1686426033239779600,1.176779541015625,-1.2434393874049186,-0.2140302886933088,-9.015648090869188
1686426033249723600,1.1867236328125,-0.09368241923861205,-0.04879793317764997,-7.9420041291117665
1686426033259668500,1.19666845703125,0.45532154581043865,-3.6535116936489938,-4.741968901395797
1686426033269613800,1.20661376953125,-2.7535627953261135,-4.173133533401787,0.8625742764353752
1686426033279558700,1.21655859375,-8.299081537258624,-2.3204802981242536,5.015720960602164
1686426033289502700,1.226502685546875,-9.950670348399877,1.956523651857674,6.895477306860685
1686426033299447800,1.23644775390625,-6.8912710873425,5.675078603303432,7.918632605874538
1686426033309392600,1.246392578125,-0.5942483339309692,7.16643359786868,8.257596265181899
1686426033319337700,1.256337646484375,3.91002240293622,6.943089537385106,9.507610939323902
1686426033329281500,1.266281494140625,5.020861830621958,6.103379419186711,11.222027670300006
1686426033339226600,1.2762265625,6.026622927242517,5.918146185910701,12.063168698084354
1686426033349171700,1.286171630859375,10.132677605366705,7.024281381428241,11.948574350655079
1686426033359116500,1.296116455078125,10.013015453153848,7.984432234996556,10.347898565149306
1686426033369060900,1.306060791015625,8.525961370652913,7.579885804188251,7.830259325894713
1686426033379005700,1.316005615234375,7.933569478243589,6.0009705995917315,6.907450068727135
1686426033388950500,1.325950439453125,7.125366258943081,5.737973158633709,7.965112617498636
1686426033398895600,1.3358955078125,5.085917947900295,4.239936494347453,7.948601627680659
1686426033408839700,1.345839599609375,2.837539301651716,1.341267893472314,6.145211897265911
1686426033418784500,1.355784423828125,1.4392483752310274,-0.6867579830631614,4.4275200901418925
1686426033428729900,1.365729736328125,0.33843590910620985,-1.2828928613930939,3.0769401784449815
1686426033438674700,1.3756748046875,-0.5105366525540128,-1.164078850442171,2.7531355098247525
1686426033448618800,1.38561865234375,-1.343287416601181,-1.1342521597161888,2.650333891519904
1686426033458563600,1.3955634765625,-1.5526502980053425,-1.6860408235803246,1.9905454561859368
1686426033468508700,1.4055087890625,-1.4946668955922127,-2.371477641042322,-0.2727741540849209
1686426033478452700,1.41545263671875,-0.8709493060708046,-2.3853126896493135,-3.9137762025117873
1686426033488397600,1.4253974609375,0.18653737467713652,-2.3105302742570637,-7.173368365567923
1686426033498342700,1.4353427734375,1.5494307514369487,-2.2183546793848277,-9.444032493382691
1686426033508287700,1.445287841796875,2.576929048091173,-2.378326337893307,-11.064882467389106
1686426033518231600,1.4552314453125,3.054205199545622,-2.547645085939765,-10.792744273120164
1686426033528176600,1.4651767578125,3.242644535386562,-3.411482514178753,-10.418345143294333
1686426033538121700,1.475121826171875,3.5451895583570003,-4.2536733432769775,-10.24098951152563
1686426033548066600,1.485066650390625,3.668017481124401,-4.293690004105866,-10.491389336717129
1686426033558010600,1.4950107421875,3.3267467139184475,-5.1070577665627,-12.33604572802186
1686426033567955700,1.504955810546875,2.442157005029917,-4.014783923137188,-13.329423143887519
1686426033577900500,1.514900634765625,0.670238517677784,-3.206003196209669,-13.748756809461115
1686426033587845600,1.524845703125,0.22683601251887156,-0.22817250355333088,-13.491239845740795
1686426033597789700,1.534789794921875,-2.2550515481412408,0.7536889543026686,-11.913222466766834
1686426033607734800,1.54473486328125,-5.255076244688034,3.3101880855664607,-10.094566778159141
1686426033617679600,1.5546796875,-6.783521491241455,5.956379762715101,-7.103199435320496
1686426033627624700,1.564624755859375,-6.809130564272404,7.680459225049614,-4.118468169495463
1686426033637568800,1.57456884765625,-7.2808163483738895,9.828767139261961,-3.0314842491716143
1686426033647513600,1.584513671875,-6.8405053612232205,10.95756307939887,0.38333530047535896
1686426033657458400,1.59445849609375,-6.094083767575025,9.649925652849674,5.0863610154926775
1686426033667403800,1.60440380859375,-5.688614961224794,6.190333480018377,10.662011276316642
1686426033677347600,1.61434765625,-2.990913169330358,2.7679426183342932,14.97501125330925
1686426033687292700,1.624292724609375,0.03469195867478847,2.200162604612112,17.748530210471152
1686426033697237800,1.63423779296875,2.709607333743572,4.264966306185722,18.7960846222043
1686426033707182600,1.6441826171875,3.769212833276391,4.432738117051124,16.946867791116237
1686426033717126700,1.654126708984375,3.5422698715180156,3.5564047798544167,12.841548441529273
1686426033727071700,1.66407177734375,4.150805089476704,3.958025678604841,10.113659601163864
1686426033737016300,1.674016357421875,5.115962373030185,4.193248977452516,7.318119366329908
1686426033746960400,1.68396044921875,5.941191545933485,3.4314912829846143,3.7260610892921684
1686426033756905500,1.693905517578125,6.370462083631754,2.1602859367758036,3.2693881654053922
1686426033766850600,1.7038505859375,5.396634002366662,2.112507117512822,3.8082051194936035
1686426033776795400,1.71379541015625,3.7904724789261817,2.932223664474487,4.250082625308632
1686426033786739700,1.72373974609375,3.0114614518404004,1.8171745101392267,3.9239100585132833
1686426033796684500,1.7336845703125,1.9700018498510121,0.8604156370967626,3.1383693373978137
1686426033806629400,1.74362939453125,0.1399720959223807,-0.605425561505556,1.7128490432679653
1686426033816574500,1.753574462890625,-1.6714532030403613,-2.51055951012671,-0.6862678614586591
1686426033826518500,1.7635185546875,-3.569763443121314,-5.176678999799489,-3.9081472567141056
1686426033836463400,1.77346337890625,-3.3790497326076028,-5.591309017726779,-4.580188439899683
1686426033846408700,1.78340869140625,-1.88468152770102,-6.295206643900275,-4.359236242988706
1686426033856353500,1.793353515625,-0.8485987964443862,-7.660041290920972,-3.906207813084125
1686426033866297600,1.803297607421875,-0.6616413697242737,-9.146329649746418,-3.3499194997131823
1686426033876242400,1.813242431640625,-0.7494383111208677,-10.757463700902461,-3.508850416997075
1686426033886187500,1.8231875,-0.6218161398142575,-11.018401286721229,-4.885654318752884
1686426033896132400,1.83313232421875,-0.5460198712043464,-10.36995374509096,-6.241030817076563
1686426033906076400,1.843076416015625,-0.18392331972122192,-9.386316801995038,-6.975355145695805
1686426033916021500,1.853021484375,0.6972044121451676,-8.258530331161618,-7.564512293967605
1686426033925966600,1.862966552734375,1.1876251457244158,-6.818148567986488,-7.738257918545603
1686426033935911400,1.872911376953125,1.542543768402189,-5.727551133340596,-7.48848353177607
1686426033945855500,1.88285546875,2.0559530172504483,-4.886776016259193,-6.694764180380106
1686426033955800600,1.892800537109375,3.142003309985995,-3.3340304411858317,-5.430498278045654
1686426033965745400,1.902745361328125,3.2851661647737025,-2.4409762708127496,-3.6763454567477103
1686426033975690500,1.9126904296875,-0.9178418440185486,-2.797915731793642,-1.1932479540422558
1686426033985634600,1.922634521484375,-12.190876209586857,-1.3407447463810442,3.027991730880737
1686426033995579400,1.932579345703125,-22.051946366560458,4.338631846377253,5.079300575587153
1686426034005524500,1.9425244140625,-16.765335165923833,8.218293013319373,1.9545088049039243
1686426034015469600,1.952469482421875,-8.27531078557074,9.561425531619786,0.14273936867862938
1686426034025413600,1.96241357421875,-1.7648295520044863,9.742236272278427,0.5234525039568543
1686426034035358500,1.9723583984375,3.7606869969934222,11.526840638202428,2.3307772357329726
1686426034045303600,1.982303466796875,7.38439830340147,18.251353475636243,6.594679419818521
1686426034055248400,1.992248291015625,18.40137920193076,45.12916283233165,13.54372874239087
1686426034065192400,2.0021923828125,16.971397836738824,48.69471830236912,14.226689963519572
1686426034075137300,2.01213720703125,11.027006617981195,23.604883080291746,3.557935934944451
1686426034085082600,2.02208251953125,9.3566774505347,4.57702383838892,-1.7034399944096803
1686426034095027500,2.03202734375,6.0682800487548105,-2.233054235866666,-1.2625161360576749
1686426034104971500,2.041971435546875,4.902853875356913,-4.9783045453995465,-0.058552087412867694
1686426034114916600,2.05191650390625,3.8668221436351535,-7.368892691233754,-0.283753922858648
1686426034124861400,2.061861328125,0.9633394204765557,-9.036969695839286,-0.699268066676706
1686426034134805500,2.071805419921875,-2.4014684362888334,-9.68378291426599,-0.17143994145151226
1686426034144750600,2.08175048828125,-3.828654033282399,-10.67639402193427,0.10423777032149956
1686426034154695400,2.0916953125,-3.028357641583681,-11.421160249590873,0.07546933821048588
1686426034164640500,2.101640625,-1.8992355382323265,-11.535207484531401,0.5059091754164546
1686426034174584300,2.111584228515625,-1.2309136678308248,-11.086161402261256,-0.14493198335208
1686426034184529700,2.12152978515625,-0.6131278064459562,-10.45432831082344,-0.7738283637508749
1686426034194474500,2.131474609375,-0.5872101058572531,-10.252621497130393,0.025604396855831144
1686426034204419600,2.141419677734375,-0.5157189870953559,-10.231226826924084,0.6581054506830871
1686426034214363600,2.15136376953125,-0.14227615334736182,-9.684650929272173,0.17907851003855466
1686426034224308500,2.16130859375,0.07893968120217323,-9.558382510662078,-0.6266935365922749
1686426034234253300,2.17125341796875,-0.12491349686980247,-9.690574474102258,-1.2918145651258528
1686426034244198700,2.18119873046875,-0.7306395026266574,-9.774727506038547,-2.6148551663815973
1686426034254142500,2.191142578125,-1.5585352643907069,-9.957405209612846,-3.9645246852353213
1686426034264087600,2.201087646484375,-2.8389678731501102,-10.069434674990177,-4.331990216405689
1686426034274032600,2.21103271484375,-4.644993212765455,-9.817877496457099,-5.564899149706959
1686426034283977500,2.2209775390625,-6.637618982356786,-8.016237824580072,-11.82122924272418
1686426034293921500,2.230921630859375,-10.418671306508779,-3.289844093456864,-16.890662504291534
1686426034303866400,2.240866455078125,-11.261609154582024,0.6220639770954847,-11.71477260904312
1686426034313811500,2.2508115234375,-6.426409596303105,4.390178493741154,-3.517216678804159
1686426034323756500,2.260756591796875,-0.6425321801066398,10.82143611459732,7.262084759896993
1686426034333700400,2.270700439453125,3.0635207249015566,15.119126294255256,15.742318983119725
1686426034343645700,2.280645751953125,1.8320060224376618,16.64010719627738,15.97454251562953
1686426034353590500,2.290590576171875,-4.63362543105483,17.742237247806788,11.510458827722072
1686426034363535400,2.300535400390625,-4.887232527855038,19.390922154200076,7.7908759945333
1686426034373479700,2.310479736328125,-2.8594804998248815,21.865804201745984,6.8595163511633865
1686426034383424500,2.320424560546875,0.3267921599984169,21.254672537553308,9.278681772184372
1686426034393369300,2.330369384765625,4.694885663181543,18.790352800554036,11.529953801786899
1686426034403314700,2.340314697265625,13.521679407668113,13.430705589801072,8.327436694127321
1686426034413258500,2.350258544921875,22.26016475410461,7.363539639768004,0.8884684500180184
1686426034423203600,2.36020361328125,14.914700284731387,5.118796719673275,-3.850967571899295
1686426034433148400,2.3701484375,9.055636986908317,3.695568920394778,-5.139880424234271
1686426034443093500,2.380093505859375,5.8059811114549635,1.8016151219576597,-7.681836358621716
1686426034453037600,2.39003759765625,0.8351639992013573,-0.1465542507916689,-7.9993299443989985
1686426034462982400,2.399982421875,-2.8259119922220703,-3.6809839302033183,-7.474639130818844
1686426034472927500,2.409927490234375,-5.672000511032342,-8.094849004480242,-6.145905140227079
1686426034482872600,2.41987255859375,-7.821245998355746,-12.13469897981286,-4.003191685020924
1686426034492816400,2.42981640625,-7.959713388803601,-13.175280045402049,-2.0035816095001993
1686426034502761700,2.43976171875,-5.235187302869558,-14.104994844174385,0.7271572134688497
1686426034512706600,2.44970654296875,-1.2848786283828317,-12.992142323100566,1.223737638721615
1686426034522651400,2.4596513671875,1.1798451593726873,-9.443488888025284,-0.648176177342981
1686426034532595500,2.469595458984375,2.0419928809590635,-7.922151427650451,-1.2807596487566828
1686426034542540500,2.47954052734375,1.4596476046591997,-8.056109231719374,-2.067309108523279
1686426034552485400,2.4894853515625,1.27680638108626,-8.173618005290628,-2.3520037097655235
1686426034562430500,2.499430419921875,1.2624356181673704,-8.446188161236048,-2.3933174246676265
1686426034572374500,2.50937451171875,0.622924977838993,-8.971711333987116,-2.5692571982890366
1686426034582319600,2.519319580078125,-0.5905921495109796,-9.535356439861655,-2.705870485302806
1686426034592264400,2.529264404296875,-1.4596172095209359,-9.710643448662758,-2.0524184133835135
1686426034602209500,2.53920947265625,-2.2104881837934256,-9.411545351275802,-0.7297799631878733
1686426034612153600,2.549153564453125,-5.535474902302027,-8.550271636044979,1.1440893708586692
1686426034622098400,2.559098388671875,-13.250705581003427,-5.787293946641683,2.531305653296411
1686426034632043500,2.56904345703125,-20.17212864550352,2.5108470948964356,-0.7912012310951948
1686426034641988600,2.578988525390625,-19.239360304379463,14.98116393072009,-7.092965041553974
1686426034651932400,2.588932373046875,-15.084211632740496,27.629531394839287,-7.002006421256065
1686426034661877500,2.59887744140625,-4.077353776557743,33.74579543004036,0.12073387309759855
1686426034671822600,2.608822509765625,11.576769328975677,35.27850301021337,6.917687969624996
1686426034681767400,2.618767333984375,18.79521602267623,31.123029344403744,9.407775769609213
1686426034691712300,2.628712158203125,13.62495156609416,20.87510038900375,5.8158630385220045
1686426034701656600,2.638656494140625,9.183434514781831,13.379345989441871,3.596714286150038
1686426034711601400,2.648601318359375,9.673083241075277,6.579411123538017,0.9642682257592677
1686426034721546500,2.65854638671875,8.017117530024052,1.4247884727239608,1.2416563033804298
1686426034731490300,2.668490234375,3.797316061210632,0.013919219759106635,1.6896145904138684
1686426034741435400,2.678435302734375,1.0524772550880908,-0.13851298315525054,3.886403626939654
1686426034751380200,2.688380126953125,-1.6983365337908267,-0.27713468738198277,5.352705428791046
1686426034761325300,2.6983251953125,-3.7692823913812634,-1.6221201400727032,4.168972614330053
1686426034771270400,2.7082705078125,-4.2063808462262156,-4.6689615328520535,2.612888250222802
1686426034781214200,2.718214111328125,-3.452895890063047,-8.229838489684463,0.4428038268797099
1686426034791159300,2.7281591796875,-2.764486924922466,-11.324746871018409,-1.688191425742954
1686426034801104400,2.7381044921875,-2.3157062155902386,-13.731993890708685,-2.675464825645089
1686426034811049200,2.74804931640625,-2.1661457687199115,-14.961964724731445,-3.436877359937131
1686426034820993300,2.7579931640625,-1.0390765062451361,-14.30357212767005,-3.665268474677205
1686426034830938400,2.7679384765625,0.1808732845008373,-13.247981708997488,-2.3106784505560993
1686426034840883200,2.77788330078125,0.7310159347236156,-12.379128498423098,-1.3381620364114641
1686426034850828300,2.787828369140625,0.6860603561878204,-11.097875220930575,-0.8337108777835964
1686426034860772400,2.7977724609375,0.10388590641021728,-9.76511562808454,-1.0836192661963402
1686426034870717200,2.80771728515625,-0.5813466937165707,-9.053581807944179,-1.9568135747149586
1686426034880662300,2.817662353515625,-1.0059328729908912,-8.832161408999562,-2.8578730646282433
1686426034890607400,2.827607421875,-1.7847452356994151,-8.753639660948515,-4.094591327084601
1686426034900551400,2.837551513671875,-2.4231027604699134,-8.635770821893214,-5.291887679734826
1686426034910496300,2.847496337890625,-2.8240508745253083,-8.79210704650879,-5.686202054864168
1686426034920441300,2.85744140625,-3.9570565413117404,-8.789132414612174,-6.893313991346955
1686426034930386400,2.867386474609375,-6.066834526121616,-7.067473457422852,-11.257767676723002
1686426034940330200,2.877330322265625,-8.367292903697491,-2.8694471825659273,-12.833802357447146
1686426034950275000,2.887275146484375,-7.993320474851131,3.3889176311492917,-7.471825826963782
1686426034960220400,2.897220458984375,-1.6152514233469961,9.928218862617015,2.5777918024003506
1686426034970165200,2.907165283203125,-1.6708137360930442,16.986746212518213,11.785374670010805
1686426034980109300,2.917109375,-6.009491759699583,19.968289495956896,15.777880125844478
1686426034990054400,2.927054443359375,-8.174356256437301,20.602004747879505,13.139537700891495
1686426034999999200,2.936999267578125,-9.847338568741083,22.148666034603117,9.688343354049325
1686426035009944300,2.9469443359375,-6.745022541499138,21.174487824726103,7.801604893818497
1686426035019888400,2.956888427734375,-1.6720481001935898,18.083405139160156,6.549074437463283
1686426035029833200,2.966833251953125,2.7378578611940143,15.106755472981929,7.634119498679041
1686426035039778300,2.9767783203125,8.831622479817272,12.271693375098705,7.770446369966864
1686426035049723400,2.986723388671875,26.939868045723436,6.454305318966507,0.7019752798087895
1686426035059667500,2.99666748046875,24.95017891410589,3.7103871348202224,-3.2372967446178196
1686426035069612300,3.0066123046875,13.469434841167926,2.719128026282787,-2.636342775568366
1686426035079557000,3.01655712890625,6.544587062916159,0.9732973353892564,-5.555257461136579
1686426035089502200,3.026502197265625,-0.6198521462649107,-0.71286126935184,-7.305498954209685
1686426035099446300,3.0364462890625,-6.105743225708603,-2.7949212261527774,-6.920529915052652
1686426035109391000,3.04639111328125,-9.33411198298335,-5.349767037251591,-5.2838107562631365
1686426035119336400,3.05633642578125,-9.851337867510319,-7.776558715367317,-3.496892268177867
1686426035129281300,3.06628125,-8.105294410648941,-9.666538933998346,-2.057592162759602
1686426035139225300,3.076225341796875,-5.4150294907569885,-10.84431897753477,-1.7202971673168241
1686426035149170400,3.08617041015625,-2.712719912806153,-11.08393554290533,-1.376967567884922
1686426035159115300,3.096115234375,-0.46122766458168624,-11.165520770180224,-0.7799735885076224
1686426035169060400,3.106060302734375,0.8810153575330972,-10.728291382431983,-0.4624919854290783
1686426035179005400,3.11600537109375,1.3679367046892643,-9.78300258243084,-0.48851153895705934
1686426035188949200,3.12594921875,1.554469330126047,-9.326489817541837,-0.731811469015479
1686426035198894300,3.135894287109375,1.6040128209739923,-9.593652561485767,-1.1588010561697184
1686426035208839200,3.145839111328125,1.4168325452834367,-9.897354937797784,-1.6531724270708859
1686426035218783500,3.155783447265625,0.7997515442322939,-9.948513462626934,-2.256127652940154
1686426035228728300,3.165728271484375,0.06655073975026607,-9.559521159303188,-2.9282699584126473
1686426035238673200,3.175673095703125,-0.667679480844736,-8.614995744889974,-2.7463714225172997
1686426035248618200,3.1856181640625,-3.3684377377003427,-7.224815059688687,0.4999579388618469
1686426035258563300,3.195563232421875,-11.185457642793654,-5.52513587911725,4.130824962243437
1686426035268507100,3.205507080078125,-20.8750068655014,0.4912485627055168,4.529187735980749
1686426035278452500,3.215452392578125,-22.182687546670437,10.910154847013949,-4.869120240320265
1686426035288397300,3.225397216796875,-17.87979395315051,23.71301261562109,-9.859514159703254
1686426035298342100,3.235342041015625,-10.65673771982789,30.342316189575193,-4.859423314431309
1686426035308286200,3.2452861328125,2.6733587932765484,28.318970287549494,-0.9703573364146053
1686426035318231300,3.255231201171875,18.498021713083983,28.272570939946174,5.10454023078382
1686426035328176400,3.26517626953125,20.692797363960743,25.626166789090632,9.533308859682082
1686426035338121200,3.275121337890625,12.376875751060247,18.294938934862614,5.200746104085445
1686426035348065300,3.285065185546875,7.1403650906324385,11.326175442516803,1.4734578110858798
1686426035358010400,3.29501025390625,6.742161891371011,5.761691887873411,-1.9437915960565209
1686426035367955200,3.304955078125,5.96305850982666,1.1471826606988906,-1.664682101470232
1686426035377900300,3.314900390625,3.3782688113629815,2.0386200435251,0.41992290017101913
1686426035387844400,3.32484423828125,2.4012743750214574,3.5383448070287704,2.5528584366738793
1686426035397789200,3.3347890625,0.07279628307633101,1.7117852134287357,4.643121281413734
1686426035407734300,3.344734375,-2.5129250702142714,-2.509007019987702,4.971593065062165
1686426035417679400,3.354679443359375,-4.783195230275393,-7.174355623039602,3.939947877861559
1686426035427623200,3.364623046875,-7.187953355759382,-10.757647240775823,3.2467467100083827
1686426035437568300,3.374568359375,-8.176184640908241,-13.546484178578853,2.411935762028396
1686426035447513300,3.384513427734375,-6.563941167205572,-15.351866544115543,1.3285285311475394
1686426035457458200,3.394458251953125,-3.867141877108812,-15.531262157279253,1.4290189499005674
1686426035467402200,3.40440234375,-1.5856851371228693,-15.26492475824356,1.8081331255495547
1686426035477347300,3.414347412109375,0.31980471226386725,-13.958010969793795,1.1770220647759735
1686426035487292400,3.42429248046875,0.6938053442914038,-11.520125650733709,0.5972282995898276
1686426035497237200,3.4342373046875,0.7851169427454471,-9.522332123115659,-0.7498948227167129
1686426035507182300,3.444182373046875,0.9529951365947723,-8.928426903533936,-1.8040888185948132
1686426035517126400,3.45412646484375,1.1440484543263911,-8.833682334956526,-2.3592668326362967
1686426035527071200,3.4640712890625,0.9679915571313351,-9.235691940763592,-2.5446225232481954
1686426035537016300,3.474016357421875,0.6162474728364498,-9.5073163402915,-2.592225401422381
1686426035546961400,3.48396142578125,-0.6158639534115791,-9.33513723437786,-2.8855136434867976
1686426035556905200,3.4939052734375,-2.8258523709893226,-8.898172050523758,-4.18767409992963
1686426035566850300,3.503850341796875,-7.222364159405231,-7.74622787451148,-9.338500573331117
1686426035576795400,3.51379541015625,-14.201250401836633,-1.503831029778719,-20.016617765796184
1686426035586740200,3.523740234375,-13.61312902635336,7.0114856127411125,-18.996508994871377
1686426035596684300,3.533684326171875,-9.32605785586536,11.377194851136206,-11.443798782378435
1686426035606629400,3.54362939453125,-3.403096963149309,15.842264042949676,-3.5783439322009682
1686426035616574200,3.55357421875,0.11827391272485256,18.860045345461366,7.533159124326706
1686426035626519300,3.563519287109375,0.26328626783676445,20.535670865750312,12.599451165258884
1686426035636463400,3.57346337890625,-2.744894920223951,23.709699545550347,11.992432197082042
1686426035646408200,3.583408203125,-5.781068788516521,24.893515362119672,11.451599811518191
1686426035656353300,3.593353271484375,-3.11470906034708,23.54033315896988,9.845414322680234
1686426035666298400,3.60329833984375,4.974152101895212,18.102066585010288,9.958421108657122
1686426035676242400,3.613242431640625,14.033634073793888,10.25484969457388,8.665847980248927
1686426035686187300,3.623187255859375,23.627763605141638,3.115811468631029,3.9649925950080154
1686426035696132000,3.633132080078125,18.024376611608265,-0.6039964054852723,0.426689325566031
1686426035706077400,3.643077392578125,10.690853924441337,-1.408894738021493,-0.8809389312960207
1686426035716021200,3.653021240234375,4.454355490097403,-1.6505980465382337,-4.421797036319971
1686426035725966300,3.66296630859375,-2.8131887042492627,-1.7114350848168134,-7.531767962229251
1686426035735911200,3.6729111328125,-6.498684558919072,-3.406455625927448,-6.825452168998122
1686426035745856000,3.68285595703125,-7.409233469450474,-6.1084922321557995,-3.4063223549365995
1686426035755800000,3.692800048828125,-6.870376183351874,-8.721436596480011,-2.8459350818142295
1686426035765745200,3.7027451171875,-5.524260849848389,-10.133540359675884,-2.820359034270048
1686426035775690000,3.71268994140625,-3.6345121018856763,-11.311365995919704,-2.33530523455143
1686426035785635300,3.72263525390625,-2.147096200335026,-11.824160035479068,-1.5018411711357533
1686426035795579100,3.7325791015625,-1.6826555650562047,-10.76406879825592,-0.20132110231108963
1686426035805524200,3.742524169921875,-1.1927460689347236,-9.78533248668313,1.0378912419833242
1686426035815469000,3.752468994140625,-0.4605084834616631,-9.755766200459004,2.2631974451959134
1686426035825414100,3.7624140625,-0.01189385141134262,-10.191571692883969,2.884368565104902
1686426035835359000,3.77235888671875,0.5378075578499585,-10.54545293533802,2.415636077851057
1686426035845303000,3.782302978515625,1.0082067362070084,-10.892778180277347,1.7745127416290343
1686426035855248100,3.792248046875,0.8546604345709085,-10.806859307712315,1.1841530856996774
1686426035865193200,3.802193115234375,0.16991934428811073,-10.554004490584134,0.7396653243210166
1686426035875138000,3.812137939453125,-0.8011451905477791,-10.318196669846772,0.5745766881249844
1686426035885082000,3.82208203125,-2.0267080719351767,-9.750693719500303,0.9238248639509081
1686426035895027200,3.832027099609375,-6.0244601962506765,-8.974492489138244,2.403523469122499
1686426035904972000,3.841971923828125,-14.845303507900237,-5.936748010528087,3.522655654987693
1686426035914917000,3.851917236328125,-23.103468512880802,5.24142999665141,-4.282855306358635
1686426035924861200,3.861861083984375,-20.854050586712358,22.817340371704102,-18.242529533189533
1686426035934806000,3.871805908203125,-12.212399474608898,36.050733583378786,-17.94984188736677
1686426035944751000,3.881751220703125,2.71204508228451,41.80878857605457,-10.144280364876986
1686426035954696200,3.8916962890625,18.67919193470478,41.13306256687641,-2.9407267044037577
1686426035964640300,3.90164013671875,19.903517456316948,31.44508453900814,2.074791865494102
1686426035974585000,3.911585205078125,10.132488220274448,18.460861318469046,2.8090450285732746
1686426035984530200,3.9215302734375,3.783233175322413,10.081499206793307,2.660106512993574
1686426035994475000,3.93147509765625,0.598572078881599,5.9863096215546125,2.629766612048447
1686426036004420000,3.941420166015625,0.015306874725222587,1.9121704231292007,2.18815111817047
1686426036014364000,3.951364013671875,0.5641676684439182,-0.18440555028021335,3.3547476505219933
1686426036024309200,3.961309326171875,0.9875994169861078,0.046399932125210756,4.398111040306091
1686426036034254000,3.971254150390625,1.5584090076625345,-0.47302433922886844,4.504664412359893
1686426036044199200,3.98119921875,2.6069267114698884,-2.208127299880981,5.708571707582474
1686426036054143200,3.991143310546875,2.74148365047574,-5.099469503390789,4.777442365837097
1686426036064088000,4.001088134765625,1.9032114561259745,-8.962346124270558,2.3114663860633966
1686426036074033000,4.011032958984375,1.0224023617547005,-12.545200519633292,0.7706657350014895
1686426036083978200,4.020978271484375,0.3582289162695408,-15.038046093893051,0.0675568480528891
1686426036093922000,4.030922119140625,0.6988169619083404,-16.337814686763284,-0.37534028313346207
1686426036103867100,4.0408671875,1.231066228044033,-15.87310107976198,-0.3470464279979467
1686426036113812200,4.050812255859375,0.616214666545391,-14.290246197628974,0.20270806315746157
1686426036123757000,4.060757080078125,-0.18198734668996183,-12.473753240013123,0.61478507213369
1686426036133701000,4.070701171875,-0.7904010206282138,-10.905820032680033,0.442084353498742
1686426036143646000,4.08064599609375,-1.5740777014374732,-9.891512056988477,0.45737296191491184
1686426036153591000,4.090591064453125,-2.1075977181613443,-9.616803719970584,0.6353304320342839
1686426036163536100,4.1005361328125,-2.146094329816103,-9.910620077562331,0.7773694704238325
1686426036173480000,4.11047998046875,-2.052949597650766,-10.211134471487998,0.6737273827068507
1686426036183425300,4.12042529296875,-2.060128695499897,-10.247643708717822,0.025080738307908176
1686426036193370000,4.1303701171875,-2.3776444931089875,-10.218483080685138,-1.8008911915972827
1686426036203315000,4.14031494140625,-4.093185844200849,-10.02889925098419,-7.334134097063541
1686426036213260300,4.15026025390625,-10.3500753246665,-6.745597711038589,-21.626016955983637
1686426036223204000,4.1602041015625,-14.449924718409775,1.1767045232594013,-24.19248656938076
1686426036233149000,4.17014892578125,-12.063908702796697,3.916294907334447,-13.361735513949393
1686426036243094300,4.18009423828125,-5.197583840662241,7.395137139558791,-4.2172038535356515
1686426036253039000,4.1900390625,2.3892501752287147,18.833887990897892,8.519224171352386
1686426036262983200,4.199983154296875,2.2995646436065433,26.261694058871267,16.47316306840777
1686426036272928300,4.20992822265625,-3.579287642791867,25.535547191488742,13.193024960929154
1686426036282873000,4.219873046875,-6.662853376856446,27.943835829186437,9.646600892341135
1686426036292818200,4.229818115234375,-5.673523190554977,27.267852630376815,8.866841677236556
1686426036302762000,4.239761962890625,-1.561851257070899,20.367548341751096,8.176177042123674
1686426036312707000,4.24970703125,5.3799669452041385,12.473430583930014,7.154724455374478
1686426036322652200,4.259652099609375,14.879024575716256,6.589167962920666,5.610823865535855
1686426036332597000,4.269596923828125,22.316241446113587,1.880593966126442,2.0312550677150485
1686426036342541300,4.279541259765625,17.368700872290134,0.14120061480402946,-1.2106067928612232
1686426036352486100,4.289486083984375,11.02485323933959,0.4005523927360773,-3.351363853302598
1686426036362431000,4.299430908203125,2.916352141603827,-0.13184709552526475,-8.21548263207376
1686426036372376300,4.309376220703125,-3.820917886072397,-0.9351970295757055,-10.335235482931136
1686426036382321200,4.319321044921875,-5.9468386119097465,-2.9723136828005314,-5.599465436175465
1686426036392265000,4.329264892578125,-6.803798555594683,-5.574181357315182,-2.1868007264748215
1686426036402210300,4.339210205078125,-6.313243820372223,-8.269727432480455,-1.9117818622030316
1686426036412155100,4.349155029296875,-4.821102643865347,-10.724672022891044,-1.537772900738567
1686426036422100000,4.359099853515625,-3.170933636394143,-12.207129425251484,-0.7141511630319058
1686426036432044000,4.3690439453125,-2.3619857362061736,-12.43807753099799,0.10688567274808883
1686426036441989000,4.378989013671875,-2.0892782176166773,-12.066758831530809,1.173910362496227
1686426036451934200,4.388934326171875,-2.0430325992703438,-10.987386555254458,1.3219791095040738
1686426036461879000,4.398879150390625,-1.9574439815729856,-10.440403830367327,1.2226609494008123
1686426036471823000,4.408822998046875,-1.6785294250369072,-10.38241341369152,1.387945911886543
1686426036481768200,4.418768310546875,-1.0807394729763269,-10.510075332486629,1.1845609358482063
1686426036491713000,4.428713134765625,-0.5980798749178647,-10.647319903141259,0.9045291387852281
1686426036501658000,4.438658203125,-0.39122981658484784,-10.406535463035105,0.7436782862894237
1686426036511603200,4.448603271484375,-0.38215394520368423,-10.077954666054248,0.683722268629074
1686426036521547000,4.458547119140625,-0.714155400815606,-9.879512991636991,0.8209078025728463
1686426036531492400,4.468492431640625,-3.707749772053957,-8.811827061501145,1.489828515650332
1686426036541437200,4.478437255859375,-12.948266941016911,-4.418257171756029,2.1267222514785824
1686426036551382000,4.488382080078125,-21.73047101767063,7.109929620358347,-4.743472291696071
1686426036561326000,4.498326171875,-22.070026797652243,18.78269556379914,-15.65715414379239
1686426036571271200,4.508271240234375,-15.590155075752735,31.230450439202784,-19.635170471024512
1686426036581216000,4.518216064453125,-1.2377590036809443,39.27507790744304,-15.415288338190317
1686426036591161000,4.5281611328125,15.05423267406225,36.15827158255577,-8.59767753034234
1686426036601105200,4.538105224609375,22.890817111325262,28.029372424435614,3.094292295262217
1686426036611050200,4.54805029296875,18.3192819334805,19.02188659723401,8.750340034881233
1686426036620995000,4.5579951171875,13.492428763264417,10.222448477184772,5.099994404047727
1686426036630940200,4.567940185546875,10.108098459905385,5.281429998606443,0.7359889738958328
1686426036640885000,4.577885009765625,3.435709777462482,3.512636365276575,0.6096664870109408
1686426036650829000,4.5878291015625,0.32138299443125723,3.141253952923417,3.5997616910219192
1686426036660774100,4.597774169921875,0.8011755126208067,2.499669282799959,5.605584211316704
1686426036670719200,4.60771923828125,0.15952716614399104,0.9852081379354,4.91764637081921
1686426036680664000,4.6176640625,-0.3214537946451455,-1.7042489727050065,4.998433141192794
1686426036690608000,4.627608154296875,0.4964419666301459,-4.949187756508588,5.372711859509349
1686426036700553200,4.63755322265625,1.1827279482673854,-8.6707690700382,3.4481466497093436
1686426036710498000,4.647498046875,1.30608201380074,-12.062047585099934,0.8184020302969962
1686426036720443100,4.657443115234375,0.6496095711469649,-14.871084430366754,-1.2236426539145409
1686426036730387200,4.66738720703125,-0.2886293103426695,-15.88669939700365,-2.340058858819306
1686426036740332000,4.67733203125,-1.5242606543451547,-15.01954480704069,-2.385541968360543
1686426036750277400,4.68727734375,-3.468092290151119,-13.63994689065218,-1.9853733142450452
1686426036760222200,4.69722216796875,-5.081023161596059,-12.354576240968704,-1.7200421696424484
1686426036770167300,4.707167236328125,-5.459920771884918,-11.217349157094954,-1.3869950409024954
1686426036780111400,4.717111328125,-4.84336591359973,-10.373334619700907,-1.232820962756872
1686426036790056200,4.72705615234375,-3.9242531728625294,-10.399071118503809,-0.8405009763151406
1686426036800001000,4.7370009765625,-3.011132950538397,-10.592808560752868,-0.688024934259057
1686426036809946400,4.7469462890625,-2.30020469507575,-10.781927111029624,-0.9719174253381788
1686426036819891200,4.75689111328125,-1.8080454472661018,-10.954349378049374,-1.2476235412217676
1686426036829835300,4.766835205078125,-2.126462577629089,-10.928639767253399,-2.025344382366538
1686426036839780400,4.7767802734375,-4.099909014976024,-10.732394726097583,-4.512052184523641
1686426036849725200,4.78672509765625,-8.65233967937827,-8.935368100973964,-12.40053719715476
1686426036859670300,4.796670166015625,-11.462857703113555,-3.0365333492547273,-17.918620235151053
1686426036869614300,4.8066142578125,-9.055007456833124,1.5812889479905365,-11.826057393532992
1686426036879559200,4.81655908203125,-3.742942081466317,5.4752802535802125,-4.511681305384636
1686426036889504300,4.826504150390625,3.9523552317529913,10.939650990611314,6.266077580049633
1686426036899449300,4.836449462890625,3.2936902474910017,17.321078704893587,17.984702772867678
1686426036909393400,4.846393310546875,-6.627845191839337,20.256302135705948,15.770986274677513
1686426036919338200,4.856338134765625,-11.357412292301655,31.404551453089713,12.476707413643599
1686426036929283000,4.866282958984375,-10.119621724438666,36.999169449234,10.526470002448558
1686426036939228400,4.876228515625,-3.3343665412724017,29.803090070164203,4.4187844105005265
1686426036949173200,4.88617333984375,1.3521053676985204,19.45341105133891,2.1647131055682896
1686426036959117000,4.896116943359375,9.985611897921562,12.034888360017538,1.8897491863541305
1686426036969062400,4.9060625,23.979924015152452,4.598291667345166,-3.349706149223447
1686426036979007200,4.91600732421875,17.15124586984515,3.4072739565730092,-4.438504425492883
1686426036988952000,4.9259521484375,13.799900136721133,2.921205426853895,-4.4084614616677165
1686426036998896400,4.935896484375,8.07726892412603,1.8945412429362534,-7.622077763229608
1686426037008841200,4.94584130859375,2.8303905989408493,0.3274544232994318,-8.217932947835326
1686426037018786300,4.955786376953125,-1.564299819266796,-2.84924493701458,-6.406209104317426
1686426037028731400,4.9657314453125,-4.026509432244301,-5.979167933106422,-4.229122547127306
1686426037038676200,4.97567626953125,-4.713913019734621,-8.694031872203945,-2.7084263072654604
1686426037048620300,4.985620361328125,-4.064094189751148,-10.694066456747054,-1.2599750732727348
1686426037058565000,4.995565185546875,-2.8553941072940825,-11.423879445421695,-0.02092138100559823
1686426037068510200,5.00551025390625,-2.245586385181546,-11.190900710630416,1.1905244473624974
1686426037078455300,5.015455322265625,-2.014086490771174,-10.637091939115523,2.244935812318325
1686426037088399000,5.025399169921875,-1.8662264180779455,-10.387082574546337,2.948427488039434
1686426037098344400,5.035344482421875,-2.004607299286127,-10.387365483140945,3.1528602195650337
1686426037108289300,5.045289306640625,-2.0489187346994875,-10.72083522120714,2.8986233004286883
1686426037118234000,5.055234130859375,-1.916110685187578,-11.121291167831421,2.2739118775643408
1686426037128179200,5.06517919921875,-1.6976210789978503,-11.410124476313591,1.393701114412397
1686426037138123300,5.075123291015625,-1.8429460802555082,-11.47411325662136,0.6058240227712318
1686426037148068000,5.085068115234375,-2.3686206441760063,-11.388588351809977,0.13290109809022396
1686426037158013400,5.095013427734375,-3.0976959662258623,-11.26392619935274,-0.024463044800981878
1686426037167958300,5.104958251953125,-5.576145935386419,-11.196941159838437,0.832657496273145
1686426037177903000,5.114903076171875,-11.799627651768922,-10.864150636208057,3.037104134880006
1686426037187847200,5.12484716796875,-19.608471849191186,-7.772566430860757,4.686101760484278
1686426037197792300,5.134792236328125,-21.41834334284067,-0.046366029855608934,-1.4733365227937698
1686426037207737000,5.144737060546875,-16.527672072708604,12.308565015900134,-9.292062062761188
1686426037217682400,5.154682373046875,-6.759606947168708,34.66731523191929,-12.933471522945165
1686426037227626200,5.164626220703125,13.192742052334546,56.006306221103664,-5.046696529102325
1686426037237571300,5.1745712890625,26.792949637794493,57.94098950481415,2.8744015901029107
1686426037247516200,5.18451611328125,15.984903750646113,35.31411909799576,-2.95706964417845
1686426037257461200,5.194461181640625,5.394076134577393,16.306992847520114,-4.264753832478821
1686426037267406300,5.20440625,3.2057915992856025,6.125644442486762,-4.236823038502037
1686426037277350100,5.21435009765625,3.8607425314605233,0.35162264987230296,-1.739110734988749
1686426037287295200,5.224295166015625,2.075319250369072,0.1526835473269224,2.1032973906189203
1686426037297240300,5.234240234375,0.7873053927004336,0.5286719921708106,3.236191413724422
1686426037307185200,5.24418505859375,0.2028816296260804,-0.05456453388035297,2.8167975423961877
1686426037317129200,5.254129150390625,-1.7867291029930115,-2.4919939258664847,2.9176608861148354
1686426037327074300,5.26407421875,-2.1853367914021016,-5.741686626198888,3.8422149411231277
1686426037337019100,5.27401904296875,-1.5544810205638409,-8.913656619903445,3.259064339789748
1686426037346964500,5.283964599609375,-1.324189917421341,-11.440408555418252,2.313774370744824
1686426037356909300,5.293909423828125,-1.9978058025777339,-13.696402352845668,1.2716522131934762
1686426037366853000,5.30385302734375,-2.6494401575505733,-15.455951187968253,0.06455642412789166
1686426037376798200,5.313798095703125,-2.7215947086572645,-15.801932032561302,-0.8892929912086576
1686426037386743300,5.323743408203125,-2.8161224196135994,-14.446540336668491,-1.1288475972589105
1686426037396688100,5.333688232421875,-2.8717092822790145,-12.260272986418007,-1.1239031996592879
1686426037406632200,5.343632080078125,-2.3411469463169574,-10.734700080430507,-1.796824234419316
1686426037416577300,5.353577392578125,-1.9953446731612086,-9.904228915220498,-2.0731959746047854
1686426037426522400,5.3635224609375,-1.6165549071609973,-9.567822539180517,-2.0453300625577566
1686426037436467200,5.37346728515625,-1.4313177283622323,-9.689383803012966,-1.800833031669259
1686426037446412300,5.383412353515625,-1.4649018719255924,-10.029364530408381,-1.5808970260635018
1686426037456356400,5.3933564453125,-1.5920178472757338,-10.323916801059246,-1.6368454155176877
1686426037466301200,5.40330126953125,-1.881421649122238,-10.482366656827926,-1.8872277050524948
1686426037476246300,5.413246337890625,-3.0329110671043393,-10.410714794546365,-2.8298788500264287
1686426037486191400,5.42319140625,-5.8509343519031995,-10.07817327724099,-7.022920029947161
1686426037496136200,5.43313623046875,-10.310712451571225,-6.705897568812966,-14.085136297494172
1686426037506080300,5.443080322265625,-11.251892062687872,0.4611667281746864,-13.472307181733846
1686426037516025300,5.453025390625,-8.108954102200268,7.934456197950244,-7.136852114075422
1686426037525970200,5.46297021484375,0.7141577389031648,14.56340496711731,4.228308015874028
1686426037535915300,5.472915283203125,4.827641105723381,19.685296730196473,17.28311751528978
1686426037545859300,5.482859375,-5.574367819797993,16.78171463831663,17.770082701587675
1686426037555804200,5.49280419921875,-11.822399455547332,21.29169147787094,12.498818707686661
1686426037565749200,5.502749267578125,-12.575443682205677,32.16906399922371,13.452877674120664
1686426037575694300,5.5126943359375,-7.818360213786363,29.76193271486759,9.605512510627507
1686426037585639200,5.52263916015625,-0.168225399851799,20.594282044672966,3.7756402359753847
1686426037595583200,5.532583251953125,4.128766276147961,14.389362405419348,1.9482684492096303
1686426037605528300,5.5425283203125,19.952292300879954,7.115932075643539,-1.6720847789421676
1686426037615473200,5.55247314453125,26.345572950041294,2.3151298770070077,-6.309907953947782
1686426037625418200,5.562418212890625,16.70077823033929,3.54263461317718,-4.475333980718255
1686426037635363300,5.57236328125,10.272484719985723,3.5068665497034788,-7.9625483199685805
1686426037645307400,5.582307373046875,4.18716352005899,2.6947090398192404,-8.700185718658567
1686426037655252200,5.592252197265625,-1.460555367153883,0.7385515909254551,-5.999215280357003
1686426037665197000,5.602197021484375,-4.534686333397031,-3.012766104698181,-3.6916102458968756
1686426037675142400,5.612142333984375,-6.023499242264032,-7.027739412927627,-2.9273794393137096
1686426037685086200,5.622086181640625,-5.330226470479369,-9.377693935078382,-3.206780610322952
1686426037695031000,5.632031005859375,-3.425423361247778,-10.610491516959666,-2.2877219378605482
1686426037704976400,5.641976318359375,-1.6486662016928195,-10.928588329327106,-0.6384977369587868
1686426037714921200,5.651921142578125,-0.9482833787072449,-10.6445574526906,0.692543872988224
1686426037724866000,5.661865966796875,-0.9768407070845365,-10.314433517920971,1.3769288433097302
1686426037734810600,5.671810546875,-1.147633327075839,-10.112354948306082,1.6687060962893068
1686426037744755700,5.681755615234375,-1.3237819211423396,-10.244632251942157,1.6742292436249553
1686426037754700500,5.691700439453125,-1.3654630080521106,-10.609055931198597,1.3562680403359233
1686426037764645600,5.701645751953125,-1.4324538927853108,-10.97211182923317,0.9466022206872701
1686426037774590700,5.7115908203125,-1.666280184316635,-11.227747801512479,0.4076341676905751
1686426037784534800,5.72153466796875,-2.195409272605181,-11.375194617229699,-0.06800747789721935
1686426037794479600,5.731479736328125,-3.1232968559503553,-11.332235765469074,-0.34864045572374014
1686426037804424700,5.7414248046875,-4.782542903846502,-11.266233891773224,-0.08042374574746936
1686426037814369800,5.751369873046875,-10.108082093292474,-11.239126104617117,1.7005596166677772
1686426037824313600,5.761313720703125,-17.221906383001805,-10.272775811886786,4.190852437704801
1686426037834258400,5.771258544921875,-20.71326030627489,-5.9159261717736715,3.337786578848958
1686426037844203800,5.781203857421875,-15.975637909650802,-0.4432546393871307,-3.905540873607993
1686426037854148600,5.791148681640625,-11.364901186752318,12.948490228378772,-10.57348192899227
1686426037864093400,5.801093505859375,0.0020395430035889148,38.964851097798345,-14.928576834392548
1686426037874037800,5.811037841796875,25.96571321672201,62.460905554580684,-3.3860558119773865
1686426037883982600,5.820982666015625,26.987695964825154,61.39814188327789,0.5546202340282499
1686426037893927700,5.830927734375,8.31322872055471,32.27532774068117,-1.8348305783390997
1686426037903872800,5.840872802734375,0.70348027754426,14.010227479243278,-2.3656676395893097
1686426037913817600,5.850817626953125,-1.6846797643601894,5.583562933644652,-1.2198682499423623
1686426037923761700,5.86076171875,-1.0335795893292874,0.7138771683961153,1.420887519762665
1686426037933706800,5.870706787109375,0.020842808477208017,-2.1093132899075746,5.237521298775077
1686426037943651600,5.880651611328125,0.2904137826066464,-2.733209743127227,6.280733297389745
1686426037953596700,5.8905966796875,-1.336912620872259,-3.2063995020508766,3.50428997721374
1686426037963540500,5.90054052734375,-2.695750657826662,-5.1412049508363005,3.819455996826291
1686426037973485800,5.91048583984375,-1.9306173494458196,-8.200815808817744,3.8296371991008518
1686426037983430700,5.9204306640625,-0.1724562058219686,-11.23744501966238,2.294555875533819
1686426037993375700,5.930375732421875,0.7998258515775203,-13.635668190419674,0.6710708037834614
1686426038003320600,5.940320556640625,0.543352843952179,-15.085722037303446,-0.5669908361058682
1686426038013264600,5.9502646484375,0.007435118436813354,-15.403865611422061,-1.2344717987038194
1686426038023209500,5.96020947265625,-0.4329133146474138,-14.437266312366724,-1.7918306639157235
1686426038033154800,5.97015478515625,-1.106655419999361,-12.202567816424368,-2.267626659815013
1686426038043099600,5.980099609375,-1.7870131806313991,-10.900761580246686,-3.224572872123122
1686426038053044500,5.99004443359375,-2.1494167522370815,-10.228592971289157,-3.4568042956784364
1686426038062988800,5.99998876953125,-2.450980947476625,-9.875016849261522,-3.0568910776287317
1686426038072933600,6.00993359375,-2.6577356922090054,-9.895282223176956,-2.3825376719780267
1686426038082878500,6.01987841796875,-2.6716461441397668,-10.04419735788107,-1.8298894686751066
1686426038092823800,6.02982373046875,-2.5586954722642896,-10.224276861655712,-1.9224846041336654
1686426038102768600,6.0397685546875,-2.786475469368696,-10.411176566839217,-2.829838810276985
1686426038112712700,6.049712646484375,-3.869350200808048,-10.294361036229134,-4.495224676102399
1686426038122657800,6.05965771484375,-6.412115113490819,-9.382819607529044,-10.334384419059752
1686426038132602600,6.0696025390625,-11.083829159921407,-4.574067911192775,-16.600470766937732
1686426038142547700,6.079547607421875,-12.718768449556826,2.660744226375222,-11.997401802188158
1686426038152491500,6.089491455078125,-5.368574613574147,9.101252490657567,-2.664508547344804
1686426038162436600,6.0994365234375,4.343167736241221,16.350332807552814,9.667994978025556
1686426038172381700,6.109381591796875,2.421604630866647,18.637335491228104,18.326825772988794
1686426038182326500,6.119326416015625,-5.811119058865309,17.30839224179983,16.210586483210324
1686426038192271600,6.129271728515625,-9.674407767677307,22.784429451227187,11.603362736868858
1686426038202215700,6.139215576171875,-9.305358182185888,29.358759910500048,10.956316878730059
1686426038212160500,6.149160400390625,-5.527119746410847,24.940260746681687,7.099009582415222
1686426038222105900,6.15910595703125,-0.7329555244840681,19.07223965089917,3.7073636953458187
1686426038232050700,6.16905078125,1.7227479214698076,14.864143817448616,2.604948981656134
1686426038241995500,6.17899560546875,12.652878804063796,9.355959073132276,-0.9279230930499732
1686426038251939800,6.18893994140625,23.606426218080518,4.213362375676632,-7.138209373903274
1686426038261884700,6.198884765625,19.133515080595014,2.378089314267039,-6.689425157439708
1686426038271829500,6.20882958984375,13.095056754130125,1.4682956060171126,-7.998665343010425
1686426038281774800,6.21877490234375,8.844075134155153,0.5249123473763465,-7.702881484737992
1686426038291719700,6.2287197265625,3.263817671796679,-1.5623358257174491,-5.6922617932945485
1686426038301663700,6.238663818359375,-0.7785030775636435,-3.8464310975134373,-3.336627764202654
1686426038311608600,6.248608642578125,-3.2402076636284587,-6.656770842072367,-1.4610845055945216
1686426038321553700,6.2585537109375,-4.67338870164454,-8.943508737331628,-0.5806385454472154
1686426038331498500,6.26849853515625,-5.344384759691358,-10.059607692980766,0.4452352918103337
1686426038341442600,6.278442626953125,-5.2649932430684565,-10.198770664477347,1.638765569925308
1686426038351387600,6.2883876953125,-4.952278123739362,-10.024066424000262,2.4626649555295703
1686426038361332700,6.298332763671875,-4.294350806102156,-9.708778823834658,2.3704380688615143
1686426038371277600,6.308277587890625,-3.6537884647637604,-10.184894114816188,2.178254870317131
1686426038381222700,6.31822265625,-3.2305893559336663,-11.07078496943116,1.869797992954403
1686426038391166700,6.328166748046875,-2.5862089176118372,-11.684973683106898,1.2120902363520114
1686426038401111600,6.338111572265625,-2.0191642324268817,-12.01983224518299,0.5496224988061934
1686426038411056600,6.348056640625,-1.74851773802042,-12.159731714260577,-0.2619944013953209
1686426038421001700,6.358001708984375,-1.8172353004157542,-12.10286357961297,-0.9153427206791936
1686426038430946600,6.367946533203125,-2.268027934092283,-11.881754146313666,-1.3347060507386923
1686426038440890600,6.377890625,-3.64341963096261,-11.587559603059292,-1.0314837130285799
1686426038450835700,6.387835693359375,-8.293565988707542,-11.371958704048394,1.2305107861183584
1686426038460780500,6.397780517578125,-16.281769558936357,-10.669577327656745,4.369466837362944
1686426038470726000,6.407725830078125,-22.506250807750224,-6.008111703518033,4.526607071837782
1686426038480670700,6.417670654296875,-20.064681831741332,0.04520283129513263,-3.3723771229758857
1686426038490614500,6.427614501953125,-15.648963823074101,13.256942429566383,-11.039354058378935
1686426038500559600,6.4375595703125,-7.824533933985233,37.84782041425705,-13.548172277796267
1686426038510504700,6.447504638671875,8.486717740023135,51.85752416188716,-6.43525867319107
1686426038520449500,6.457449462890625,26.37564075604677,58.600231996703144,1.1185665878716855
1686426038530394600,6.46739453125,17.9960027500391,39.340212350654596,-0.41986897802669554
1686426038540338700,6.477338623046875,5.009575297453999,19.132614916884897,-2.938853896269202
1686426038550283800,6.48728369140625,-0.5373322684884071,9.672378892198205,-3.704640407861769
1686426038560228600,6.497228515625,-2.129885537815094,5.0761137622445816,-2.3763822180882097
1686426038570173700,6.507173583984375,-1.2145557496827095,-0.5867436573892831,0.8431884618334472
1686426038580118800,6.517118896484375,1.2031483666140586,-1.9734037672489881,5.3535179142177105
1686426038590062600,6.5270625,1.1298117661159486,0.33835283393263815,6.423815488156676
1686426038600007700,6.537007568359375,0.1802326119771227,-0.21649989367723463,5.040708686864376
1686426038609952800,6.546952880859375,0.7477227393746375,-2.896996283748746,5.484808544903993
1686426038619897600,6.556897705078125,2.3795324988126754,-7.266614804542065,5.200004345807433
1686426038629841700,6.566841552734375,2.3946423896610733,-11.050447114801406,3.7562297253236174
1686426038639786800,6.576786865234375,0.5356628739714622,-13.866907388067245,2.4211960500657557
1686426038649731600,6.586731689453125,-1.8438591034471987,-15.793116273421049,0.6606271511804312
1686426038659676700,6.5966767578125,-2.9162919358491894,-16.10298067949414,-0.5266827180497348
1686426038669621800,6.606621826171875,-2.986872954028845,-15.01331497274041,-0.90349979573749
1686426038679565600,6.616565673828125,-2.978559883713722,-13.283677291756868,-1.0634755458991973
1686426038689510700,6.6265107421875,-2.439711365443468,-11.630285815107822,-1.7820400683939457
1686426038699455700,6.636455810546875,-1.803682575881481,-10.66220299949646,-2.6298493218958376
1686426038709400600,6.646400634765625,-1.5677777245104312,-10.138658433341979,-2.903935727623105
1686426038719345700,6.656345703125,-1.4630826936744152,-9.883857158321142,-2.979033346444368
1686426038729289700,6.666289794921875,-1.4959376461803913,-9.848447991287708,-2.928862955869734
1686426038739234600,6.676234619140625,-1.952603555804491,-9.988578931033611,-2.9520939015924927
1686426038749179600,6.6861796875,-2.4627917967796322,-10.325329005944727,-3.3871687416553495
1686426038759124700,6.696124755859375,-2.7780338042378423,-10.43243212083578,-4.5130809430494905
1686426038769069600,6.706069580078125,-4.052413104307651,-10.043863011360168,-7.830074032455682
1686426038779013600,6.716013671875,-7.226067690098286,-7.696762125074863,-13.495081323599814
1686426038788958500,6.72595849609375,-11.514382138645649,-2.22334824988842,-15.203076497095822
1686426038798903800,6.73590380859375,-11.039603064703941,3.0056887136578556,-10.245385116136074
1686426038808848600,6.7458486328125,-4.179346124306321,5.856798275500536,-2.8907229025676844
1686426038818793700,6.755793701171875,1.5372323641210794,10.116509729897976,7.447744694152474
1686426038828737800,6.76573779296875,2.1132745947539804,13.025429675674438,16.48845766817331
1686426038838682600,6.7756826171875,-5.942152499920129,13.040208727133273,16.76315840640664
1686426038848627500,6.78562744140625,-10.58210011973381,20.831822388291357,12.087454413557053
1686426038858572800,6.79557275390625,-10.221050300824642,34.26435519351959,12.646823157286644
1686426038868517600,6.805517578125,-4.776053541827202,30.9515984265089,9.510721764820813
1686426038878461700,6.815461669921875,1.3011217610448598,24.72783613961935,3.2297359539747235
1686426038888406800,6.82540673828125,5.145155734288692,17.47367165132761,1.6644874556809663
1686426038898351600,6.8353515625,21.25587899073362,9.211105781039596,-2.2714004792653024
1686426038908296700,6.845296630859375,29.203459458673,3.482098603671789,-7.843688131788372
1686426038918240500,6.855240478515625,13.705941750085353,4.771999882522225,-5.760455039554834
1686426038928185600,6.865185546875,9.916771585929393,4.305602852478623,-6.380531057703495
1686426038938130700,6.875130615234375,3.935876975160837,3.2394173900336027,-5.5604164513349525
1686426038948075800,6.88507568359375,-2.4807652603656054,0.6517372308254241,-2.568741942243278
1686426038958020600,6.8950205078125,-5.4463785687446595,-3.3191204568237063,-1.0302445266224443
1686426038967964700,6.904964599609375,-5.818010571944713,-7.093886832574009,-1.3662563503868876
1686426038977909500,6.914909423828125,-5.401718758285045,-9.731904847878218,-1.680545441034436
1686426038987854600,6.9248544921875,-4.612822297000885,-11.301775160753726,-1.080719087775424
1686426038997799700,6.934799560546875,-3.651801090338826,-11.65524256170988,-0.20304825489725917
1686426039007744500,6.94474462890625,-2.8936452197551725,-11.226713197767733,0.6463474275458604
1686426039017688800,6.954688720703125,-2.223064756771922,-11.008595347499847,0.9428378997176885
1686426039027633700,6.964633544921875,-1.923490858566761,-11.243893465149402,1.0642654541678727
1686426039037578500,6.97457861328125,-2.099015767776966,-11.486977414369582,0.7034759666953235
1686426039047523800,6.98452392578125,-2.4161399357199667,-11.597045224285125,0.3600875497482717
1686426039057468700,6.99446875,-2.862140658944845,-11.696148572593927,0.02923408599453978
1686426039067412700,7.004412841796875,-3.182038967776298,-11.644178731381892,-0.36215299437809734
1686426039077357800,7.01435791015625,-3.522558039832115,-11.490044985246657,-0.5858049152344464
1686426039087302700,7.024302734375,-4.180502893126011,-11.414517742836475,-0.6748569712586701
1686426039097247500,7.03424755859375,-6.461343547040224,-11.432100161278248,-0.09287384280208498
1686426039107192800,7.04419287109375,-13.666915561598538,-11.487643769323824,2.1368043772928416
1686426039117136600,7.05413671875,-20.20642605190277,-10.093919127905368,4.587666812956333
1686426039127081700,7.064081787109375,-20.11255651259422,-4.959381233742833,2.0252520279079675
1686426039137026600,7.074026611328125,-14.184239645802974,-0.6521195081412792,-4.837148938781023
1686426039146971600,7.0839716796875,-10.931795016413927,11.097571269547938,-9.127052117824555
1686426039156916700,7.093916748046875,2.6755910823732614,40.42880721330643,-14.683499665528535
1686426039166860500,7.103860595703125,28.739585225105284,66.95439653875827,-3.966449808079004
1686426039176805600,7.1138056640625,20.75334214129448,61.459390424966806,-0.009064071345515548
1686426039186750700,7.123750732421875,3.878856864821911,33.47189314870834,-0.6364896850720048
1686426039196695600,7.133695556640625,-2.2015508441001175,16.355759508776664,-1.0982966108463703
1686426039206640600,7.143640625,-4.269506872224808,7.228294718497991,-1.6680224979393183
1686426039216584700,7.153584716796875,-3.2063223451614378,2.1545862638294695,0.9287509221762418
1686426039226529500,7.163529541015625,-2.308064176404476,-1.3078127831161022,3.4805902449354527
1686426039236475000,7.173474853515625,-1.1262123533844948,-4.80962555656135,3.7976308262482283
1686426039246419700,7.183419677734375,0.5973263531368226,-5.826237717542052,1.6439448722593486
1686426039256364500,7.193364501953125,1.444616624265909,-5.468239687418937,2.37268803974539
1686426039266308600,7.20330859375,2.3141560635387894,-6.585832681018114,4.2246398487553
1686426039276253700,7.213253662109375,3.1585633996427056,-9.338878758993744,4.149783345213532
1686426039286198500,7.223198486328125,2.9761516535282135,-11.715849298363924,2.7614237379595634
1686426039296144000,7.233143798828125,1.5942857922077178,-13.423189807343482,0.6829032073311507
1686426039306088700,7.243088623046875,0.30740941413640976,-14.184609063637255,-0.5623710673507303
1686426039316032800,7.25303271484375,-0.48713586668968195,-13.247562022280693,-1.1052489872675388
1686426039325977600,7.2629775390625,-1.3968775524914263,-11.587008983439206,-1.6529640450172125
1686426039335922700,7.272922607421875,-2.346408812367916,-10.988874747985601,-2.0833003122508527
1686426039345867500,7.282867431640625,-3.133689655148983,-10.558543887579441,-2.36159629849717
1686426039355811600,7.2928115234375,-3.597421265375614,-10.160431873732804,-2.543040222492814
1686426039365756700,7.302756591796875,-3.7142344578981397,-10.003727400326728,-2.5191402914673087
1686426039375701800,7.31270166015625,-3.682468031281233,-10.214687195533513,-2.272669476287812
1686426039385646600,7.322646484375,-3.324078956013918,-10.837450845330952,-2.3352757161960005
1686426039395591700,7.332591796875,-2.8504946448147295,-11.092619200098515,-2.577332368195057
1686426039405535700,7.34253564453125,-2.997901713043451,-11.09851819500923,-2.977087180812657
1686426039415480600,7.35248046875,-4.201089754080773,-11.239965478050708,-4.8723701820269225
1686426039425425700,7.36242578125,-6.527513763040304,-10.725579200863837,-10.054391419637202
1686426039435370800,7.372370849609375,-9.755800102728605,-6.440468516793847,-15.437636948120593
1686426039445315600,7.382315673828125,-9.752271928602456,-1.3528852660298347,-11.504880150806903
1686426039455259600,7.392259765625,-5.174355525287986,2.5647721618294717,-3.8839638325721024
1686426039465204700,7.402204833984375,-0.2847814027428627,9.322425052320957,4.081332909321785
1686426039475149600,7.412149658203125,2.798448815757036,18.43500440815687,15.384953990203142
1686426039485094700,7.4220947265625,-1.9884739106088876,21.813606396996974,16.52751542084217
1686426039495039700,7.432039794921875,-8.777599797728657,28.444768750560282,13.204105157870053
1686426039504983600,7.441983642578125,-10.503429318600892,35.220085892558096,12.279568053996563
1686426039514928600,7.4519287109375,-6.676575028216838,29.928091245317457,4.068114531308412
1686426039524873700,7.461873779296875,-1.0107434150777757,20.836353601980207,0.9198105868082493
1686426039534818600,7.471818603515625,1.2771978646218776,14.405111763215064,2.159965764910728
1686426039544763600,7.481763671875,7.872390494659543,8.720410176041721,0.9518158636823296
1686426039554707700,7.491707763671875,20.756977867448327,2.1572662966936824,-6.272376387932896
1686426039564652800,7.50165283203125,20.883734946358203,-0.1238876609534025,-8.50354904783666
1686426039574597600,7.51159765625,12.773695971530675,1.2435071919441223,-7.488650120514631
1686426039584542700,7.521542724609375,9.513889873462915,0.8643599908083677,-7.582831794512272
1686426039594487600,7.531487548828125,4.652961999687552,-1.7019383576750755,-6.348063789340853
1686426039604431600,7.541431640625,-1.2401138962440192,-4.074807891467214,-4.62739618127644
1686426039614376400,7.55137646484375,-5.323441924905777,-6.417475763741135,-3.276602919089794
1686426039624321800,7.56132177734375,-6.563845890137553,-8.56006120865345,-1.8623722268678247
1686426039634266600,7.5712666015625,-5.512558137094974,-9.967875165700912,-0.3965722005261108
1686426039644211700,7.581211669921875,-3.329662309104204,-10.482864669477939,0.5322326072618365
1686426039654155800,7.59115576171875,-2.0603911458283664,-10.554884780550003,2.105145356573164
1686426039664100600,7.6011005859375,-1.3874702571988105,-10.33466966574192,2.6398718264773486
1686426039674045400,7.61104541015625,-0.8900719396919011,-10.226222150504588,2.604989898188412
1686426039683990800,7.62099072265625,-0.9561024549603462,-10.539112041878699,2.27202489477396
1686426039693935600,7.630935546875,-1.2172089676052331,-10.949762050259112,1.748888909420371
1686426039703879700,7.640879638671875,-1.489527779138088,-11.384842735540866,1.0510946416232734
1686426039713824800,7.65082470703125,-1.9568682275116442,-11.523549779963492,0.31025844689197835
1686426039723769600,7.66076953125,-2.624713712573051,-11.417982788598536,-0.12833547067511825
1686426039733714700,7.670714599609375,-3.2987188893079757,-11.300604947930573,-0.4119595566090196
1686426039743659800,7.68065966796875,-4.443963275420665,-11.260658721989392,-0.41779688446037466
1686426039753603600,7.690603515625,-8.337213407254218,-11.319009204149246,0.6970470296263694
1686426039763549000,7.700548828125,-15.652260526531935,-10.606152026450633,3.238258283126354
1686426039773493800,7.71049365234375,-21.20709011764526,-5.922862693038582,2.143214390465617
1686426039783438600,7.7204384765625,-19.855511842560766,-0.38282501286566256,-6.772255416339635
1686426039793384000,7.730384033203125,-16.07312797754407,10.977952371954917,-12.772341049790382
1686426039803327700,7.74032763671875,-1.773620322833955,38.770962848901746,-18.415320048999785
1686426039813272800,7.75027294921875,26.998862671005725,63.61309172265529,-7.502977336552739
1686426039823217700,7.7602177734375,29.666304933714866,62.15541103415489,-0.650019905513525
1686426039833162800,7.770162841796875,10.533548562532662,34.146104077148436,-3.1162624272689223
1686426039843107600,7.780107666015625,-1.9011983627378939,16.655591181135176,-1.4009515239320696
1686426039853051600,7.7900517578125,-6.236242998278141,7.9325348744988435,0.018880714624002575
1686426039862996700,7.799996826171875,-5.219954662424326,4.034617919898033,0.8558214411742985
1686426039872941800,7.80994189453125,-4.2976282203376295,0.5785989293783903,2.782435546328127
1686426039882886700,7.81988671875,-2.641369079297781,-2.3506524412870404,3.56136883200258
1686426039892831700,7.829831787109375,0.9711293437004089,-3.90041753924489,1.3684081215932964
1686426039902775800,7.83977587890625,1.7130594711482523,-4.046432860854268,0.9049766633570193
1686426039912720600,7.849720703125,1.7827625374495981,-5.604799198418855,3.6394907670810817
1686426039922665700,7.859665771484375,2.9153987864017483,-8.491339554604888,3.4290473969638344
1686426039932610800,7.86961083984375,2.985730213734507,-11.671377703952789,1.073135719974339
1686426039942555600,7.8795556640625,2.514962128999829,-14.110682242161035,-1.061731113384664
1686426039952499700,7.889499755859375,2.346414657586813,-15.165958188056944,-1.303655955697596
1686426039962444800,7.89944482421875,1.9344436297357082,-14.841630372345447,-0.6164768976781517
1686426039972389600,7.9093896484375,0.5616361041396856,-13.615305785870552,-0.6221989285867661
1686426039982335000,7.9193349609375,-1.1529396167904138,-11.838829196822642,-0.9846001621048897
1686426039992279800,7.92927978515625,-2.5042075107514856,-10.658555582904816,-0.926853856383264
1686426040002223600,7.9392236328125,-2.935302925789356,-9.772572373831272,-0.7527090764198452
1686426040012168700,7.949168701171875,-2.801888142555952,-9.267395239016412,-0.7789352584358304
1686426040022113800,7.95911376953125,-2.535666478854418,-9.333895125362277,-0.6101668377485125
1686426040032058600,7.96905859375,-2.1766122176766394,-9.810879600393772,-0.41918256666511294
1686426040042003700,7.979003662109375,-1.929947487360239,-10.209203211164473,-0.7359151049420237
1686426040051947800,7.98894775390625,-2.42290402302742,-10.428950708460807,-1.490935892370343
1686426040061892900,7.998892822265625,-4.064337350857258,-10.450776755821705,-2.713453195516765
1686426040071837700,8.008837646484375,-7.36793115272522,-9.850718274307251,-10.684379759991169
1686426040081782800,8.01878271484375,-12.87892744733095,-4.001563791558146,-22.34886711990833
1686426040091727600,8.0287275390625,-13.159210369610786,3.9199733035862443,-18.20531419351697
1686426040101671700,8.038671630859374,-5.33576306181848,8.782316304856538,-6.340724532493948
1686426040111616800,8.04861669921875,5.129943552109599,14.973085838204621,6.685914518970251
1686426040121561900,8.058561767578125,7.048143903052806,17.45155217397809,17.414354369962215
1686426040131506700,8.068506591796876,-2.85485810072124,16.591702938592434,17.81871024663448
1686426040141451800,8.07845166015625,-11.985260113495588,23.948624037003515,14.299658169096707
1686426040151395800,8.088395751953126,-12.009044309186935,32.73327959846258,13.418331261396407
1686426040161340700,8.098340576171875,-6.298430282121896,26.74987037452459,5.342409075704217
1686426040171285500,8.108285400390624,-0.5755535703331232,20.25924111176729,1.965098880240321
1686426040181230800,8.11823095703125,1.7983908992141484,14.467882399904727,2.7159514420732855
1686426040191175700,8.12817578125,12.944164766395092,8.35009860779047,-0.26436500298418103
1686426040201120800,8.138120849609376,23.999886606729028,2.0934341682523487,-6.097858025416731
1686426040211064800,8.14806494140625,18.942651147955655,1.3832967709064483,-6.074893329414725
1686426040221009700,8.158009765625,12.425268318307399,1.8154034088134765,-6.908184812742471
1686426040230954800,8.167954833984375,8.05574390553832,0.3618804245144129,-7.773835427883267
1686426040240899800,8.17789990234375,1.892618604310602,-1.965516813391447,-6.534117106828093
1686426040250843600,8.18784375,-4.237579702088237,-4.765334579414129,-4.189427373337746
1686426040260788700,8.197788818359374,-8.309666059637069,-7.41574738138914,-2.6044629517048596
1686426040270733800,8.20773388671875,-9.321236719319224,-9.348102514412998,-2.3618607946522534
1686426040280678700,8.2176787109375,-6.843455443200469,-10.787031156170368,-1.6458638576231897
1686426040290623700,8.227623779296875,-3.566738542342186,-11.221517967212199,-0.48165816593095656
1686426040300568800,8.23756884765625,-1.4458727618068457,-11.302604012793301,0.9794523508876561
1686426040310513000,8.247512939453125,-0.22337438255660236,-10.898663146662711,1.697287901520729
1686426040320457700,8.257457763671875,0.2456319166699424,-10.38092171382904,2.03308476736024
1686426040330402800,8.26740283203125,0.2290840654402971,-10.44856609403491,1.7192549647875128
1686426040340347600,8.27734765625,0.026032869667280464,-11.084433555555343,1.0388134713947772
1686426040350292700,8.287292724609374,-0.28730653730630873,-11.408265696704387,0.3875817789386958
1686426040360236500,8.297236572265625,-0.7618366049230099,-11.240554676115512,-0.05059784047277644
1686426040370182000,8.307181884765624,-1.5393512559711933,-11.052051042866706,-0.37569629349689926
1686426040380126700,8.317126708984375,-2.5643711798131466,-10.93557336590886,-0.5503519821245223
1686426040390071600,8.327071533203124,-4.5523616908192635,-10.984393803179264,-0.15206132377535103
1686426040400017000,8.337016845703126,-10.486959829837083,-11.080082374608516,1.8795438725516198
1686426040409960700,8.346960693359375,-18.32734482842684,-9.46608007453978,4.853189972999692
1686426040419905500,8.356905517578125,-23.348991087424753,-3.6205654095977544,2.7549676936879752
1686426040429851000,8.366850830078125,-19.640297897040842,2.9271523525595664,-5.858558855432271
1686426040439795700,8.376795654296876,-14.137619348925352,18.120952487266063,-11.908731000566481
1686426040449740500,8.386740478515625,9.832043968975544,50.30998609232902,-12.825103502684831
1686426040459684900,8.396684814453126,33.47262964628935,69.42649392402171,-0.09259166485983877
1686426040469629700,8.406629638671875,18.1889557639122,51.83137966680526,-1.85805860145241
1686426040479574800,8.41657470703125,2.7524288228601215,27.01966229792833,-0.6798200735587626
1686426040489519900,8.426519775390625,-4.074339104911685,13.10273035749793,-0.26526147689986973
1686426040499464700,8.436464599609375,-4.370767106306553,6.648786857581138,0.10386679071779362
1686426040509408800,8.44640869140625,-2.9357296267688273,2.3723580771386623,1.1919221853312105
1686426040519353600,8.456353515625,-1.6437340059876442,-1.5463690257787703,2.947349337413907
1686426040529298700,8.466298583984376,0.5979555178858339,-4.551176280426978,2.8184648910865184
1686426040539243800,8.476243896484375,2.0753788716018198,-4.788659925422072,0.37995175898429007
1686426040549188900,8.48618896484375,1.8266215529203413,-5.547097535556555,1.7756947910204528
1686426040559133000,8.4961328125,2.9192180524289606,-8.273387124031782,3.124748223802447
1686426040569077800,8.506077880859374,3.0721991213977335,-11.353163987207411,1.7004460732907056
1686426040579022600,8.516022705078125,1.9298738376021385,-13.560111721915005,-0.029325097879394888
1686426040588967700,8.5259677734375,0.667607000130415,-14.907779545557498,-1.0455983092293142
1686426040598912800,8.535912841796875,0.09973931725793518,-14.987529374098777,-1.4060510390281677
1686426040608856600,8.545856689453124,-0.7653753004431724,-13.667643875873088,-1.4095736601963638
1686426040618802000,8.555802001953126,-1.9158043957173823,-12.138999891877173,-1.4600930103391407
1686426040628746800,8.565746826171875,-2.8260779964387415,-11.124128437083959,-1.6145181406363844
1686426040638691600,8.575691650390626,-3.326122444540262,-10.346093561553955,-1.3282131815880536
1686426040648637000,8.585636962890625,-3.499970944970846,-9.921686245977877,-1.219532734377682
1686426040658580700,8.595580810546876,-3.383969068831205,-9.91685108090639,-1.0255966277513653
1686426040668525600,8.605525634765625,-3.2749031294345854,-10.08891678957343,-0.7821528322428465
1686426040678471000,8.615470947265624,-3.317961349916458,-10.23239119452834,-0.7175152326375246
1686426040688415700,8.625415771484375,-3.0073136845111845,-10.35119059243202,-0.897861789850518
1686426040698360600,8.635360595703125,-3.140958769369125,-10.369474437141418,-1.5416469656929372
1686426040708304600,8.6453046875,-4.904476508122682,-10.323472564423083,-3.436223279942572
1686426040718249700,8.655249755859375,-8.438004854780434,-9.926565834712981,-10.19251978738904
1686426040728194800,8.66519482421875,-11.6440536436975,-5.538355426174402,-15.052972444868088
1686426040738140000,8.675139892578125,-10.132400541990995,-1.1044108559429644,-10.258190821695328
1686426040748084700,8.685084716796876,-5.862445341476798,2.3739649278134105,-4.401127465517819
1686426040758029000,8.695029052734375,-1.1025841519724577,8.670870192325115,2.3486489925101397
1686426040767974000,8.704973876953124,1.5827087516605853,15.713784962552785,11.260229682922363
1686426040777918700,8.714918701171875,-2.5590812567114827,17.807912958288192,14.26532101520896
1686426040787864000,8.724864013671874,-9.447724333637952,26.3002374322772,12.811560130500792
1686426040797809000,8.734808837890625,-11.25126311713457,40.58051168646812,12.676002490019798
1686426040807753700,8.744753662109375,-6.736635236904025,35.056669938814636,6.5259986823022365
1686426040817697800,8.75469775390625,0.3570335690051317,22.978595932543275,0.19228044837377964
1686426040827643000,8.764642822265625,6.426575600519776,14.016355606734752,-0.6572530716374516
1686426040837587700,8.774587646484376,22.635397412145135,5.452869684329628,-4.69092026668191
1686426040847533000,8.784532958984375,21.39249578487873,2.0285960776388645,-7.601959688830375
1686426040857478000,8.794477783203124,12.68694240170717,2.952802926644683,-8.389398937043547
1686426040867422000,8.804421875,9.824323603856563,2.8627064761340617,-9.380015656024216
1686426040877366800,8.81436669921875,4.849871057710051,0.7806582097709178,-6.9164861926198
1686426040887312000,8.824311767578125,-0.35233393994681533,-1.813869623374939,-3.8102480234980582
1686426040897257000,8.834257080078125,-3.443737601095438,-4.882260584661364,-1.4792131597422062
1686426040907201800,8.844201904296876,-4.687641098880768,-8.115036052462457,-0.5193280809706077
1686426040917145900,8.854145751953125,-4.772719428968429,-9.763104872784018,0.23783399280272421
1686426040927091000,8.864091064453126,-4.161647970530391,-10.331431414473057,1.2885156697109341
1686426040937035800,8.874035888671875,-3.3191701411843297,-10.499242972826957,1.908169663055241
1686426040946980900,8.88398095703125,-2.7071675393760204,-10.381094732308387,2.5516756566300987
1686426040956926000,8.893926025390625,-2.2990274679899216,-10.472658917284011,2.733798356670141
1686426040966869800,8.903869873046874,-2.3120927012681958,-10.946776312446593,2.454225043964386
1686426040976815000,8.913815185546875,-2.549185301119089,-11.507288380992412,2.0459347504526377
1686426040986760000,8.923760009765624,-2.9151112016320226,-11.79987548905015,1.4053132262729107
1686426040996704800,8.933704833984375,-3.4000410827100276,-11.750089421617984,0.8811237132783979
1686426041006649900,8.94364990234375,-3.67464011413455,-11.621291192269325,0.44302689504586157
1686426041016594000,8.953593994140626,-3.891851955473423,-11.514095722919702,0.03186862661605701
1686426041026538800,8.963538818359375,-4.316877695208787,-11.45458554933071,-0.26124771121386436
1686426041036483800,8.97348388671875,-5.922505550163984,-11.480652887523174,-0.11383169249370693
1686426041046429000,8.983428955078125,-11.11791847652793,-11.599577373111247,1.3076964632600545
1686426041056373800,8.993373779296874,-17.342999444800615,-10.335648155385256,3.4831028122782706
1686426041066318800,9.00331884765625,-18.441298539865016,-5.346465657618642,0.519899341519922
1686426041076263000,9.013262939453124,-15.174896696794033,-1.5200176099479197,-5.845180318421125
1686426041086207700,9.023207763671875,-11.845139695143699,9.295666224732994,-9.195157685801385
1686426041096152800,9.03315283203125,0.6615424393944442,45.46564636526107,-16.364876881211995
1686426041106098000,9.043097900390626,25.230272451293466,69.51739409213066,-6.9806228569656605
1686426041116042800,9.053042724609375,21.50697088984251,58.12466031107902,-0.844250976498425
1686426041125986800,9.06298681640625,4.27433268494606,28.927726454782484,-1.0398309778742492
1686426041135932000,9.072931884765625,-1.2345067238867282,11.259846236562728,-0.47178635839913036
1686426041145877000,9.082876953125,-1.9709376693964002,4.566936159616708,0.5301066280838101
1686426041155821800,9.09282177734375,-1.1527449710011481,1.4111375485122204,2.1629586631163953
1686426041165767000,9.102766845703124,-0.7565467548865824,-1.1678116072297096,4.90343722820282
1686426041175711000,9.1127109375,1.1935715599734336,-3.057139499431848,6.599419892343878
1686426041185655800,9.12265576171875,1.8814917917490004,-3.549114038324356,4.245835196997225
1686426041195601000,9.132600830078125,1.2161200763899833,-4.388334911701083,3.319410379680991
1686426041205546000,9.1425458984375,0.8336170620203017,-6.533867515981197,4.072242132632434
1686426041215490800,9.15249072265625,0.7681342437624931,-9.601990181720256,3.6045185301601883
1686426041225435000,9.162434814453125,0.5003928231477737,-12.514552867913245,2.6147283251315354
1686426041235380000,9.1723798828125,-0.31863223441839217,-14.309853399896621,0.5900231905166059
1686426041245324800,9.18232470703125,-1.4452233579874039,-14.882422985982894,-0.9471019138377159
1686426041255270000,9.192269775390624,-2.273645189452171,-14.043227247047424,-1.8991420147299765
1686426041265215000,9.202215087890625,-2.939540709489584,-12.58064125084877,-2.813444724836945
1686426041275158800,9.21215869140625,-3.145422178518772,-11.394587884485722,-3.5750036818623543
1686426041285103900,9.222103759765625,-3.0199136383652685,-10.571087727332115,-3.925345059752464
1686426041295049000,9.232049072265625,-2.792960155212879,-10.164370382225513,-3.7865468299150464
1686426041304993800,9.241993896484376,-2.6090637234985827,-10.00592403358817,-3.4009324785917996
1686426041314939000,9.25193896484375,-2.428787674238533,-10.071094717156887,-2.905534979513287
1686426041324884000,9.261884033203126,-2.2267641958117483,-10.49252330918312,-2.7032114952266215
1686426041334827800,9.271827880859375,-2.394110620871931,-10.828275020706654,-2.999630436532199
1686426041344772900,9.28177294921875,-2.949835309010744,-10.825179392778873,-3.965312913003564
1686426041354718000,9.291718017578125,-4.41101845267415,-10.471128638976811,-6.963271909192204
1686426041364662800,9.301662841796874,-7.541818231600523,-7.989113670811057,-13.83019707530737
1686426041374608000,9.31160791015625,-11.547642603212594,-1.6931453948885202,-15.925719740271568
1686426041384551700,9.3215517578125,-10.018471380472183,4.218098172026872,-8.787472372445464
1686426041394497000,9.3314970703125,-2.4433505987286566,8.960148321965336,1.8436787784442303
1686426041404441900,9.34144189453125,4.327572692224383,17.774829019331932,16.390840174508092
1686426041414387000,9.351386962890626,0.748862045602873,21.541429624283314,21.38952641367912
1686426041424331800,9.361331787109375,-8.246914712169765,23.015577463459966,15.447612398689984
1686426041434275800,9.37127587890625,-11.157725586259364,29.08871547363996,12.647256872528791
1686426041444220700,9.381220703125,-7.8544649618685245,26.525673496603964,7.994312993019819
1686426041454166000,9.391166015625,-2.144589478211105,19.46866590361595,3.3892651294127103
1686426041464110800,9.40111083984375,0.3445855908423662,14.322141219061612,2.7834514453724024
1686426041474055700,9.4110556640625,1.8486802399933338,10.880884328866005,1.0835888710580766
1686426041484000000,9.421,12.27481706007719,6.020970600569248,-3.098888390880823
1686426041493944800,9.43094482421875,24.069975457477568,1.043642206725478,-9.505589078107477
1686426041503890000,9.440889892578125,16.934019999980926,1.9559704018890856,-8.251119178122282
1686426041513835000,9.4508349609375,10.15978889965415,2.957054738870263,-7.471331321445107
1686426041523779800,9.46077978515625,6.506630549487471,0.8594464998036623,-6.706350573277473
1686426041533724700,9.470724609375,1.4112100292265415,-1.6584762325674294,-4.620084396958351
1686426041543669000,9.4806689453125,-2.429657004418969,-4.28224009706974,-1.97633719035238
1686426041553613800,9.49061376953125,-4.516293767616152,-6.570443388706446,-1.0889837889041751
1686426041563559000,9.500558837890624,-5.524439713546633,-8.248833113011717,-0.7344122991636395
1686426041573504000,9.51050390625,-5.444949997246265,-9.000781361126899,0.07042858583061024
1686426041583448800,9.52044873046875,-4.363538324096798,-9.370389165022969,0.994034272339195
1686426041593393000,9.530392822265625,-3.1567227402120825,-9.648811554127931,1.656719013636559
1686426041603337700,9.540337646484375,-2.05529236138463,-10.11318029321432,2.0336009001888335
1686426041613282800,9.55028271484375,-1.3547054671943186,-10.98419272764921,1.9326488552734256
1686426041623228000,9.560227783203125,-1.2564952683329582,-11.819649864578246,1.5917521820768712
1686426041633172700,9.5701728515625,-1.5390882211208343,-12.158054136437176,1.068966836791858
1686426041643117000,9.580116943359375,-1.8442893115580081,-12.007788756167887,0.6351592401858419
1686426041653062000,9.590061767578124,-2.2011668132185935,-11.775752270662784,0.25564800977697594
1686426041663006700,9.6000068359375,-2.893590274697542,-11.589504891908168,0.004382909525651484
1686426041672952000,9.6099521484375,-3.833086462771892,-11.46288576016426,-0.1694750345867127
1686426041682897000,9.61989697265625,-6.246868437188863,-11.454377459537982,0.3652583034496754
1686426041692841700,9.629841796875,-12.56434010438919,-11.083488968181609,2.4007268241412936
1686426041702786000,9.6397861328125,-19.19637456461191,-8.603190740805864,4.52055142506063
1686426041712731000,9.64973095703125,-20.174464394974706,-3.0651340053170917,-0.1270760086659342
1686426041722675700,9.65967578125,-15.651709906911849,2.727964243689179,-6.547185262715816
1686426041732621000,9.66962109375,-8.85365135627389,19.71309191509485,-11.359363426369429
1686426041742565400,9.6795654296875,16.007108568191526,57.650252993059155,-12.654895404583215
1686426041752509400,9.689509521484375,30.55344549612999,69.10728885815143,-2.5424568696469065
1686426041762454300,9.699454345703124,11.150914737200736,45.83339480502605,-1.719805292146653
1686426041772399400,9.7093994140625,-0.03712831897623837,20.75059722650051,-0.6079576737990603
1686426041782344400,9.719344482421874,-2.950985648089647,8.289671319356561,-1.3875478524796665
1686426041792289300,9.729289306640625,-2.4925907227158546,2.940826657646894,-0.20774054089933633
1686426041802233300,9.7392333984375,-2.0784885280549523,-0.036432080340385434,1.546874491082877
1686426041812178400,9.749178466796875,-1.8435773638963697,-2.2474884194105864,2.643802443924546
1686426041822123300,9.759123291015625,-0.870896772165969,-4.242272243818641,2.4832547390937805
1686426041832068400,9.769068359375,0.09806173030138016,-5.642905349451303,0.9270862038344144
1686426041842013400,9.779013427734375,0.2402162117641419,-7.055120171806216,1.0974506615415214
1686426041851958300,9.788958251953124,0.25317276050355286,-8.895347056230902,2.627377671085298
1686426041861902600,9.798902587890625,0.35700956707503645,-10.958891113132237,2.982609159104526
1686426041871847400,9.808847412109374,0.08567454241514205,-12.563542816531658,2.253844802699983
1686426041881792300,9.818792236328125,-0.7518728447914124,-13.852046503543853,1.2046510262619703
1686426041891737300,9.8287373046875,-1.2300678646564482,-14.341801028299331,0.28862507255896924
1686426041901682400,9.838682373046876,-1.7126970675766466,-13.340229784584045,-0.46635099894478915
1686426041911626200,9.848626220703125,-2.1155764419555663,-11.89361058832407,-1.026288628603518
1686426041921571300,9.8585712890625,-2.399365326529741,-10.991025788539648,-1.4220701536759732
1686426041931516400,9.868516357421875,-2.4763094500005245,-10.202688130182027,-1.8431416028276084
1686426041941461200,9.878461181640626,-2.44028536593914,-9.868141702795029,-1.909912561199814
1686426041951406600,9.888406494140625,-2.4591630848884583,-9.936951619648934,-1.659083258549869
1686426041961350400,9.898350341796874,-2.264797866129875,-10.02834278614521,-1.6132210865631698
1686426041971295200,9.908295166015625,-2.2013373474799094,-10.30303767915964,-1.8859442411132157
1686426041981240300,9.918240234375,-2.704585121667385,-10.660963813090325,-2.813919356611371
1686426041991185400,9.928185302734375,-3.832749778163433,-10.583748471462727,-4.711833290851116
1686426042001130200,9.938130126953125,-6.196140120470523,-9.535767943271994,-10.898445704519748
1686426042011075300,9.948075439453126,-10.91087848511338,-4.176733895981312,-17.454680535131693
1686426042021019400,9.958019287109375,-11.464534111893176,3.0039620359957215,-13.299724755716323
1686426042030964500,9.967964599609376,-4.150755405116081,7.603224009677767,-2.637747381669283
1686426042040909300,9.977909423828125,3.4880613114684818,15.537802957224844,11.346916617250441
1686426042050854400,9.9878544921875,2.0626134980529547,19.877894354760645,20.54960586760044
1686426042060799500,9.997799560546875,-5.611570884510875,18.349563674497603,15.782011526560783
1686426042070743300,10.007743408203124,-11.073444544029234,23.19674183986187,9.939615870422124
1686426042080688400,10.0176884765625,-10.82154834280014,28.39547718864679,8.381219137719274
1686426042090633500,10.027633544921875,-5.70361613100171,24.70237202801704,4.374197957538068
1686426042100578300,10.037578369140626,-0.43807402187883854,17.748261330401895,2.1838351546674963
1686426042110523400,10.0475234375,1.4897230094492435,12.272937237679958,0.4877225440038368
1686426042120468500,10.057468505859376,6.001601298710703,8.891021009725332,-0.9567891951154917
1686426042130412300,10.067412353515625,21.761506791925427,3.7552825076013803,-6.882613149112463
1686426042140357400,10.077357421875,22.467057446002958,1.3380085994154214,-9.132183635494112
1686426042150302500,10.087302490234375,11.093229440951347,2.2872253865152596,-6.931717664021253
1686426042160247300,10.097247314453124,8.193948845657706,1.0522411082446574,-7.062857488059997
1686426042170192400,10.1071923828125,3.797931562760472,-0.9140437669098377,-5.245598222246766
1686426042180136400,10.117136474609374,-0.7256827570021152,-2.9359231035143134,-1.8674559598729012
1686426042190081300,10.127081298828125,-3.431708140605688,-5.436779550272226,-0.3551832649633288
1686426042200026400,10.1370263671875,-4.311165747302771,-7.699740264102816,-0.42844022435396906
1686426042209971500,10.146971435546876,-3.944722544917464,-9.060853844773769,0.37972156695760784
1686426042219916300,10.156916259765625,-3.3862563029855486,-9.662368370315432,1.4689561157524584
1686426042229860400,10.1668603515625,-3.0804987477093935,-9.822572376275062,2.185314141178876
1686426042239805400,10.176805419921875,-2.7440304123491046,-10.003844304704666,2.480455756025016
1686426042249750300,10.186750244140624,-2.648136673736572,-10.805354748368263,2.480459555417299
1686426042259695400,10.1966953125,-2.942541644871235,-11.554653358757495,2.103776260177046
1686426042269640400,10.206640380859374,-3.41400531065464,-11.868243507355452,1.6320169724479316
1686426042279585300,10.216585205078125,-3.7105683366060256,-11.814302658331394,1.21510008569248
1686426042289529300,10.226529296875,-3.9344098252177235,-11.674855609196424,0.8258380985818803
1686426042299474400,10.236474365234375,-4.004721963328123,-11.574295632338524,0.4286787092849612
1686426042309419500,10.24641943359375,-4.552943874621391,-11.503795278179645,0.05662486394364386
1686426042319364400,10.2563642578125,-6.030242286783457,-11.433912179136275,0.009577537292987107
1686426042329309400,10.266309326171875,-10.908375562381744,-11.540049663865565,0.9559197918698191
1686426042339253500,10.27625341796875,-17.230819172775746,-10.840243690919875,2.66113936317265
1686426042349198300,10.2861982421875,-18.71239277803898,-6.102115682861209,-0.5774001480478793
1686426042359143200,10.29614306640625,-15.544733048748968,-1.5768565185010432,-6.614484775006771
1686426042369088500,10.306088623046875,-12.272553791320323,7.910317197471857,-8.810520655077696
1686426042379033300,10.316033447265625,3.0489778202861544,39.46707698159218,-16.6991906688869
1686426042388978400,10.325978515625,28.68493242841959,69.43205389623641,-7.951884302613139
1686426042398922500,10.335922607421875,21.134459765720365,57.19454569933414,-0.6426140131711959
1686426042408867300,10.345867431640626,3.2305034312158822,29.714850645697116,-0.8827185081891715
1686426042418812200,10.355812255859375,-3.3346821830928324,13.097744385778903,0.5638858923604712
1686426042428757500,10.365757568359374,-4.170156271156668,6.005973522445559,1.5665332774072884
1686426042438702300,10.375702392578125,-3.6116952899217605,2.2782453767240045,2.893100445353985
1686426042448646400,10.385646484375,-2.8409388809621334,-0.2970551933825016,3.786702604998648
1686426042458591500,10.395591552734375,-0.8175860377389937,-2.5200626670092343,3.9472079319924114
1686426042468536300,10.405536376953124,1.7228782698512077,-5.334920765775442,1.2398771648786961
1686426042478481400,10.4154814453125,2.633507259881496,-6.860245249959826,1.028946157374978
1686426042488426500,10.425426513671875,2.36697229244709,-7.772656447231769,3.097921591675281
1686426042498371300,10.435371337890626,2.4199989492356777,-9.370908220461011,3.3918685899093743
1686426042508315400,10.4453154296875,2.097014949348569,-11.370247223955392,2.3646179844059048
1686426042518260500,10.455260498046876,1.5014263067245484,-13.016577676177024,1.2212171072680502
1686426042528205300,10.465205322265625,0.9380641094446182,-13.673130198329686,0.5931086623765528
1686426042538150400,10.475150390625,0.37348610663414,-13.400674024152755,-0.08033266993053256
1686426042548095500,10.485095458984375,-0.2103834566235542,-12.469086417245864,-1.4960979513086379
1686426042558039600,10.49503955078125,-1.1184370432078838,-11.524454619848727,-2.6070330944538114
1686426042567984400,10.504984375,-1.8512860385775565,-10.510862098950147,-3.217969528335333
1686426042577929200,10.51492919921875,-2.271944230753183,-9.839501299244166,-3.258881384438276
1686426042587874300,10.524874267578125,-2.5657529895603655,-9.65901263014674,-2.902980911116302
1686426042597819400,10.5348193359375,-2.6407974168896673,-9.864398424613475,-2.432650048755109
1686426042607763200,10.54476318359375,-2.5086428628504276,-10.233191989517211,-2.249686513976753
1686426042617708500,10.55470849609375,-2.6032652663528917,-10.793529870539903,-2.785278076277673
1686426042627653400,10.5646533203125,-3.2249393673479556,-10.880723000824451,-3.9087005066826936
1686426042637598200,10.57459814453125,-4.48559993866682,-10.388942523199319,-7.006309671407938
1686426042647543600,10.58454345703125,-7.6730948337614535,-7.8045391937047235,-15.730238084703682
1686426042657487400,10.5944873046875,-12.651670012795924,-0.9173381322801113,-19.44423756480217
1686426042667432200,10.60443212890625,-10.688045881283283,3.8663048417627808,-10.166607932019232
1686426042677377500,10.61437744140625,-2.740910234501958,8.84687733209431,0.40457865257747466
1686426042687322400,10.624322265625,3.8602363355040548,16.538445980179308,12.804379863607883
1686426042697267200,10.63426708984375,1.5021657269150017,22.049472669923304,19.661948587834832
1686426042707212500,10.644212646484375,-6.507798424223065,24.260040933215617,16.359146228605507
1686426042717156400,10.65415625,-10.372931299597024,29.375956544494628,14.54227216271758
1686426042727101400,10.664101318359375,-8.500876029235124,26.2817384835124,7.009286641392111
1686426042737046500,10.674046630859374,-3.4512796870380638,19.613732546198367,2.4480799653381107
1686426042746991000,10.6839912109375,-1.4604456231690943,15.562805296534298,4.021464131553471
1686426042756936200,10.693936279296874,-0.13659458231329918,12.230907775723933,3.0159768834382295
1686426042766881300,10.70388134765625,7.535959568700194,6.915600057435035,-0.3308281375162303
1686426042776825000,10.7138251953125,17.779336852145192,0.996577088689804,-6.667161887705325
1686426042786770200,10.723770263671875,20.430314302265643,-0.521002480456233,-6.9081789675235745
1686426042796715000,10.733715087890625,14.17503225699663,-0.17272446483671663,-7.501296251598
1686426042806660000,10.74366015625,9.758664844509958,-1.1557008981972932,-7.524131183740496
1686426042816605200,10.753605224609375,5.59143644349873,-3.656154609373212,-5.949349133425951
1686426042826549000,10.763549072265626,0.3172141843140125,-5.365457358336449,-3.3354411847665904
1686426042836494000,10.773494140625,-3.1287124512583016,-6.397948056450486,-1.5189162245772778
1686426042846439200,10.783439208984374,-4.681587790191173,-7.4061173832565546,-0.1641539126291871
1686426042856384000,10.793384033203125,-4.700234622994065,-8.150250573706627,0.9879632818624376
1686426042866329000,10.8033291015625,-3.764796185877919,-8.91929784066081,2.0035816095001993
1686426042876274200,10.813274169921876,-2.7561569034725424,-9.261087663304805,2.5170880351126192
1686426042886218000,10.823218017578125,-1.8327052567481994,-9.776292271137237,2.6419901338055727
1686426042896163300,10.833163330078126,-1.290199969536066,-10.511354266381263,2.9035321152582765
1686426042906108200,10.843108154296875,-1.0554349358499049,-11.381373013603687,2.6111305929005146
1686426042916053000,10.853052978515626,-1.023424179083109,-11.96373451038599,1.8514992429368198
1686426042925998300,10.862998291015625,-1.3021300613045692,-12.004611295175552,1.2096070412341504
1686426042935942100,10.872942138671876,-1.8330922102391718,-11.793975325095653,0.8283948703926056
1686426042945887000,10.882886962890625,-2.695183671593666,-11.605286982929705,0.5372274929396808
1686426042955832000,10.89283203125,-3.7933191005289553,-11.449432404351233,0.267753421579767
1686426042965777200,10.902777099609375,-6.035868894493579,-11.42064119415283,0.6898952581755816
1686426042975722000,10.912721923828125,-12.1355184795022,-11.210907725870609,2.587571145875752
1686426042985667300,10.922667236328126,-18.66779609594345,-8.58389333513975,4.477980695834756
1686426042995611100,10.932611083984375,-19.776676206254958,-2.8775878189235926,-0.975811217906326
1686426043005556200,10.94255615234375,-17.568977945441006,3.6841760042428966,-8.23228588283658
1686426043015501000,10.9525009765625,-11.178798769426345,23.43579024995565,-15.278250688284635
1686426043025446100,10.962446044921874,6.351200918322801,52.91308652350902,-14.810896211385726
1686426043035391000,10.972390869140625,29.22040825538635,67.51057613105773,-2.294594600109011
1686426043045335000,10.9823349609375,17.312094603449104,46.81013555886745,-0.8064021612279116
1686426043055280000,10.992280029296875,0.6976543478697538,21.546737083041666,-1.0224258887607605
1686426043065225200,11.00222509765625,-3.6120904267191887,9.440110936024784,-0.6810548760507256
1686426043075170000,11.012170166015625,-3.7027930264294144,4.328404466873407,1.1659478591844439
1686426043085115100,11.022115234375,-3.0366461619794367,1.7085341026782987,2.6508313196480273
1686426043095060200,11.032060302734376,-2.3520143772900104,-0.6337853945493698,4.23310664832741
1686426043105004000,11.042004150390625,-1.759873829293251,-2.2175065381228922,4.049259608712792
1686426043114949000,11.05194921875,-0.7995172240197658,-3.770804486382007,2.0235005080655215
1686426043124894200,11.061894287109375,0.3067699471890926,-6.002600246620178,2.2956819569543003
1686426043134839000,11.071839111328124,0.940964507061243,-8.398624446028471,2.9806968957424163
1686426043144784100,11.0817841796875,1.6982418412446976,-10.787134032022953,2.5778736354649063
1686426043154728200,11.091728271484374,2.296122978720069,-13.08359544891715,2.194311102104932
1686426043164673000,11.101673095703125,2.1532634907931087,-14.352248772555589,1.2055763974785805
1686426043174618000,11.1116181640625,1.45384680942595,-14.39227098634243,0.42003268068842586
1686426043184563200,11.121563232421876,0.6558113483965397,-13.351562494981287,-0.9435861608017235
1686426043194508000,11.131508056640625,0.08754384341835975,-12.22654958051443,-2.8351363321632146
1686426043204453000,11.141453125,-0.7348971600711345,-11.23272792801261,-3.3312428562939167
1686426043214397200,11.151397216796875,-1.7082874344408512,-10.349034875702857,-3.1888235133498903
1686426043224342000,11.161342041015626,-2.221816802537441,-9.817190098714828,-3.0036715286165476
1686426043234287000,11.171287109375,-2.5600071393847466,-9.794577284890412,-2.521706634823978
1686426043244232200,11.181232177734374,-2.791187884843349,-9.98772319098711,-2.021110982580483
1686426043254177000,11.191177001953125,-2.850686367994547,-10.134351676058769,-1.8735785344064235
1686426043264122000,11.2011220703125,-3.2631519013643264,-10.449818139922618,-2.786723598910868
1686426043274066200,11.211066162109375,-4.173626577615738,-10.383760152125358,-4.936190327769518
1686426043284011000,11.221010986328125,-6.146831022900343,-9.126095840013027,-10.732132860291003
1686426043293956000,11.2309560546875,-10.817473056185245,-3.5548967133790255,-17.833361872321365
1686426043303901200,11.240901123046875,-12.34581776497364,3.346010217314958,-12.939254782521724
1686426043313846000,11.250845947265624,-3.5491239751964807,9.284383783218264,-0.21812201498635111
1686426043323790000,11.2607900390625,4.6651107026427985,16.538712522161006,17.04177427225709
1686426043333735200,11.270735107421874,-0.9723205993115901,16.549140392673014,23.32336798586845
1686426043343680300,11.28068017578125,-7.657101730337739,15.83442209727764,18.102573950010537
1686426043353625000,11.290625,-10.731295824944972,21.681604987692833,11.845594453173875
1686426043363570200,11.300570068359375,-9.368548505592345,27.03909414362907,9.844586639684438
1686426043373515000,11.310514892578125,-5.7623459678679705,24.486346766114234,5.759713281276822
1686426043383459000,11.320458984375,-1.238943098898977,19.267389298033713,4.2256867274597285
1686426043393404000,11.33040380859375,1.5327145944356917,14.829133294343947,1.694929501826316
1686426043403349200,11.340349365234376,3.324180662822723,11.57749296707511,-0.6928074923604727
1686426043413294000,11.350294189453125,10.630942768836022,7.15086193472743,-5.350951863121986
1686426043423239200,11.3602392578125,25.860204677546022,0.2041097831815481,-14.393160628658531
1686426043433183200,11.370183349609375,18.8858706915915,-1.0793629239261149,-10.638718079012632
1686426043443128000,11.380128173828124,8.07416920454502,0.12904372854232787,-6.9624787129879
1686426043453073200,11.3900732421875,4.3102848728150125,-2.6191239297419786,-7.063668804442882
1686426043463018200,11.400018310546875,-1.1616506003819405,-4.654723748663067,-3.981748791758716
1686426043472963000,11.409963134765626,-5.029915490171313,-5.992768588435649,-1.142033753503114
1686426043482908000,11.419907958984375,-6.03777034420073,-7.558270769229531,-0.5844772468272597
1686426043492852200,11.429852294921876,-4.511440482366085,-8.046091111052036,0.1109991176825948
1686426043502797000,11.439797119140625,-2.2136371493436395,-8.24858410668671,0.9930405851267278
1686426043512742100,11.4497421875,-1.0942850371174513,-8.5619626583606,1.8956342988699673
1686426043522687200,11.459687255859375,-0.7558119378060102,-9.096551765620708,2.0240968665234744
1686426043532632000,11.469632080078124,-0.7332949855715036,-9.741366503706574,1.945074329343438
1686426043542576000,11.479576171875,-1.0413462047427893,-10.6829044267416,1.8418442564934492
1686426043552521200,11.489521240234374,-1.3241232819259166,-11.618809312325716,1.034803943492472
1686426043562466000,11.499466064453125,-1.9348644854962824,-11.862941893815993,0.41672593076061454
1686426043572411100,11.5094111328125,-2.8819337391734123,-11.644321354722976,0.28213631332786754
1686426043582356200,11.519356201171876,-3.901698811227083,-11.520844612658022,0.22587778021227567
1686426043592301000,11.529301025390625,-4.787027355784177,-11.487674164462089,0.16477359716380013
1686426043602245000,11.5392451171875,-6.1363037836670875,-11.549911717188358,0.3610905527783558
1686426043612190000,11.54918994140625,-10.620618943220377,-11.513926211571693,1.6772034371301532
1686426043622135000,11.559135009765624,-17.32424330640435,-9.845415491724014,4.271370328009128
1686426043632080100,11.569080078125,-19.64191117745638,-4.36461735150516,2.6023402604624626
1686426043642025200,11.579025146484375,-15.34582843299508,0.6793664115071296,-4.291360976636409
1686426043651970000,11.588969970703126,-11.077919643616676,10.293926151943205,-7.41069477417469
1686426043661914000,11.5989140625,7.042143201333284,36.147221780753135,-12.252719794559479
1686426043671859000,11.60885888671875,31.110974164950846,68.14531546533108,-6.210390179619193
1686426043681804300,11.61880419921875,16.841353406721353,55.95508339886665,-2.642111129836738
1686426043691749000,11.6287490234375,5.363213963323831,30.470071631872653,-0.9462941776514053
1686426043701694000,11.63869384765625,0.9817716606806963,16.631602402782438,-1.7242951509118079
1686426043711638300,11.64863818359375,-4.25288599229157,8.045117882105707,-1.4412236208267508
1686426043721583000,11.6585830078125,-5.151936188209056,1.4375076690435409,0.7407232358761131
1686426043731528000,11.66852783203125,-4.305191933590174,-2.4531717355191707,1.3559731490425764
1686426043741473300,11.678473388671875,-3.758115685200691,-4.526639805063605,0.6962467460941523
1686426043751418400,11.68841845703125,-1.5952444081068038,-6.356640479028225,-1.1637466958783567
1686426043761363200,11.69836328125,-0.2588567061577923,-6.6677627762079235,-0.3646246817212552
1686426043771307300,11.708307373046875,0.31434184374809265,-7.123636658671498,1.1471366296000778
1686426043781252400,11.71825244140625,1.7110376099318265,-8.873089047193528,1.084968050456792
1686426043791197200,11.728197265625,3.116729167997837,-10.801845278942585,0.8380646160136908
1686426043801142300,11.738142333984374,3.8742642763346433,-12.475566426914929,0.34202034346424043
1686426043811087400,11.74808740234375,4.068791992178559,-13.567882355916499,-0.04630253616534173
1686426043821031400,11.758031494140624,3.5531466548413038,-13.492971199578045,0.1705458056233823
1686426043830976300,11.767976318359375,2.411656652826071,-12.495062570023537,-0.08849347229339181
1686426043840921300,11.77792138671875,1.1235101086884736,-11.392654286074638,-0.8890878240253776
1686426043850866400,11.787866455078126,-0.3479366548359394,-10.45173537172079,-1.1087852716349065
1686426043860811300,11.797811279296875,-1.4553402628540992,-9.623215340578556,-1.247405660687387
1686426043870756400,11.80775634765625,-2.0611936943829057,-9.196645878532529,-1.7382837826453148
1686426043880700400,11.817700439453125,-2.7601684772014616,-9.455675000381468,-1.9559009899146853
1686426043890645200,11.827645263671876,-3.909408654952049,-10.209476767408848,-2.293728484798968
1686426043900590000,11.837590087890625,-4.876702366012335,-10.62129932669997,-3.4054455721020696
1686426043910535400,11.847535400390624,-5.787105730593204,-10.609786583560705,-5.470246351066232
1686426043920480300,11.857480224609375,-8.217294065409899,-9.517701540705561,-12.221641934728622
1686426043930425000,11.867425048828125,-13.871478349244594,-4.305508744454384,-23.1176770709753
1686426043940369400,11.877369384765625,-15.312421837955712,2.1691689159333705,-17.959253858834504
1686426043950314200,11.887314208984375,-7.34465490655601,5.406979455292224,-5.3498225668311115
1686426043960259000,11.897259033203126,7.809911534392834,12.199909410870074,10.267947661077976
1686426043970204400,11.907204345703125,9.663830844083428,17.41564967046976,23.74162379307747
1686426043980149200,11.917149169921874,-2.908618917003274,20.00818194588423,20.73215205374956
1686426043990094000,11.927093994140625,-13.22372989579439,30.55124301764965,18.878605084502695
1686426044000038400,11.937038330078124,-14.683731136196851,32.87070537090301,13.84183022995591
1686426044009983200,11.946983154296875,-6.109924310785532,24.148792389082907,3.740263802167773
1686426044019928300,11.95692822265625,-3.277615311002731,20.060664997315406,4.814616204455494
1686426044029873400,11.966873291015625,-0.948445948857814,15.72626918107271,6.116296183905005
1686426044039818200,11.976818359375,9.29628874054551,8.674145268473028,2.20736508333683
1686426044049762300,11.98676220703125,15.406898110985756,3.7404140242934223,-5.328095888191461
1686426044059707400,11.996707275390625,19.22486883769035,2.0742121659100055,-7.968715610426664
1686426044069652200,12.00665234375,19.945963097858428,-1.701042285618186,-11.494488520652055
1686426044079597300,12.016597412109375,11.075732362705468,-0.7946411424160004,-12.254274622786044
1686426044089542400,12.02654248046875,6.432201039186119,-1.5213210937619208,-10.258038846004009
1686426044099487200,12.0364873046875,1.0519055926799774,-3.5147441512107847,-7.770854366245866
1686426044109431300,12.046431396484374,-3.666930270409584,-6.2719987867921585,-5.144534387519955
1686426044119376100,12.056376220703125,-5.690298968788981,-8.117908393028378,-2.541976977175474
1686426044129321200,12.0663212890625,-6.17960516525507,-9.057586367410421,0.19384126794971523
1686426044139266300,12.076266357421876,-5.332589107957482,-9.75872037408948,1.213841244737804
1686426044149211100,12.086211181640625,-3.9774405731707807,-9.919037192773818,2.1627615331090984
1686426044159156200,12.09615625,-2.9194962848484516,-10.161662876832485,2.89019946321547
1686426044169100300,12.106100341796875,-2.0721885511279106,-10.66212934973836,3.208993317936361
1686426044179045000,12.116045166015626,-1.6402414876967668,-11.276261949312687,3.0033278297454116
1686426044188990500,12.125990478515625,-1.6124819586336612,-11.518560301113128,2.1598057520434257
1686426044198935300,12.135935302734374,-1.984918263953924,-11.459126115369797,1.5233308261491358
1686426044208880000,12.145880126953125,-2.305647762912512,-11.460788495624065,1.0493747590281068
1686426044218824400,12.155824462890624,-2.5232664314866065,-11.441820760303735,0.6044517480373383
1686426044228769300,12.165769287109375,-2.8501392555058,-11.349359918749332,0.19109726647119968
1686426044238714000,12.175714111328125,-3.6790871566712853,-11.246626689505577,0.1660482019431889
1686426044248659500,12.185659423828126,-7.475164031475782,-11.213977634835242,1.5639596275269985
1686426044258604300,12.195604248046875,-14.35123754968643,-9.977133992433547,4.182980389155447
1686426044268549000,12.205549072265624,-19.13924924033284,-4.528137350144982,2.723018896241486
1686426044278493400,12.215493408203125,-18.531198006498812,1.0762094283312558,-4.4018943582370875
1686426044288438300,12.225438232421874,-14.799358918327092,18.40695670980215,-12.19999241297841
1686426044298383400,12.23538330078125,0.9304999578006565,50.666979329323766,-14.663396788698433
1686426044308328400,12.245328369140625,30.2337985317111,66.02046616811752,-2.036351806332171
1686426044318273300,12.255273193359375,23.964852702748775,49.135307521939275,-2.0981702568635345
1686426044328218000,12.265218017578125,5.1941754935234785,24.170908359301087,-1.8897079775609076
1686426044338162200,12.275162109375,-2.6215526181936264,10.841140347498655,-2.7747753869637846
1686426044348107300,12.285107177734375,-4.118527206206322,4.534356078529358,-2.1657306120477617
1686426044358052400,12.29505224609375,-3.7693104484319684,1.521837226590514,-0.26732478437153623
1686426044367997200,12.3049970703125,-2.692432911580801,-1.1712158627152442,1.3703556023992598
1686426044377942300,12.3149423828125,-1.3814767158724366,-3.3905309115648268,3.6118054722979664
1686426044387887400,12.324887451171875,-0.46954292685389515,-4.055485935881734,4.064275391536951
1686426044397831200,12.3348310546875,-0.4872166037756949,-4.404145059773326,3.641537762738764
1686426044407776300,12.3447763671875,-0.4069780418694019,-5.936330077376962,4.252044280770421
1686426044417721300,12.354721435546875,0.7067232049882411,-8.255067623487115,4.164814325606823
1686426044427666200,12.364666259765626,1.7395827364146708,-10.856080726999044,2.9238866287618874
1686426044437611300,12.374611328125,1.957199066901207,-13.018138349622488,1.4316886075012385
1686426044447556400,12.384556396484374,1.4265268408238887,-14.48231307631731,-0.7497076295815408
1686426044457500200,12.394500244140625,0.9268974032640457,-14.667262816476821,-2.575157362243533
1686426044467445200,12.4044453125,0.212096142292954,-13.175420330655575,-2.9280057545185088
1686426044477390300,12.414390380859375,-0.935915333912894,-11.616706202566624,-2.9807255373150108
1686426044487335200,12.424335205078124,-1.9006021504104136,-10.596233859026432,-3.2865690173089503
1686426044497280300,12.4342802734375,-2.5528958460748195,-9.872941796553134,-3.3354075747579333
1686426044507224300,12.444224365234374,-3.1386008080661294,-9.638737319359183,-3.0295553269356486
1686426044517169200,12.454169189453125,-3.451923245638609,-9.715529467138648,-2.402395341875404
1686426044527114500,12.464114501953125,-3.461204284203052,-9.922546662199496,-1.8916104501813649
1686426044537059300,12.474059326171876,-3.64157371083498,-10.223722734904289,-1.8270786490380764
1686426044547004200,12.484004150390625,-3.976412399166822,-10.404585498011112,-2.2373738526314497
1686426044556949500,12.493949462890624,-5.256952559953928,-10.417040490436554,-3.895845993545651
1686426044566893300,12.503893310546875,-8.67712691463232,-9.45155353653729,-11.635878520548342
1686426044576838100,12.513838134765624,-13.806039954650402,-3.1782997812479734,-17.732094623976945
1686426044586783200,12.523783203125,-12.11356734445691,3.2401801910996437,-10.609615903168915
1686426044596728300,12.533728271484375,-2.7755641992539166,10.655007535034418,0.3854427941486239
1686426044606673200,12.543673095703125,5.97874181664884,21.638948918271062,13.09881172274947
1686426044616618500,12.553618408203125,3.4297868171542882,25.41361826338768,19.871644646716117
1686426044626562300,12.563562255859376,-8.022260153609514,19.403419232201575,14.032832109761237
1686426044636507400,12.57350732421875,-12.713559190475939,17.927789045512675,9.130359342676401
1686426044646452200,12.5834521484375,-10.153010783821344,23.21390106445551,9.137471220508218
1686426044656397300,12.593397216796875,-5.5479585363000625,21.92775183161497,7.87955731754899
1686426044666342100,12.603342041015624,-1.6506524070739745,16.732454640585182,4.287997053161263
1686426044676287200,12.613287353515625,-0.5335108105041086,11.816767002618311,1.3849528675504028
1686426044686231300,12.623231201171874,0.9252936213292181,8.308029982867836,-0.4014373223444447
1686426044696176400,12.63317626953125,12.41571956871748,3.8116409391611814,-5.175378438594937
1686426044706121200,12.643121337890625,19.99321350933313,0.16170973434746264,-9.87556279270649
1686426044716066300,12.65306640625,16.357973677694797,-0.2497989366889,-9.576454758447408
1686426044726011400,12.663011474609375,10.424815800613164,0.9192804985195397,-9.539460368049145
1686426044735956200,12.672956298828124,7.681431869474053,-1.8618413348615168,-8.510565648600458
1686426044745900800,12.68290087890625,3.482850298821926,-4.325743723231554,-5.62144638183713
1686426044755846100,12.69284619140625,-0.7688339164644479,-6.005490707364678,-3.3175711815550923
