time,seconds_elapsed,z,y,x
1686426032165748200,0.102748291015625,-26.56878662109375,-37.77090072631836,10.333106994628906
1686426032175692000,0.112692138671875,-26.074020385742188,-37.87032699584961,10.693778991699219
1686426032185637000,0.12263720703125,-26.183570861816406,-38.03561019897461,11.000213623046875
1686426032195582200,0.132582275390625,-25.860504150390625,-38.377254486083984,11.427642822265625
1686426032205526000,0.142526123046875,-25.92926025390625,-38.433475494384766,11.59228515625
1686426032215471000,0.15247119140625,-25.437767028808594,-38.27590560913086,11.864112854003906
1686426032225416200,0.162416259765625,-25.30126953125,-38.22867965698242,12.370147705078125
1686426032235361000,0.172361083984375,-24.761734008789062,-38.4890022277832,12.435859680175781
1686426032245305000,0.18230517578125,-25.160362243652344,-38.46548843383789,12.591850280761719
1686426032255250200,0.192250244140625,-25.109878540039062,-38.380977630615234,12.717613220214844
1686426032265195000,0.202195068359375,-25.196029663085938,-38.06813430786133,13.13104248046875
1686426032275140000,0.21214013671875,-24.808937072753906,-38.125118255615234,13.328559875488281
1686426032285084000,0.222083984375,-25.17638397216797,-38.06136703491211,13.762184143066406
1686426032295029200,0.232029296875,-25.30829620361328,-37.96564865112305,13.759429931640625
1686426032304974000,0.24197412109375,-25.786529541015625,-37.293521881103516,14.058219909667969
1686426032314919200,0.251919189453125,-25.356178283691406,-37.35454177856445,14.145492553710938
1686426032324863200,0.26186328125,-25.846694946289062,-36.85671615600586,14.681953430175781
1686426032334808000,0.27180810546875,-25.966751098632812,-36.40177536010742,15.323631286621094
1686426032344753200,0.281753173828125,-26.26922607421875,-35.881839752197266,16.39582061767578
1686426032354697200,0.291697265625,-26.183349609375,-35.79965591430664,17.03606414794922
1686426032364642000,0.30164208984375,-26.355690002441406,-35.2787971496582,18.03630828857422
1686426032374587100,0.311587158203125,-26.539222717285156,-34.73806381225586,18.292648315429688
1686426032384532200,0.3215322265625,-26.675392150878906,-34.38552474975586,18.848106384277344
1686426032394476300,0.331476318359375,-26.753509521484375,-34.03962326049805,19.70281982421875
1686426032404421000,0.341421142578125,-26.9595947265625,-33.49001693725586,20.586135864257812
1686426032414366000,0.351365966796875,-26.825706481933594,-32.88113021850586,21.269699096679688
1686426032424311000,0.36131103515625,-26.92279815673828,-32.12735366821289,22.281944274902344
1686426032434255000,0.371255126953125,-26.200286865234375,-31.598026275634766,23.38512420654297
1686426032444200000,0.381199951171875,-26.35186767578125,-30.62692642211914,24.68896484375
1686426032454145300,0.391145263671875,-25.478065490722656,-30.259212493896484,25.735572814941406
1686426032464089000,0.401089111328125,-25.478065490722656,-30.259212493896484,25.735572814941406
1686426032474034200,0.4110341796875,-25.162796020507812,-29.470088958740234,27.30480194091797
1686426032483979300,0.420979248046875,-23.910186767578125,-29.357585906982422,28.344924926757812
1686426032493924000,0.430924072265625,-23.167007446289062,-29.015995025634766,29.852439880371094
1686426032503868200,0.4408681640625,-21.866958618164062,-29.020763397216797,30.808197021484375
1686426032513813000,0.45081298828125,-19.894775390625,-28.957050323486328,31.881591796875
1686426032523758000,0.460758056640625,-17.87029266357422,-29.131092071533203,32.78263854980469
1686426032533703200,0.470703125,-15.786849975585938,-29.146297454833984,33.86042022705078
1686426032543647000,0.48064697265625,-13.591560363769531,-29.629268646240234,34.642189025878906
1686426032553592300,0.49059228515625,-10.980506896972656,-29.747844696044922,35.40899658203125
1686426032563537200,0.500537109375,-8.171577453613281,-29.774761199951172,36.1925048828125
1686426032573481000,0.51048095703125,-5.8915252685546875,-29.58267593383789,36.86663055419922
1686426032583426300,0.52042626953125,-3.1924514770507812,-29.440425872802734,37.03156280517578
1686426032593371100,0.53037109375,-0.7555465698242188,-28.531742095947266,37.710174560546875
1686426032603316000,0.54031591796875,1.4616241455078125,-27.699695587158203,38.31060028076172
1686426032613260000,0.550260009765625,3.2366409301757812,-26.356952667236328,39.433570861816406
1686426032623205000,0.560205078125,5.262611389160156,-24.942951202392578,40.166831970214844
1686426032633150200,0.570150146484375,6.7736663818359375,-22.841419219970703,41.29707336425781
1686426032643095000,0.580094970703125,8.142326354980469,-20.68667984008789,41.91181182861328
1686426032653039000,0.5900390625,10.204200744628906,-17.927349090576172,42.954750061035156
1686426032662984200,0.599984130859375,11.74624252319336,-15.491962432861328,43.15825653076172
1686426032672929000,0.609928955078125,13.439632415771484,-13.17837142944336,43.38938903808594
1686426032682874000,0.6198740234375,15.265914916992188,-10.990398406982422,43.5546875
1686426032692818200,0.629818115234375,16.57742691040039,-8.479713439941406,43.63291931152344
1686426032702763000,0.639762939453125,17.354915618896484,-6.299720764160156,43.82404327392578
1686426032712708400,0.649708251953125,17.440650939941406,-3.605060577392578,43.64253234863281
1686426032722653200,0.659653076171875,17.41525650024414,-1.1683502197265625,43.8619384765625
1686426032732597500,0.669597412109375,17.61640167236328,1.5819206237792969,44.06388854980469
1686426032742542800,0.67954296875,17.858272552490234,3.59912109375,43.55999755859375
1686426032752487700,0.68948779296875,18.54825210571289,6.038963317871094,43.200401306152344
1686426032762431700,0.699431640625,18.966472625732422,7.894020080566406,42.71440124511719
1686426032772376800,0.709376953125,18.818683624267578,9.71402359008789,42.31744384765625
1686426032782321700,0.71932177734375,18.907047271728516,11.455665588378906,41.5745849609375
1686426032792266500,0.7292666015625,18.139846801757812,13.44521713256836,41.399566650390625
1686426032802210600,0.73921044921875,17.312240600585938,14.693527221679688,41.078147888183594
1686426032812155600,0.74915576171875,16.125694274902344,16.16956329345703,41.261993408203125
1686426032822100700,0.759100830078125,14.403331756591797,16.954383850097656,41.27001190185547
1686426032832045600,0.769045654296875,13.017147064208984,17.352264404296875,41.849945068359375
1686426032841989600,0.77898974609375,11.167732238769531,17.570995330810547,42.22473907470703
1686426032851934700,0.788934814453125,9.965927124023438,17.84496307373047,42.66943359375
1686426032861879600,0.798879638671875,8.412612915039062,17.674697875976562,43.03094482421875
1686426032871824600,0.80882470703125,7.3857269287109375,17.550308227539062,43.30427551269531
1686426032881768700,0.818768798828125,6.555824279785156,17.26952362060547,43.466041564941406
1686426032891713500,0.828713623046875,5.5937347412109375,17.26604461669922,43.90564727783203
1686426032901659000,0.838658935546875,4.946784973144531,17.071250915527344,43.52159881591797
1686426032911602700,0.848602783203125,3.9396286010742188,17.254619598388672,43.81189727783203
1686426032921547800,0.8585478515625,3.3927001953125,17.496299743652344,43.62818908691406
1686426032931492600,0.86849267578125,3.0499267578125,17.56997299194336,43.68470764160156
1686426032941437700,0.878437744140625,3.1063613891601562,17.61130142211914,43.39579772949219
1686426032951381800,0.8883818359375,2.264129638671875,17.914085388183594,43.184349060058594
1686426032961326600,0.89832666015625,1.7181320190429688,18.334003448486328,42.91670227050781
1686426032971271700,0.908271728515625,1.6013259887695312,18.75942611694336,42.75542449951172
1686426032981216800,0.918216796875,0.5372848510742188,19.370960235595703,43.010475158691406
1686426032991160600,0.92816064453125,0.04166412353515625,19.771678924560547,42.700355529785156
1686426033001105700,0.938105712890625,-0.19818878173828125,20.431026458740234,42.50042724609375
1686426033011050800,0.94805078125,-0.171142578125,21.110111236572266,42.433204650878906
1686426033020995600,0.95799560546875,0.0455169677734375,21.788677215576172,41.84980773925781
1686426033030939600,0.967939697265625,0.09294891357421875,22.894433975219727,41.11125183105469
1686426033040884700,0.977884765625,0.9252548217773438,23.93717384338379,40.54114532470703
1686426033050829600,0.98782958984375,1.0484466552734375,24.377166748046875,40.33893585205078
1686426033060773600,0.997773681640625,1.0720672607421875,25.066606521606445,39.925994873046875
1686426033070718700,1.00771875,1.70166015625,25.98088264465332,39.402618408203125
1686426033080663800,1.017663818359375,1.8971786499023438,26.23246955871582,38.85417175292969
1686426033090608600,1.027608642578125,1.9125900268554688,26.89349365234375,38.264671325683594
1686426033100552400,1.037552490234375,2.1420745849609375,27.404457092285156,37.74652099609375
1686426033110497800,1.047497802734375,2.292724609375,27.620378494262695,37.58582305908203
1686426033120442600,1.057442626953125,2.049530029296875,27.884944915771484,37.55610656738281
1686426033130387500,1.067387451171875,1.8911819458007812,28.355228424072266,37.31366729736328
1686426033140331800,1.077331787109375,1.643768310546875,28.72876739501953,37.22554016113281
1686426033150276600,1.087276611328125,1.5083541870117188,28.64263153076172,37.173912048339844
1686426033160221700,1.0972216796875,2.3915863037109375,28.44748878479004,37.154266357421875
1686426033170166800,1.107166748046875,2.9092330932617188,27.819547653198242,37.206878662109375
1686426033180110600,1.117110595703125,3.873077392578125,27.318742752075195,37.91807556152344
1686426033190055700,1.1270556640625,4.726799011230469,26.794782638549805,37.91950225830078
1686426033200000800,1.137000732421875,5.773536682128906,26.33160400390625,38.3018798828125
1686426033209944800,1.14694482421875,6.9318084716796875,25.48019790649414,38.93022918701172
1686426033219889700,1.1568896484375,7.6124420166015625,24.825037002563477,39.208839416503906
1686426033229834500,1.16683447265625,8.546859741210938,24.09164810180664,39.274574279785156
1686426033239779600,1.176779541015625,9.582298278808594,23.84127426147461,39.47888946533203
1686426033249723600,1.1867236328125,10.084930419921875,23.55098533630371,39.36743927001953
1686426033259668500,1.19666845703125,10.084930419921875,23.55098533630371,39.36743927001953
1686426033269613800,1.20661376953125,11.545066833496094,23.09157943725586,39.68535614013672
1686426033279558700,1.21655859375,12.692058563232422,22.68412971496582,39.56385803222656
1686426033289502700,1.226502685546875,13.749786376953125,22.20560073852539,39.359840393066406
1686426033299447800,1.23644775390625,14.339786529541016,22.06390380859375,39.03790283203125
1686426033309392600,1.246392578125,15.174015045166016,21.93903350830078,38.892799377441406
1686426033319337700,1.256337646484375,15.934528350830078,21.423660278320312,38.78223419189453
1686426033329281500,1.266281494140625,16.996082305908203,20.916336059570312,38.89183044433594
1686426033339226600,1.2762265625,17.267440795898438,20.443737030029297,38.896202087402344
1686426033349171700,1.286171630859375,17.56688690185547,20.380020141601562,39.31462097167969
1686426033359116500,1.296116455078125,17.279869079589844,20.06629180908203,39.421470642089844
1686426033369060900,1.306060791015625,17.224693298339844,19.999771118164062,39.35679626464844
1686426033379005700,1.316005615234375,17.633773803710938,19.68218994140625,39.500335693359375
1686426033388950500,1.325950439453125,18.21670913696289,20.156322479248047,39.47272491455078
1686426033398895600,1.3358955078125,18.037052154541016,20.003990173339844,39.305816650390625
1686426033408839700,1.345839599609375,18.176044464111328,19.95897674560547,39.396217346191406
1686426033418784500,1.355784423828125,18.259735107421875,19.74517822265625,39.094947814941406
1686426033428729900,1.365729736328125,18.187110900878906,19.7921142578125,39.40325164794922
1686426033438674700,1.3756748046875,17.918331146240234,19.598220825195312,39.37733459472656
1686426033448618800,1.38561865234375,18.105281829833984,19.33002471923828,39.42835998535156
1686426033458563600,1.3955634765625,17.939666748046875,19.00787353515625,39.772308349609375
1686426033468508700,1.4055087890625,17.465190887451172,18.540504455566406,40.1763916015625
1686426033478452700,1.41545263671875,17.14733123779297,18.317886352539062,40.313323974609375
1686426033488397600,1.4253974609375,16.451976776123047,17.99935531616211,40.62415313720703
1686426033498342700,1.4353427734375,16.391887664794922,17.817474365234375,40.901824951171875
1686426033508287700,1.445287841796875,16.273090362548828,17.588966369628906,41.311378479003906
1686426033518231600,1.4552314453125,15.935619354248047,17.391857147216797,41.193138122558594
1686426033528176600,1.4651767578125,15.85677719116211,17.47283172607422,41.621543884277344
1686426033538121700,1.475121826171875,15.593181610107422,17.48480987548828,41.408843994140625
1686426033548066600,1.485066650390625,15.499000549316406,17.400901794433594,41.649253845214844
1686426033558010600,1.4950107421875,15.47244644165039,17.40808868408203,41.475730895996094
1686426033567955700,1.504955810546875,15.344345092773438,17.842254638671875,41.61705780029297
1686426033577900500,1.514900634765625,15.087623596191406,18.190776824951172,41.40242004394531
1686426033587845600,1.524845703125,14.760040283203125,19.27172088623047,41.19767761230469
1686426033597789700,1.534789794921875,13.937095642089844,20.045623779296875,40.76873016357422
1686426033607734800,1.54473486328125,13.211898803710938,21.27753448486328,40.68988037109375
1686426033617679600,1.5546796875,12.454788208007812,22.35494613647461,39.98017120361328
1686426033627624700,1.564624755859375,11.959102630615234,24.078340530395508,39.4158935546875
1686426033637568800,1.57456884765625,11.442306518554688,25.545074462890625,38.429603576660156
1686426033647513600,1.584513671875,11.189949035644531,27.318254470825195,37.408302307128906
1686426033657458400,1.59445849609375,11.584030151367188,28.813905715942383,36.017974853515625
1686426033667403800,1.60440380859375,11.71591567993164,30.392560958862305,35.05218505859375
1686426033677347600,1.61434765625,11.862590789794922,31.569063186645508,33.478355407714844
1686426033687292700,1.624292724609375,11.954071044921875,32.98602294921875,32.29920196533203
1686426033697237800,1.63423779296875,11.733318328857422,33.79521179199219,31.164016723632812
1686426033707182600,1.6441826171875,11.364761352539062,34.737403869628906,30.127288818359375
1686426033717126700,1.654126708984375,10.686859130859375,35.79283905029297,29.02947235107422
1686426033727071700,1.66407177734375,10.148048400878906,37.210731506347656,27.91118621826172
1686426033737016300,1.674016357421875,9.657127380371094,38.43089294433594,26.083152770996094
1686426033746960400,1.68396044921875,8.814277648925781,39.794593811035156,24.633506774902344
1686426033756905500,1.693905517578125,7.7713165283203125,40.58384323120117,22.777359008789062
1686426033766850600,1.7038505859375,6.873321533203125,41.73886489868164,21.301597595214844
1686426033776795400,1.71379541015625,6.6077117919921875,42.31793212890625,20.00670623779297
1686426033786739700,1.72373974609375,6.300056457519531,43.10496139526367,18.801605224609375
1686426033796684500,1.7336845703125,6.362762451171875,43.48039627075195,17.5767822265625
1686426033806629400,1.74362939453125,6.823829650878906,43.909454345703125,16.907440185546875
1686426033816574500,1.753574462890625,6.625679016113281,43.7855224609375,16.787567138671875
1686426033826518500,1.7635185546875,7.2379608154296875,44.013465881347656,16.769180297851562
1686426033836463400,1.77346337890625,7.311592102050781,44.09954071044922,16.52436065673828
1686426033846408700,1.78340869140625,6.842109680175781,44.17070388793945,16.04949188232422
1686426033856353500,1.793353515625,6.975059509277344,43.90950012207031,15.8221435546875
1686426033866297600,1.803297607421875,7.0662384033203125,44.09609603881836,15.445808410644531
1686426033876242400,1.813242431640625,7.294395446777344,44.198116302490234,15.223861694335938
1686426033886187500,1.8231875,7.483390808105469,44.623565673828125,15.113471984863281
1686426033896132400,1.83313232421875,7.520500183105469,44.61012649536133,14.635635375976562
1686426033906076400,1.843076416015625,7.5831451416015625,44.72919464111328,14.287269592285156
1686426033916021500,1.853021484375,7.5172576904296875,44.852264404296875,13.573417663574219
1686426033925966600,1.862966552734375,7.0442047119140625,45.12895965576172,12.724708557128906
1686426033935911400,1.872911376953125,6.8037567138671875,45.596885681152344,11.201553344726562
1686426033945855500,1.88285546875,6.7671356201171875,46.024871826171875,9.726646423339844
1686426033955800600,1.892800537109375,6.5589752197265625,45.9212646484375,7.942230224609375
1686426033965745400,1.902745361328125,7.427528381347656,46.26817321777344,6.449333190917969
1686426033975690500,1.9126904296875,7.814170837402344,46.15106201171875,5.088554382324219
1686426033985634600,1.922634521484375,8.591896057128906,46.30536651611328,3.894287109375
1686426033995579400,1.932579345703125,8.219367980957031,46.28607940673828,2.992523193359375
1686426034005524500,1.9425244140625,7.237159729003906,46.65562057495117,2.2488784790039062
1686426034015469600,1.952469482421875,6.7453155517578125,46.5862922668457,1.189056396484375
1686426034025413600,1.96241357421875,6.695549011230469,46.80528259277344,-0.0392913818359375
1686426034035358500,1.9723583984375,7.084785461425781,46.6137580871582,-1.5475387573242188
1686426034045303600,1.982303466796875,7.084785461425781,46.6137580871582,-1.5475387573242188
1686426034055248400,1.992248291015625,8.603126525878906,46.04155731201172,-3.2352371215820312
1686426034065192400,2.0021923828125,9.836822509765625,45.64689254760742,-5.4344940185546875
1686426034075137300,2.01213720703125,11.370697021484375,45.068782806396484,-7.2947998046875
1686426034085082600,2.02208251953125,12.511253356933594,44.60696029663086,-8.878410339355469
1686426034095027500,2.03202734375,13.188018798828125,44.2244758605957,-10.399452209472656
1686426034104971500,2.041971435546875,13.991863250732422,43.8265266418457,-11.248649597167969
1686426034114916600,2.05191650390625,13.975284576416016,43.818050384521484,-11.376060485839844
1686426034124861400,2.061861328125,14.127143859863281,43.688499450683594,-11.57904052734375
1686426034134805500,2.071805419921875,13.791069030761719,43.908329010009766,-11.2156982421875
1686426034144750600,2.08175048828125,13.781478881835938,43.87327194213867,-10.659683227539062
1686426034154695400,2.0916953125,13.344425201416016,44.34123992919922,-9.598312377929688
1686426034164640500,2.101640625,13.008460998535156,44.56787109375,-8.969795227050781
1686426034174584300,2.111584228515625,12.591804504394531,44.82712173461914,-8.29876708984375
1686426034184529700,2.12152978515625,12.701011657714844,44.85008239746094,-7.566131591796875
1686426034194474500,2.131474609375,12.940959930419922,45.18211364746094,-7.257476806640625
1686426034204419600,2.141419677734375,13.13351058959961,45.205970764160156,-6.914581298828125
1686426034214363600,2.15136376953125,13.577499389648438,45.12800216674805,-6.685752868652344
1686426034224308500,2.16130859375,14.094348907470703,44.687477111816406,-6.441375732421875
1686426034234253300,2.17125341796875,14.464462280273438,44.90693664550781,-5.955345153808594
1686426034244198700,2.18119873046875,14.90744400024414,44.672664642333984,-5.4301300048828125
1686426034254142500,2.191142578125,16.051788330078125,44.6314582824707,-5.0278167724609375
1686426034264087600,2.201087646484375,16.365886688232422,44.19446563720703,-4.631629943847656
1686426034274032600,2.21103271484375,16.885929107666016,44.15953826904297,-4.2759857177734375
1686426034283977500,2.2209775390625,17.185470581054688,43.8204345703125,-4.5215606689453125
1686426034293921500,2.230921630859375,17.05221939086914,43.884246826171875,-5.1509857177734375
1686426034303866400,2.240866455078125,16.784404754638672,44.039154052734375,-6.2206573486328125
1686426034313811500,2.2508115234375,15.608078002929688,44.362667083740234,-7.8658905029296875
1686426034323756500,2.260756591796875,14.176116943359375,44.42737579345703,-10.002044677734375
1686426034333700400,2.270700439453125,12.565921783447266,44.670291900634766,-11.074302673339844
1686426034343645700,2.280645751953125,11.411521911621094,44.7383918762207,-11.9156494140625
1686426034353590500,2.290590576171875,9.810371398925781,45.05919647216797,-12.040634155273438
1686426034363535400,2.300535400390625,8.221336364746094,45.53034210205078,-11.374946594238281
1686426034373479700,2.310479736328125,7.1064605712890625,45.645301818847656,-10.213417053222656
1686426034383424500,2.320424560546875,5.9662322998046875,46.04086685180664,-9.226974487304688
1686426034393369300,2.330369384765625,4.710296630859375,46.36785888671875,-7.598968505859375
1686426034403314700,2.340314697265625,4.514106750488281,46.923980712890625,-6.033241271972656
1686426034413258500,2.350258544921875,4.2346649169921875,47.31414794921875,-4.3706817626953125
1686426034423203600,2.36020361328125,4.296562194824219,47.44509506225586,-3.5818862915039062
1686426034433148400,2.3701484375,4.192832946777344,47.63957214355469,-2.825469970703125
1686426034443093500,2.380093505859375,4.4986572265625,47.879417419433594,-2.6558837890625
1686426034453037600,2.39003759765625,4.4476776123046875,47.641395568847656,-2.6033096313476562
1686426034462982400,2.399982421875,5.463409423828125,47.64807891845703,-2.7786102294921875
1686426034472927500,2.409927490234375,6.1311187744140625,47.73495101928711,-2.8709030151367188
1686426034482872600,2.41987255859375,6.801506042480469,47.78083038330078,-2.545257568359375
1686426034492816400,2.42981640625,7.459983825683594,47.40655517578125,-2.669403076171875
1686426034502761700,2.43976171875,7.694068908691406,47.48086929321289,-2.890533447265625
1686426034512706600,2.44970654296875,7.707916259765625,47.29856872558594,-3.0802459716796875
1686426034522651400,2.4596513671875,7.345756530761719,47.51958084106445,-3.4954757690429688
1686426034532595500,2.469595458984375,7.677520751953125,47.5916633605957,-3.5253524780273438
1686426034542540500,2.47954052734375,8.113471984863281,47.523292541503906,-3.4677581787109375
1686426034552485400,2.4894853515625,8.328948974609375,47.04326629638672,-3.1833724975585938
1686426034562430500,2.499430419921875,8.443389892578125,47.412620544433594,-3.0144271850585938
1686426034572374500,2.50937451171875,8.737327575683594,47.30424880981445,-2.5980453491210938
1686426034582319600,2.519319580078125,9.500587463378906,47.287498474121094,-2.1866455078125
1686426034592264400,2.529264404296875,9.745307922363281,47.21955108642578,-1.6155471801757812
1686426034602209500,2.53920947265625,10.017044067382812,47.2646369934082,-1.2343368530273438
1686426034612153600,2.549153564453125,9.845268249511719,47.08793258666992,-0.522796630859375
1686426034622098400,2.559098388671875,9.478973388671875,47.280250549316406,-0.01659393310546875
1686426034632043500,2.56904345703125,7.792335510253906,47.28062438964844,0.26671600341796875
1686426034641988600,2.578988525390625,5.553779602050781,47.63621139526367,0.1442718505859375
1686426034651932400,2.588932373046875,3.9900360107421875,47.8294792175293,-0.335723876953125
1686426034661877500,2.59887744140625,2.6589202880859375,47.88600158691406,-1.3848876953125
1686426034671822600,2.608822509765625,2.2917938232421875,47.810951232910156,-2.4141311645507812
1686426034681767400,2.618767333984375,3.5999755859375,47.87126541137695,-3.8823318481445312
1686426034691712300,2.628712158203125,6.591972351074219,47.220916748046875,-4.9209136962890625
1686426034701656600,2.638656494140625,9.529953002929688,46.81643295288086,-6.0231170654296875
1686426034711601400,2.648601318359375,11.700061798095703,46.15644073486328,-6.8641815185546875
1686426034721546500,2.65854638671875,13.268009185791016,45.97590255737305,-7.510459899902344
1686426034731490300,2.668490234375,14.086585998535156,45.28466796875,-7.443351745605469
1686426034741435400,2.678435302734375,14.926971435546875,45.32506561279297,-7.419891357421875
1686426034751380200,2.688380126953125,15.571647644042969,45.05047607421875,-6.771629333496094
1686426034761325300,2.6983251953125,16.050601959228516,45.20783996582031,-6.6331787109375
1686426034771270400,2.7082705078125,16.170063018798828,45.227386474609375,-5.779228210449219
1686426034781214200,2.718214111328125,16.179664611816406,45.51715087890625,-4.823600769042969
1686426034791159300,2.7281591796875,15.95535659790039,45.39269256591797,-4.0248870849609375
1686426034801104400,2.7381044921875,16.007434844970703,45.639625549316406,-3.149322509765625
1686426034811049200,2.74804931640625,15.763046264648438,45.4345817565918,-2.4672393798828125
1686426034820993300,2.7579931640625,15.850898742675781,45.641395568847656,-2.0467605590820312
1686426034830938400,2.7679384765625,15.850898742675781,45.641395568847656,-2.0467605590820312
1686426034840883200,2.77788330078125,15.82973861694336,45.36915588378906,-1.8819808959960938
1686426034850828300,2.787828369140625,16.2945556640625,45.26133728027344,-1.7770919799804688
1686426034860772400,2.7977724609375,16.858509063720703,44.94318771362305,-1.7065963745117188
1686426034870717200,2.80771728515625,17.454212188720703,45.171897888183594,-1.1270217895507812
1686426034880662300,2.817662353515625,17.54804229736328,44.88431930541992,-0.8665313720703125
1686426034890607400,2.827607421875,17.780261993408203,44.85247802734375,-0.3945159912109375
1686426034900551400,2.837551513671875,17.59762191772461,44.63574981689453,-0.49787139892578125
1686426034910496300,2.847496337890625,17.605560302734375,44.662803649902344,-0.0681610107421875
1686426034920441300,2.85744140625,17.387664794921875,44.54204177856445,-0.13507080078125
1686426034930386400,2.867386474609375,17.055030822753906,44.62858963012695,-0.4611663818359375
1686426034940330200,2.877330322265625,16.42789077758789,44.811973571777344,-0.7976455688476562
1686426034950275000,2.887275146484375,15.618400573730469,45.071327209472656,-1.7633819580078125
1686426034960220400,2.897220458984375,14.351428985595703,45.3424186706543,-3.2149887084960938
1686426034970165200,2.907165283203125,13.338706970214844,45.60696792602539,-4.8239288330078125
1686426034980109300,2.917109375,12.198600769042969,45.61687469482422,-6.2931060791015625
1686426034990054400,2.927054443359375,10.605712890625,46.08667755126953,-7.288200378417969
1686426034999999200,2.936999267578125,8.808769226074219,46.361568450927734,-7.4722747802734375
1686426035009944300,2.9469443359375,6.7126617431640625,46.69853210449219,-7.2806396484375
1686426035019888400,2.956888427734375,4.4478302001953125,46.755531311035156,-6.9020538330078125
1686426035029833200,2.966833251953125,2.7422027587890625,47.19936752319336,-6.224037170410156
1686426035039778300,2.9767783203125,2.0194320678710938,47.126502990722656,-5.287239074707031
1686426035049723400,2.986723388671875,2.3829498291015625,47.270870208740234,-4.374397277832031
1686426035059667500,2.99666748046875,3.475860595703125,47.11907196044922,-4.277496337890625
1686426035069612300,3.0066123046875,4.861396789550781,47.034202575683594,-3.6580963134765625
1686426035079557000,3.01655712890625,6.2650604248046875,46.49633026123047,-3.3096160888671875
1686426035089502200,3.026502197265625,6.973823547363281,46.54521560668945,-3.1125564575195312
1686426035099446300,3.0364462890625,7.7617645263671875,46.366294860839844,-3.0900039672851562
1686426035109391000,3.04639111328125,8.060188293457031,46.299217224121094,-3.2087020874023438
1686426035119336400,3.05633642578125,8.434425354003906,46.26247787475586,-3.4324798583984375
1686426035129281300,3.06628125,7.9847564697265625,46.58927917480469,-3.8667449951171875
1686426035139225300,3.076225341796875,7.468353271484375,46.31516647338867,-4.2487335205078125
1686426035149170400,3.08617041015625,7.4624481201171875,46.284820556640625,-4.68475341796875
1686426035159115300,3.096115234375,7.547721862792969,46.28213119506836,-4.969390869140625
1686426035169060400,3.106060302734375,7.4085693359375,46.65106964111328,-4.779510498046875
1686426035179005400,3.11600537109375,7.387031555175781,46.662742614746094,-5.366752624511719
1686426035188949200,3.12594921875,8.08245849609375,46.46599578857422,-5.2759552001953125
1686426035198894300,3.135894287109375,8.685150146484375,46.122047424316406,-5.318687438964844
1686426035208839200,3.145839111328125,9.109390258789062,46.03692626953125,-5.160636901855469
1686426035218783500,3.155783447265625,9.685791015625,45.851253509521484,-4.990180969238281
1686426035228728300,3.165728271484375,9.948265075683594,45.97013854980469,-4.6769561767578125
1686426035238673200,3.175673095703125,10.532814025878906,45.92311096191406,-4.367469787597656
1686426035248618200,3.1856181640625,10.632637023925781,45.96757888793945,-4.327262878417969
1686426035258563300,3.195563232421875,10.625587463378906,45.783226013183594,-3.9432144165039062
1686426035268507100,3.205507080078125,9.905403137207031,46.278411865234375,-3.2706451416015625
1686426035278452500,3.215452392578125,8.370574951171875,46.47282409667969,-2.8374481201171875
1686426035288397300,3.225397216796875,6.6690521240234375,46.64808654785156,-3.1493988037109375
1686426035298342100,3.235342041015625,4.6111907958984375,46.79270935058594,-3.6606216430664062
1686426035308286200,3.2452861328125,3.6478729248046875,46.634490966796875,-4.7566986083984375
1686426035318231300,3.255231201171875,4.0274658203125,46.3343505859375,-5.720893859863281
1686426035328176400,3.26517626953125,6.224678039550781,46.178096771240234,-7.1763153076171875
1686426035338121200,3.275121337890625,8.234893798828125,45.574462890625,-8.295692443847656
1686426035348065300,3.285065185546875,10.366775512695312,45.052589416503906,-9.08917236328125
1686426035358010400,3.29501025390625,12.278778076171875,44.37416076660156,-9.701393127441406
1686426035367955200,3.304955078125,13.813663482666016,44.073402404785156,-10.159927368164062
1686426035377900300,3.314900390625,14.635734558105469,43.50181198120117,-10.402793884277344
1686426035387844400,3.32484423828125,15.490604400634766,43.20684051513672,-10.476615905761719
1686426035397789200,3.3347890625,16.256763458251953,43.10270309448242,-10.156539916992188
1686426035407734300,3.344734375,16.824554443359375,43.283897399902344,-9.567222595214844
1686426035417679400,3.354679443359375,17.506729125976562,43.031490325927734,-9.2266845703125
1686426035427623200,3.364623046875,17.596546173095703,43.078941345214844,-8.681129455566406
1686426035437568300,3.374568359375,17.416526794433594,42.8430061340332,-8.001945495605469
1686426035447513300,3.384513427734375,17.410778045654297,43.16862487792969,-7.75848388671875
1686426035457458200,3.394458251953125,17.677154541015625,43.141876220703125,-7.394721984863281
1686426035467402200,3.40440234375,17.536426544189453,43.34711456298828,-7.183799743652344
1686426035477347300,3.414347412109375,17.256099700927734,43.50019073486328,-6.607872009277344
1686426035487292400,3.42429248046875,17.495590209960938,43.59186553955078,-6.300849914550781
1686426035497237200,3.4342373046875,17.33587646484375,43.35627746582031,-5.8662109375
1686426035507182300,3.444182373046875,17.657657623291016,43.442752838134766,-5.6014404296875
1686426035517126400,3.45412646484375,17.844886779785156,43.48841094970703,-5.367713928222656
1686426035527071200,3.4640712890625,17.933727264404297,43.28445816040039,-5.619087219238281
1686426035537016300,3.474016357421875,17.843551635742188,43.107723236083984,-5.752983093261719
1686426035546961400,3.48396142578125,18.375282287597656,43.036865234375,-5.4317474365234375
1686426035556905200,3.4939052734375,18.263320922851562,43.010250091552734,-6.039405822753906
1686426035566850300,3.503850341796875,18.148723602294922,43.11869812011719,-6.304107666015625
1686426035576795400,3.51379541015625,17.646011352539062,42.7785758972168,-6.846015930175781
1686426035586740200,3.523740234375,17.20168685913086,42.77326202392578,-8.357772827148438
1686426035596684300,3.533684326171875,16.104839324951172,42.80680847167969,-10.535133361816406
1686426035606629400,3.54362939453125,14.543190002441406,42.74103546142578,-12.83306884765625
1686426035616574200,3.55357421875,14.543190002441406,42.74103546142578,-12.83306884765625
1686426035626519300,3.563519287109375,13.28237533569336,42.59916305541992,-14.269851684570312
1686426035636463400,3.57346337890625,12.586383819580078,42.44636154174805,-15.236061096191406
1686426035646408200,3.583408203125,12.161487579345703,42.65431213378906,-15.622108459472656
1686426035656353300,3.593353271484375,11.803878784179688,42.68955612182617,-15.888961791992188
1686426035666298400,3.60329833984375,11.1920166015625,42.8714485168457,-16.082595825195312
1686426035676242400,3.613242431640625,9.906295776367188,43.13626480102539,-16.104225158691406
1686426035686187300,3.623187255859375,8.940383911132812,43.2969856262207,-16.15094757080078
1686426035696132000,3.633132080078125,8.639244079589844,43.38492965698242,-15.842475891113281
1686426035706077400,3.643077392578125,9.003242492675781,43.73493957519531,-15.042671203613281
1686426035716021200,3.653021240234375,9.410057067871094,43.71034240722656,-14.453239440917969
1686426035725966300,3.66296630859375,9.992027282714844,43.88713455200195,-14.153945922851562
1686426035735911200,3.6729111328125,10.342880249023438,43.95467758178711,-13.740913391113281
1686426035745856000,3.68285595703125,10.368927001953125,43.913482666015625,-13.596626281738281
1686426035755800000,3.692800048828125,9.821861267089844,43.60844421386719,-13.834869384765625
1686426035765745200,3.7027451171875,10.113517761230469,43.843963623046875,-14.035064697265625
1686426035775690000,3.71268994140625,9.923881530761719,43.67976379394531,-14.01483154296875
1686426035785635300,3.72263525390625,9.989265441894531,43.88262176513672,-14.493873596191406
1686426035795579100,3.7325791015625,9.489349365234375,43.66097640991211,-14.751380920410156
1686426035805524200,3.742524169921875,9.216636657714844,43.44293975830078,-15.025375366210938
1686426035815469000,3.752468994140625,9.414222717285156,43.45584487915039,-15.283782958984375
1686426035825414100,3.7624140625,9.6500244140625,43.38298797607422,-15.264114379882812
1686426035835359000,3.77235888671875,9.649864196777344,43.359718322753906,-15.013465881347656
1686426035845303000,3.782302978515625,10.270912170410156,43.279510498046875,-14.880256652832031
1686426035855248100,3.792248046875,10.561607360839844,43.11759948730469,-14.545242309570312
1686426035865193200,3.802193115234375,11.055313110351562,43.41804885864258,-14.180763244628906
1686426035875138000,3.812137939453125,11.312187194824219,43.433021545410156,-13.823539733886719
1686426035885082000,3.82208203125,11.689155578613281,43.717529296875,-13.443382263183594
1686426035895027200,3.832027099609375,11.78104019165039,43.68360137939453,-12.560691833496094
1686426035904972000,3.841971923828125,10.998153686523438,44.245994567871094,-11.74072265625
1686426035914917000,3.851917236328125,9.287139892578125,44.64280700683594,-11.134040832519531
1686426035924861200,3.861861083984375,6.9654693603515625,45.065372467041016,-10.945075988769531
1686426035934806000,3.871805908203125,4.5954437255859375,45.162445068359375,-11.577812194824219
1686426035944751000,3.881751220703125,3.3773956298828125,45.24124526977539,-12.355720520019531
1686426035954696200,3.8916962890625,3.2845993041992188,44.9182014465332,-12.651885986328125
1686426035964640300,3.90164013671875,4.2598419189453125,44.58746337890625,-12.932106018066406
1686426035974585000,3.911585205078125,5.9227752685546875,44.27263259887695,-13.117752075195312
1686426035984530200,3.9215302734375,8.3487548828125,43.71038818359375,-13.608634948730469
1686426035994475000,3.93147509765625,10.190940856933594,43.28075408935547,-13.644081115722656
1686426036004420000,3.941420166015625,11.459602355957031,43.464908599853516,-13.900421142578125
1686426036014364000,3.951364013671875,11.423332214355469,43.13996887207031,-13.877151489257812
1686426036024309200,3.961309326171875,11.649269104003906,43.41747283935547,-13.951858520507812
1686426036034254000,3.971254150390625,11.397499084472656,43.27753448486328,-13.556144714355469
1686426036044199200,3.98119921875,11.073417663574219,43.60198211669922,-13.289924621582031
1686426036054143200,3.991143310546875,10.908462524414062,43.606361389160156,-12.838470458984375
1686426036064088000,4.001088134765625,11.097808837890625,43.895355224609375,-12.176887512207031
1686426036074033000,4.011032958984375,11.107177734375,43.857933044433594,-11.269538879394531
1686426036083978200,4.020978271484375,11.5721435546875,44.4334602355957,-10.513832092285156
1686426036093922000,4.030922119140625,12.044029235839844,44.21928405761719,-9.888290405273438
1686426036103867100,4.0408671875,12.177799224853516,44.4202880859375,-9.517181396484375
1686426036113812200,4.050812255859375,12.491935729980469,44.442420959472656,-8.971771240234375
1686426036123757000,4.060757080078125,13.046310424804688,44.382713317871094,-8.746307373046875
1686426036133701000,4.070701171875,13.642627716064453,44.21551513671875,-8.4869384765625
1686426036143646000,4.08064599609375,14.077125549316406,43.98675537109375,-8.277412414550781
1686426036153591000,4.090591064453125,14.659923553466797,43.611724853515625,-8.096565246582031
1686426036163536100,4.1005361328125,14.979698181152344,43.75251770019531,-8.094200134277344
1686426036173480000,4.11047998046875,15.618244171142578,43.654052734375,-8.117668151855469
1686426036183425300,4.12042529296875,15.472305297851562,43.55365753173828,-8.268196105957031
1686426036193370000,4.1303701171875,15.811267852783203,43.4329948425293,-7.843574523925781
1686426036203315000,4.14031494140625,16.03499984741211,43.36919021606445,-8.035446166992188
1686426036213260300,4.15026025390625,16.065021514892578,43.050655364990234,-8.703170776367188
1686426036223204000,4.1602041015625,15.7362060546875,43.02597427368164,-9.840042114257812
1686426036233149000,4.17014892578125,15.149459838867188,42.48963165283203,-11.537940979003906
1686426036243094300,4.18009423828125,14.654571533203125,42.21379852294922,-13.657783508300781
1686426036253039000,4.1900390625,13.430843353271484,42.08098602294922,-15.226905822753906
1686426036262983200,4.199983154296875,12.830497741699219,42.40705108642578,-16.44989776611328
1686426036272928300,4.20992822265625,11.876663208007812,42.42573165893555,-16.31804656982422
1686426036282873000,4.219873046875,10.242088317871094,42.69007110595703,-16.708633422851562
1686426036292818200,4.229818115234375,8.556205749511719,42.8604850769043,-16.409576416015625
1686426036302762000,4.239761962890625,7.18572998046875,43.604835510253906,-15.969627380371094
1686426036312707000,4.24970703125,6.211944580078125,43.64589309692383,-15.36822509765625
1686426036322652200,4.259652099609375,4.86297607421875,44.13676834106445,-14.503303527832031
1686426036332597000,4.269596923828125,4.473114013671875,44.348838806152344,-13.783348083496094
1686426036342541300,4.279541259765625,5.024482727050781,44.47107696533203,-13.203117370605469
1686426036352486100,4.289486083984375,5.0359954833984375,44.53142547607422,-12.849876403808594
1686426036362431000,4.299430908203125,6.057090759277344,44.29695129394531,-12.872604370117188
1686426036372376300,4.309376220703125,6.696083068847656,44.343997955322266,-12.949043273925781
1686426036382321200,4.319321044921875,7.0279541015625,44.06608200073242,-13.335174560546875
1686426036392265000,4.329264892578125,7.2618865966796875,43.91807174682617,-13.308738708496094
1686426036402210300,4.339210205078125,7.2618865966796875,43.91807174682617,-13.308738708496094
1686426036412155100,4.349155029296875,7.437446594238281,43.99930953979492,-13.607566833496094
1686426036422100000,4.359099853515625,7.846923828125,43.73677062988281,-13.771392822265625
1686426036432044000,4.3690439453125,7.8426971435546875,44.022254943847656,-14.616874694824219
1686426036441989000,4.378989013671875,7.86865234375,43.77001190185547,-14.934959411621094
1686426036451934200,4.388934326171875,8.363029479980469,43.60076141357422,-15.10699462890625
1686426036461879000,4.398879150390625,8.753219604492188,43.42544174194336,-14.923492431640625
1686426036471823000,4.408822998046875,9.421867370605469,43.41377258300781,-14.981437683105469
1686426036481768200,4.418768310546875,9.860954284667969,43.37713623046875,-14.951873779296875
1686426036491713000,4.428713134765625,10.142486572265625,43.6899528503418,-14.805145263671875
1686426036501658000,4.438658203125,10.519828796386719,43.46926498413086,-14.5416259765625
1686426036511603200,4.448603271484375,10.612907409667969,43.33818435668945,-14.16021728515625
1686426036521547000,4.458547119140625,10.800163269042969,43.297550201416016,-14.105209350585938
1686426036531492400,4.468492431640625,10.421424865722656,43.54048156738281,-13.8173828125
1686426036541437200,4.478437255859375,10.05938720703125,43.84769821166992,-13.113685607910156
1686426036551382000,4.488382080078125,8.562606811523438,44.385528564453125,-12.730751037597656
1686426036561326000,4.498326171875,7.470344543457031,44.451175689697266,-12.092811584472656
1686426036571271200,4.508271240234375,5.9277801513671875,44.911705017089844,-12.217437744140625
1686426036581216000,4.518216064453125,4.9710693359375,44.768489837646484,-12.584747314453125
1686426036591161000,4.5281611328125,4.403358459472656,44.85196304321289,-12.802635192871094
1686426036601105200,4.538105224609375,3.8510894775390625,45.0261344909668,-12.950309753417969
1686426036611050200,4.54805029296875,4.192298889160156,44.85935974121094,-13.060646057128906
1686426036620995000,4.5579951171875,4.913871765136719,44.67615509033203,-13.375869750976562
1686426036630940200,4.567940185546875,6.154533386230469,44.39729690551758,-13.776641845703125
1686426036640885000,4.577885009765625,7.4700164794921875,44.18381881713867,-13.679450988769531
1686426036650829000,4.5878291015625,8.26336669921875,44.09967803955078,-13.278450012207031
1686426036660774100,4.597774169921875,9.18206787109375,44.022361755371094,-12.738983154296875
1686426036670719200,4.60771923828125,9.597015380859375,44.20170593261719,-12.39959716796875
1686426036680664000,4.6176640625,9.599197387695312,44.2010498046875,-11.733566284179688
1686426036690608000,4.627608154296875,9.680671691894531,44.5335693359375,-11.096351623535156
1686426036700553200,4.63755322265625,10.183052062988281,44.63056564331055,-10.018562316894531
1686426036710498000,4.647498046875,10.665214538574219,44.59782791137695,-8.984184265136719
1686426036720443100,4.657443115234375,11.614006042480469,44.47792053222656,-8.166328430175781
1686426036730387200,4.66738720703125,12.410026550292969,44.25812530517578,-7.468269348144531
1686426036740332000,4.67733203125,13.537643432617188,44.20964050292969,-7.027107238769531
1686426036750277400,4.68727734375,14.074810028076172,43.9615478515625,-6.7681121826171875
1686426036760222200,4.69722216796875,14.854389190673828,43.68330764770508,-6.861808776855469
1686426036770167300,4.707167236328125,14.890007019042969,43.88341522216797,-6.938362121582031
1686426036780111400,4.717111328125,15.466747283935547,43.54949951171875,-6.939155578613281
1686426036790056200,4.72705615234375,15.704193115234375,43.390438079833984,-7.075172424316406
1686426036800001000,4.7370009765625,15.88503646850586,43.48845291137695,-7.27593994140625
1686426036809946400,4.7469462890625,15.818439483642578,43.59585952758789,-7.767524719238281
1686426036819891200,4.75689111328125,15.814388275146484,43.1667366027832,-7.514533996582031
1686426036829835300,4.766835205078125,16.007015228271484,43.41747283935547,-7.621818542480469
1686426036839780400,4.7767802734375,15.262439727783203,43.43548583984375,-7.776664733886719
1686426036849725200,4.78672509765625,14.815296173095703,43.67047119140625,-8.635696411132812
1686426036859670300,4.796670166015625,14.240970611572266,43.557159423828125,-9.555557250976562
1686426036869614300,4.8066142578125,13.5836181640625,43.57209014892578,-11.216346740722656
1686426036879559200,4.81655908203125,12.721111297607422,43.17115783691406,-13.051918029785156
1686426036889504300,4.826504150390625,12.152336120605469,42.80449676513672,-15.241294860839844
1686426036899449300,4.836449462890625,11.606491088867188,42.301612854003906,-16.36176300048828
1686426036909393400,4.846393310546875,10.786262512207031,42.358497619628906,-16.942222595214844
1686426036919338200,4.856338134765625,9.252540588378906,42.676231384277344,-16.72533416748047
1686426036929283000,4.866282958984375,7.252616882324219,43.20623779296875,-15.8609619140625
1686426036939228400,4.876228515625,6.193992614746094,43.91277313232422,-13.90252685546875
1686426036949173200,4.88617333984375,4.459686279296875,44.50043869018555,-12.641777038574219
1686426036959117000,4.896116943359375,3.9647369384765625,44.782508850097656,-11.273796081542969
1686426036969062400,4.9060625,4.057731628417969,45.242095947265625,-10.436767578125
1686426036979007200,4.91600732421875,4.47369384765625,45.09968185424805,-9.7308349609375
1686426036988952000,4.9259521484375,4.92755126953125,45.15028762817383,-9.941238403320312
1686426036998896400,4.935896484375,5.8330230712890625,44.92744445800781,-10.389701843261719
1686426037008841200,4.94584130859375,6.406700134277344,44.873809814453125,-10.876693725585938
1686426037018786300,4.955786376953125,6.841667175292969,44.770652770996094,-11.603004455566406
1686426037028731400,4.9657314453125,6.909332275390625,44.54890823364258,-12.085609436035156
1686426037038676200,4.97567626953125,7.4663238525390625,44.207069396972656,-12.676811218261719
1686426037048620300,4.985620361328125,7.7000885009765625,44.24440383911133,-13.078346252441406
1686426037058565000,4.995565185546875,7.9642791748046875,43.76073455810547,-13.484039306640625
1686426037068510200,5.00551025390625,8.718193054199219,43.723480224609375,-13.223869323730469
1686426037078455300,5.015455322265625,8.994491577148438,43.74097442626953,-13.500862121582031
1686426037088399000,5.025399169921875,9.575874328613281,43.48555374145508,-13.295326232910156
1686426037098344400,5.035344482421875,10.801513671875,43.677879333496094,-12.967582702636719
1686426037108289300,5.045289306640625,11.4930419921875,43.5230598449707,-12.726043701171875
1686426037118234000,5.055234130859375,11.786060333251953,43.364192962646484,-12.388076782226562
1686426037128179200,5.06517919921875,12.615345001220703,43.31732940673828,-11.859657287597656
1686426037138123300,5.075123291015625,12.96493911743164,43.46580123901367,-11.527473449707031
1686426037148068000,5.085068115234375,13.670536041259766,43.13079071044922,-10.933570861816406
1686426037158013400,5.095013427734375,13.933544158935547,43.31614685058594,-10.460479736328125
1686426037167958300,5.104958251953125,14.057388305664062,43.209930419921875,-9.526458740234375
1686426037177903000,5.114903076171875,13.481067657470703,43.85699462890625,-9.036064147949219
1686426037187847200,5.12484716796875,13.481067657470703,43.85699462890625,-9.036064147949219
1686426037197792300,5.134792236328125,11.406700134277344,44.60131072998047,-8.739578247070312
1686426037207737000,5.144737060546875,8.297386169433594,45.37905502319336,-8.455574035644531
1686426037217682400,5.154682373046875,5.37506103515625,45.421539306640625,-8.61260986328125
1686426037227626200,5.164626220703125,3.3819732666015625,45.331424713134766,-9.457084655761719
1686426037237571300,5.1745712890625,3.6966781616210938,44.84208679199219,-11.239097595214844
1686426037247516200,5.18451611328125,5.3025360107421875,44.791893005371094,-12.629531860351562
1686426037257461200,5.194461181640625,7.651069641113281,43.759220123291016,-13.516899108886719
1686426037267406300,5.20440625,10.026840209960938,43.42436599731445,-14.046661376953125
1686426037277350100,5.21435009765625,12.073501586914062,42.899715423583984,-14.014564514160156
1686426037287295200,5.224295166015625,13.022384643554688,42.85142517089844,-13.424110412597656
1686426037297240300,5.234240234375,13.521507263183594,42.62009048461914,-12.826286315917969
1686426037307185200,5.24418505859375,14.225475311279297,43.191986083984375,-12.441009521484375
1686426037317129200,5.254129150390625,13.86062240600586,42.716819763183594,-11.637687683105469
1686426037327074300,5.26407421875,13.794540405273438,42.962310791015625,-11.274162292480469
1686426037337019100,5.27401904296875,14.274635314941406,42.99678039550781,-10.634910583496094
1686426037346964500,5.283964599609375,14.42629623413086,43.26991653442383,-9.915504455566406
1686426037356909300,5.293909423828125,14.968887329101562,43.13203048706055,-8.968315124511719
1686426037366853000,5.30385302734375,15.351688385009766,43.35523223876953,-8.393577575683594
1686426037376798200,5.313798095703125,15.72283935546875,43.26136779785156,-7.685783386230469
1686426037386743300,5.323743408203125,16.092945098876953,43.26649475097656,-7.405548095703125
1686426037396688100,5.333688232421875,16.449119567871094,42.99953079223633,-7.199798583984375
1686426037406632200,5.343632080078125,16.72412109375,42.98530197143555,-7.079315185546875
1686426037416577300,5.353577392578125,17.12283706665039,42.80895233154297,-6.850311279296875
1686426037426522400,5.3635224609375,17.581634521484375,42.953330993652344,-6.734367370605469
1686426037436467200,5.37346728515625,18.08526611328125,42.6751823425293,-6.7885894775390625
1686426037446412300,5.383412353515625,17.990276336669922,42.9451789855957,-6.988761901855469
1686426037456356400,5.3933564453125,17.753520965576172,42.66368103027344,-6.8201446533203125
1686426037466301200,5.40330126953125,17.752323150634766,43.052452087402344,-7.064506530761719
1686426037476246300,5.413246337890625,17.63213348388672,42.870506286621094,-7.2069854736328125
1686426037486191400,5.42319140625,17.3289794921875,43.02650833129883,-7.658134460449219
1686426037496136200,5.43313623046875,16.210765838623047,43.11595916748047,-8.124343872070312
1686426037506080300,5.443080322265625,15.155956268310547,43.344696044921875,-9.544204711914062
1686426037516025300,5.453025390625,13.309463500976562,43.390289306640625,-11.265312194824219
1686426037525970200,5.46297021484375,12.073326110839844,43.14420700073242,-13.150169372558594
1686426037535915300,5.472915283203125,10.734100341796875,42.788063049316406,-14.847221374511719
1686426037545859300,5.482859375,9.833442687988281,42.59041976928711,-16.11363983154297
1686426037555804200,5.49280419921875,9.002960205078125,42.5449104309082,-16.158348083496094
1686426037565749200,5.502749267578125,7.751068115234375,43.204437255859375,-15.754142761230469
1686426037575694300,5.5126943359375,6.1215057373046875,43.63774490356445,-14.873138427734375
1686426037585639200,5.52263916015625,4.71234130859375,44.593509674072266,-13.515335083007812
1686426037595583200,5.532583251953125,4.0071868896484375,44.52113342285156,-12.252799987792969
1686426037605528300,5.5425283203125,3.739715576171875,44.98298645019531,-11.269630432128906
1686426037615473200,5.55247314453125,4.716209411621094,44.95125198364258,-10.380393981933594
1686426037625418200,5.562418212890625,4.961158752441406,45.17279815673828,-9.806800842285156
1686426037635363300,5.57236328125,5.531852722167969,44.93093490600586,-10.235000610351562
1686426037645307400,5.582307373046875,5.9489288330078125,45.105567932128906,-10.602020263671875
1686426037655252200,5.592252197265625,6.3136444091796875,44.76471710205078,-11.140846252441406
1686426037665197000,5.602197021484375,6.803825378417969,44.74338912963867,-11.73089599609375
1686426037675142400,5.612142333984375,6.848899841308594,44.405975341796875,-12.060325622558594
1686426037685086200,5.622086181640625,6.972343444824219,44.257080078125,-12.654518127441406
1686426037695031000,5.632031005859375,7.442420959472656,44.27497863769531,-12.903961181640625
1686426037704976400,5.641976318359375,7.9014129638671875,43.89999008178711,-13.195594787597656
1686426037714921200,5.651921142578125,8.710952758789062,44.059242248535156,-13.128494262695312
1686426037724866000,5.661865966796875,9.115180969238281,43.89067077636719,-12.974868774414062
1686426037734810600,5.671810546875,10.116676330566406,43.53850555419922,-12.6766357421875
1686426037744755700,5.681755615234375,11.142524719238281,43.511653900146484,-12.288314819335938
1686426037754700500,5.691700439453125,12.732879638671875,43.138206481933594,-12.226531982421875
1686426037764645600,5.701645751953125,13.184288024902344,43.03947448730469,-11.566024780273438
1686426037774590700,5.7115908203125,14.242324829101562,42.77734375,-11.410026550292969
1686426037784534800,5.72153466796875,15.102462768554688,43.00639343261719,-10.662681579589844
1686426037794479600,5.731479736328125,15.685432434082031,42.69459533691406,-10.298164367675781
1686426037804424700,5.7414248046875,15.835445404052734,42.675533294677734,-9.846580505371094
1686426037814369800,5.751369873046875,15.901622772216797,42.72486114501953,-9.447624206542969
1686426037824313600,5.761313720703125,14.922164916992188,43.16017150878906,-9.148185729980469
1686426037834258400,5.771258544921875,12.633102416992188,43.74395751953125,-8.764564514160156
1686426037844203800,5.781203857421875,9.719718933105469,44.6065788269043,-8.651268005371094
1686426037854148600,5.791148681640625,6.787109375,45.083290100097656,-8.950889587402344
1686426037864093400,5.801093505859375,4.518592834472656,45.174461364746094,-9.882232666015625
1686426037874037800,5.811037841796875,3.99395751953125,44.81896209716797,-11.375709533691406
1686426037883982600,5.820982666015625,5.230415344238281,44.28863525390625,-12.871040344238281
1686426037893927700,5.830927734375,8.055770874023438,43.656333923339844,-13.502662658691406
1686426037903872800,5.840872802734375,10.201797485351562,43.109500885009766,-13.803520202636719
1686426037913817600,5.850817626953125,12.771366119384766,42.51736831665039,-13.770172119140625
1686426037923761700,5.86076171875,14.168216705322266,42.154876708984375,-13.404914855957031
1686426037933706800,5.870706787109375,15.246101379394531,42.10108184814453,-12.401321411132812
1686426037943651600,5.880651611328125,15.31606674194336,42.256431579589844,-11.840858459472656
1686426037953596700,5.8905966796875,15.391399383544922,42.356117248535156,-10.704910278320312
1686426037963540500,5.90054052734375,15.090633392333984,42.80558776855469,-9.945053100585938
1686426037973485800,5.91048583984375,15.090633392333984,42.80558776855469,-9.945053100585938
1686426037983430700,5.9204306640625,14.998703002929688,42.92387008666992,-9.194320678710938
1686426037993375700,5.930375732421875,14.297428131103516,43.41692352294922,-8.528175354003906
1686426038003320600,5.940320556640625,14.369209289550781,43.63857650756836,-7.851036071777344
1686426038013264600,5.9502646484375,14.882911682128906,43.822174072265625,-7.233650207519531
1686426038023209500,5.96020947265625,14.97360610961914,43.86225509643555,-6.7250518798828125
1686426038033154800,5.97015478515625,15.473884582519531,43.552490234375,-6.169609069824219
1686426038043099600,5.980099609375,15.771045684814453,43.477516174316406,-6.013893127441406
1686426038053044500,5.99004443359375,16.540008544921875,43.374549865722656,-6.0940399169921875
1686426038062988800,5.99998876953125,16.997344970703125,42.85622787475586,-5.8646240234375
1686426038072933600,6.00993359375,16.920703887939453,42.988704681396484,-5.875022888183594
1686426038082878500,6.01987841796875,17.75408172607422,42.86752700805664,-5.927879333496094
1686426038092823800,6.02982373046875,17.56566619873047,42.91652297973633,-6.330802917480469
1686426038102768600,6.0397685546875,17.451404571533203,42.646881103515625,-6.549568176269531
1686426038112712700,6.049712646484375,17.06085968017578,43.01105880737305,-7.055564880371094
1686426038122657800,6.05965771484375,16.83475112915039,43.12866973876953,-7.480461120605469
1686426038132602600,6.0696025390625,16.387073516845703,43.003692626953125,-8.658485412597656
1686426038142547700,6.079547607421875,14.923835754394531,43.354347229003906,-10.069999694824219
1686426038152491500,6.089491455078125,13.396430969238281,43.398406982421875,-11.944503784179688
1686426038162436600,6.0994365234375,12.30682373046875,42.99873733520508,-13.474472045898438
1686426038172381700,6.109381591796875,11.396018981933594,42.90107727050781,-15.283958435058594
1686426038182326500,6.119326416015625,10.333038330078125,42.54442596435547,-16.488548278808594
1686426038192271600,6.129271728515625,9.536468505859375,42.50697708129883,-16.576370239257812
1686426038202215700,6.139215576171875,8.311424255371094,42.49934005737305,-16.200111389160156
1686426038212160500,6.149160400390625,7.033180236816406,43.343868255615234,-15.303741455078125
1686426038222105900,6.15910595703125,5.316490173339844,43.94039535522461,-13.757400512695312
1686426038232050700,6.16905078125,4.960685729980469,44.224342346191406,-12.66876220703125
1686426038241995500,6.17899560546875,4.1417083740234375,44.41261291503906,-11.857749938964844
1686426038251939800,6.18893994140625,4.631828308105469,44.76441192626953,-11.204612731933594
1686426038261884700,6.198884765625,4.948646545410156,45.0201416015625,-10.617973327636719
1686426038271829500,6.20882958984375,5.092536926269531,45.103057861328125,-10.577888488769531
1686426038281774800,6.21877490234375,5.354583740234375,44.8714714050293,-11.100242614746094
1686426038291719700,6.2287197265625,5.740745544433594,44.8748893737793,-11.789512634277344
1686426038301663700,6.238663818359375,6.010597229003906,44.44192886352539,-12.481269836425781
1686426038311608600,6.248608642578125,6.5860748291015625,44.23541259765625,-12.932044982910156
1686426038321553700,6.2585537109375,7.0845184326171875,43.947021484375,-13.109291076660156
1686426038331498500,6.26849853515625,7.9108123779296875,43.812469482421875,-13.264999389648438
1686426038341442600,6.278442626953125,8.563980102539062,43.56521987915039,-13.534294128417969
1686426038351387600,6.2883876953125,9.042922973632812,43.411624908447266,-13.474739074707031
1686426038361332700,6.298332763671875,9.835464477539062,43.38719177246094,-13.340972900390625
1686426038371277600,6.308277587890625,10.689956665039062,43.433712005615234,-13.182212829589844
1686426038381222700,6.31822265625,11.569206237792969,43.296302795410156,-12.764892578125
1686426038391166700,6.328166748046875,12.519699096679688,43.30363082885742,-12.17724609375
1686426038401111600,6.338111572265625,13.361747741699219,43.06438446044922,-11.985641479492188
1686426038411056600,6.348056640625,14.063606262207031,43.182247161865234,-11.587554931640625
1686426038421001700,6.358001708984375,14.611309051513672,43.01082229614258,-11.188133239746094
1686426038430946600,6.367946533203125,15.332870483398438,42.72429275512695,-10.97882080078125
1686426038440890600,6.377890625,15.579845428466797,42.74656677246094,-10.487533569335938
1686426038450835700,6.387835693359375,15.725761413574219,42.44927978515625,-10.083198547363281
1686426038460780500,6.397780517578125,15.041812896728516,42.99492263793945,-9.7620849609375
1686426038470726000,6.407725830078125,13.25534439086914,43.476539611816406,-9.382026672363281
1686426038480670700,6.417670654296875,10.500328063964844,44.539344787597656,-8.944961547851562
1686426038490614500,6.427614501953125,7.075050354003906,44.68218231201172,-9.044326782226562
1686426038500559600,6.4375595703125,3.87445068359375,45.17008590698242,-9.503761291503906
1686426038510504700,6.447504638671875,2.5839080810546875,45.191810607910156,-10.467185974121094
1686426038520449500,6.457449462890625,3.3946151733398438,45.170188903808594,-10.963401794433594
1686426038530394600,6.46739453125,5.161285400390625,44.708717346191406,-11.521354675292969
1686426038540338700,6.477338623046875,7.823249816894531,44.24823760986328,-12.076118469238281
1686426038550283800,6.48728369140625,10.478744506835938,43.62477493286133,-12.604507446289062
1686426038560228600,6.497228515625,12.926078796386719,42.930809020996094,-12.779441833496094
1686426038570173700,6.507173583984375,14.459564208984375,42.620426177978516,-12.422607421875
1686426038580118800,6.517118896484375,14.993324279785156,42.733192443847656,-12.56231689453125
1686426038590062600,6.5270625,14.455707550048828,42.83433151245117,-11.937751770019531
1686426038600007700,6.537007568359375,13.988456726074219,43.068634033203125,-11.283096313476562
1686426038609952800,6.546952880859375,13.71780014038086,43.12698745727539,-10.495079040527344
1686426038619897600,6.556897705078125,13.269233703613281,43.758331298828125,-10.005607604980469
1686426038629841700,6.566841552734375,13.62655258178711,43.73778533935547,-9.2913818359375
1686426038639786800,6.576786865234375,14.155502319335938,43.973419189453125,-8.616233825683594
1686426038649731600,6.586731689453125,14.121192932128906,43.813026428222656,-7.840751647949219
1686426038659676700,6.5966767578125,14.778373718261719,43.84658432006836,-7.476318359375
1686426038669621800,6.606621826171875,15.560192108154297,43.52253341674805,-6.924957275390625
1686426038679565600,6.616565673828125,16.15900421142578,43.44267272949219,-6.861778259277344
1686426038689510700,6.6265107421875,16.648330688476562,43.08953857421875,-6.522636413574219
1686426038699455700,6.636455810546875,17.00783920288086,42.994598388671875,-6.8060302734375
1686426038709400600,6.646400634765625,17.058055877685547,42.92582702636719,-6.6650543212890625
1686426038719345700,6.656345703125,17.053112030029297,42.953102111816406,-7.049095153808594
1686426038729289700,6.666289794921875,17.177764892578125,42.93376159667969,-6.865966796875
1686426038739234600,6.676234619140625,16.997390747070312,42.81096649169922,-6.86151123046875
1686426038749179600,6.6861796875,17.132999420166016,42.4748420715332,-7.166290283203125
1686426038759124700,6.696124755859375,17.12250518798828,42.79936981201172,-7.570747375488281
1686426038769069600,6.706069580078125,17.12250518798828,42.79936981201172,-7.570747375488281
1686426038779013600,6.716013671875,16.855918884277344,42.726627349853516,-8.065528869628906
1686426038788958500,6.72595849609375,16.348983764648438,42.91710662841797,-9.165740966796875
1686426038798903800,6.73590380859375,15.601325988769531,42.847530364990234,-10.435127258300781
1686426038808848600,6.7458486328125,14.110382080078125,42.93381118774414,-12.462196350097656
1686426038818793700,6.755793701171875,13.028911590576172,42.34836959838867,-14.307601928710938
1686426038828737800,6.76573779296875,12.57382583618164,42.17848205566406,-16.095916748046875
1686426038838682600,6.7756826171875,11.572662353515625,41.71133041381836,-16.789695739746094
1686426038848627500,6.78562744140625,10.650115966796875,41.72130584716797,-17.3087158203125
1686426038858572800,6.79557275390625,8.899856567382812,41.93294906616211,-17.284225463867188
1686426038868517600,6.805517578125,7.483428955078125,42.67964553833008,-16.58753204345703
1686426038878461700,6.815461669921875,5.974235534667969,43.46299362182617,-15.335197448730469
1686426038888406800,6.82540673828125,5.5286712646484375,43.99295425415039,-13.799163818359375
1686426038898351600,6.8353515625,5.18658447265625,44.25911331176758,-12.819587707519531
1686426038908296700,6.845296630859375,5.610313415527344,44.52067565917969,-11.921257019042969
1686426038918240500,6.855240478515625,5.522247314453125,44.63115310668945,-11.616851806640625
1686426038928185600,6.865185546875,5.971595764160156,44.39979553222656,-11.509048461914062
1686426038938130700,6.875130615234375,6.748207092285156,44.07544708251953,-11.794570922851562
1686426038948075800,6.88507568359375,7.430931091308594,44.43087387084961,-12.180213928222656
1686426038958020600,6.8950205078125,7.623146057128906,43.87539291381836,-12.576095581054688
1686426038967964700,6.904964599609375,7.829002380371094,43.90862274169922,-12.834861755371094
1686426038977909500,6.914909423828125,8.627891540527344,43.60497283935547,-13.076370239257812
1686426038987854600,6.9248544921875,8.979248046875,43.287628173828125,-13.36358642578125
1686426038997799700,6.934799560546875,9.769020080566406,43.211639404296875,-13.4232177734375
1686426039007744500,6.94474462890625,10.691360473632812,43.11616516113281,-13.687576293945312
1686426039017688800,6.954688720703125,11.428115844726562,42.89891052246094,-13.560508728027344
1686426039027633700,6.964633544921875,12.246345520019531,42.88491439819336,-13.413124084472656
1686426039037578500,6.97457861328125,13.158271789550781,42.69208526611328,-12.924919128417969
1686426039047523800,6.98452392578125,14.066181182861328,42.59667205810547,-12.641319274902344
1686426039057468700,6.99446875,14.608997344970703,42.5356330871582,-12.146926879882812
1686426039067412700,7.004412841796875,15.538185119628906,42.356231689453125,-11.591079711914062
1686426039077357800,7.01435791015625,16.364303588867188,42.201759338378906,-11.155075073242188
1686426039087302700,7.024302734375,16.675682067871094,42.24341583251953,-10.959014892578125
1686426039097247500,7.03424755859375,16.89968490600586,42.24393081665039,-10.396080017089844
1686426039107192800,7.04419287109375,16.13739013671875,42.4936408996582,-10.18023681640625
1686426039117136600,7.05413671875,14.868766784667969,42.88922882080078,-9.843986511230469
1686426039127081700,7.064081787109375,12.512718200683594,43.683250427246094,-9.802780151367188
1686426039137026600,7.074026611328125,9.555152893066406,44.48128890991211,-9.680648803710938
1686426039146971600,7.0839716796875,6.247528076171875,45.045677185058594,-9.395278930664062
1686426039156916700,7.093916748046875,3.4174346923828125,45.1834716796875,-9.978767395019531
1686426039166860500,7.103860595703125,2.7688522338867188,45.222110748291016,-11.539680480957031
1686426039176805600,7.1138056640625,4.236907958984375,44.613037109375,-12.71014404296875
1686426039186750700,7.123750732421875,6.376213073730469,44.19084930419922,-13.450004577636719
1686426039196695600,7.133695556640625,8.6351318359375,43.532169342041016,-13.927696228027344
1686426039206640600,7.143640625,11.084121704101562,43.04070281982422,-14.019294738769531
1686426039216584700,7.153584716796875,13.30733871459961,42.420143127441406,-14.154914855957031
1686426039226529500,7.163529541015625,14.648448944091797,41.77755355834961,-13.540779113769531
1686426039236475000,7.173474853515625,15.113231658935547,42.01686477661133,-13.229217529296875
1686426039246419700,7.183419677734375,15.070693969726562,42.362491607666016,-13.1787109375
1686426039256364500,7.193364501953125,14.09341812133789,42.75298309326172,-12.79931640625
1686426039266308600,7.20330859375,13.522869110107422,42.979469299316406,-12.540664672851562
1686426039276253700,7.213253662109375,12.894439697265625,43.3416862487793,-11.912910461425781
1686426039286198500,7.223198486328125,12.535160064697266,43.92319107055664,-11.3446044921875
1686426039296144000,7.233143798828125,12.9581298828125,43.898048400878906,-10.746818542480469
1686426039306088700,7.243088623046875,12.983684539794922,43.794654846191406,-9.863540649414062
1686426039316032800,7.25303271484375,14.114967346191406,43.501747131347656,-9.054023742675781
1686426039325977600,7.2629775390625,14.833789825439453,43.551300048828125,-8.888504028320312
1686426039335922700,7.272922607421875,15.734794616699219,43.21738815307617,-8.515129089355469
1686426039345867500,7.282867431640625,16.824466705322266,43.275089263916016,-8.275993347167969
1686426039355811600,7.2928115234375,17.12060546875,43.14678955078125,-8.145599365234375
1686426039365756700,7.302756591796875,17.546340942382812,43.1469612121582,-8.221473693847656
1686426039375701800,7.31270166015625,17.93584442138672,42.95435333251953,-8.132888793945312
1686426039385646600,7.322646484375,17.69283676147461,43.081275939941406,-8.265480041503906
1686426039395591700,7.332591796875,17.966087341308594,43.0679931640625,-8.338577270507812
1686426039405535700,7.34253564453125,17.313274383544922,43.151695251464844,-8.801727294921875
1686426039415480600,7.35248046875,16.626880645751953,43.16990661621094,-9.011688232421875
1686426039425425700,7.36242578125,16.262664794921875,43.33159255981445,-9.609703063964844
1686426039435370800,7.372370849609375,15.599723815917969,43.30839157104492,-10.640541076660156
1686426039445315600,7.382315673828125,14.307167053222656,43.4905891418457,-12.244491577148438
1686426039455259600,7.392259765625,12.55621337890625,43.324913024902344,-14.071258544921875
1686426039465204700,7.402204833984375,11.247459411621094,43.268653869628906,-15.585594177246094
1686426039475149600,7.412149658203125,10.204460144042969,42.89036178588867,-16.633270263671875
1686426039485094700,7.4220947265625,8.789558410644531,42.99711990356445,-17.63690185546875
1686426039495039700,7.432039794921875,7.489067077636719,43.182586669921875,-17.442459106445312
1686426039504983600,7.441983642578125,6.373077392578125,43.959999084472656,-16.404396057128906
1686426039514928600,7.4519287109375,4.972908020019531,44.61162185668945,-15.281005859375
1686426039524873700,7.461873779296875,4.667869567871094,44.9824104309082,-13.873237609863281
1686426039534818600,7.471818603515625,4.353569030761719,45.256187438964844,-12.41571044921875
1686426039544763600,7.481763671875,4.787986755371094,45.701541900634766,-11.2255859375
1686426039554707700,7.491707763671875,4.787986755371094,45.701541900634766,-11.2255859375
1686426039564652800,7.50165283203125,5.0309295654296875,45.63534164428711,-10.628936767578125
1686426039574597600,7.51159765625,4.3807373046875,45.72005081176758,-10.064094543457031
1686426039584542700,7.521542724609375,4.399711608886719,45.678836822509766,-10.092521667480469
1686426039594487600,7.531487548828125,4.8356475830078125,45.61485290527344,-10.687026977539062
1686426039604431600,7.541431640625,5.370018005371094,45.229068756103516,-11.354896545410156
1686426039614376400,7.55137646484375,5.796760559082031,45.16360092163086,-11.894134521484375
1686426039624321800,7.56132177734375,6.246452331542969,44.75660705566406,-12.463722229003906
1686426039634266600,7.5712666015625,6.505668640136719,44.70650100708008,-12.630882263183594
1686426039644211700,7.581211669921875,6.927772521972656,44.352294921875,-12.877876281738281
1686426039654155800,7.59115576171875,7.632041931152344,44.08905029296875,-13.057235717773438
1686426039664100600,7.6011005859375,8.242073059082031,44.00929641723633,-13.059677124023438
1686426039674045400,7.61104541015625,9.182830810546875,43.86308288574219,-12.773811340332031
1686426039683990800,7.62099072265625,10.061241149902344,43.81117248535156,-12.700950622558594
1686426039693935600,7.630935546875,11.341331481933594,43.58943176269531,-12.422889709472656
1686426039703879700,7.640879638671875,12.153640747070312,43.546714782714844,-11.992240905761719
1686426039713824800,7.65082470703125,12.800445556640625,43.61764907836914,-11.451507568359375
1686426039723769600,7.66076953125,13.615249633789062,43.2956428527832,-10.922088623046875
1686426039733714700,7.670714599609375,14.326709747314453,42.971771240234375,-10.437629699707031
1686426039743659800,7.68065966796875,14.82259750366211,42.94007873535156,-9.93536376953125
1686426039753603600,7.690603515625,15.27468490600586,43.040218353271484,-9.436134338378906
1686426039763549000,7.700548828125,14.351619720458984,43.426666259765625,-9.198898315429688
1686426039773493800,7.71049365234375,13.035591125488281,44.15843963623047,-8.567237854003906
1686426039783438600,7.7204384765625,10.230232238769531,44.741455078125,-8.217552185058594
1686426039793384000,7.730384033203125,6.853233337402344,45.04475402832031,-8.327552795410156
1686426039803327700,7.74032763671875,3.4556121826171875,45.28279495239258,-8.802543640136719
1686426039813272800,7.75027294921875,1.8100509643554688,44.814788818359375,-10.065841674804688
1686426039823217700,7.7602177734375,2.264556884765625,44.742740631103516,-11.194419860839844
1686426039833162800,7.770162841796875,4.411155700683594,44.355979919433594,-11.9090576171875
1686426039843107600,7.780107666015625,6.959228515625,44.1175537109375,-12.435134887695312
1686426039853051600,7.7900517578125,9.788543701171875,43.402137756347656,-12.490989685058594
1686426039862996700,7.799996826171875,11.909442901611328,43.245704650878906,-12.182418823242188
1686426039872941800,7.80994189453125,13.324241638183594,42.733734130859375,-11.679176330566406
1686426039882886700,7.81988671875,14.60611343383789,42.9503059387207,-10.973197937011719
1686426039892831700,7.829831787109375,14.89144515991211,43.087974548339844,-10.238433837890625
1686426039902775800,7.83977587890625,14.391471862792969,43.15666961669922,-10.031501770019531
1686426039912720600,7.849720703125,13.889167785644531,43.47802734375,-9.705322265625
1686426039922665700,7.859665771484375,12.910663604736328,44.040897369384766,-9.054611206054688
1686426039932610800,7.86961083984375,12.234798431396484,44.36778259277344,-8.477729797363281
1686426039942555600,7.8795556640625,11.570343017578125,44.76600646972656,-7.98486328125
1686426039952499700,7.889499755859375,11.583183288574219,44.697059631347656,-7.4654998779296875
1686426039962444800,7.89944482421875,12.3231201171875,44.87290954589844,-6.902259826660156
1686426039972389600,7.9093896484375,12.658863067626953,44.79124450683594,-6.5521392822265625
1686426039982335000,7.9193349609375,13.42031478881836,44.82312774658203,-6.092262268066406
1686426039992279800,7.92927978515625,14.065494537353516,44.620201110839844,-5.45318603515625
1686426040002223600,7.9392236328125,14.679035186767578,44.31503677368164,-5.53155517578125
1686426040012168700,7.949168701171875,15.506290435791016,43.98276901245117,-5.465782165527344
1686426040022113800,7.95911376953125,16.12181854248047,44.08300018310547,-5.349853515625
1686426040032058600,7.96905859375,16.234554290771484,43.86585235595703,-5.410408020019531
1686426040042003700,7.979003662109375,16.485515594482422,43.797203063964844,-5.542839050292969
1686426040051947800,7.98894775390625,16.448001861572266,43.54967498779297,-5.677848815917969
1686426040061892900,7.998892822265625,16.70553970336914,43.499298095703125,-5.8150177001953125
1686426040071837700,8.008837646484375,16.10714340209961,43.43104934692383,-6.395263671875
1686426040081782800,8.01878271484375,14.979141235351562,43.83687973022461,-7.693412780761719
1686426040091727600,8.0287275390625,13.45938491821289,43.91795349121094,-9.144027709960938
1686426040101671700,8.038671630859374,12.457633972167969,43.91205596923828,-11.599540710449219
1686426040111616800,8.04861669921875,11.621757507324219,43.684242248535156,-13.370170593261719
1686426040121561900,8.058561767578125,11.221900939941406,43.45591735839844,-14.866874694824219
1686426040131506700,8.068506591796876,10.421875,43.00659942626953,-15.536163330078125
1686426040141451800,8.07845166015625,9.349151611328125,43.268104553222656,-15.260772705078125
1686426040151395800,8.088395751953126,8.007904052734375,43.68125534057617,-14.547111511230469
1686426040161340700,8.098340576171875,6.323028564453125,44.56791687011719,-13.463829040527344
1686426040171285500,8.108285400390624,5.394538879394531,44.83334732055664,-12.152427673339844
1686426040181230800,8.11823095703125,5.007057189941406,45.15335464477539,-11.013900756835938
1686426040191175700,8.12817578125,5.032417297363281,45.28874969482422,-9.8900146484375
1686426040201120800,8.138120849609376,5.3493804931640625,45.58072280883789,-9.012832641601562
1686426040211064800,8.14806494140625,5.469062805175781,45.56475830078125,-8.75897216796875
1686426040221009700,8.158009765625,5.4786529541015625,45.19577407836914,-9.118057250976562
1686426040230954800,8.167954833984375,6.213768005371094,44.964393615722656,-9.935935974121094
1686426040240899800,8.17789990234375,6.901054382324219,45.09443664550781,-10.514114379882812
1686426040250843600,8.18784375,7.687385559082031,44.7474479675293,-10.9686279296875
1686426040260788700,8.197788818359374,7.52435302734375,44.61735153198242,-11.584091186523438
1686426040270733800,8.20773388671875,7.92340087890625,44.29703140258789,-11.810356140136719
1686426040280678700,8.2176787109375,8.405952453613281,44.43314743041992,-11.957374572753906
1686426040290623700,8.227623779296875,8.640693664550781,43.994815826416016,-12.128402709960938
1686426040300568800,8.23756884765625,9.151634216308594,43.955142974853516,-12.284614562988281
1686426040310513000,8.247512939453125,9.780075073242188,43.801918029785156,-12.172988891601562
1686426040320457700,8.257457763671875,10.57904052734375,43.729949951171875,-12.015617370605469
1686426040330402800,8.26740283203125,10.57904052734375,43.729949951171875,-12.015617370605469
1686426040340347600,8.27734765625,11.841453552246094,43.77448272705078,-11.539421081542969
1686426040350292700,8.287292724609374,12.40234375,43.85055923461914,-11.154624938964844
1686426040360236500,8.297236572265625,13.629310607910156,43.41645812988281,-10.927734375
1686426040370182000,8.307181884765624,14.542373657226562,43.13311767578125,-10.29034423828125
1686426040380126700,8.317126708984375,15.371902465820312,43.06279373168945,-9.688911437988281
1686426040390071600,8.327071533203124,15.91262435913086,43.01081848144531,-9.4632568359375
1686426040400017000,8.337016845703126,16.428878784179688,42.86368942260742,-9.006141662597656
1686426040409960700,8.346960693359375,16.303226470947266,43.06149673461914,-8.543601989746094
1686426040419905500,8.356905517578125,14.974048614501953,43.95625305175781,-8.331855773925781
1686426040429851000,8.366850830078125,11.899642944335938,44.79689025878906,-7.8883056640625
1686426040439795700,8.376795654296876,8.496833801269531,45.48127746582031,-7.74517822265625
1686426040449740500,8.386740478515625,5.158775329589844,45.592018127441406,-8.330223083496094
1686426040459684900,8.396684814453126,3.2927932739257812,45.62808609008789,-9.397087097167969
1686426040469629700,8.406629638671875,4.295021057128906,45.3740234375,-10.495124816894531
1686426040479574800,8.41657470703125,7.247810363769531,44.85928726196289,-11.366661071777344
1686426040489519900,8.426519775390625,9.840484619140625,44.2316780090332,-12.00750732421875
1686426040499464700,8.436464599609375,12.409400939941406,43.66160583496094,-12.01171875
1686426040509408800,8.44640869140625,14.57177734375,42.958885192871094,-11.565391540527344
1686426040519353600,8.456353515625,16.507389068603516,42.45172882080078,-10.732498168945312
1686426040529298700,8.466298583984376,17.015853881835938,42.40382385253906,-10.028167724609375
1686426040539243800,8.476243896484375,16.563682556152344,42.54039001464844,-9.471214294433594
1686426040549188900,8.48618896484375,15.728473663330078,42.73905944824219,-9.337852478027344
1686426040559133000,8.4961328125,15.207439422607422,43.001609802246094,-8.982391357421875
1686426040569077800,8.506077880859374,14.579826354980469,43.58802795410156,-8.551445007324219
1686426040579022600,8.516022705078125,14.278266906738281,43.85817337036133,-7.8690185546875
1686426040588967700,8.5259677734375,14.249629974365234,44.2566032409668,-6.9378662109375
1686426040598912800,8.535912841796875,14.456130981445312,43.96289825439453,-6.336860656738281
1686426040608856600,8.545856689453124,14.836322784423828,44.00980758666992,-6.0461273193359375
1686426040618802000,8.555802001953126,15.670585632324219,43.60221481323242,-5.835487365722656
1686426040628746800,8.565746826171875,16.449413299560547,43.50646209716797,-5.585716247558594
1686426040638691600,8.575691650390626,17.141807556152344,43.156158447265625,-5.444831848144531
1686426040648637000,8.585636962890625,17.338573455810547,42.9840087890625,-5.465919494628906
1686426040658580700,8.595580810546876,17.960819244384766,42.65593719482422,-5.673866271972656
1686426040668525600,8.605525634765625,18.431697845458984,42.435951232910156,-5.832908630371094
1686426040678471000,8.615470947265624,18.180347442626953,42.500709533691406,-5.883766174316406
1686426040688415700,8.625415771484375,18.245525360107422,42.780391693115234,-5.9766387939453125
1686426040698360600,8.635360595703125,18.168994903564453,42.8203010559082,-6.1429901123046875
1686426040708304600,8.6453046875,17.52731704711914,43.133583068847656,-6.611534118652344
1686426040718249700,8.655249755859375,16.623851776123047,43.30497741699219,-7.0241241455078125
1686426040728194800,8.66519482421875,15.729724884033203,43.574119567871094,-7.777870178222656
1686426040738140000,8.675139892578125,14.481422424316406,43.80029296875,-8.91571044921875
1686426040748084700,8.685084716796876,12.692394256591797,44.000633239746094,-10.324676513671875
1686426040758029000,8.695029052734375,11.142776489257812,43.8558464050293,-12.10528564453125
1686426040767974000,8.704973876953124,10.637092590332031,43.47844696044922,-13.682807922363281
1686426040777918700,8.714918701171875,9.84454345703125,43.20990753173828,-14.760780334472656
1686426040787864000,8.724864013671874,8.975334167480469,43.33080291748047,-15.319656372070312
1686426040797809000,8.734808837890625,7.9439239501953125,43.50120544433594,-15.212120056152344
1686426040807753700,8.744753662109375,6.9207000732421875,44.10456085205078,-14.283737182617188
1686426040817697800,8.75469775390625,6.322784423828125,44.377899169921875,-13.047004699707031
1686426040827643000,8.764642822265625,6.447807312011719,44.64195251464844,-12.168006896972656
1686426040837587700,8.774587646484376,6.396781921386719,44.81638717651367,-11.027679443359375
1686426040847533000,8.784532958984375,6.6246185302734375,44.97281265258789,-10.452545166015625
1686426040857478000,8.794477783203124,7.0023040771484375,45.12738800048828,-10.133705139160156
1686426040867422000,8.804421875,7.1747894287109375,44.859107971191406,-10.586021423339844
1686426040877366800,8.81436669921875,7.453788757324219,44.67163848876953,-10.872268676757812
1686426040887312000,8.824311767578125,8.295234680175781,44.27447509765625,-11.490646362304688
1686426040897257000,8.834257080078125,8.918632507324219,44.21053695678711,-12.070388793945312
1686426040907201800,8.844201904296876,9.197746276855469,44.11395263671875,-12.307792663574219
1686426040917145900,8.854145751953125,9.83148193359375,43.91999435424805,-12.422286987304688
1686426040927091000,8.864091064453126,10.691184997558594,43.749149322509766,-12.714035034179688
1686426040937035800,8.874035888671875,11.307235717773438,43.44893264770508,-12.786918640136719
1686426040946980900,8.88398095703125,12.139549255371094,43.08667755126953,-12.636528015136719
1686426040956926000,8.893926025390625,13.022079467773438,42.86528396606445,-12.403572082519531
1686426040966869800,8.903869873046874,14.028423309326172,42.771236419677734,-12.081520080566406
1686426040976815000,8.913815185546875,14.956504821777344,42.656585693359375,-11.634498596191406
1686426040986760000,8.923760009765624,16.029857635498047,42.350433349609375,-11.113838195800781
1686426040996704800,8.933704833984375,16.87057876586914,42.181373596191406,-10.713920593261719
1686426041006649900,8.94364990234375,17.37146759033203,42.26409912109375,-10.069313049316406
1686426041016594000,8.953593994140626,17.72583770751953,42.068939208984375,-9.455902099609375
1686426041026538800,8.963538818359375,18.046512603759766,42.055442810058594,-9.153030395507812
1686426041036483800,8.97348388671875,18.348674774169922,42.308326721191406,-8.943008422851562
1686426041046429000,8.983428955078125,17.63730239868164,42.65205383300781,-8.584426879882812
1686426041056373800,8.993373779296874,15.909286499023438,43.17476272583008,-8.425636291503906
1686426041066318800,9.00331884765625,13.3648681640625,43.766700744628906,-8.028480529785156
1686426041076263000,9.013262939453124,10.473426818847656,44.8425407409668,-7.837066650390625
1686426041086207700,9.023207763671875,7.600189208984375,45.18898010253906,-8.139839172363281
1686426041096152800,9.03315283203125,5.489418029785156,45.46111297607422,-9.13714599609375
1686426041106098000,9.043097900390626,5.489418029785156,45.46111297607422,-9.13714599609375
1686426041116042800,9.053042724609375,5.6832275390625,45.40508270263672,-9.605560302734375
1686426041125986800,9.06298681640625,7.579414367675781,44.91216278076172,-10.341773986816406
1686426041135932000,9.072931884765625,9.95452880859375,44.24790573120117,-10.649909973144531
1686426041145877000,9.082876953125,12.357444763183594,43.84362030029297,-10.9329833984375
1686426041155821800,9.09282177734375,14.298816680908203,43.07459259033203,-10.586875915527344
1686426041165767000,9.102766845703124,16.060054779052734,42.73020553588867,-10.138504028320312
1686426041175711000,9.1127109375,16.940509796142578,42.40572738647461,-9.390914916992188
1686426041185655800,9.12265576171875,17.178050994873047,42.436588287353516,-8.971702575683594
1686426041195601000,9.132600830078125,16.556324005126953,42.612823486328125,-8.8282470703125
1686426041205546000,9.1425458984375,16.822769165039062,42.87403106689453,-8.504035949707031
1686426041215490800,9.15249072265625,16.509197235107422,42.879032135009766,-7.4564971923828125
1686426041225435000,9.162434814453125,16.24541473388672,43.44621276855469,-6.8086090087890625
1686426041235380000,9.1723798828125,15.74020767211914,43.34825134277344,-6.383567810058594
1686426041245324800,9.18232470703125,16.045032501220703,43.620819091796875,-5.706703186035156
1686426041255270000,9.192269775390624,16.04718017578125,43.34467315673828,-5.036048889160156
1686426041265215000,9.202215087890625,16.26504135131836,43.601837158203125,-4.6387481689453125
1686426041275158800,9.21215869140625,17.0733642578125,43.13594055175781,-4.386497497558594
1686426041285103900,9.222103759765625,17.272045135498047,43.222042083740234,-4.30584716796875
1686426041295049000,9.232049072265625,17.65369415283203,42.85481643676758,-4.005218505859375
1686426041304993800,9.241993896484376,18.108306884765625,42.831199645996094,-3.938873291015625
1686426041314939000,9.25193896484375,18.343448638916016,42.73678970336914,-3.7244110107421875
1686426041324884000,9.261884033203126,18.608932495117188,42.653724670410156,-4.129364013671875
1686426041334827800,9.271827880859375,18.471851348876953,42.52909851074219,-4.231498718261719
1686426041344772900,9.28177294921875,18.275962829589844,42.640296936035156,-4.653739929199219
1686426041354718000,9.291718017578125,17.95644760131836,42.81162643432617,-4.8668060302734375
1686426041364662800,9.301662841796874,17.518512725830078,43.01398849487305,-5.850547790527344
1686426041374608000,9.31160791015625,16.580028533935547,43.07194137573242,-7.099510192871094
1686426041384551700,9.3215517578125,14.79965591430664,43.21017074584961,-9.142524719238281
1686426041394497000,9.3314970703125,13.40249252319336,43.06281661987305,-10.989059448242188
1686426041404441900,9.34144189453125,12.360343933105469,43.20474624633789,-13.075889587402344
1686426041414387000,9.351386962890626,11.403526306152344,42.8249397277832,-14.10333251953125
1686426041424331800,9.361331787109375,10.556327819824219,43.01553726196289,-14.879608154296875
1686426041434275800,9.37127587890625,8.919227600097656,43.05728530883789,-14.80767822265625
1686426041444220700,9.381220703125,7.743873596191406,43.56048583984375,-14.4923095703125
1686426041454166000,9.391166015625,6.8155517578125,43.769317626953125,-13.5592041015625
1686426041464110800,9.40111083984375,6.5579986572265625,44.34081268310547,-12.828567504882812
1686426041474055700,9.4110556640625,6.041816711425781,44.51459884643555,-11.885902404785156
1686426041484000000,9.421,6.2605438232421875,44.75003433227539,-10.948684692382812
1686426041493944800,9.43094482421875,6.4372100830078125,44.77190399169922,-10.647193908691406
1686426041503890000,9.440889892578125,6.185966491699219,45.06525421142578,-10.477821350097656
1686426041513835000,9.4508349609375,6.195465087890625,44.7916374206543,-10.2928466796875
1686426041523779800,9.46077978515625,6.50689697265625,44.680992126464844,-10.586479187011719
1686426041533724700,9.470724609375,6.67474365234375,44.35435485839844,-11.289253234863281
1686426041543669000,9.4806689453125,7.1797027587890625,44.43313217163086,-11.820892333984375
1686426041553613800,9.49061376953125,7.684501647949219,44.21120071411133,-11.828048706054688
1686426041563559000,9.500558837890624,8.189140319824219,44.06923294067383,-12.167190551757812
1686426041573504000,9.51050390625,8.993797302246094,43.551963806152344,-12.490081787109375
1686426041583448800,9.52044873046875,9.902877807617188,43.34517288208008,-12.479270935058594
1686426041593393000,9.530392822265625,10.511894226074219,42.964691162109375,-12.361473083496094
1686426041603337700,9.540337646484375,11.517898559570312,43.1476936340332,-12.309776306152344
1686426041613282800,9.55028271484375,12.628425598144531,42.99504852294922,-12.164787292480469
1686426041623228000,9.560227783203125,13.066513061523438,42.947906494140625,-11.734466552734375
1686426041633172700,9.5701728515625,14.140026092529297,42.60031509399414,-11.2703857421875
1686426041643117000,9.580116943359375,14.939754486083984,42.48981857299805,-10.796485900878906
1686426041653062000,9.590061767578124,15.58541488647461,42.177249908447266,-10.268264770507812
1686426041663006700,9.6000068359375,16.09105682373047,42.28070831298828,-10.126502990722656
1686426041672952000,9.6099521484375,16.87323760986328,42.037654876708984,-9.7410888671875
1686426041682897000,9.61989697265625,16.609718322753906,42.33473205566406,-9.319244384765625
1686426041692841700,9.629841796875,16.240325927734375,42.63861083984375,-8.752227783203125
1686426041702786000,9.6397861328125,14.563758850097656,43.37854766845703,-8.509231567382812
1686426041712731000,9.64973095703125,11.734153747558594,44.11589050292969,-8.434219360351562
1686426041722675700,9.65967578125,8.012802124023438,44.960567474365234,-8.258445739746094
1686426041732621000,9.66962109375,4.764762878417969,45.01904296875,-8.572402954101562
1686426041742565400,9.6795654296875,3.4364776611328125,45.376365661621094,-9.750022888183594
1686426041752509400,9.689509521484375,4.28729248046875,44.69832229614258,-10.80853271484375
1686426041762454300,9.699454345703124,6.259223937988281,44.653419494628906,-11.568977355957031
1686426041772399400,9.7093994140625,8.324211120605469,44.20641326904297,-12.010772705078125
1686426041782344400,9.719344482421874,10.991767883300781,43.69697570800781,-12.248214721679688
1686426041792289300,9.729289306640625,13.019180297851562,43.02607727050781,-11.948623657226562
1686426041802233300,9.7392333984375,14.896675109863281,42.781349182128906,-11.402488708496094
1686426041812178400,9.749178466796875,16.11528778076172,42.39336395263672,-10.711105346679688
1686426041822123300,9.759123291015625,16.239025115966797,42.43516540527344,-10.192161560058594
1686426041832068400,9.769068359375,16.593841552734375,42.34357833862305,-9.600349426269531
1686426041842013400,9.779013427734375,16.303508758544922,42.481597900390625,-9.488555908203125
1686426041851958300,9.788958251953124,15.965225219726562,42.796138763427734,-8.995269775390625
1686426041861902600,9.798902587890625,15.83880615234375,42.89325714111328,-8.602561950683594
1686426041871847400,9.808847412109374,15.603958129882812,43.13372802734375,-7.852272033691406
1686426041881792300,9.818792236328125,15.397109985351562,43.138755798339844,-7.4463958740234375
1686426041891737300,9.8287373046875,15.684505462646484,43.128692626953125,-6.8496551513671875
1686426041901682400,9.838682373046876,15.684505462646484,43.128692626953125,-6.8496551513671875
1686426041911626200,9.848626220703125,16.28302001953125,43.02918243408203,-6.5511627197265625
1686426041921571300,9.8585712890625,16.546051025390625,42.86249542236328,-6.289741516113281
1686426041931516400,9.868516357421875,16.77869415283203,42.648895263671875,-5.9682769775390625
1686426041941461200,9.878461181640626,17.175704956054688,42.49970245361328,-6.049324035644531
1686426041951406600,9.888406494140625,17.120765686035156,42.31660079956055,-6.203010559082031
1686426041961350400,9.898350341796874,17.533199310302734,42.2568473815918,-5.917350769042969
1686426041971295200,9.908295166015625,17.674846649169922,42.109676361083984,-5.8909454345703125
1686426041981240300,9.918240234375,17.688735961914062,42.357688903808594,-6.028251647949219
1686426041991185400,9.928185302734375,17.678058624267578,42.39347457885742,-5.9022064208984375
1686426042001130200,9.938130126953125,17.15521240234375,42.1221923828125,-6.4074554443359375
1686426042011075300,9.948075439453126,16.678607940673828,42.56233215332031,-7.54241943359375
1686426042021019400,9.958019287109375,15.286563873291016,42.63117599487305,-8.814445495605469
1686426042030964500,9.967964599609376,13.61968994140625,42.754669189453125,-10.774856567382812
1686426042040909300,9.977909423828125,12.877479553222656,42.266536712646484,-12.690620422363281
1686426042050854400,9.9878544921875,11.72653579711914,42.301414489746094,-14.249366760253906
1686426042060799500,9.997799560546875,11.178627014160156,42.254695892333984,-15.185676574707031
1686426042070743300,10.007743408203124,10.134017944335938,42.50221633911133,-15.448455810546875
1686426042080688400,10.0176884765625,8.864860534667969,42.74079132080078,-15.365432739257812
1686426042090633500,10.027633544921875,7.66571044921875,43.08946228027344,-14.679862976074219
1686426042100578300,10.037578369140626,6.135047912597656,43.735904693603516,-13.542121887207031
1686426042110523400,10.0475234375,5.6739654541015625,43.99575424194336,-12.6160888671875
1686426042120468500,10.057468505859376,5.030555725097656,44.476539611816406,-11.635543823242188
1686426042130412300,10.067412353515625,5.873588562011719,44.651123046875,-11.036598205566406
1686426042140357400,10.077357421875,6.319450378417969,44.43275451660156,-10.449249267578125
1686426042150302500,10.087302490234375,6.7955474853515625,44.3352165222168,-10.493659973144531
1686426042160247300,10.097247314453124,7.018440246582031,44.26067352294922,-10.861412048339844
1686426042170192400,10.1071923828125,6.942718505859375,44.169307708740234,-11.032691955566406
1686426042180136400,10.117136474609374,7.621673583984375,43.91385269165039,-11.5272216796875
1686426042190081300,10.127081298828125,8.339675903320312,43.51356887817383,-12.059013366699219
1686426042200026400,10.1370263671875,8.542648315429688,43.600990295410156,-12.179656982421875
1686426042209971500,10.146971435546876,8.980575561523438,43.41785430908203,-12.655044555664062
1686426042219916300,10.156916259765625,9.542694091796875,43.303958892822266,-12.870323181152344
1686426042229860400,10.1668603515625,9.914840698242188,43.321311950683594,-12.661415100097656
1686426042239805400,10.176805419921875,11.447227478027344,42.887481689453125,-12.662628173828125
1686426042249750300,10.186750244140624,12.24569320678711,42.69715881347656,-12.2017822265625
1686426042259695400,10.1966953125,13.374191284179688,42.38351821899414,-11.772232055664062
1686426042269640400,10.206640380859374,14.32351303100586,41.92486572265625,-11.323226928710938
1686426042279585300,10.216585205078125,15.457763671875,41.926673889160156,-10.602363586425781
1686426042289529300,10.226529296875,16.068031311035156,41.949588775634766,-9.688011169433594
1686426042299474400,10.236474365234375,16.90528106689453,41.7329216003418,-9.4134521484375
1686426042309419500,10.24641943359375,17.064083099365234,41.840084075927734,-8.952400207519531
1686426042319364400,10.2563642578125,16.930561065673828,41.876914978027344,-8.170310974121094
1686426042329309400,10.266309326171875,16.457763671875,42.02242660522461,-8.02288818359375
1686426042339253500,10.27625341796875,15.46054458618164,42.72245788574219,-8.026405334472656
1686426042349198300,10.2861982421875,13.39129638671875,43.34330368041992,-7.6060638427734375
1686426042359143200,10.29614306640625,10.264595031738281,44.26908874511719,-7.590141296386719
1686426042369088500,10.306088623046875,6.784210205078125,44.706424713134766,-7.680938720703125
1686426042379033300,10.316033447265625,4.1032562255859375,44.98836898803711,-8.5107421875
1686426042388978400,10.325978515625,3.6119384765625,44.878334045410156,-9.498611450195312
1686426042398922500,10.335922607421875,5.078269958496094,44.76321792602539,-10.356338500976562
1686426042408867300,10.345867431640626,7.004585266113281,44.20795822143555,-10.946067810058594
1686426042418812200,10.355812255859375,9.236907958984375,43.968441009521484,-11.008155822753906
1686426042428757500,10.365757568359374,11.593612670898438,43.46631622314453,-10.990463256835938
1686426042438702300,10.375702392578125,13.703006744384766,43.009910583496094,-10.629356384277344
1686426042448646400,10.385646484375,14.630306243896484,42.7227897644043,-9.919944763183594
1686426042458591500,10.395591552734375,15.495826721191406,42.38174057006836,-9.309906005859375
1686426042468536300,10.405536376953124,15.883285522460938,42.660057067871094,-8.826286315917969
1686426042478481400,10.4154814453125,15.44540023803711,42.87901306152344,-8.636016845703125
1686426042488426500,10.425426513671875,14.824752807617188,42.92520523071289,-8.500579833984375
1686426042498371300,10.435371337890626,14.285831451416016,43.40616989135742,-8.220558166503906
1686426042508315400,10.4453154296875,14.067302703857422,43.541954040527344,-7.670433044433594
1686426042518260500,10.455260498046876,13.657638549804688,43.85893630981445,-6.77496337890625
1686426042528205300,10.465205322265625,13.719051361083984,43.93605041503906,-6.304229736328125
1686426042538150400,10.475150390625,14.08184814453125,44.239906311035156,-5.704246520996094
1686426042548095500,10.485095458984375,14.176326751708984,43.77189636230469,-5.176567077636719
1686426042558039600,10.49503955078125,15.024120330810547,43.66318130493164,-4.624961853027344
1686426042567984400,10.504984375,15.437488555908203,43.18896484375,-4.787384033203125
1686426042577929200,10.51492919921875,16.225990295410156,43.249969482421875,-4.680564880371094
1686426042587874300,10.524874267578125,16.567981719970703,43.13742446899414,-4.4713897705078125
1686426042597819400,10.5348193359375,17.088462829589844,43.12115478515625,-4.6191558837890625
1686426042607763200,10.54476318359375,17.255626678466797,42.698875427246094,-4.797821044921875
1686426042617708500,10.55470849609375,17.458515167236328,42.73938751220703,-5.143440246582031
1686426042627653400,10.5646533203125,17.386672973632812,42.5248908996582,-5.529167175292969
1686426042637598200,10.57459814453125,16.9483642578125,42.71974563598633,-6.191123962402344
1686426042647543600,10.58454345703125,16.041889190673828,42.70964431762695,-7.433235168457031
1686426042657487400,10.5944873046875,15.119102478027344,42.842193603515625,-9.274261474609375
1686426042667432200,10.60443212890625,13.193145751953125,42.61825942993164,-11.194564819335938
1686426042677377500,10.61437744140625,13.193145751953125,42.61825942993164,-11.194564819335938
1686426042687322400,10.624322265625,11.890583038330078,42.678226470947266,-13.359092712402344
1686426042697267200,10.63426708984375,10.789077758789062,42.23089599609375,-14.935653686523438
1686426042707212500,10.644212646484375,9.772605895996094,42.42983627319336,-15.742446899414062
1686426042717156400,10.65415625,9.141883850097656,42.446067810058594,-15.681106567382812
1686426042727101400,10.664101318359375,7.887763977050781,43.178382873535156,-14.981666564941406
1686426042737046500,10.674046630859374,7.281517028808594,43.352909088134766,-13.869186401367188
1686426042746991000,10.6839912109375,6.478355407714844,43.991390228271484,-13.048408508300781
1686426042756936200,10.693936279296874,5.907936096191406,44.05805587768555,-11.826766967773438
1686426042766881300,10.70388134765625,5.900047302246094,44.85056686401367,-11.066673278808594
1686426042776825000,10.7138251953125,6.5955963134765625,44.8060188293457,-9.943710327148438
1686426042786770200,10.723770263671875,6.409202575683594,44.898895263671875,-9.506172180175781
1686426042796715000,10.733715087890625,6.189537048339844,44.83125686645508,-9.474327087402344
1686426042806660000,10.74366015625,6.131324768066406,44.83244323730469,-9.854530334472656
1686426042816605200,10.753605224609375,6.152015686035156,44.588600158691406,-10.284896850585938
1686426042826549000,10.763549072265626,6.711967468261719,44.535888671875,-11.283287048339844
1686426042836494000,10.773494140625,6.795799255371094,44.182491302490234,-11.983146667480469
1686426042846439200,10.783439208984374,7.495880126953125,43.96868896484375,-12.3636474609375
1686426042856384000,10.793384033203125,8.414329528808594,43.42920684814453,-12.778823852539062
1686426042866329000,10.8033291015625,9.023971557617188,43.47183609008789,-12.977142333984375
1686426042876274200,10.813274169921876,9.576156616210938,43.3205451965332,-12.922500610351562
1686426042886218000,10.823218017578125,10.42877197265625,43.184974670410156,-12.868263244628906
1686426042896163300,10.833163330078126,11.268218994140625,42.864288330078125,-12.828018188476562
1686426042906108200,10.843108154296875,11.970466613769531,42.80718231201172,-12.347564697265625
1686426042916053000,10.853052978515626,12.729778289794922,42.73302459716797,-11.900192260742188
1686426042925998300,10.862998291015625,13.479850769042969,42.79888153076172,-11.325340270996094
1686426042935942100,10.872942138671876,14.519996643066406,42.6553840637207,-10.802314758300781
1686426042945887000,10.882886962890625,15.388381958007812,42.62417984008789,-10.353523254394531
1686426042955832000,10.89283203125,15.949028015136719,42.665252685546875,-9.876220703125
1686426042965777200,10.902777099609375,16.294513702392578,42.73470687866211,-9.49224853515625
1686426042975722000,10.912721923828125,15.381301879882812,42.77815246582031,-8.8106689453125
1686426042985667300,10.922667236328126,14.329086303710938,43.0272216796875,-8.611083984375
1686426042995611100,10.932611083984375,12.0010986328125,43.802799224853516,-8.298141479492188
1686426043005556200,10.94255615234375,8.763679504394531,44.59601593017578,-8.172111511230469
1686426043015501000,10.9525009765625,4.863311767578125,45.04966735839844,-8.038612365722656
1686426043025446100,10.962446044921874,2.2574920654296875,45.2911262512207,-9.342514038085938
1686426043035391000,10.972390869140625,2.0954208374023438,45.06472396850586,-10.369888305664062
1686426043045335000,10.9823349609375,3.6788558959960938,44.88410949707031,-11.247756958007812
1686426043055280000,10.992280029296875,6.130683898925781,44.56601333618164,-11.518173217773438
1686426043065225200,11.00222509765625,8.740058898925781,44.01191329956055,-11.67425537109375
1686426043075170000,11.012170166015625,11.087173461914062,43.40495300292969,-11.694877624511719
1686426043085115100,11.022115234375,13.323238372802734,42.88825225830078,-11.286720275878906
1686426043095060200,11.032060302734376,14.743934631347656,42.86600875854492,-10.675445556640625
1686426043105004000,11.042004150390625,15.31454086303711,42.68889617919922,-9.947639465332031
1686426043114949000,11.05194921875,15.788188934326172,42.54381561279297,-9.206527709960938
1686426043124894200,11.061894287109375,15.90231704711914,42.778873443603516,-9.060173034667969
1686426043134839000,11.071839111328124,15.401630401611328,43.18707275390625,-8.691291809082031
1686426043144784100,11.0817841796875,14.765193939208984,43.43817138671875,-8.403533935546875
1686426043154728200,11.091728271484374,14.2950439453125,43.42543029785156,-7.9311370849609375
1686426043164673000,11.101673095703125,14.441993713378906,43.616607666015625,-7.235237121582031
1686426043174618000,11.1116181640625,14.095035552978516,43.63184356689453,-6.754364013671875
1686426043184563200,11.121563232421876,14.816841125488281,43.64751052856445,-6.276130676269531
1686426043194508000,11.131508056640625,15.556995391845703,43.684425354003906,-5.3563079833984375
1686426043204453000,11.141453125,16.29344940185547,43.45573806762695,-5.33624267578125
1686426043214397200,11.151397216796875,16.652297973632812,43.23218536376953,-5.124961853027344
1686426043224342000,11.161342041015626,17.392425537109375,42.906410217285156,-5.286224365234375
1686426043234287000,11.171287109375,17.717700958251953,42.63557434082031,-4.986289978027344
1686426043244232200,11.181232177734374,17.85759735107422,42.64373779296875,-5.273468017578125
1686426043254177000,11.191177001953125,18.00259017944336,42.61376953125,-5.4481201171875
1686426043264122000,11.2011220703125,17.81353759765625,42.74822998046875,-5.733711242675781
1686426043274066200,11.211066162109375,17.557231903076172,42.622802734375,-6.204612731933594
1686426043284011000,11.221010986328125,17.360210418701172,42.491424560546875,-7.0278167724609375
1686426043293956000,11.2309560546875,16.462177276611328,42.797462463378906,-8.352279663085938
1686426043303901200,11.240901123046875,14.686328887939453,42.751922607421875,-10.179450988769531
1686426043313846000,11.250845947265624,13.748859405517578,42.461509704589844,-12.010391235351562
1686426043323790000,11.2607900390625,13.021797180175781,42.46436309814453,-13.872840881347656
1686426043333735200,11.270735107421874,12.020084381103516,42.44801330566406,-14.949073791503906
1686426043343680300,11.28068017578125,10.197494506835938,42.53538131713867,-15.546585083007812
1686426043353625000,11.290625,8.0760498046875,43.12849044799805,-15.101982116699219
1686426043363570200,11.300570068359375,6.532569885253906,43.63218688964844,-14.560997009277344
1686426043373515000,11.310514892578125,5.011466979980469,43.98328399658203,-13.288322448730469
1686426043383459000,11.320458984375,4.030525207519531,44.42381286621094,-12.492012023925781
1686426043393404000,11.33040380859375,3.586456298828125,44.68537902832031,-11.476806640625
1686426043403349200,11.340349365234376,4.078056335449219,44.90225601196289,-11.11553955078125
1686426043413294000,11.350294189453125,4.894798278808594,44.704715728759766,-10.663284301757812
1686426043423239200,11.3602392578125,5.457160949707031,44.77197265625,-10.876327514648438
1686426043433183200,11.370183349609375,5.457160949707031,44.77197265625,-10.876327514648438
1686426043443128000,11.380128173828124,6.062370300292969,44.69098663330078,-11.377044677734375
1686426043453073200,11.3900732421875,6.514320373535156,44.35930633544922,-12.00250244140625
1686426043463018200,11.400018310546875,6.514320373535156,44.35930633544922,-12.00250244140625
1686426043472963000,11.409963134765626,6.73492431640625,44.37311553955078,-12.450492858886719
1686426043482908000,11.419907958984375,7.1380615234375,44.01612091064453,-12.924171447753906
1686426043492852200,11.429852294921876,7.196388244628906,43.96697998046875,-13.235877990722656
1686426043502797000,11.439797119140625,7.360206604003906,43.79800796508789,-13.511886596679688
1686426043512742100,11.4497421875,8.001472473144531,43.81536102294922,-13.797630310058594
1686426043522687200,11.459687255859375,9.106460571289062,43.62913513183594,-13.6007080078125
1686426043532632000,11.469632080078124,10.323539733886719,43.59768295288086,-13.442642211914062
1686426043542576000,11.479576171875,11.611564636230469,43.276084899902344,-13.437591552734375
1686426043552521200,11.489521240234374,12.582679748535156,43.05262756347656,-12.937088012695312
1686426043562466000,11.499466064453125,13.748100280761719,42.692420959472656,-12.284370422363281
1686426043572411100,11.5094111328125,15.131160736083984,42.66175079345703,-11.561134338378906
1686426043582356200,11.519356201171876,16.067874908447266,42.3757209777832,-10.948616027832031
1686426043592301000,11.529301025390625,16.906688690185547,42.38091278076172,-10.696891784667969
1686426043602245000,11.5392451171875,17.39202880859375,42.620967864990234,-10.254043579101562
1686426043612190000,11.54918994140625,17.111541748046875,42.57354736328125,-9.629600524902344
1686426043622135000,11.559135009765624,16.273151397705078,42.78217315673828,-9.428451538085938
1686426043632080100,11.569080078125,14.349006652832031,43.45793914794922,-8.994537353515625
1686426043642025200,11.579025146484375,11.128791809082031,44.469669342041016,-8.897628784179688
1686426043651970000,11.588969970703126,7.6326904296875,44.99374008178711,-8.7711181640625
1686426043661914000,11.5989140625,4.085319519042969,45.49842834472656,-9.066665649414062
1686426043671859000,11.60885888671875,2.5034255981445312,45.31875991821289,-10.159645080566406
1686426043681804300,11.61880419921875,2.8080520629882812,44.937217712402344,-12.303504943847656
1686426043691749000,11.6287490234375,4.4525299072265625,44.151649475097656,-13.552711486816406
1686426043701694000,11.63869384765625,6.962615966796875,43.81806182861328,-14.329940795898438
1686426043711638300,11.64863818359375,9.34844970703125,43.194435119628906,-14.441902160644531
1686426043721583000,11.6585830078125,11.793807983398438,43.02900695800781,-14.290420532226562
1686426043731528000,11.66852783203125,13.71673583984375,42.56214904785156,-13.511093139648438
1686426043741473300,11.678473388671875,15.087520599365234,42.409934997558594,-12.7132568359375
1686426043751418400,11.68841845703125,14.991985321044922,42.31696701049805,-12.402153015136719
1686426043761363200,11.69836328125,14.605594635009766,42.685699462890625,-12.095840454101562
1686426043771307300,11.708307373046875,13.597259521484375,42.89558792114258,-11.796836853027344
1686426043781252400,11.71825244140625,12.32843017578125,43.420936584472656,-11.672119140625
1686426043791197200,11.728197265625,11.469047546386719,43.62347412109375,-10.902229309082031
1686426043801142300,11.738142333984374,10.862213134765625,44.23235321044922,-10.24102783203125
1686426043811087400,11.74808740234375,11.061073303222656,44.089935302734375,-9.329841613769531
1686426043821031400,11.758031494140624,11.387435913085938,44.445072174072266,-8.488182067871094
1686426043830976300,11.767976318359375,11.812908172607422,44.25624084472656,-8.033561706542969
1686426043840921300,11.77792138671875,12.648868560791016,44.424781799316406,-7.5270233154296875
1686426043850866400,11.787866455078126,13.7938232421875,44.19146728515625,-6.6937103271484375
1686426043860811300,11.797811279296875,14.822883605957031,43.79499435424805,-6.5468597412109375
1686426043870756400,11.80775634765625,15.858478546142578,43.3483772277832,-6.542594909667969
1686426043880700400,11.817700439453125,16.26308822631836,43.27011489868164,-6.691535949707031
1686426043890645200,11.827645263671876,17.00997543334961,42.87488555908203,-6.766868591308594
1686426043900590000,11.837590087890625,17.598831176757812,42.657188415527344,-6.897651672363281
1686426043910535400,11.847535400390624,17.63025665283203,42.68402099609375,-7.023765563964844
1686426043920480300,11.857480224609375,17.217254638671875,43.041812896728516,-7.364631652832031
1686426043930425000,11.867425048828125,16.52892303466797,42.82253646850586,-8.626235961914062
1686426043940369400,11.877369384765625,15.493698120117188,43.09944152832031,-10.543754577636719
1686426043950314200,11.887314208984375,13.540050506591797,42.86991882324219,-12.527755737304688
1686426043960259000,11.897259033203126,12.31191635131836,42.682159423828125,-14.716232299804688
1686426043970204400,11.907204345703125,11.570381164550781,42.22954559326172,-16.06537628173828
1686426043980149200,11.917149169921874,10.893310546875,42.095829010009766,-16.87767791748047
1686426043990094000,11.927093994140625,9.416725158691406,42.4083366394043,-16.77538299560547
1686426044000038400,11.937038330078124,8.215065002441406,43.12622833251953,-15.795265197753906
1686426044009983200,11.946983154296875,6.9295501708984375,43.607177734375,-14.203407287597656
1686426044019928300,11.95692822265625,5.5662384033203125,44.21379852294922,-13.0712890625
1686426044029873400,11.966873291015625,5.1656341552734375,44.608489990234375,-11.765373229980469
1686426044039818200,11.976818359375,5.1749114990234375,45.11490249633789,-10.720611572265625
1686426044049762300,11.98676220703125,5.731758117675781,45.241676330566406,-9.761428833007812
1686426044059707400,11.996707275390625,5.88275146484375,45.4128303527832,-9.30084228515625
1686426044069652200,12.00665234375,5.9917144775390625,45.48393249511719,-9.148406982421875
1686426044079597300,12.016597412109375,6.006813049316406,45.44157409667969,-9.694999694824219
1686426044089542400,12.02654248046875,6.472404479980469,44.99481201171875,-10.426597595214844
1686426044099487200,12.0364873046875,7.329994201660156,45.08319854736328,-11.169792175292969
1686426044109431300,12.046431396484374,7.9866943359375,44.48967742919922,-11.969520568847656
1686426044119376100,12.056376220703125,8.5223388671875,44.4269905090332,-12.538810729980469
1686426044129321200,12.0663212890625,9.187332153320312,43.947784423828125,-12.613166809082031
1686426044139266300,12.076266357421876,9.675971984863281,44.01120376586914,-13.044563293457031
1686426044149211100,12.086211181640625,10.425483703613281,43.65583801269531,-12.98919677734375
1686426044159156200,12.09615625,10.739692687988281,43.66072463989258,-12.96795654296875
1686426044169100300,12.106100341796875,12.080280303955078,43.291954040527344,-12.515525817871094
1686426044179045000,12.116045166015626,12.927982330322266,43.138893127441406,-12.44317626953125
1686426044188990500,12.125990478515625,13.756961822509766,43.09968566894531,-11.855064392089844
1686426044198935300,12.135935302734374,14.805233001708984,43.10218048095703,-11.320991516113281
1686426044208880000,12.145880126953125,15.651138305664062,42.74617004394531,-10.528762817382812
1686426044218824400,12.155824462890624,16.111270904541016,42.82160949707031,-9.995147705078125
1686426044228769300,12.165769287109375,16.229686737060547,42.78658676147461,-9.466995239257812
1686426044238714000,12.175714111328125,16.565574645996094,43.01194763183594,-9.197898864746094
1686426044248659500,12.185659423828126,16.565574645996094,43.01194763183594,-9.197898864746094
1686426044258604300,12.195604248046875,16.32504653930664,42.93788146972656,-8.754753112792969
1686426044268549000,12.205549072265624,15.012516021728516,43.42866134643555,-8.418106079101562
1686426044278493400,12.215493408203125,12.67855453491211,43.98919677734375,-7.872955322265625
1686426044288438300,12.225438232421874,9.623161315917969,44.93659210205078,-7.5579986572265625
1686426044298383400,12.23538330078125,6.3772430419921875,45.42043685913086,-8.131553649902344
1686426044308328400,12.245328369140625,4.536041259765625,45.53057861328125,-9.155868530273438
1686426044318273300,12.255273193359375,5.2149505615234375,45.20216751098633,-10.508941650390625
1686426044328218000,12.265218017578125,6.958953857421875,44.8656005859375,-11.447921752929688
1686426044338162200,12.275162109375,9.457305908203125,44.19112014770508,-12.1204833984375
1686426044348107300,12.285107177734375,12.094402313232422,43.568824768066406,-11.987846374511719
1686426044358052400,12.29505224609375,14.2958984375,42.69438934326172,-11.559318542480469
1686426044367997200,12.3049970703125,16.08871841430664,42.48332214355469,-11.147613525390625
1686426044377942300,12.3149423828125,17.93128204345703,42.063575744628906,-10.151008605957031
1686426044387887400,12.324887451171875,18.06545639038086,41.88434982299805,-9.466117858886719
1686426044397831200,12.3348310546875,17.749778747558594,42.172454833984375,-8.987007141113281
1686426044407776300,12.3447763671875,17.466373443603516,42.850807189941406,-8.603263854980469
1686426044417721300,12.354721435546875,16.39437484741211,43.052242279052734,-7.839447021484375
1686426044427666200,12.364666259765626,15.958240509033203,43.53471755981445,-7.0301513671875
1686426044437611300,12.374611328125,15.880298614501953,43.889862060546875,-6.16497802734375
1686426044447556400,12.384556396484374,15.66567611694336,44.20146942138672,-5.498016357421875
1686426044457500200,12.394500244140625,15.9293212890625,43.90928268432617,-4.70770263671875
1686426044467445200,12.4044453125,16.3721923828125,43.70044708251953,-4.40252685546875
1686426044477390300,12.414390380859375,17.316001892089844,43.3870849609375,-3.77264404296875
1686426044487335200,12.424335205078124,17.83649444580078,43.29519271850586,-3.718505859375
1686426044497280300,12.4342802734375,18.275333404541016,43.0675048828125,-3.7213058471679688
1686426044507224300,12.444224365234374,18.993877410888672,42.995609283447266,-3.751312255859375
1686426044517169200,12.454169189453125,19.480209350585938,42.666202545166016,-3.8976898193359375
1686426044527114500,12.464114501953125,19.876720428466797,42.191307067871094,-4.0469970703125
1686426044537059300,12.474059326171876,19.649059295654297,42.16278839111328,-4.4830780029296875
1686426044547004200,12.484004150390625,20.256298065185547,42.46559143066406,-4.3666229248046875
1686426044556949500,12.493949462890624,19.914337158203125,42.475521087646484,-4.508216857910156
1686426044566893300,12.503893310546875,19.31966781616211,42.859928131103516,-5.2001190185546875
1686426044576838100,12.513838134765624,17.934879302978516,43.1474494934082,-6.293281555175781
1686426044586783200,12.523783203125,16.026836395263672,43.53883743286133,-7.7877044677734375
1686426044596728300,12.533728271484375,13.997882843017578,43.60610580444336,-9.404060363769531
1686426044606673200,12.543673095703125,12.818397521972656,43.53908157348633,-11.086761474609375
1686426044616618500,12.553618408203125,11.711631774902344,43.47132110595703,-13.022850036621094
1686426044626562300,12.563562255859376,10.926536560058594,43.52139663696289,-14.104835510253906
1686426044636507400,12.57350732421875,9.728950500488281,43.2604866027832,-14.693382263183594
1686426044646452200,12.5834521484375,8.746406555175781,43.48587417602539,-15.052803039550781
1686426044656397300,12.593397216796875,7.94342041015625,43.73490524291992,-14.715324401855469
1686426044666342100,12.603342041015624,7.431129455566406,44.13275146484375,-13.725196838378906
1686426044676287200,12.613287353515625,7.2999267578125,44.194664001464844,-12.955879211425781
1686426044686231300,12.623231201171874,7.19384765625,44.78961944580078,-12.392692565917969
1686426044696176400,12.63317626953125,7.665809631347656,44.72835159301758,-11.598793029785156
1686426044706121200,12.643121337890625,7.9202423095703125,44.80989074707031,-11.207054138183594
1686426044716066300,12.65306640625,7.638236999511719,45.159996032714844,-10.807754516601562
1686426044726011400,12.663011474609375,7.060935974121094,44.89141082763672,-11.083702087402344
1686426044735956200,12.672956298828124,7.043571472167969,44.891414642333984,-11.470054626464844
1686426044745900800,12.68290087890625,7.86029052734375,44.79813766479492,-12.10809326171875
1686426044755846100,12.69284619140625,8.298545837402344,44.28514099121094,-12.801933288574219
1686426044765791000,12.702791015625,8.986213684082031,44.36186599731445,-13.339118957519531
1686426044775735800,12.71273583984375,9.90411376953125,43.986263275146484,-13.535881042480469
1686426044785681000,12.722680908203126,10.524490356445312,43.77943801879883,-13.915046691894531
1686426044795625000,12.732625,11.438880920410156,43.44447326660156,-13.699867248535156
1686426044805569800,12.74256982421875,12.208858489990234,43.23505783081055,-13.692283630371094
1686426044815515000,12.752514892578125,13.11014175415039,42.967323303222656,-13.558670043945312
1686426044825460000,12.7624599609375,13.863723754882812,42.74308776855469,-13.646720886230469
1686426044835404800,12.77240478515625,14.8544921875,42.707313537597656,-13.178306579589844
1686426044845350100,12.78235009765625,15.739757537841797,42.57692337036133,-12.7598876953125
1686426044855294000,12.7922939453125,16.185077667236328,42.425537109375,-11.929435729980469
1686426044865238800,12.80223876953125,16.643177032470703,42.32111358642578,-11.4381103515625
1686426044875183900,12.812183837890625,16.72146224975586,42.36967086791992,-10.966323852539062
1686426044885129000,12.82212890625,16.71135711669922,42.54776382446289,-10.310836791992188
1686426044895073800,12.83207373046875,15.74392318725586,43.02344512939453,-9.684730529785156
1686426044905019000,12.842018798828125,13.756954193115234,43.71808624267578,-9.678779602050781
1686426044914963000,12.851962890625,11.3636474609375,44.31665802001953,-9.087471008300781
1686426044924908000,12.861907958984375,8.421089172363281,44.97236251831055,-8.596939086914062
1686426044934852900,12.871852783203124,5.533660888671875,45.526405334472656,-8.659255981445312
1686426044944798000,12.8817978515625,3.6861190795898438,45.62711715698242,-9.647926330566406
1686426044954742800,12.89174267578125,4.7376708984375,45.24387741088867,-10.630035400390625
