time,seconds_elapsed,z,y,x
1686343322114534000,0.243533935546875,-0.06298828125,-0.9927978515625,-0.108184814453125
1686343322124553000,0.253552978515625,-0.0567474365234375,-0.99176025390625,-0.107666015625
1686343322134572000,0.263572021484375,-0.0572052001953125,-0.9934539794921875,-0.10528564453125
1686343322144591000,0.273591064453125,-0.0633087158203125,-0.9983978271484375,-0.104339599609375
1686343322154610000,0.28360986328125,-0.0616455078125,-0.999664306640625,-0.107513427734375
1686343322164629000,0.29362890625,-0.055908203125,-0.99810791015625,-0.1090545654296875
1686343322174648000,0.30364794921875,-0.0499725341796875,-0.9975738525390625,-0.1089019775390625
1686343322184667000,0.3136669921875,-0.0509490966796875,-0.9962615966796875,-0.10894775390625
1686343322194685000,0.323684814453125,-0.0521240234375,-0.996612548828125,-0.1123504638671875
1686343322204704000,0.3337041015625,-0.0505828857421875,-0.9977264404296875,-0.1151123046875
1686343322214722800,0.343722900390625,-0.05169677734375,-0.99676513671875,-0.112823486328125
1686343322224742000,0.353741943359375,-0.05517578125,-0.99554443359375,-0.1079254150390625
1686343322234761000,0.363760986328125,-0.054931640625,-0.9921112060546875,-0.1054534912109375
1686343322244780000,0.373780029296875,-0.0535888671875,-0.993316650390625,-0.1041717529296875
1686343322254798800,0.383798828125,-0.048492431640625,-0.9947357177734375,-0.10784912109375
1686343322264818000,0.39381787109375,-0.0420684814453125,-0.993621826171875,-0.110015869140625
1686343322274837000,0.4038369140625,-0.0416717529296875,-0.9926300048828125,-0.1070556640625
1686343322284856000,0.41385595703125,-0.04608154296875,-0.9922332763671875,-0.103240966796875
1686343322294875000,0.423875,-0.0512542724609375,-0.9919281005859375,-0.104217529296875
1686343322304894000,0.43389404296875,-0.048248291015625,-0.99176025390625,-0.10723876953125
1686343322314912000,0.443912109375,-0.042816162109375,-0.9930419921875,-0.1084442138671875
1686343322324930800,0.453930908203125,-0.0417633056640625,-0.9977264404296875,-0.1049652099609375
1686343322334950000,0.463949951171875,-0.0487213134765625,-0.9979400634765625,-0.0998687744140625
1686343322344969000,0.473968994140625,-0.0568084716796875,-0.9976959228515625,-0.0997467041015625
1686343322354988000,0.483988037109375,-0.0599212646484375,-0.9996185302734375,-0.1025543212890625
1686343322365006800,0.4940068359375,-0.0613555908203125,-0.9984588623046875,-0.1052398681640625
1686343322375026000,0.50402587890625,-0.0625152587890625,-0.9989166259765625,-0.1068572998046875
1686343322385045000,0.514044921875,-0.061798095703125,-1.0003509521484375,-0.1061248779296875
1686343322395063800,0.524063720703125,-0.0653228759765625,-0.9998321533203125,-0.103118896484375
1686343322405083000,0.534082763671875,-0.0672607421875,-0.9970550537109375,-0.10565185546875
1686343322415102000,0.54410205078125,-0.0622711181640625,-0.9958953857421875,-0.1114959716796875
1686343322425121000,0.55412109375,-0.060394287109375,-0.995452880859375,-0.110565185546875
1686343322435138800,0.564138916015625,-0.058502197265625,-0.99530029296875,-0.105743408203125
1686343322445158000,0.574157958984375,-0.050140380859375,-0.9953765869140625,-0.1043701171875
1686343322455177000,0.584177001953125,-0.040740966796875,-0.9920196533203125,-0.1043701171875
1686343322465195800,0.59419580078125,-0.0358734130859375,-0.98907470703125,-0.1047515869140625
1686343322475214800,0.60421484375,-0.03240966796875,-0.98907470703125,-0.1068878173828125
1686343322485234000,0.61423388671875,-0.0325164794921875,-0.989013671875,-0.107818603515625
1686343322495253000,0.6242529296875,-0.035797119140625,-0.98846435546875,-0.105194091796875
1686343322505271800,0.634271728515625,-0.03704833984375,-0.99078369140625,-0.10479736328125
1686343322515291000,0.644290771484375,-0.0427398681640625,-0.994232177734375,-0.1028900146484375
1686343322525310000,0.65431005859375,-0.050689697265625,-0.98974609375,-0.109405517578125
1686343322535328800,0.664328857421875,-0.0533905029296875,-0.99615478515625,-0.1108856201171875
1686343322545347800,0.674347900390625,-0.0517730712890625,-0.998687744140625,-0.1114349365234375
1686343322555366100,0.6843662109375,-0.0504913330078125,-0.9990234375,-0.112579345703125
1686343322565385000,0.694385009765625,-0.0565948486328125,-0.9984588623046875,-0.1079864501953125
1686343322575404000,0.704404052734375,-0.0650177001953125,-0.9961090087890625,-0.1054229736328125
1686343322585423000,0.714423095703125,-0.070770263671875,-0.99578857421875,-0.1056365966796875
1686343322595442200,0.724442138671875,-0.0688323974609375,-0.9935760498046875,-0.1099395751953125
1686343322605461000,0.7344609375,-0.0727386474609375,-0.9938812255859375,-0.1071014404296875
1686343322615480000,0.74447998046875,-0.07452392578125,-0.9964447021484375,-0.1052703857421875
1686343322625499100,0.7544990234375,-0.06585693359375,-0.99945068359375,-0.107177734375
1686343322635518000,0.76451806640625,-0.056610107421875,-0.9985504150390625,-0.105712890625
1686343322645537000,0.774537109375,-0.0492706298828125,-0.99884033203125,-0.107635498046875
1686343322655555800,0.784555908203125,-0.0489654541015625,-1.00115966796875,-0.1063385009765625
1686343322665575000,0.794574951171875,-0.05792236328125,-0.999969482421875,-0.1044921875
1686343322675593000,0.804593017578125,-0.0629119873046875,-0.9973297119140625,-0.107147216796875
1686343322685612000,0.814612060546875,-0.0535736083984375,-0.9945220947265625,-0.108917236328125
1686343322695631000,0.824631103515625,-0.046539306640625,-0.992645263671875,-0.10455322265625
1686343322705650200,0.834650146484375,-0.0436553955078125,-0.9936981201171875,-0.102630615234375
1686343322715669000,0.8446689453125,-0.0451812744140625,-0.99676513671875,-0.1031036376953125
1686343322725688000,0.85468798828125,-0.0484466552734375,-0.995269775390625,-0.1052703857421875
1686343322735707100,0.86470703125,-0.04742431640625,-0.9923858642578125,-0.1063690185546875
1686343322745726000,0.874725830078125,-0.0421905517578125,-0.990447998046875,-0.1078338623046875
1686343322755745000,0.8847451171875,-0.032470703125,-0.9896240234375,-0.1083831787109375
1686343322765764000,0.89476416015625,-0.027374267578125,-0.98974609375,-0.1027679443359375
1686343322775783200,0.904783203125,-0.0298919677734375,-0.9918670654296875,-0.103240966796875
1686343322785802000,0.914802001953125,-0.03594970703125,-0.9908447265625,-0.1049041748046875
1686343322795821000,0.924821044921875,-0.0448760986328125,-0.9913177490234375,-0.1042633056640625
1686343322805839000,0.934839111328125,-0.0528106689453125,-0.9934234619140625,-0.107391357421875
1686343322815858000,0.94485791015625,-0.0540008544921875,-0.9948883056640625,-0.1103973388671875
1686343322825877000,0.954876953125,-0.0537109375,-0.99346923828125,-0.111480712890625
1686343322835896000,0.96489599609375,-0.0569915771484375,-0.99554443359375,-0.1092529296875
1686343322845915100,0.9749150390625,-0.0631561279296875,-0.9967193603515625,-0.1078033447265625
1686343322855934000,0.984933837890625,-0.063751220703125,-0.9958648681640625,-0.1100311279296875
1686343322865953000,0.994953125,-0.06103515625,-0.9976654052734375,-0.11102294921875
1686343322875972000,1.00497216796875,-0.057830810546875,-0.999786376953125,-0.109649658203125
1686343322885991200,1.0149912109375,-0.057037353515625,-0.9999237060546875,-0.1087188720703125
1686343322896010000,1.025010009765625,-0.055633544921875,-0.999755859375,-0.1089630126953125
1686343322906029000,1.035029052734375,-0.058349609375,-0.9993896484375,-0.1090087890625
1686343322916048100,1.045048095703125,-0.057769775390625,-0.9972686767578125,-0.107574462890625
1686343322926067000,1.05506689453125,-0.0524749755859375,-0.993927001953125,-0.10650634765625
1686343322936085000,1.0650849609375,-0.05035400390625,-0.994964599609375,-0.103973388671875
1686343322946104000,1.07510400390625,-0.051605224609375,-0.9940185546875,-0.1050567626953125
1686343322956123000,1.085122802734375,-0.050048828125,-0.991973876953125,-0.107879638671875
1686343322966142000,1.095141845703125,-0.051116943359375,-0.99102783203125,-0.1053009033203125
1686343322976161000,1.1051611328125,-0.04974365234375,-0.99468994140625,-0.10614013671875
1686343322986180000,1.11518017578125,-0.0465240478515625,-0.9949188232421875,-0.1106109619140625
1686343322996199000,1.125198974609375,-0.0439910888671875,-0.9949493408203125,-0.10968017578125
1686343323006218000,1.135218017578125,-0.04205322265625,-0.9961700439453125,-0.105316162109375
1686343323016237000,1.145237060546875,-0.042144775390625,-0.99493408203125,-0.1039581298828125
1686343323026256100,1.155256103515625,-0.044891357421875,-0.996429443359375,-0.10235595703125
1686343323036275000,1.16527490234375,-0.047943115234375,-0.996124267578125,-0.102752685546875
1686343323046294000,1.1752939453125,-0.0493621826171875,-0.993682861328125,-0.1060791015625
1686343323056312000,1.18531201171875,-0.050079345703125,-0.9924774169921875,-0.107574462890625
1686343323066331000,1.195330810546875,-0.052764892578125,-0.99224853515625,-0.1083221435546875
1686343323076350000,1.205349853515625,-0.0550537109375,-0.9924774169921875,-0.108551025390625
1686343323086369000,1.215369140625,-0.0547332763671875,-0.9952545166015625,-0.109893798828125
1686343323096387800,1.225387939453125,-0.051513671875,-0.9963531494140625,-0.1092681884765625
1686343323106407000,1.235406982421875,-0.0496063232421875,-0.9957427978515625,-0.1097259521484375
1686343323116426000,1.245426025390625,-0.0471954345703125,-0.9944915771484375,-0.108184814453125
1686343323126445000,1.255445068359375,-0.045989990234375,-0.995635986328125,-0.1059417724609375
1686343323136464000,1.2654638671875,-0.048553466796875,-0.9947967529296875,-0.10321044921875
1686343323146483000,1.27548291015625,-0.0556488037109375,-0.9924774169921875,-0.1030731201171875
1686343323156502000,1.285501953125,-0.0593109130859375,-0.9920654296875,-0.1055908203125
1686343323166519800,1.295519775390625,-0.05450439453125,-0.99591064453125,-0.108795166015625
1686343323176539000,1.305538818359375,-0.0514678955078125,-0.9973297119140625,-0.109161376953125
1686343323186558000,1.315557861328125,-0.0513153076171875,-0.9976654052734375,-0.1091156005859375
1686343323196577000,1.325576904296875,-0.050323486328125,-0.9997711181640625,-0.1102752685546875
1686343323206595800,1.335595947265625,-0.050262451171875,-0.9980926513671875,-0.11065673828125
1686343323216615000,1.345614990234375,-0.053619384765625,-0.99505615234375,-0.1109771728515625
1686343323226634000,1.355634033203125,-0.0554656982421875,-0.9956207275390625,-0.1098480224609375
1686343323236653000,1.365653076171875,-0.0588226318359375,-0.995391845703125,-0.107086181640625
1686343323246672000,1.375671875,-0.06085205078125,-0.9943084716796875,-0.10546875
1686343323256691000,1.38569091796875,-0.0601959228515625,-0.9936370849609375,-0.104888916015625
1686343323266710000,1.3957099609375,-0.0562744140625,-0.9947509765625,-0.10369873046875
1686343323276727800,1.405727783203125,-0.055633544921875,-0.997589111328125,-0.10430908203125
1686343323286747000,1.415746826171875,-0.054901123046875,-0.999053955078125,-0.10833740234375
1686343323296766000,1.425765869140625,-0.0489501953125,-0.9959869384765625,-0.1090087890625
1686343323306784800,1.43578466796875,-0.0450592041015625,-0.991729736328125,-0.1057586669921875
1686343323316803800,1.445803955078125,-0.04339599609375,-0.9893798828125,-0.10369873046875
1686343323326823000,1.455822998046875,-0.0417938232421875,-0.9882659912109375,-0.1068267822265625
1686343323336842000,1.465842041015625,-0.0401763916015625,-0.98919677734375,-0.10784912109375
1686343323346860800,1.47586083984375,-0.04010009765625,-0.9916534423828125,-0.1081390380859375
1686343323356880000,1.4858798828125,-0.0452728271484375,-0.9942474365234375,-0.107757568359375
1686343323366899000,1.49589892578125,-0.052154541015625,-0.9949798583984375,-0.1074371337890625
1686343323376918000,1.50591796875,-0.053955078125,-0.9970703125,-0.10888671875
1686343323386936800,1.515936767578125,-0.05389404296875,-0.99896240234375,-0.1097564697265625
1686343323396955000,1.525954833984375,-0.0567169189453125,-0.99896240234375,-0.108642578125
1686343323406974000,1.535973876953125,-0.0608367919921875,-0.999359130859375,-0.109344482421875
1686343323416993000,1.545992919921875,-0.0652313232421875,-1.0004730224609375,-0.1105194091796875
1686343323427011800,1.55601171875,-0.0669097900390625,-1.00018310546875,-0.1105194091796875
1686343323437031000,1.566031005859375,-0.06671142578125,-0.99859619140625,-0.108978271484375
1686343323447050000,1.576050048828125,-0.0630950927734375,-0.997711181640625,-0.1095123291015625
1686343323457068800,1.58606884765625,-0.0571441650390625,-0.9962921142578125,-0.1088104248046875
1686343323467088000,1.596087890625,-0.05438232421875,-0.99481201171875,-0.1079254150390625
1686343323477106700,1.606106689453125,-0.050384521484375,-0.99554443359375,-0.1087799072265625
1686343323487125800,1.616125732421875,-0.047821044921875,-0.9955902099609375,-0.1082763671875
1686343323497144800,1.626144775390625,-0.042877197265625,-0.99163818359375,-0.1072235107421875
1686343323507163000,1.636162841796875,-0.0395965576171875,-0.9898529052734375,-0.1060333251953125
1686343323517182000,1.646181884765625,-0.03497314453125,-0.9893951416015625,-0.1059417724609375
1686343323527201000,1.656200927734375,-0.0380706787109375,-0.9920501708984375,-0.1050872802734375
1686343323537219800,1.6662197265625,-0.0394744873046875,-0.990875244140625,-0.1092987060546875
1686343323547239000,1.676239013671875,-0.03802490234375,-0.9920806884765625,-0.11126708984375
1686343323557258000,1.686258056640625,-0.040008544921875,-0.99346923828125,-0.1097869873046875
1686343323567277000,1.696277099609375,-0.0419769287109375,-0.993743896484375,-0.1091156005859375
1686343323577296000,1.7062958984375,-0.0450897216796875,-0.9972076416015625,-0.1086578369140625
1686343323587315000,1.71631494140625,-0.0496368408203125,-0.9982147216796875,-0.108123779296875
1686343323597334000,1.726333984375,-0.053497314453125,-0.99627685546875,-0.107147216796875
1686343323607351800,1.736351806640625,-0.05584716796875,-0.9941864013671875,-0.1051788330078125
1686343323617371000,1.746370849609375,-0.0604400634765625,-0.9929656982421875,-0.1034698486328125
1686343323627390000,1.756389892578125,-0.0657806396484375,-0.993072509765625,-0.1053466796875
1686343323637409000,1.766408935546875,-0.060821533203125,-0.9946136474609375,-0.1102752685546875
1686343323647427800,1.776427734375,-0.0556640625,-0.9942169189453125,-0.1118621826171875
1686343323657447000,1.786447021484375,-0.04888916015625,-0.9947967529296875,-0.108917236328125
1686343323667466000,1.796466064453125,-0.04833984375,-0.9966888427734375,-0.1046142578125
1686343323677484800,1.80648486328125,-0.0498046875,-0.997467041015625,-0.1044769287109375
1686343323687504000,1.81650390625,-0.051727294921875,-0.9990234375,-0.10540771484375
1686343323697523000,1.82652294921875,-0.05352783203125,-0.99853515625,-0.1070709228515625
1686343323707540700,1.836540771484375,-0.0507354736328125,-0.9939727783203125,-0.113006591796875
1686343323717559800,1.846559814453125,-0.0512847900390625,-0.9967803955078125,-0.11236572265625
1686343323727579000,1.856578857421875,-0.0490570068359375,-0.9968109130859375,-0.1097869873046875
1686343323737598000,1.866597900390625,-0.046173095703125,-0.9958953857421875,-0.1101837158203125
1686343323747616800,1.87661669921875,-0.0480499267578125,-0.995330810546875,-0.10845947265625
1686343323757635800,1.8866357421875,-0.05059814453125,-0.994171142578125,-0.107757568359375
1686343323767655000,1.896655029296875,-0.04937744140625,-0.9945220947265625,-0.1084442138671875
1686343323777674000,1.906674072265625,-0.05084228515625,-0.9941253662109375,-0.110137939453125
1686343323787692800,1.91669287109375,-0.0498199462890625,-0.9930419921875,-0.111175537109375
1686343323797712000,1.9267119140625,-0.0503082275390625,-0.993682861328125,-0.111663818359375
1686343323807731000,1.93673095703125,-0.0518646240234375,-0.991180419921875,-0.1134033203125
1686343323817748700,1.946748779296875,-0.0558319091796875,-0.9898834228515625,-0.1106414794921875
1686343323827767800,1.956767822265625,-0.0580902099609375,-0.99267578125,-0.11004638671875
1686343323837787000,1.966786865234375,-0.0520172119140625,-0.99810791015625,-0.10430908203125
1686343323847805700,1.9768056640625,-0.0509033203125,-0.993804931640625,-0.10247802734375
1686343323857824800,1.98682470703125,-0.06341552734375,-0.99041748046875,-0.1122894287109375
1686343323867843800,1.99684375,-0.071380615234375,-0.994659423828125,-0.1221771240234375
1686343323877863000,2.00686279296875,-0.0614166259765625,-1.0047760009765625,-0.123626708984375
1686343323887881700,2.0168818359375,-0.0466766357421875,-1.005218505859375,-0.125701904296875
1686343323897900800,2.02690087890625,-0.0366973876953125,-0.9966888427734375,-0.1426239013671875
1686343323907918800,2.0369189453125,-0.0415191650390625,-0.98712158203125,-0.1706695556640625
1686343323917937700,2.046937744140625,-0.051422119140625,-0.98638916015625,-0.1648101806640625
1686343323927956700,2.056956787109375,-0.03173828125,-0.988616943359375,-0.1708526611328125
1686343323937975800,2.066975830078125,-0.0225830078125,-0.981109619140625,-0.185516357421875
1686343323947995000,2.076994873046875,-0.0308074951171875,-0.9655303955078125,-0.1759185791015625
1686343323958013700,2.087013671875,-0.03411865234375,-0.9635772705078125,-0.177703857421875
1686343323968032800,2.09703271484375,-0.0298614501953125,-0.97467041015625,-0.18084716796875
1686343323978051800,2.1070517578125,-0.052154541015625,-0.9697113037109375,-0.185791015625
1686343323988071000,2.11707080078125,-0.2877655029296875,-0.88824462890625,-0.265472412109375
1686343323998089700,2.12708984375,-0.2478790283203125,-0.8907470703125,-0.27056884765625
1686343324008108800,2.13710888671875,-0.0727081298828125,-0.8681488037109375,-0.2438812255859375
1686343324018126800,2.147126953125,-0.0272216796875,-0.87017822265625,-0.167999267578125
1686343324028145700,2.157145751953125,-0.01220703125,-0.852264404296875,-0.1116180419921875
1686343324038164700,2.167164794921875,-0.0299530029296875,-0.935394287109375,-0.0667877197265625
1686343324048183800,2.177183837890625,-0.0338287353515625,-0.9405364990234375,-0.0637969970703125
1686343324058202600,2.18720263671875,-0.02679443359375,-0.9445953369140625,-0.0139617919921875
1686343324068221700,2.1972216796875,0.00653076171875,-1.00433349609375,0.1332550048828125
1686343324078240800,2.20724072265625,0.1026153564453125,-1.145782470703125,0.543304443359375
1686343324088259800,2.217259765625,0.2119903564453125,-1.37847900390625,0.887359619140625
1686343324098278700,2.227278564453125,0.2319488525390625,-1.270660400390625,0.194427490234375
1686343324108297700,2.237297607421875,0.2173614501953125,-1.0745086669921875,-0.1218719482421875
1686343324118316000,2.24731591796875,0.1477203369140625,-1.01611328125,-0.084808349609375
1686343324128334800,2.2573349609375,0.0839080810546875,-1.005096435546875,-0.0616302490234375
1686343324138354000,2.26735400390625,0.0327911376953125,-1.0117034912109375,-0.0285491943359375
1686343324148373000,2.277373046875,-0.0285186767578125,-0.999542236328125,-0.0363922119140625
1686343324158392000,2.28739208984375,-0.0979766845703125,-0.98046875,-0.0652313232421875
1686343324168411000,2.297410888671875,-0.155242919921875,-0.9655609130859375,-0.1090545654296875
1686343324178430000,2.307429931640625,-0.1862640380859375,-0.941925048828125,-0.1275177001953125
1686343324188449000,2.317448974609375,-0.15972900390625,-0.964813232421875,-0.1092987060546875
1686343324198468000,2.327468017578125,-0.0888671875,-0.9910736083984375,-0.0862579345703125
1686343324208487000,2.33748681640625,-0.04534912109375,-1.0159149169921875,-0.0352630615234375
1686343324218505000,2.3475048828125,-0.0245208740234375,-1.0256195068359375,0.009857177734375
1686343324228524000,2.35752392578125,-0.0433502197265625,-1.0251312255859375,0.0203704833984375
1686343324238542800,2.36754296875,-0.084808349609375,-1.01220703125,-0.0114898681640625
1686343324248562000,2.37756201171875,-0.1153717041015625,-1.001495361328125,-0.0373077392578125
1686343324258581000,2.3875810546875,-0.0978546142578125,-1.0020599365234375,-0.0432281494140625
1686343324268599800,2.397599853515625,-0.071868896484375,-1.0167236328125,-0.039276123046875
1686343324278619000,2.407618896484375,-0.040802001953125,-1.01007080078125,-0.033843994140625
1686343324288638000,2.417637939453125,-0.0284423828125,-1.004974365234375,-0.0214080810546875
1686343324298657000,2.427656982421875,-0.0519561767578125,-0.9992218017578125,-0.0420379638671875
1686343324308675800,2.43767578125,-0.1126556396484375,-0.9907379150390625,-0.0443878173828125
1686343324318694000,2.44769384765625,-0.157470703125,-0.985565185546875,-0.0411529541015625
1686343324328713000,2.457712890625,-0.1641998291015625,-0.994354248046875,-0.0711517333984375
1686343324338731800,2.467731689453125,-0.131317138671875,-0.986480712890625,-0.0872344970703125
1686343324348750800,2.477750732421875,-0.0731658935546875,-0.9766693115234375,-0.105072021484375
1686343324358770000,2.48777001953125,-0.0547943115234375,-0.9802093505859375,-0.096771240234375
1686343324368789000,2.4977890625,-0.0970611572265625,-0.98211669921875,-0.0505218505859375
1686343324378807800,2.507807861328125,-0.14044189453125,-0.9808807373046875,-0.0231781005859375
1686343324388827600,2.51782763671875,-0.1798858642578125,-0.99249267578125,-0.015777587890625
1686343324398846500,2.527846435546875,-0.1954803466796875,-1.000762939453125,-0.0420074462890625
1686343324408865500,2.537865478515625,-0.186431884765625,-0.999053955078125,-0.068939208984375
1686343324418883600,2.547883544921875,-0.1993255615234375,-0.9833831787109375,-0.0594635009765625
1686343324428902400,2.55790234375,-0.2197723388671875,-0.9626007080078125,-0.0567169189453125
1686343324438921500,2.56792138671875,-0.2396240234375,-0.95306396484375,-0.085479736328125
1686343324448940500,2.5779404296875,-0.2665557861328125,-0.9647369384765625,-0.0845184326171875
1686343324458959600,2.587959716796875,-0.269744873046875,-0.9509735107421875,-0.0935821533203125
1686343324468978400,2.597978515625,-0.270172119140625,-0.9496307373046875,-0.1014862060546875
1686343324478997500,2.60799755859375,-0.27069091796875,-0.9634857177734375,-0.1016845703125
1686343324489016600,2.6180166015625,-0.2514190673828125,-0.9684906005859375,-0.1000823974609375
1686343324499035600,2.62803564453125,-0.224700927734375,-0.988739013671875,-0.0693511962890625
1686343324509054500,2.638054443359375,-0.1793365478515625,-1.0022430419921875,-0.03094482421875
1686343324519072500,2.648072509765625,-0.1335601806640625,-0.99420166015625,-0.01092529296875
1686343324529091600,2.658091552734375,-0.1102752685546875,-1.0175933837890625,0.015777587890625
1686343324539110400,2.6681103515625,-0.0752716064453125,-1.0409088134765625,0.0342254638671875
1686343324549129500,2.67812939453125,-0.0050201416015625,-1.091705322265625,0.083648681640625
1686343324559148500,2.6881484375,-0.02374267578125,-1.108551025390625,0.0503692626953125
1686343324569167400,2.69816748046875,-0.1324920654296875,-1.0699005126953125,-0.05194091796875
1686343324579186400,2.7081865234375,-0.2266845703125,-1.052093505859375,-0.05975341796875
1686343324589205500,2.71820556640625,-0.262542724609375,-1.03326416015625,-0.0338897705078125
1686343324599224600,2.728224609375,-0.2310943603515625,-1.003326416015625,-0.0124359130859375
1686343324609243400,2.738243408203125,-0.175079345703125,-0.999237060546875,0.009490966796875
1686343324619261400,2.748261474609375,-0.1072540283203125,-1.0146331787109375,-0.03253173828125
1686343324629280500,2.758280517578125,-0.0938873291015625,-1.0063629150390625,-0.0330810546875
1686343324639299300,2.76829931640625,-0.13385009765625,-0.979583740234375,-0.0440673828125
1686343324649318400,2.778318359375,-0.1812286376953125,-0.9785614013671875,-0.04815673828125
1686343324659337500,2.78833740234375,-0.20843505859375,-0.977294921875,-0.0292816162109375
1686343324669356500,2.7983564453125,-0.187591552734375,-0.9598541259765625,-0.0216522216796875
1686343324679375400,2.808375244140625,-0.171478271484375,-0.9646453857421875,-0.020538330078125
1686343324689394400,2.81839453125,-0.1666717529296875,-0.9778594970703125,-0.02935791015625
1686343324699413500,2.82841357421875,-0.1342620849609375,-0.974639892578125,-0.017608642578125
1686343324709431300,2.838431396484375,-0.106231689453125,-0.978118896484375,0.0170135498046875
1686343324719450400,2.848450439453125,-0.0977783203125,-0.980743408203125,0.0390625
1686343324729469400,2.858469482421875,-0.0876617431640625,-0.9817657470703125,0.029876708984375
1686343324739488300,2.86848828125,-0.0801239013671875,-0.97283935546875,0.0047607421875
1686343324749507300,2.87850732421875,-0.0760955810546875,-0.9668121337890625,0.003082275390625
1686343324759526400,2.8885263671875,-0.084991455078125,-0.964508056640625,0.02130126953125
1686343324769545500,2.89854541015625,-0.0982208251953125,-0.9622039794921875,0.0404510498046875
1686343324779564300,2.908564208984375,-0.1097412109375,-0.9600677490234375,0.05035400390625
1686343324789583400,2.918583251953125,-0.1183013916015625,-0.9570770263671875,0.0522918701171875
1686343324799602400,2.9286025390625,-0.1259307861328125,-0.9612274169921875,0.0473785400390625
1686343324809620500,2.938620361328125,-0.126953125,-0.96533203125,0.026947021484375
1686343324819639600,2.9486396484375,-0.1356201171875,-0.9681243896484375,0.014495849609375
1686343324829658600,2.95865869140625,-0.153594970703125,-0.975921630859375,0.0156402587890625
1686343324839677700,2.968677734375,-0.1699371337890625,-0.9743499755859375,0.0153045654296875
1686343324849696500,2.978696533203125,-0.1916656494140625,-0.9701080322265625,0.0195770263671875
1686343324859715600,2.988715576171875,-0.21087646484375,-0.9715118408203125,0.028778076171875
1686343324869734400,2.998734375,-0.213897705078125,-0.9711456298828125,0.0296783447265625
1686343324879753500,3.00875341796875,-0.210235595703125,-0.971405029296875,0.0232696533203125
1686343324889772300,3.018772216796875,-0.208251953125,-0.97412109375,0.0180511474609375
1686343324899791400,3.028791259765625,-0.1996612548828125,-0.9728851318359375,0.0204620361328125
1686343324909809700,3.0388095703125,-0.1954193115234375,-0.9752349853515625,0.0177154541015625
1686343324919828500,3.048828369140625,-0.18572998046875,-0.9758758544921875,0.0062408447265625
1686343324929847600,3.05884765625,-0.1787109375,-0.9753570556640625,-0.005279541015625
1686343324939866600,3.06886669921875,-0.17535400390625,-0.98309326171875,-0.01287841796875
1686343324949885400,3.078885498046875,-0.1611175537109375,-0.983673095703125,-0.0151824951171875
1686343324959904500,3.088904541015625,-0.15191650390625,-0.98284912109375,-0.017120361328125
1686343324969923600,3.098923583984375,-0.15484619140625,-0.98358154296875,-0.01849365234375
1686343324979942700,3.108942626953125,-0.1678924560546875,-0.9800567626953125,-0.01568603515625
1686343324989961500,3.11896142578125,-0.1740875244140625,-0.9754180908203125,-0.0104827880859375
1686343324999980500,3.12898046875,-0.1682891845703125,-0.9752197265625,-0.0071563720703125
1686343325009998600,3.13899853515625,-0.156768798828125,-0.978118896484375,-0.0113983154296875
1686343325020017400,3.149017333984375,-0.148406982421875,-0.9835968017578125,-0.0139007568359375
1686343325030036500,3.159036376953125,-0.1488494873046875,-0.9886932373046875,-0.0177764892578125
1686343325040055600,3.1690556640625,-0.1517486572265625,-0.989349365234375,-0.014190673828125
1686343325050074600,3.17907470703125,-0.1533355712890625,-0.99029541015625,-0.0061187744140625
1686343325060093400,3.189093505859375,-0.152557373046875,-0.992279052734375,-0.00555419921875
1686343325070112500,3.199112548828125,-0.1469573974609375,-0.993804931640625,-0.0105743408203125
1686343325080131600,3.209131591796875,-0.142425537109375,-0.9970550537109375,-0.0147857666015625
1686343325090150700,3.219150634765625,-0.1394805908203125,-1.0043792724609375,-0.0229949951171875
1686343325100168400,3.22916845703125,-0.1368865966796875,-1.005401611328125,-0.03594970703125
1686343325110187500,3.2391875,-0.1441497802734375,-1.0044403076171875,-0.0391845703125
1686343325120206600,3.24920654296875,-0.1607818603515625,-1.0081329345703125,-0.03973388671875
1686343325130225400,3.259225341796875,-0.1730804443359375,-1.006439208984375,-0.042877197265625
1686343325140244500,3.269244384765625,-0.1826171875,-1.0002593994140625,-0.0435791015625
1686343325150263600,3.279263671875,-0.1942138671875,-0.995208740234375,-0.0410308837890625
1686343325160282400,3.289282470703125,-0.198455810546875,-0.9904327392578125,-0.03375244140625
1686343325170301400,3.299301513671875,-0.1983642578125,-0.9876251220703125,-0.02294921875
1686343325180320500,3.309320556640625,-0.1965789794921875,-0.990509033203125,-0.0202178955078125
1686343325190338300,3.31933837890625,-0.19342041015625,-0.9914093017578125,-0.026641845703125
1686343325200357400,3.329357421875,-0.1931915283203125,-0.9905548095703125,-0.032958984375
1686343325210376400,3.33937646484375,-0.195404052734375,-0.990814208984375,-0.0343170166015625
1686343325220395500,3.3493955078125,-0.1962127685546875,-0.9915008544921875,-0.037078857421875
1686343325230414300,3.359414306640625,-0.194915771484375,-0.993011474609375,-0.039031982421875
1686343325240433400,3.369433349609375,-0.18963623046875,-0.9950408935546875,-0.0394134521484375
1686343325250452500,3.379452392578125,-0.1889190673828125,-0.998321533203125,-0.0471649169921875
1686343325260471600,3.389471435546875,-0.186431884765625,-0.9976043701171875,-0.0520782470703125
1686343325270490400,3.399490478515625,-0.182952880859375,-0.996124267578125,-0.0492095947265625
1686343325280509400,3.409509521484375,-0.1824798583984375,-0.996185302734375,-0.0467987060546875
1686343325290527500,3.419527587890625,-0.1787261962890625,-0.995330810546875,-0.0473175048828125
1686343325300546300,3.42954638671875,-0.17010498046875,-0.9951324462890625,-0.048980712890625
1686343325310565400,3.4395654296875,-0.163848876953125,-0.996124267578125,-0.054931640625
1686343325320584400,3.44958447265625,-0.1577911376953125,-0.991455078125,-0.061431884765625
1686343325330603500,3.459603515625,-0.1551971435546875,-0.9863128662109375,-0.056396484375
1686343325340622300,3.469622314453125,-0.15631103515625,-0.984588623046875,-0.0472564697265625
1686343325350641400,3.479641357421875,-0.156951904296875,-0.9799652099609375,-0.0404815673828125
1686343325360660500,3.489660400390625,-0.156005859375,-0.9778900146484375,-0.0370025634765625
1686343325370679300,3.49967919921875,-0.153961181640625,-0.97589111328125,-0.0357666015625
1686343325380698400,3.509698486328125,-0.1484527587890625,-0.9785919189453125,-0.0327606201171875
1686343325390716700,3.519716552734375,-0.1381072998046875,-0.9784088134765625,-0.032318115234375
1686343325400735700,3.52973583984375,-0.1339874267578125,-0.9791107177734375,-0.0299835205078125
1686343325410754600,3.539754638671875,-0.1364593505859375,-0.9831390380859375,-0.0186004638671875
1686343325420773600,3.549773681640625,-0.138916015625,-0.9860382080078125,-0.0142822265625
1686343325430792400,3.55979248046875,-0.141845703125,-0.9874267578125,-0.0189666748046875
1686343325440811500,3.5698115234375,-0.1453399658203125,-0.9903717041015625,-0.02178955078125
1686343325450830600,3.57983056640625,-0.1484527587890625,-0.9918975830078125,-0.021697998046875
1686343325460849700,3.589849609375,-0.1471099853515625,-0.9910736083984375,-0.0174102783203125
1686343325470868500,3.599868408203125,-0.149993896484375,-0.99395751953125,-0.0160064697265625
1686343325480886800,3.60988671875,-0.1570281982421875,-0.992401123046875,-0.0193023681640625
1686343325490905900,3.61990576171875,-0.164794921875,-0.990753173828125,-0.0230560302734375
1686343325500924700,3.629924560546875,-0.172088623046875,-0.992034912109375,-0.0272979736328125
1686343325510943700,3.63994384765625,-0.179412841796875,-0.9900665283203125,-0.03070068359375
1686343325520962800,3.649962890625,-0.186279296875,-0.988311767578125,-0.030181884765625
1686343325530981600,3.659981689453125,-0.192962646484375,-0.9899139404296875,-0.02947998046875
1686343325541000700,3.670000732421875,-0.1938323974609375,-0.9883575439453125,-0.0306549072265625
1686343325551019800,3.680019775390625,-0.190093994140625,-0.9846954345703125,-0.030487060546875
1686343325561038800,3.690038818359375,-0.1821136474609375,-0.9871673583984375,-0.0302886962890625
1686343325571056600,3.700056640625,-0.1706085205078125,-0.988861083984375,-0.036895751953125
1686343325581075700,3.71007568359375,-0.165802001953125,-0.984771728515625,-0.0396881103515625
1686343325591094800,3.7200947265625,-0.1683807373046875,-0.9837188720703125,-0.03826904296875
1686343325601113600,3.730113525390625,-0.17132568359375,-0.982513427734375,-0.0398712158203125
1686343325611132700,3.740132568359375,-0.1666717529296875,-0.981048583984375,-0.0384063720703125
1686343325621151700,3.75015185546875,-0.15447998046875,-0.984161376953125,-0.0434112548828125
1686343325631170800,3.7601708984375,-0.1414337158203125,-0.9817047119140625,-0.051116943359375
1686343325641189600,3.770189697265625,-0.1329345703125,-0.983978271484375,-0.0493621826171875
1686343325651208700,3.780208740234375,-0.1335601806640625,-0.98828125,-0.0440673828125
1686343325661227800,3.790227783203125,-0.142333984375,-0.9870452880859375,-0.0417938232421875
1686343325671245600,3.80024560546875,-0.14923095703125,-0.98809814453125,-0.0413360595703125
1686343325681264600,3.8102646484375,-0.152801513671875,-0.98876953125,-0.042938232421875
1686343325691283700,3.82028369140625,-0.1529693603515625,-0.9876708984375,-0.0398712158203125
1686343325701302800,3.830302734375,-0.1478729248046875,-0.9884796142578125,-0.0376434326171875
1686343325711321600,3.840321533203125,-0.1409759521484375,-0.991943359375,-0.0418548583984375
1686343325721340700,3.850340576171875,-0.1325836181640625,-0.9929046630859375,-0.0462646484375
1686343325731359700,3.86035986328125,-0.1280364990234375,-0.996124267578125,-0.0496368408203125
1686343325741378600,3.870378662109375,-0.1293182373046875,-0.9976043701171875,-0.0489654541015625
1686343325751397600,3.880397705078125,-0.13922119140625,-0.99505615234375,-0.0475921630859375
1686343325761415700,3.890415771484375,-0.15167236328125,-0.9940032958984375,-0.0457305908203125
1686343325771434500,3.9004345703125,-0.161407470703125,-0.9938812255859375,-0.04595947265625
1686343325781453600,3.91045361328125,-0.1653594970703125,-0.9910430908203125,-0.047271728515625
1686343325791472600,3.92047265625,-0.1649322509765625,-0.990997314453125,-0.0482635498046875
1686343325801491700,3.93049169921875,-0.1610107421875,-0.992584228515625,-0.0465545654296875
1686343325811510500,3.940510498046875,-0.1568756103515625,-0.9954071044921875,-0.04443359375
1686343325821529600,3.950529541015625,-0.1563720703125,-0.9954071044921875,-0.0419464111328125
1686343325831548700,3.960548583984375,-0.1547393798828125,-0.994598388671875,-0.041717529296875
1686343325841567700,3.970567626953125,-0.15399169921875,-0.9930877685546875,-0.04144287109375
1686343325851585500,3.98058544921875,-0.153106689453125,-0.992431640625,-0.0445556640625
1686343325861604600,3.9906044921875,-0.156646728515625,-0.9904022216796875,-0.0483856201171875
1686343325871623700,4.000623779296875,-0.1605682373046875,-0.987060546875,-0.0488433837890625
1686343325881642500,4.010642578125,-0.16241455078125,-0.98492431640625,-0.04547119140625
1686343325891661600,4.02066162109375,-0.161895751953125,-0.9827880859375,-0.038482666015625
1686343325901680600,4.0306806640625,-0.1609954833984375,-0.9834442138671875,-0.032257080078125
1686343325911699500,4.040699462890625,-0.15655517578125,-0.9836273193359375,-0.0341949462890625
1686343325921718500,4.050718505859375,-0.148590087890625,-0.98321533203125,-0.0404510498046875
1686343325931737600,4.060737548828125,-0.1428070068359375,-0.983245849609375,-0.0420379638671875
1686343325941756700,4.070756591796875,-0.1404876708984375,-0.983917236328125,-0.0392608642578125
1686343325951774700,4.080774658203125,-0.1405181884765625,-0.984954833984375,-0.0418548583984375
1686343325961793500,4.09079345703125,-0.1434326171875,-0.98468017578125,-0.0445098876953125
1686343325971812600,4.1008125,-0.1453857421875,-0.9859771728515625,-0.0453338623046875
1686343325981831400,4.11083154296875,-0.149871826171875,-0.9860382080078125,-0.0467376708984375
1686343325991850500,4.1208505859375,-0.151885986328125,-0.9875335693359375,-0.045654296875
1686343326001869600,4.13086962890625,-0.1544036865234375,-0.9871978759765625,-0.0458221435546875
1686343326011888600,4.140888671875,-0.153656005859375,-0.9878997802734375,-0.0451507568359375
1686343326021907500,4.150907470703125,-0.146240234375,-0.99200439453125,-0.0440521240234375
1686343326031926500,4.160926513671875,-0.1431732177734375,-0.9958038330078125,-0.0465545654296875
1686343326041944800,4.17094482421875,-0.14617919921875,-0.9970245361328125,-0.0508270263671875
1686343326051963600,4.180963623046875,-0.1502685546875,-0.9976806640625,-0.051788330078125
1686343326061982700,4.190982666015625,-0.1544647216796875,-0.9977264404296875,-0.053375244140625
1686343326072001800,4.201001708984375,-0.1581573486328125,-0.996612548828125,-0.0535125732421875
1686343326082020900,4.211020751953125,-0.1603240966796875,-0.995849609375,-0.0504608154296875
1686343326092039700,4.221039794921875,-0.1595611572265625,-0.9950103759765625,-0.050811767578125
1686343326102058800,4.231058837890625,-0.1562957763671875,-0.9927520751953125,-0.0543670654296875
1686343326112077800,4.241077880859375,-0.153045654296875,-0.9915771484375,-0.05450439453125
1686343326122096600,4.2510966796875,-0.1531524658203125,-0.9902801513671875,-0.0528411865234375
1686343326132114700,4.26111474609375,-0.1536712646484375,-0.9905242919921875,-0.05218505859375
1686343326142133800,4.2711337890625,-0.1534881591796875,-0.989288330078125,-0.05059814453125
1686343326152152600,4.281152587890625,-0.1566925048828125,-0.9865264892578125,-0.04864501953125
1686343326162171600,4.291171630859375,-0.1608123779296875,-0.98846435546875,-0.0445098876953125
1686343326172190700,4.301190673828125,-0.1586456298828125,-0.989837646484375,-0.0456390380859375
1686343326182209800,4.311209716796875,-0.1517333984375,-0.9898529052734375,-0.0452423095703125
1686343326192228600,4.321228515625,-0.146270751953125,-0.9920654296875,-0.0449371337890625
1686343326202247700,4.33124755859375,-0.147552490234375,-0.992156982421875,-0.0451202392578125
1686343326212266800,4.341266845703125,-0.15020751953125,-0.98980712890625,-0.04595947265625
1686343326222285800,4.351285888671875,-0.151947021484375,-0.9872283935546875,-0.0474853515625
1686343326232303600,4.3613037109375,-0.1514739990234375,-0.9862518310546875,-0.0478515625
1686343326242322700,4.37132275390625,-0.152069091796875,-0.98272705078125,-0.04595947265625
1686343326252341800,4.381341796875,-0.1534271240234375,-0.98046875,-0.042572021484375
1686343326262360600,4.391360595703125,-0.1524200439453125,-0.981689453125,-0.0370330810546875
1686343326272379600,4.401379638671875,-0.152252197265625,-0.9815216064453125,-0.03607177734375
1686343326282398700,4.411398681640625,-0.1508636474609375,-0.9832000732421875,-0.037445068359375
1686343326292417800,4.421417724609375,-0.1477508544921875,-0.986328125,-0.0407257080078125
1686343326302436600,4.4314365234375,-0.1445465087890625,-0.988861083984375,-0.0484771728515625
1686343326312455700,4.44145556640625,-0.1421356201171875,-0.9917755126953125,-0.05621337890625
1686343326322473700,4.4514736328125,-0.1417388916015625,-0.9930572509765625,-0.0578460693359375
1686343326332492500,4.461492431640625,-0.1416473388671875,-0.993682861328125,-0.0553436279296875
1686343326342511600,4.47151171875,-0.14453125,-0.994598388671875,-0.0504608154296875
1686343326352530700,4.48153076171875,-0.144744873046875,-0.9957275390625,-0.048797607421875
1686343326362549500,4.491549560546875,-0.1469573974609375,-0.994415283203125,-0.048828125
1686343326372568600,4.501568603515625,-0.1485595703125,-0.993560791015625,-0.051025390625
1686343326382587600,4.511587646484375,-0.1505584716796875,-0.9930572509765625,-0.05499267578125
1686343326392606000,4.52160595703125,-0.1507415771484375,-0.9946746826171875,-0.06072998046875
1686343326402625000,4.531625,-0.152099609375,-0.9948577880859375,-0.06329345703125
1686343326412643000,4.54164306640625,-0.157318115234375,-0.9946746826171875,-0.0620269775390625
1686343326422662100,4.551662109375,-0.1660003662109375,-0.9932861328125,-0.0585174560546875
1686343326432681000,4.561680908203125,-0.1707305908203125,-0.9907073974609375,-0.0543365478515625
1686343326442700000,4.571699951171875,-0.1721649169921875,-0.988037109375,-0.05035400390625
1686343326452718800,4.58171875,-0.1655731201171875,-0.9895477294921875,-0.043853759765625
1686343326462738000,4.591738037109375,-0.1551971435546875,-0.9906005859375,-0.0420989990234375
1686343326472757000,4.601757080078125,-0.14794921875,-0.99041748046875,-0.041229248046875
1686343326482775800,4.61177587890625,-0.1448822021484375,-0.9908447265625,-0.039306640625
1686343326492795000,4.621794921875,-0.1443634033203125,-0.9900054931640625,-0.0430755615234375
1686343326502814000,4.63181396484375,-0.146881103515625,-0.987945556640625,-0.049102783203125
1686343326512832000,4.64183203125,-0.15228271484375,-0.98492431640625,-0.0527191162109375
1686343326522851000,4.65185107421875,-0.15576171875,-0.9808349609375,-0.04949951171875
1686343326532870100,4.6618701171875,-0.1581878662109375,-0.980194091796875,-0.044219970703125
1686343326542889200,4.67188916015625,-0.1531524658203125,-0.979888916015625,-0.0382232666015625
1686343326552908000,4.681907958984375,-0.1478729248046875,-0.981842041015625,-0.038299560546875
1686343326562927000,4.691927001953125,-0.146331787109375,-0.9817047119140625,-0.0414276123046875
1686343326572946200,4.7019462890625,-0.1549530029296875,-0.983642578125,-0.0377197265625
1686343326582965200,4.71196533203125,-0.155029296875,-0.98858642578125,-0.039276123046875
1686343326592984000,4.721984130859375,-0.1418609619140625,-0.9926300048828125,-0.0499420166015625
1686343326603002000,4.732002197265625,-0.1336517333984375,-0.995391845703125,-0.0567169189453125
1686343326613021200,4.742021240234375,-0.1373443603515625,-0.9985809326171875,-0.0594940185546875
1686343326623040000,4.7520400390625,-0.1389923095703125,-0.9954986572265625,-0.0634765625
1686343326633059000,4.76205908203125,-0.143280029296875,-0.99310302734375,-0.0627899169921875
1686343326643078100,4.772078125,-0.1456756591796875,-0.991455078125,-0.0577545166015625
1686343326653097000,4.782096923828125,-0.144805908203125,-0.9884033203125,-0.0535430908203125
1686343326663116000,4.792115966796875,-0.1437225341796875,-0.9880523681640625,-0.0498046875
1686343326673135000,4.802135009765625,-0.14141845703125,-0.9900360107421875,-0.048370361328125
1686343326683154200,4.812154296875,-0.13653564453125,-0.98944091796875,-0.05169677734375
1686343326693172000,4.822171875,-0.1368865966796875,-0.9905242919921875,-0.0531005859375
1686343326703191000,4.83219091796875,-0.1395263671875,-0.99169921875,-0.0538787841796875
1686343326713210000,4.842210205078125,-0.1435394287109375,-0.989837646484375,-0.05377197265625
1686343326723229000,4.85222900390625,-0.1481781005859375,-0.990570068359375,-0.0515289306640625
1686343326733248000,4.862248046875,-0.1478729248046875,-0.991302490234375,-0.0489654541015625
1686343326743267000,4.87226708984375,-0.1469573974609375,-0.9922943115234375,-0.0476531982421875
1686343326753286100,4.8822861328125,-0.14996337890625,-0.9925384521484375,-0.0480804443359375
1686343326763305000,4.892304931640625,-0.155975341796875,-0.99029541015625,-0.0472412109375
1686343326773324000,4.902323974609375,-0.1632232666015625,-0.991119384765625,-0.0445556640625
1686343326783342000,4.912342041015625,-0.1693115234375,-0.9916534423828125,-0.0477752685546875
1686343326793361000,4.92236083984375,-0.1700592041015625,-0.9896697998046875,-0.0554962158203125
1686343326803380000,4.9323798828125,-0.169403076171875,-0.9908905029296875,-0.058990478515625
1686343326813399000,4.94239892578125,-0.1664276123046875,-0.9957275390625,-0.05950927734375
1686343326823418000,4.952418212890625,-0.1614837646484375,-0.994903564453125,-0.0620880126953125
1686343326833437000,4.96243701171875,-0.1578521728515625,-0.9945068359375,-0.0637359619140625
1686343326843456000,4.9724560546875,-0.1555938720703125,-0.99420166015625,-0.0613861083984375
1686343326853475000,4.98247509765625,-0.1586761474609375,-0.9930572509765625,-0.058074951171875
1686343326863494000,4.992493896484375,-0.156219482421875,-0.9863128662109375,-0.0516510009765625
1686343326873513000,5.002512939453125,-0.1492919921875,-0.9846038818359375,-0.04193115234375
1686343326883531000,5.012531005859375,-0.140380859375,-0.9854888916015625,-0.040313720703125
1686343326893549800,5.0225498046875,-0.129486083984375,-0.982421875,-0.045257568359375
1686343326903569000,5.03256884765625,-0.1222686767578125,-0.983245849609375,-0.051116943359375
1686343326913588000,5.042587890625,-0.1229248046875,-0.9850006103515625,-0.0563201904296875
1686343326923607000,5.05260693359375,-0.14129638671875,-0.986968994140625,-0.054351806640625
1686343326933625900,5.0626259765625,-0.1562042236328125,-0.9877471923828125,-0.054931640625
1686343326943645000,5.07264501953125,-0.1559295654296875,-0.986297607421875,-0.0541229248046875
1686343326953664000,5.0826640625,-0.152313232421875,-0.9849853515625,-0.0499114990234375
1686343326963683000,5.09268310546875,-0.1455535888671875,-0.984893798828125,-0.0465545654296875
1686343326973701000,5.102701171875,-0.134002685546875,-0.9845123291015625,-0.046478271484375
1686343326983720200,5.11272021484375,-0.122650146484375,-0.986236572265625,-0.047760009765625
1686343326993739000,5.122739013671875,-0.12200927734375,-0.9889984130859375,-0.0476837158203125
1686343327003758000,5.132758056640625,-0.128570556640625,-0.9914398193359375,-0.04736328125
1686343327013777000,5.14277685546875,-0.13525390625,-0.9932098388671875,-0.051239013671875
1686343327023796000,5.1527958984375,-0.1422882080078125,-0.9941253662109375,-0.057464599609375
1686343327033814800,5.162814697265625,-0.143524169921875,-0.9969940185546875,-0.0640716552734375
1686343327043833900,5.172833740234375,-0.140777587890625,-0.99774169921875,-0.06988525390625
1686343327053853000,5.18285302734375,-0.137451171875,-0.99810791015625,-0.0692138671875
1686343327063872000,5.1928720703125,-0.135467529296875,-1.0008087158203125,-0.0666961669921875
1686343327073890000,5.20289013671875,-0.1388702392578125,-1.0013275146484375,-0.067535400390625
1686343327083909000,5.2129091796875,-0.142822265625,-1.000396728515625,-0.0660247802734375
1686343327093928200,5.22292822265625,-0.1493988037109375,-1.0015411376953125,-0.06170654296875
1686343327103947000,5.232947021484375,-0.152801513671875,-1.0009307861328125,-0.0597076416015625
1686343327113966000,5.242966064453125,-0.152008056640625,-0.9975433349609375,-0.0598602294921875
1686343327123985200,5.252985107421875,-0.1496734619140625,-0.9951324462890625,-0.05743408203125
1686343327134004200,5.263004150390625,-0.1481170654296875,-0.994171142578125,-0.055328369140625
1686343327144023000,5.27302294921875,-0.1454925537109375,-0.992340087890625,-0.055145263671875
1686343327154042000,5.2830419921875,-0.14288330078125,-0.990631103515625,-0.0547637939453125
1686343327164060200,5.29306005859375,-0.144927978515625,-0.990447998046875,-0.0516510009765625
1686343327174079000,5.303078857421875,-0.1490631103515625,-0.9873046875,-0.049530029296875
1686343327184098000,5.31309814453125,-0.1504669189453125,-0.9853668212890625,-0.04864501953125
1686343327194117000,5.3231171875,-0.150146484375,-0.9852142333984375,-0.049346923828125
1686343327204136200,5.33313623046875,-0.147705078125,-0.9826507568359375,-0.0475311279296875
1686343327214155000,5.343155029296875,-0.143280029296875,-0.9811553955078125,-0.0431976318359375
1686343327224174000,5.353174072265625,-0.13592529296875,-0.9800567626953125,-0.0398101806640625
1686343327234193200,5.363193115234375,-0.1308135986328125,-0.9799041748046875,-0.0400390625
1686343327244212000,5.3732119140625,-0.12542724609375,-0.979949951171875,-0.0414886474609375
1686343327254231000,5.38323095703125,-0.12188720703125,-0.9815673828125,-0.0420379638671875
1686343327264249000,5.3932490234375,-0.1207733154296875,-0.985137939453125,-0.04486083984375
1686343327274268000,5.403267822265625,-0.1246337890625,-0.9853515625,-0.0469970703125
1686343327284287000,5.413286865234375,-0.13116455078125,-0.9849853515625,-0.044830322265625
1686343327294306000,5.42330615234375,-0.1349334716796875,-0.9842681884765625,-0.041290283203125
1686343327304325000,5.4333251953125,-0.1332550048828125,-0.9832611083984375,-0.039886474609375
1686343327314344000,5.443343994140625,-0.13116455078125,-0.98590087890625,-0.044708251953125
1686343327324363000,5.453363037109375,-0.1280517578125,-0.9893341064453125,-0.05291748046875
1686343327334382000,5.463382080078125,-0.1269989013671875,-0.99139404296875,-0.05853271484375
1686343327344401200,5.473401123046875,-0.1277923583984375,-0.995330810546875,-0.0617218017578125
1686343327354419000,5.4834189453125,-0.12884521484375,-0.9951629638671875,-0.06610107421875
1686343327364438000,5.49343798828125,-0.1330108642578125,-1.0004425048828125,-0.0718231201171875
1686343327374457000,5.50345703125,-0.135040283203125,-0.999267578125,-0.071563720703125
1686343327384476000,5.513475830078125,-0.1355133056640625,-1.00274658203125,-0.0721282958984375
1686343327394495700,5.523495849609375,-0.144439697265625,-1.004486083984375,-0.0692901611328125
1686343327404514800,5.533514892578125,-0.1562042236328125,-1.00250244140625,-0.06671142578125
1686343327414533600,5.54353369140625,-0.1675262451171875,-0.9996337890625,-0.0661163330078125
1686343327424552700,5.553552734375,-0.167266845703125,-0.9982757568359375,-0.0648651123046875
1686343327434571800,5.56357177734375,-0.1598052978515625,-0.9971160888671875,-0.0624542236328125
1686343327444589600,5.573589599609375,-0.14959716796875,-0.9962005615234375,-0.0614471435546875
1686343327454608600,5.583608642578125,-0.14190673828125,-0.9962921142578125,-0.063385009765625
1686343327464627700,5.593627685546875,-0.1471099853515625,-0.9930572509765625,-0.060211181640625
1686343327474646800,5.603646728515625,-0.160919189453125,-0.9907989501953125,-0.05352783203125
1686343327484665600,5.61366552734375,-0.1744537353515625,-0.98809814453125,-0.050048828125
1686343327494684700,5.6236845703125,-0.1795501708984375,-0.9864654541015625,-0.0462493896484375
1686343327504703700,5.633703857421875,-0.1720428466796875,-0.9892120361328125,-0.0474090576171875
1686343327514722800,5.643722900390625,-0.156341552734375,-0.993560791015625,-0.0523681640625
1686343327524741600,5.65374169921875,-0.138946533203125,-0.9953155517578125,-0.0585174560546875
1686343327534759700,5.663759765625,-0.13067626953125,-0.994781494140625,-0.05963134765625
1686343327544778800,5.67377880859375,-0.1286773681640625,-0.991455078125,-0.057037353515625
1686343327554797600,5.683797607421875,-0.1292724609375,-0.9850311279296875,-0.0508575439453125
1686343327564816600,5.693816650390625,-0.1239776611328125,-0.9808197021484375,-0.0403594970703125
1686343327574835700,5.703835693359375,-0.1179656982421875,-0.9789581298828125,-0.040252685546875
1686343327584854800,5.713854736328125,-0.1114959716796875,-0.9796142578125,-0.042724609375
1686343327594873600,5.72387353515625,-0.1099090576171875,-0.980743408203125,-0.047332763671875
1686343327604892700,5.733892578125,-0.113006591796875,-0.9832916259765625,-0.0512237548828125
1686343327614911700,5.743911865234375,-0.115386962890625,-0.9848175048828125,-0.05255126953125
1686343327624930600,5.7539306640625,-0.1152496337890625,-0.987060546875,-0.0516510009765625
1686343327634948600,5.763948486328125,-0.1184844970703125,-0.9896392822265625,-0.0521240234375
1686343327644967700,5.7739677734375,-0.12225341796875,-0.9887542724609375,-0.05316162109375
1686343327654986500,5.783986572265625,-0.1292266845703125,-0.9876861572265625,-0.0495758056640625
1686343327665005600,5.794005615234375,-0.1376190185546875,-0.9869537353515625,-0.043853759765625
1686343327675024600,5.804024658203125,-0.1414794921875,-0.986907958984375,-0.0399169921875
1686343327685043700,5.814043701171875,-0.1405792236328125,-0.9882659912109375,-0.041290283203125
1686343327695062500,5.8240625,-0.1402740478515625,-0.9914093017578125,-0.0493621826171875
1686343327705081600,5.83408154296875,-0.1381988525390625,-0.992950439453125,-0.056365966796875
1686343327715100700,5.8441005859375,-0.13494873046875,-0.9939117431640625,-0.05999755859375
1686343327725118700,5.85411865234375,-0.13873291015625,-0.99383544921875,-0.0582275390625
1686343327735137800,5.8641376953125,-0.145477294921875,-0.99072265625,-0.0546112060546875
1686343327745156900,5.874156982421875,-0.1567230224609375,-0.9892120361328125,-0.0551300048828125
1686343327755176000,5.884176025390625,-0.1605377197265625,-0.9893646240234375,-0.05767822265625
1686343327765194800,5.89419482421875,-0.157562255859375,-0.9903106689453125,-0.0542449951171875
1686343327775213800,5.9042138671875,-0.1510772705078125,-0.994659423828125,-0.0534515380859375
1686343327785233000,5.91423291015625,-0.141632080078125,-0.9966583251953125,-0.055694580078125
1686343327795252000,5.924251953125,-0.1334991455078125,-0.9977569580078125,-0.060089111328125
1686343327805270800,5.934270751953125,-0.1285247802734375,-1.001129150390625,-0.0638885498046875
1686343327815288800,5.944288818359375,-0.12872314453125,-0.997802734375,-0.065948486328125
1686343327825308000,5.954307861328125,-0.1405181884765625,-0.9946136474609375,-0.0665740966796875
1686343327835326700,5.96432666015625,-0.1532135009765625,-0.992828369140625,-0.0647735595703125
1686343327845345800,5.974345703125,-0.1574554443359375,-0.9890594482421875,-0.064056396484375
1686343327855364900,5.98436474609375,-0.1530609130859375,-0.989837646484375,-0.0615386962890625
1686343327865383700,5.9943837890625,-0.147369384765625,-0.992156982421875,-0.056854248046875
1686343327875402800,6.00440283203125,-0.140106201171875,-0.9923095703125,-0.0548858642578125
1686343327885421800,6.014421875,-0.136566162109375,-0.9925384521484375,-0.0544586181640625
1686343327895441000,6.02444091796875,-0.1351318359375,-0.995361328125,-0.0564727783203125
1686343327905458700,6.034458740234375,-0.132537841796875,-0.9969024658203125,-0.0622100830078125
1686343327915477800,6.044477783203125,-0.12939453125,-0.9999237060546875,-0.0701904296875
1686343327925496800,6.054496826171875,-0.1231231689453125,-1.0016021728515625,-0.0743255615234375
1686343327935515600,6.064515625,-0.1239013671875,-0.9968109130859375,-0.0718536376953125
1686343327945534700,6.07453466796875,-0.129608154296875,-0.992401123046875,-0.0630340576171875
1686343327955553800,6.0845537109375,-0.139190673828125,-0.99017333984375,-0.0557403564453125
1686343327965572900,6.09457275390625,-0.1497650146484375,-0.9859466552734375,-0.0490570068359375
1686343327975591700,6.104591796875,-0.1550750732421875,-0.9837493896484375,-0.045562744140625
1686343327985610800,6.11461083984375,-0.15386962890625,-0.98492431640625,-0.0441741943359375
1686343327995629800,6.1246298828125,-0.1521453857421875,-0.9879608154296875,-0.0433349609375
1686343328005647600,6.134647705078125,-0.1429901123046875,-0.9905548095703125,-0.0456390380859375
1686343328015666700,6.144666748046875,-0.1319122314453125,-0.993865966796875,-0.054168701171875
1686343328025685800,6.154685791015625,-0.127166748046875,-0.9962921142578125,-0.0612030029296875
1686343328035704600,6.16470458984375,-0.1303558349609375,-0.997039794921875,-0.0660400390625
1686343328045723600,6.1747236328125,-0.1335601806640625,-0.9942779541015625,-0.0655364990234375
1686343328055742700,6.18474267578125,-0.13397216796875,-0.9924163818359375,-0.0577850341796875
1686343328065761800,6.19476171875,-0.1386260986328125,-0.98883056640625,-0.048187255859375
1686343328075780600,6.204780517578125,-0.1407928466796875,-0.9861297607421875,-0.0422210693359375
1686343328085799700,6.214799560546875,-0.1383209228515625,-0.9856109619140625,-0.0417938232421875
1686343328095817700,6.224817626953125,-0.1335906982421875,-0.985198974609375,-0.0473480224609375
1686343328105836500,6.23483642578125,-0.1286163330078125,-0.9848175048828125,-0.05267333984375
1686343328115855600,6.244855712890625,-0.130615234375,-0.9853668212890625,-0.0550384521484375
1686343328125874700,6.254874755859375,-0.1340179443359375,-0.98773193359375,-0.0555267333984375
1686343328135893800,6.264893798828125,-0.1339569091796875,-0.989288330078125,-0.0565338134765625
1686343328145912600,6.27491259765625,-0.1340484619140625,-0.990692138671875,-0.0584259033203125
1686343328155931600,6.284931640625,-0.136810302734375,-0.99212646484375,-0.055816650390625
1686343328165950700,6.29495068359375,-0.14013671875,-0.994659423828125,-0.05230712890625
1686343328175969800,6.3049697265625,-0.140380859375,-0.9962005615234375,-0.0546112060546875
1686343328185987600,6.314987548828125,-0.13873291015625,-0.996307373046875,-0.0592803955078125
1686343328196006700,6.325006591796875,-0.1351318359375,-0.99591064453125,-0.0604400634765625
1686343328206025700,6.335025634765625,-0.1336822509765625,-0.9925689697265625,-0.056854248046875
1686343328216044500,6.34504443359375,-0.1337890625,-0.9919891357421875,-0.053619384765625
1686343328226063600,6.355063720703125,-0.1394500732421875,-0.990692138671875,-0.0540618896484375
1686343328236082700,6.365082763671875,-0.14495849609375,-0.9897308349609375,-0.056976318359375
1686343328246101500,6.3751015625,-0.1444091796875,-0.9909210205078125,-0.0586395263671875
1686343328256120600,6.38512060546875,-0.138275146484375,-0.9930572509765625,-0.0604248046875
1686343328266139600,6.3951396484375,-0.1331634521484375,-0.9980926513671875,-0.0608367919921875
1686343328276157700,6.40515771484375,-0.131561279296875,-1.0010223388671875,-0.06304931640625
1686343328286176800,6.4151767578125,-0.1324615478515625,-1.00128173828125,-0.0631103515625
1686343328296195800,6.42519580078125,-0.1343841552734375,-0.99981689453125,-0.0620269775390625
1686343328306215000,6.43521484375,-0.1396942138671875,-0.9966583251953125,-0.058837890625
1686343328316233700,6.445233642578125,-0.14459228515625,-0.99285888671875,-0.054107666015625
1686343328326252800,6.455252685546875,-0.14703369140625,-0.988922119140625,-0.052093505859375
1686343328336272000,6.46527197265625,-0.1420135498046875,-0.9851226806640625,-0.0505218505859375
1686343328346291000,6.475291015625,-0.133331298828125,-0.9843292236328125,-0.0466156005859375
1686343328356309800,6.485309814453125,-0.129669189453125,-0.9847259521484375,-0.0470123291015625
1686343328366327800,6.495327880859375,-0.1323699951171875,-0.98736572265625,-0.04962158203125
1686343328376347000,6.505346923828125,-0.136749267578125,-0.990234375,-0.0558013916015625
1686343328386365700,6.51536572265625,-0.1379852294921875,-0.9907684326171875,-0.0581207275390625
1686343328396383500,6.525383544921875,-0.138641357421875,-0.9922637939453125,-0.052032470703125
1686343328406402600,6.535402587890625,-0.1349945068359375,-0.994110107421875,-0.0471343994140625
1686343328416421600,6.545421630859375,-0.1283416748046875,-0.9938507080078125,-0.04925537109375
1686343328426440700,6.555440673828125,-0.123748779296875,-0.9923248291015625,-0.05133056640625
1686343328436459500,6.56545947265625,-0.1241912841796875,-0.9918212890625,-0.0506134033203125
1686343328446478600,6.575478515625,-0.1309051513671875,-0.990234375,-0.05108642578125
1686343328456497700,6.58549755859375,-0.1381072998046875,-0.9856109619140625,-0.051177978515625
1686343328466515500,6.595515380859375,-0.1435546875,-0.9872894287109375,-0.053131103515625
1686343328476534500,6.605534423828125,-0.1474609375,-0.99053955078125,-0.0567474365234375
1686343328486553600,6.6155537109375,-0.1464385986328125,-0.9904327392578125,-0.05865478515625
1686343328496572400,6.625572509765625,-0.1409912109375,-0.991363525390625,-0.0576171875
1686343328506591500,6.635591552734375,-0.1336517333984375,-0.9921722412109375,-0.0506591796875
1686343328516610600,6.645610595703125,-0.1296844482421875,-0.992950439453125,-0.047454833984375
1686343328526629600,6.655629638671875,-0.1253662109375,-0.9918060302734375,-0.0433807373046875
1686343328536648400,6.6656484375,-0.120208740234375,-0.9914093017578125,-0.0448150634765625
1686343328546667500,6.67566748046875,-0.12054443359375,-0.992950439453125,-0.050323486328125
1686343328556685600,6.685685546875,-0.1241302490234375,-0.9930419921875,-0.0575408935546875
1686343328566704400,6.695704345703125,-0.126983642578125,-0.9889678955078125,-0.06121826171875
1686343328576723500,6.705723388671875,-0.1297760009765625,-0.98809814453125,-0.0591888427734375
1686343328586742500,6.715742431640625,-0.1266937255859375,-0.983917236328125,-0.049957275390625
1686343328596761600,6.72576171875,-0.1244049072265625,-0.985321044921875,-0.050811767578125
1686343328606780400,6.735780517578125,-0.1265716552734375,-0.9924163818359375,-0.0611114501953125
1686343328616799500,6.745799560546875,-0.1269378662109375,-0.9930877685546875,-0.068817138671875
1686343328626818600,6.755818603515625,-0.1280670166015625,-0.9952545166015625,-0.065948486328125
1686343328636837600,6.765837646484375,-0.128265380859375,-0.99847412109375,-0.0587005615234375
1686343328646855700,6.775855712890625,-0.1301116943359375,-0.997802734375,-0.053192138671875
1686343328656874800,6.785874755859375,-0.136138916015625,-0.99615478515625,-0.052825927734375
1686343328666893800,6.795893798828125,-0.139678955078125,-0.993682861328125,-0.0514068603515625
1686343328676912600,6.80591259765625,-0.1457977294921875,-0.9914398193359375,-0.04962158203125
1686343328686931700,6.815931640625,-0.148956298828125,-0.9906768798828125,-0.04949951171875
1686343328696950800,6.82595068359375,-0.1474456787109375,-0.989990234375,-0.053985595703125
1686343328706969600,6.835969482421875,-0.148101806640625,-0.9892578125,-0.054718017578125
1686343328716988700,6.84598876953125,-0.15020751953125,-0.990814208984375,-0.053070068359375
1686343328727007700,6.8560078125,-0.1467132568359375,-0.991363525390625,-0.051483154296875
1686343328737025500,6.866025634765625,-0.137298583984375,-0.9900970458984375,-0.0487823486328125
1686343328747044600,6.876044677734375,-0.1279296875,-0.993682861328125,-0.046844482421875
1686343328757063700,6.886063720703125,-0.121917724609375,-0.9981231689453125,-0.0539093017578125
1686343328767082800,6.896082763671875,-0.1199951171875,-0.997406005859375,-0.0641021728515625
1686343328777101600,6.9061015625,-0.1252593994140625,-0.9984130859375,-0.068878173828125
1686343328787120600,6.91612060546875,-0.131591796875,-0.99920654296875,-0.0701141357421875
1686343328797139700,6.9261396484375,-0.1328277587890625,-0.99493408203125,-0.067138671875
1686343328807158800,6.93615869140625,-0.132293701171875,-0.991851806640625,-0.058135986328125
1686343328817177600,6.946177490234375,-0.1295928955078125,-0.9870452880859375,-0.0477294921875
1686343328827195600,6.956195556640625,-0.1274871826171875,-0.97784423828125,-0.0337677001953125
1686343328837214700,6.966214599609375,-0.1244964599609375,-0.9804229736328125,-0.0273590087890625
1686343328847233500,6.976233642578125,-0.127410888671875,-0.99029541015625,-0.049041748046875
1686343328857252600,6.986252685546875,-0.1680450439453125,-0.9852447509765625,-0.07232666015625
1686343328867271700,6.996271728515625,-0.208099365234375,-0.9769744873046875,-0.0433807373046875
1686343328877290500,7.00629052734375,-0.20489501953125,-0.967498779296875,-0.0111846923828125
1686343328887309600,7.0163095703125,-0.156982421875,-0.977783203125,-0.01763916015625
1686343328897328600,7.02632861328125,-0.11114501953125,-0.9813079833984375,-0.0387115478515625
1686343328907347700,7.03634765625,-0.078643798828125,-0.9842681884765625,-0.0540618896484375
1686343328917365500,7.046365478515625,-0.0741729736328125,-0.98834228515625,-0.0586700439453125
1686343328927384600,7.056384521484375,-0.0916900634765625,-0.9835205078125,-0.0508880615234375
1686343328937403600,7.066403564453125,-0.10986328125,-0.979949951171875,-0.0372161865234375
1686343328947422500,7.07642236328125,-0.1193695068359375,-0.97589111328125,-0.030792236328125
1686343328957441500,7.086441650390625,-0.1202392578125,-0.9730377197265625,-0.03448486328125
1686343328967460600,7.096460693359375,-0.128021240234375,-0.9691314697265625,-0.03631591796875
1686343328977479700,7.106479736328125,-0.1504669189453125,-0.9699554443359375,-0.0301971435546875
1686343328987498500,7.11649853515625,-0.1557769775390625,-0.9742279052734375,-0.03204345703125
1686343328997517600,7.126517578125,-0.1501617431640625,-0.9760589599609375,-0.046783447265625
1686343329007535600,7.13653564453125,-0.145172119140625,-0.9825592041015625,-0.058502197265625
1686343329017554400,7.146554443359375,-0.1367645263671875,-0.987823486328125,-0.065948486328125
1686343329027573500,7.156573486328125,-0.1253662109375,-0.9862823486328125,-0.06988525390625
1686343329037592600,7.166592529296875,-0.1197662353515625,-0.9889678955078125,-0.06646728515625
1686343329047611600,7.176611572265625,-0.11907958984375,-0.9909820556640625,-0.0642852783203125
1686343329057630500,7.18663037109375,-0.1249237060546875,-0.991455078125,-0.0579833984375
1686343329067649500,7.1966494140625,-0.1401824951171875,-0.9983062744140625,-0.0604095458984375
1686343329077668600,7.206668701171875,-0.155914306640625,-1.00286865234375,-0.076873779296875
1686343329087687400,7.2166875,-0.162200927734375,-1.0029144287109375,-0.092254638671875
1686343329097705700,7.226705810546875,-0.159820556640625,-1.0067596435546875,-0.1040802001953125
1686343329107724500,7.236724609375,-0.148468017578125,-1.0098724365234375,-0.1145782470703125
1686343329117743600,7.24674365234375,-0.1387481689453125,-1.012359619140625,-0.1193084716796875
1686343329127762400,7.256762451171875,-0.13653564453125,-1.0146331787109375,-0.1182861328125
1686343329137781500,7.266781494140625,-0.1380767822265625,-1.016937255859375,-0.11505126953125
1686343329147800600,7.276800537109375,-0.1395721435546875,-1.0161285400390625,-0.1108245849609375
1686343329157819400,7.2868193359375,-0.14593505859375,-1.01470947265625,-0.098358154296875
1686343329167838500,7.29683837890625,-0.149383544921875,-1.01470947265625,-0.0847930908203125
1686343329177857500,7.306857421875,-0.1484527587890625,-1.0104217529296875,-0.0814666748046875
1686343329187875600,7.31687548828125,-0.14654541015625,-1.0037078857421875,-0.0867462158203125
1686343329197894700,7.326894775390625,-0.141082763671875,-0.9972381591796875,-0.09130859375
1686343329207913700,7.336913818359375,-0.137603759765625,-0.9907989501953125,-0.0891265869140625
1686343329217932800,7.346932861328125,-0.1346282958984375,-0.98651123046875,-0.0843048095703125
1686343329227951600,7.35695166015625,-0.132537841796875,-0.982879638671875,-0.0797576904296875
1686343329237970700,7.366970703125,-0.1359100341796875,-0.9823150634765625,-0.077392578125
1686343329247989800,7.37698974609375,-0.1460418701171875,-0.9806060791015625,-0.0803070068359375
1686343329258008800,7.3870087890625,-0.1529998779296875,-0.974517822265625,-0.075469970703125
1686343329268027600,7.397027587890625,-0.15570068359375,-0.975311279296875,-0.062042236328125
1686343329278046700,7.407046630859375,-0.1566009521484375,-0.972320556640625,-0.053131103515625
1686343329288064800,7.417064697265625,-0.152008056640625,-0.9677581787109375,-0.0503082275390625
1686343329298083600,7.42708349609375,-0.1459503173828125,-0.9737091064453125,-0.0506744384765625
1686343329308102700,7.4371025390625,-0.1342926025390625,-0.9759368896484375,-0.0499420166015625
1686343329318121700,7.447121826171875,-0.1276092529296875,-0.9784393310546875,-0.052215576171875
1686343329328140500,7.457140625,-0.130401611328125,-0.9811553955078125,-0.0582122802734375
1686343329338159600,7.46715966796875,-0.134490966796875,-0.9794158935546875,-0.0729827880859375
1686343329348178700,7.4771787109375,-0.1308746337890625,-0.9758148193359375,-0.0711669921875
1686343329358197800,7.48719775390625,-0.124237060546875,-0.9799652099609375,-0.0609130859375
1686343329368216600,7.497216552734375,-0.1289825439453125,-0.9845733642578125,-0.0692596435546875
1686343329378234600,7.507234619140625,-0.1323089599609375,-0.9837493896484375,-0.085845947265625
1686343329388253700,7.517253662109375,-0.1313323974609375,-0.9853363037109375,-0.085906982421875
1686343329398273300,7.527273193359375,-0.1205902099609375,-0.9913482666015625,-0.093841552734375
1686343329408292400,7.537292236328125,-0.1067047119140625,-0.991729736328125,-0.0977935791015625
1686343329418311200,7.547311279296875,-0.0115966796875,-0.99920654296875,-0.1392364501953125
1686343329428330200,7.557330322265625,0.254150390625,-1.049957275390625,-0.310882568359375
1686343329438349300,7.567349365234375,-0.01068115234375,-1.0872802734375,-0.1119537353515625
1686343329448368400,7.577368408203125,-0.129730224609375,-1.0129241943359375,-0.054534912109375
1686343329458387200,7.58738720703125,-0.2283935546875,-0.964202880859375,-0.044586181640625
1686343329468405200,7.5974052734375,-0.222412109375,-0.97613525390625,-0.0615386962890625
1686343329478424300,7.60742431640625,-0.1915435791015625,-0.984649658203125,-0.0927276611328125
1686343329488443100,7.617443115234375,-0.1743316650390625,-0.9789276123046875,-0.10943603515625
1686343329498462200,7.627462158203125,-0.160980224609375,-0.98394775390625,-0.1178131103515625
1686343329508481300,7.637481201171875,-0.136322021484375,-0.9998779296875,-0.1255950927734375
1686343329518500400,7.647500244140625,-0.0865020751953125,-1.00628662109375,-0.122650146484375
1686343329528519200,7.657519287109375,-0.063262939453125,-1.0106964111328125,-0.1099395751953125
1686343329538538200,7.667538330078125,-0.0753936767578125,-1.01666259765625,-0.097747802734375
1686343329548557300,7.677557373046875,-0.1013031005859375,-1.0148162841796875,-0.0940704345703125
1686343329558575000,7.6875751953125,-0.122955322265625,-1.013580322265625,-0.0912322998046875
1686343329568594200,7.69759423828125,-0.1318359375,-1.015838623046875,-0.0903472900390625
1686343329578613200,7.70761328125,-0.12530517578125,-1.0145416259765625,-0.0932464599609375
1686343329588632300,7.71763232421875,-0.106170654296875,-1.00677490234375,-0.09344482421875
1686343329598651100,7.727651123046875,-0.086029052734375,-0.9983062744140625,-0.0933685302734375
1686343329608670200,7.737670166015625,-0.0754547119140625,-0.99102783203125,-0.0929107666015625
1686343329618689300,7.747689208984375,-0.0735626220703125,-0.9844512939453125,-0.086700439453125
1686343329628708000,7.7577080078125,-0.0752105712890625,-0.982574462890625,-0.081787109375
1686343329638727200,7.76772705078125,-0.0732879638671875,-0.985595703125,-0.0815887451171875
1686343329648745200,7.7777451171875,-0.068389892578125,-0.99212646484375,-0.093231201171875
1686343329658764000,7.787763916015625,-0.062896728515625,-0.995941162109375,-0.10821533203125
1686343329668783000,7.797783203125,-0.074493408203125,-0.999298095703125,-0.1144256591796875
1686343329678802200,7.80780224609375,-0.0829925537109375,-1.0022735595703125,-0.1128692626953125
1686343329688821200,7.8178212890625,-0.0803375244140625,-1.0038909912109375,-0.1113433837890625
1686343329698840000,7.827840087890625,-0.07818603515625,-1.006683349609375,-0.1159210205078125
1686343329708859100,7.837859130859375,-0.074249267578125,-1.0138397216796875,-0.119415283203125
1686343329718878200,7.847878173828125,-0.071319580078125,-1.022552490234375,-0.1212310791015625
1686343329728897300,7.857897216796875,-0.074066162109375,-1.021881103515625,-0.11932373046875
1686343329738915300,7.867915283203125,-0.075653076171875,-1.018035888671875,-0.1086883544921875
1686343329748934100,7.87793408203125,-0.07672119140625,-1.0157928466796875,-0.0966339111328125
1686343329758953200,7.887953125,-0.0821990966796875,-1.013671875,-0.0922698974609375
1686343329768972000,7.897971923828125,-0.08837890625,-1.012115478515625,-0.10040283203125
1686343329778991000,7.9079912109375,-0.0894317626953125,-1.0095062255859375,-0.111358642578125
1686343329789010200,7.91801025390625,-0.0829010009765625,-1.0086669921875,-0.111907958984375
1686343329799029200,7.928029296875,-0.07000732421875,-1.00982666015625,-0.10369873046875
1686343329809048000,7.938048095703125,-0.0596771240234375,-1.009124755859375,-0.0868377685546875
1686343329819067100,7.948067138671875,-0.0546112060546875,-1.0102081298828125,-0.0683746337890625
1686343329829085400,7.95808544921875,-0.047515869140625,-1.006683349609375,-0.06146240234375
1686343329839104300,7.968104248046875,-0.049224853515625,-0.9984588623046875,-0.0577392578125
1686343329849123300,7.978123291015625,-0.0675811767578125,-0.996795654296875,-0.054473876953125
1686343329859142400,7.988142333984375,-0.0920562744140625,-0.9918060302734375,-0.0562286376953125
1686343329869161200,7.9981611328125,-0.103240966796875,-0.9853057861328125,-0.059173583984375
1686343329879180300,8.00818017578125,-0.1072235107421875,-0.9803619384765625,-0.0563201904296875
1686343329889199400,8.018199462890625,-0.1044158935546875,-0.97332763671875,-0.045654296875
1686343329899218400,8.028218505859375,-0.099273681640625,-0.964935302734375,-0.0324249267578125
1686343329909237200,8.0382373046875,-0.094390869140625,-0.959136962890625,-0.0198516845703125
1686343329919255300,8.04825537109375,-0.0885772705078125,-0.959747314453125,-0.0104522705078125
1686343329929274400,8.0582744140625,-0.0829010009765625,-0.9625396728515625,-0.013397216796875
1686343329939293200,8.068293212890625,-0.072479248046875,-0.9691619873046875,-0.017608642578125
1686343329949312300,8.078312255859375,-0.0611419677734375,-0.9735260009765625,-0.01629638671875
1686343329959331300,8.088331298828125,-0.048583984375,-0.975128173828125,-0.0071258544921875
1686343329969350400,8.098350341796875,-0.0517730712890625,-0.9799652099609375,0.0077362060546875
1686343329979369200,8.108369140625,-0.0638427734375,-0.984161376953125,0.0133819580078125
1686343329989388300,8.11838818359375,-0.07855224609375,-0.98529052734375,0.0029449462890625
1686343329999407400,8.128407470703126,-0.0912933349609375,-0.9882049560546875,-0.0146026611328125
1686343330009426200,8.13842626953125,-0.0930023193359375,-0.99017333984375,-0.030914306640625
1686343330019444200,8.1484443359375,-0.0822296142578125,-0.9873046875,-0.041717529296875
1686343330029463300,8.15846337890625,-0.0694427490234375,-0.9845733642578125,-0.0389404296875
1686343330039482000,8.168482177734376,-0.0620880126953125,-0.982452392578125,-0.032257080078125
1686343330049501200,8.178501220703126,-0.06146240234375,-0.98077392578125,-0.02972412109375
1686343330059520300,8.188520263671874,-0.062225341796875,-0.97967529296875,-0.0347747802734375
1686343330069539300,8.198539306640624,-0.062530517578125,-0.979766845703125,-0.03955078125
1686343330079558100,8.20855810546875,-0.066375732421875,-0.980377197265625,-0.0359039306640625
1686343330089577200,8.2185771484375,-0.0710601806640625,-0.9882354736328125,-0.0360565185546875
1686343330099596300,8.22859619140625,-0.07073974609375,-0.9962310791015625,-0.0516357421875
1686343330109614000,8.238614013671874,-0.0670623779296875,-1.0023040771484375,-0.06982421875
1686343330119633200,8.248633056640625,-0.0615997314453125,-1.01123046875,-0.080535888671875
1686343330129652200,8.25865234375,-0.0457763671875,-1.0120086669921875,-0.073516845703125
1686343330139671300,8.26867138671875,-0.0125885009765625,-1.012451171875,-0.044891357421875
1686343330149690000,8.278690185546875,-0.013336181640625,-1.003662109375,-0.0646820068359375
1686343330159709200,8.288709228515625,-0.0008544921875,-1.0075531005859375,-0.06048583984375
1686343330169728300,8.298728271484375,0.0142822265625,-1.011993408203125,-0.0655059814453125
1686343330179747300,8.308747314453125,0.0145263671875,-1.0084228515625,-0.081085205078125
1686343330189766100,8.31876611328125,-0.0052337646484375,-1.00091552734375,-0.0699615478515625
1686343330199784200,8.3287841796875,-0.0328369140625,-0.9927978515625,-0.042938232421875
1686343330209803300,8.33880322265625,-0.057861328125,-1.000396728515625,-0.065643310546875
1686343330219822000,8.348822021484375,-0.0861053466796875,-1.008819580078125,-0.0966644287109375
1686343330229841200,8.358841064453125,-0.1129913330078125,-1.010833740234375,-0.0699920654296875
1686343330239860200,8.368860107421876,-0.139678955078125,-1.01214599609375,-0.009490966796875
1686343330249879000,8.378879150390626,-0.152099609375,-1.0032501220703125,0.010589599609375
1686343330259898000,8.388898193359376,-0.1442108154296875,-0.998504638671875,-0.006561279296875
1686343330269917200,8.398917236328124,-0.12841796875,-1.0039215087890625,-0.028839111328125
1686343330279936300,8.408936279296874,-0.1025543212890625,-1.0014495849609375,-0.0467376708984375
1686343330289954300,8.418954345703124,-0.0794219970703125,-0.995574951171875,-0.048736572265625
1686343330299973400,8.428973388671874,-0.0759124755859375,-0.9939727783203125,-0.0360107421875
1686343330309992200,8.4389921875,-0.0889892578125,-0.9895477294921875,-0.0283203125
1686343330320011300,8.44901123046875,-0.106048583984375,-0.98870849609375,-0.0350494384765625
1686343330330030000,8.459030029296875,-0.123748779296875,-0.9868316650390625,-0.039703369140625
1686343330340049200,8.469049072265625,-0.1233673095703125,-0.985595703125,-0.037261962890625
1686343330350068200,8.479068115234375,-0.1056365966796875,-0.990264892578125,-0.03314208984375
1686343330360087000,8.489087158203125,-0.0841064453125,-0.99609375,-0.035491943359375
1686343330370106000,8.499106201171875,-0.067962646484375,-1.0003814697265625,-0.045379638671875
1686343330380124400,8.50912451171875,-0.0612640380859375,-1.0045166015625,-0.0533599853515625
1686343330390143200,8.519143310546875,-0.06475830078125,-1.0062255859375,-0.0575714111328125
1686343330400162600,8.52916259765625,-0.0684814453125,-1.0057525634765625,-0.059661865234375
1686343330410181400,8.539181396484375,-0.0701141357421875,-1.0054473876953125,-0.05914306640625
1686343330420200400,8.549200439453125,-0.0719757080078125,-1.0050811767578125,-0.05975341796875
1686343330430219500,8.559219482421875,-0.06768798828125,-1.0013427734375,-0.0620574951171875
1686343330440238300,8.56923828125,-0.0625457763671875,-0.9994049072265625,-0.06396484375
1686343330450257400,8.57925732421875,-0.0601959228515625,-0.9953155517578125,-0.0629425048828125
1686343330460276500,8.5892763671875,-0.0618133544921875,-0.9894561767578125,-0.0538482666015625
1686343330470294300,8.599294189453126,-0.0639190673828125,-0.9905548095703125,-0.0469970703125
1686343330480313300,8.609313232421876,-0.066741943359375,-0.9929656982421875,-0.055206298828125
1686343330490332400,8.61933251953125,-0.06573486328125,-0.995086669921875,-0.0730133056640625
1686343330500351500,8.6293515625,-0.063232421875,-1.00390625,-0.07879638671875
1686343330510370300,8.639370361328124,-0.0576934814453125,-1.01239013671875,-0.0785064697265625
1686343330520389400,8.649389404296874,-0.0494384765625,-1.016632080078125,-0.0735321044921875
1686343330530408400,8.659408447265625,-0.041778564453125,-1.0149993896484375,-0.0637359619140625
1686343330540427500,8.669427490234375,-0.0436859130859375,-1.01251220703125,-0.0535736083984375
1686343330550446300,8.6794462890625,-0.048309326171875,-1.010650634765625,-0.0491180419921875
1686343330560464400,8.68946435546875,-0.0571136474609375,-1.008758544921875,-0.06597900390625
1686343330570483500,8.6994833984375,-0.0678863525390625,-1.0063323974609375,-0.076934814453125
1686343330580502300,8.709502197265625,-0.080322265625,-1.0063323974609375,-0.0752105712890625
1686343330590521300,8.719521240234375,-0.0776214599609375,-1.0020294189453125,-0.0649261474609375
1686343330600540400,8.72954052734375,-0.0676727294921875,-1.0029754638671875,-0.052093505859375
1686343330610559500,8.7395595703125,-0.0669097900390625,-1.00189208984375,-0.0522918701171875
1686343330620578300,8.749578369140625,-0.0694732666015625,-1.0001068115234375,-0.05133056640625
1686343330630597400,8.759597412109375,-0.0719451904296875,-1.0015411376953125,-0.0519561767578125
1686343330640616400,8.769616455078125,-0.078125,-0.99273681640625,-0.0631866455078125
1686343330650634200,8.77963427734375,-0.074462890625,-0.9930267333984375,-0.0588226318359375
1686343330660653300,8.7896533203125,-0.05450439453125,-1.003204345703125,-0.0211181640625
1686343330670672400,8.79967236328125,-0.040679931640625,-0.9994659423828125,-0.00286865234375
1686343330680691200,8.809691162109376,-0.0434417724609375,-0.9841461181640625,0.009033203125
1686343330690710300,8.819710205078126,-0.0625152587890625,-0.98028564453125,0.0330352783203125
1686343330700729300,8.829729248046876,-0.065704345703125,-0.9747161865234375,0.0225982666015625
1686343330710748400,8.83974853515625,-0.0377960205078125,-0.9796600341796875,-0.0099945068359375
1686343330720767200,8.849767333984374,-0.0233306884765625,-0.9999847412109375,-0.0228271484375
1686343330730786300,8.859786376953124,-0.036590576171875,-1.0083770751953125,-0.009033203125
1686343330740804400,8.869804443359374,-0.0636749267578125,-0.9997711181640625,-0.00299072265625
1686343330750823200,8.8798232421875,-0.0850372314453125,-0.9795074462890625,-0.0015411376953125
1686343330760842200,8.88984228515625,-0.0981903076171875,-0.972808837890625,0.0130767822265625
1686343330770861300,8.899861328125,-0.1005706787109375,-0.9741363525390625,0.027313232421875
1686343330780880400,8.90988037109375,-0.0838165283203125,-0.9702301025390625,0.0120697021484375
1686343330790899200,8.919899169921875,-0.0572052001953125,-0.9739990234375,-0.0076751708984375
1686343330800918300,8.929918212890625,-0.044647216796875,-0.9864959716796875,-0.02880859375
1686343330810937300,8.939937255859375,-0.03668212890625,-0.993499755859375,-0.0491180419921875
1686343330820956400,8.949956298828125,-0.0363006591796875,-1.0000152587890625,-0.0545196533203125
1686343330830974500,8.959974365234375,-0.032470703125,-1.00341796875,-0.0616455078125
1686343330840993300,8.9699931640625,-0.011810302734375,-1.0105743408203125,-0.07122802734375
1686343330851012400,8.980012451171875,0.041351318359375,-1.0238494873046875,-0.051361083984375
1686343330861031200,8.99003125,0.042938232421875,-1.037261962890625,-0.01495361328125
1686343330871050200,9.00005029296875,-0.0047760009765625,-1.02777099609375,-0.0507659912109375
1686343330881069300,9.0100693359375,-0.0615997314453125,-1.02801513671875,-0.0873870849609375
1686343330891088100,9.020088134765626,-0.0943450927734375,-1.0259857177734375,-0.0998992919921875
1686343330901107200,9.030107177734376,-0.097686767578125,-1.0201263427734375,-0.0934295654296875
1686343330911126300,9.040126220703126,-0.091094970703125,-1.0202789306640625,-0.0803375244140625
1686343330921144300,9.050144287109376,-0.0769195556640625,-1.0210723876953125,-0.0702362060546875
1686343330931163400,9.060163330078124,-0.060546875,-1.0162200927734375,-0.0659637451171875
1686343330941182500,9.070182373046874,-0.04156494140625,-1.0102691650390625,-0.0580902099609375
1686343330951201500,9.080201416015624,-0.0282745361328125,-1.008331298828125,-0.0483856201171875
1686343330961220400,9.090220458984374,-0.020721435546875,-1.0055389404296875,-0.037261962890625
1686343330971239400,9.100239501953125,-0.02008056640625,-1.0022735595703125,-0.0287933349609375
1686343330981258500,9.110258544921875,-0.0305023193359375,-1.000762939453125,-0.0242462158203125
1686343330991277600,9.120277587890625,-0.0373077392578125,-0.9959716796875,-0.0231170654296875
1686343331001296400,9.13029638671875,-0.0421142578125,-0.9935150146484375,-0.0242919921875
1686343331011314400,9.140314453125,-0.0485382080078125,-0.991790771484375,-0.022735595703125
1686343331021333500,9.15033349609375,-0.052093505859375,-0.99273681640625,-0.016571044921875
1686343331031352300,9.160352294921875,-0.054290771484375,-0.9892425537109375,-0.0156402587890625
1686343331041371400,9.170371337890625,-0.0650787353515625,-0.9848785400390625,-0.0176544189453125
1686343331051390500,9.180390380859375,-0.0700225830078125,-0.9821014404296875,-0.0130157470703125
1686343331061409500,9.190409423828125,-0.0432281494140625,-0.9852752685546875,-0.0037078857421875
1686343331071428400,9.200428466796875,0.0019073486328125,-0.9901580810546875,0.0123443603515625
1686343331081447400,9.210447509765626,0.0174713134765625,-0.989654541015625,0.026702880859375
1686343331091466500,9.220466552734376,0.0055084228515625,-0.98809814453125,0.01702880859375
1686343331101484300,9.230484375,-0.0142974853515625,-0.9920806884765625,-0.0071258544921875
1686343331111503400,9.24050341796875,-0.040130615234375,-0.991790771484375,-0.0355377197265625
1686343331121522400,9.2505224609375,-0.0561370849609375,-0.9861602783203125,-0.0567779541015625
1686343331131541200,9.260541259765626,-0.0517120361328125,-0.987945556640625,-0.06036376953125
1686343331141560300,9.270560302734374,-0.037139892578125,-0.9913787841796875,-0.0537567138671875
1686343331151579400,9.280579345703124,-0.02734375,-0.9905548095703125,-0.051361083984375
1686343331161598500,9.290598388671874,-0.0277862548828125,-0.986358642578125,-0.05230712890625
1686343331171617300,9.3006171875,-0.02862548828125,-0.988494873046875,-0.051544189453125
1686343331181636400,9.31063623046875,-0.021820068359375,-0.9929351806640625,-0.0486907958984375
1686343331191654400,9.320654296875,-0.01751708984375,-0.9968109130859375,-0.043731689453125
1686343331201673200,9.330673095703125,-0.01953125,-1.002685546875,-0.03997802734375
1686343331211692300,9.3406923828125,-0.017120361328125,-1.008087158203125,-0.04486083984375
1686343331221711400,9.35071142578125,-0.01397705078125,-1.0107421875,-0.0537567138671875
1686343331231730400,9.36073046875,-0.0121002197265625,-1.012939453125,-0.0553741455078125
1686343331241749200,9.370749267578125,-0.0142822265625,-1.0151214599609375,-0.054656982421875
1686343331251768300,9.380768310546875,-0.0159149169921875,-1.0150299072265625,-0.05914306640625
1686343331261787400,9.390787353515625,-0.01763916015625,-1.0128936767578125,-0.061126708984375
1686343331271806200,9.40080615234375,-0.01812744140625,-1.01043701171875,-0.061492919921875
1686343331281825300,9.4108251953125,-0.0230712890625,-1.0106658935546875,-0.057403564453125
1686343331291843300,9.42084326171875,-0.03070068359375,-1.0115509033203125,-0.0543365478515625
1686343331301862100,9.430862060546875,-0.03863525390625,-1.011474609375,-0.053985595703125
1686343331311881200,9.440881103515625,-0.04656982421875,-1.0086822509765625,-0.0534515380859375
1686343331321900300,9.450900390625,-0.047119140625,-1.0116424560546875,-0.0504150390625
1686343331331919400,9.46091943359375,-0.042144775390625,-1.01275634765625,-0.0460968017578125
1686343331341938200,9.470938232421876,-0.039459228515625,-1.010772705078125,-0.0472259521484375
1686343331351957200,9.480957275390624,-0.0363006591796875,-1.008270263671875,-0.048583984375
1686343331361976300,9.490976318359374,-0.0338287353515625,-1.0057830810546875,-0.0469207763671875
1686343331371995400,9.500995361328124,-0.0344696044921875,-1.0037841796875,-0.039886474609375
1686343331382013400,9.511013427734374,-0.0357818603515625,-1.001251220703125,-0.033172607421875
1686343331392032500,9.521032470703124,-0.03887939453125,-1.0021514892578125,-0.036773681640625
1686343331402050800,9.53105078125,-0.04095458984375,-1.001220703125,-0.049896240234375
1686343331412070000,9.54106982421875,-0.0418701171875,-0.996307373046875,-0.05859375
1686343331422089000,9.5510888671875,-0.0364990234375,-0.9928131103515625,-0.0531768798828125
1686343331432107800,9.561107666015625,-0.0332183837890625,-0.990234375,-0.0411529541015625
1686343331442126800,9.571126953125,-0.036041259765625,-0.988739013671875,-0.0347137451171875
1686343331452146000,9.58114599609375,-0.0368194580078125,-0.9849700927734375,-0.038299560546875
1686343331462165000,9.5911650390625,-0.031158447265625,-0.9833831787109375,-0.038299560546875
1686343331472182800,9.601182861328125,-0.0234832763671875,-0.9894256591796875,-0.0325775146484375
1686343331482201900,9.611201904296875,-0.0186767578125,-0.9924774169921875,-0.0327301025390625
1686343331492221000,9.621220947265625,-0.0173187255859375,-0.9952239990234375,-0.037628173828125
1686343331502239700,9.63123974609375,-0.0242156982421875,-1.002838134765625,-0.041534423828125
1686343331512258800,9.6412587890625,-0.03594970703125,-1.0049591064453125,-0.0546417236328125
1686343331522278000,9.65127783203125,-0.0388946533203125,-1.004730224609375,-0.065155029296875
1686343331532296700,9.661296630859376,-0.0261383056640625,-1.0086517333984375,-0.058929443359375
1686343331542315800,9.671315673828126,-0.010345458984375,-1.0158538818359375,-0.047515869140625
1686343331552333800,9.681333740234376,0.0080718994140625,-1.0142974853515625,-0.040985107421875
1686343331562352600,9.6913525390625,0.0151824951171875,-1.0169830322265625,-0.0302276611328125
1686343331572371700,9.701371826171876,0.0026397705078125,-1.014739990234375,-0.0235443115234375
1686343331582390800,9.711390869140626,-0.0008392333984375,-1.0038299560546875,-0.01947021484375
1686343331592409900,9.721409912109374,-0.0065155029296875,-0.9986724853515625,-0.0115203857421875
1686343331602428700,9.7314287109375,-0.02752685546875,-0.998748779296875,-0.0014495849609375
1686343331612447700,9.74144775390625,-0.0461883544921875,-0.99365234375,-0.0047760009765625
1686343331622466800,9.751466796875,-0.0504913330078125,-0.986968994140625,-0.0146942138671875
1686343331632486000,9.76148583984375,-0.0469512939453125,-0.992523193359375,-0.017669677734375
1686343331642504700,9.771504638671875,-0.0466156005859375,-0.9994659423828125,-0.0223236083984375
1686343331652522800,9.781522705078125,-0.037841796875,-0.9958953857421875,-0.0291748046875
1686343331662541800,9.791541748046875,-0.0312652587890625,-0.9987030029296875,-0.0271759033203125
1686343331672560600,9.801560546875,-0.0382537841796875,-1.00433349609375,-0.0225982666015625
1686343331682579700,9.811579833984375,-0.047271728515625,-1.0020294189453125,-0.025909423828125
1686343331692598800,9.821598876953125,-0.051666259765625,-0.99853515625,-0.0251007080078125
1686343331702617900,9.831617919921875,-0.0570526123046875,-1.0001068115234375,-0.018707275390625
1686343331712636700,9.84163671875,-0.052459716796875,-0.99884033203125,-0.0153045654296875
1686343331722655700,9.85165576171875,-0.04132080078125,-0.996551513671875,-0.01788330078125
1686343331732674800,9.8616748046875,-0.0336761474609375,-0.996185302734375,-0.017852783203125
1686343331742692600,9.871692626953125,-0.028961181640625,-0.9960174560546875,-0.0182037353515625
1686343331752711700,9.881711669921875,-0.02813720703125,-0.9960479736328125,-0.024261474609375
1686343331762730800,9.891730712890626,-0.028656005859375,-0.99444580078125,-0.027496337890625
1686343331772749600,9.90174951171875,-0.029937744140625,-0.9922637939453125,-0.0241241455078125
1686343331782768600,9.9117685546875,-0.0302886962890625,-0.99102783203125,-0.017425537109375
1686343331792787700,9.92178759765625,-0.029693603515625,-0.9923095703125,-0.01385498046875
1686343331802806800,9.931806884765624,-0.0332489013671875,-0.993896484375,-0.0182342529296875
1686343331812825600,9.94182568359375,-0.034881591796875,-0.9921417236328125,-0.0226287841796875
1686343331822844700,9.9518447265625,-0.0433197021484375,-0.9936370849609375,-0.0269775390625
1686343331832863000,9.961863037109374,-0.0499267578125,-0.9951934814453125,-0.0362701416015625
1686343331842881800,9.9718818359375,-0.0457305908203125,-0.993804931640625,-0.0405731201171875
1686343331852900900,9.98190087890625,-0.0361328125,-0.9987945556640625,-0.03216552734375
1686343331862919700,9.991919677734375,-0.0287933349609375,-1.0065155029296875,-0.0224761962890625
1686343331872938800,10.001938720703125,-0.027740478515625,-1.009033203125,-0.0192718505859375
1686343331882957800,10.011957763671875,-0.025146484375,-1.01171875,-0.0240936279296875
1686343331892976600,10.0219765625,-0.0228424072265625,-1.0134124755859375,-0.0368804931640625
1686343331902995700,10.03199560546875,-0.028594970703125,-1.013702392578125,-0.0424346923828125
1686343331913014800,10.042014892578125,-0.040924072265625,-1.0092620849609375,-0.03863525390625
1686343331923032800,10.05203271484375,-0.0506591796875,-1.00537109375,-0.0297393798828125
1686343331933052000,10.062052001953125,-0.0580291748046875,-1.0056915283203125,-0.0230865478515625
1686343331943071000,10.072071044921875,-0.056121826171875,-1.0043182373046875,-0.031402587890625
1686343331953089800,10.08208984375,-0.0342254638671875,-1.0030517578125,-0.037078857421875
1686343331963108900,10.09210888671875,-0.030670166015625,-1.0125885009765625,-0.0269927978515625
1686343331973128000,10.1021279296875,-0.053131103515625,-1.012176513671875,-0.0308837890625
1686343331983146800,10.112146728515626,-0.0595550537109375,-0.9967803955078125,-0.0363006591796875
1686343331993165800,10.122165771484376,-0.0580902099609375,-1.0017852783203125,-0.022430419921875
1686343332003185000,10.132184814453124,-0.052459716796875,-1.0088348388671875,-0.0196380615234375
1686343332013202700,10.14220263671875,-0.0528717041015625,-0.999847412109375,-0.03057861328125
1686343332023221800,10.1522216796875,-0.064361572265625,-0.99615478515625,-0.0373382568359375
1686343332033240800,10.16224072265625,-0.073699951171875,-0.99755859375,-0.0361480712890625
1686343332043260000,10.172260009765624,-0.065093994140625,-0.998931884765625,-0.030548095703125
1686343332053278700,10.18227880859375,-0.0530242919921875,-1.0034027099609375,-0.030975341796875
1686343332063297800,10.1922978515625,-0.03045654296875,-1.00384521484375,-0.0290374755859375
1686343332073316900,10.20231689453125,-0.018798828125,-1.0070953369140625,-0.0265960693359375
1686343332083336000,10.2123359375,-0.0125579833984375,-1.0025634765625,-0.0254364013671875
1686343332093353700,10.222353759765625,0.010345458984375,-0.9958343505859375,-0.0194854736328125
1686343332103372800,10.232372802734375,0.032806396484375,-0.9976348876953125,0.00604248046875
1686343332113391900,10.242391845703125,0.0223541259765625,-1.0061187744140625,0.0248870849609375
1686343332123410700,10.25241064453125,0.0001983642578125,-1.006072998046875,0.00030517578125
1686343332133429800,10.2624296875,-0.0066375732421875,-1.0027923583984375,-0.035552978515625
1686343332143448800,10.27244873046875,-0.0055084228515625,-1.0015869140625,-0.0577545166015625
1686343332153467600,10.282467529296875,0.001495361328125,-0.9973297119140625,-0.05169677734375
1686343332163486700,10.29248681640625,-0.00958251953125,-0.9993438720703125,-0.0241546630859375
1686343332173505800,10.302505859375,-0.025115966796875,-1.00299072265625,-0.00616455078125
1686343332183523600,10.312523681640625,-0.0301666259765625,-0.9967498779296875,-0.0098114013671875
1686343332193542700,10.322542724609375,-0.033355712890625,-0.995758056640625,-0.014556884765625
1686343332203561700,10.332561767578126,-0.02899169921875,-0.9984893798828125,-0.0100860595703125
1686343332213580800,10.342580810546876,-0.02996826171875,-1.003021240234375,-0.0043487548828125
1686343332223599600,10.352599609375,-0.0377655029296875,-1.005096435546875,-0.012664794921875
1686343332233618700,10.36261865234375,-0.0424652099609375,-1.0028076171875,-0.0263671875
1686343332243637800,10.3726376953125,-0.041259765625,-0.99871826171875,-0.0344696044921875
1686343332253656800,10.38265673828125,-0.0404052734375,-0.9983978271484375,-0.0356597900390625
1686343332263675600,10.392675537109374,-0.0449066162109375,-0.99822998046875,-0.026611328125
1686343332273693700,10.402693603515624,-0.0467987060546875,-0.9962310791015625,-0.013031005859375
1686343332283712800,10.412712646484374,-0.0450286865234375,-0.999176025390625,-0.000579833984375
1686343332293731600,10.422731689453125,-0.0427398681640625,-1.0011138916015625,-0.003265380859375
1686343332303750700,10.432750732421875,-0.0364837646484375,-0.9935150146484375,-0.0057830810546875
1686343332313769700,10.442769775390625,-0.0338134765625,-0.9959564208984375,0.0061492919921875
1686343332323788800,10.452788818359375,-0.03912353515625,-0.9994659423828125,0.0096435546875
1686343332333807600,10.4628076171875,-0.041351318359375,-0.9942474365234375,0.0024566650390625
1686343332343826700,10.47282666015625,-0.0403594970703125,-0.9974517822265625,-0.008453369140625
1686343332353845800,10.482845703125,-0.0403289794921875,-1.0043487548828125,-0.0211029052734375
1686343332363863800,10.49286376953125,-0.032379150390625,-1.0037384033203125,-0.03472900390625
1686343332373883000,10.5028828125,-0.02166748046875,-0.998870849609375,-0.0313262939453125
1686343332383902000,10.51290185546875,-0.029876708984375,-1.004608154296875,-0.014617919921875
1686343332393920800,10.522920654296875,-0.0348358154296875,-1.0004119873046875,-0.003997802734375
1686343332403939800,10.53293994140625,-0.029693603515625,-0.995574951171875,0.0057525634765625
1686343332413959000,10.542958984375,-0.024932861328125,-1.006103515625,0.0128631591796875
1686343332423977700,10.552977783203126,-0.015380859375,-1.0039520263671875,0.0046844482421875
1686343332433996800,10.562996826171876,-0.007598876953125,-0.997467041015625,0.002655029296875
1686343332444015600,10.573015625,-0.014007568359375,-1.002716064453125,0.0134124755859375
1686343332454034000,10.583033935546876,-0.0236663818359375,-0.9998779296875,0.0136566162109375
1686343332464052700,10.593052734375,-0.024169921875,-0.9904632568359375,0.00506591796875
1686343332474071800,10.60307177734375,-0.0229949951171875,-0.9877166748046875,0.0025787353515625
1686343332484091000,10.6130908203125,-0.0236968994140625,-0.9907073974609375,0.0021514892578125
1686343332494110000,10.62310986328125,-0.019378662109375,-0.9942626953125,-0.0189971923828125
1686343332504128800,10.633128662109375,-0.00286865234375,-0.9975433349609375,-0.0557861328125
1686343332514147800,10.64314794921875,0.0079803466796875,-1.0031280517578125,-0.05364990234375
1686343332524167000,10.6531669921875,0.0059051513671875,-1.0063629150390625,-0.0400848388671875
1686343332534186000,10.66318603515625,-0.00396728515625,-1.002349853515625,-0.0324554443359375
1686343332544203800,10.673203857421875,-0.011016845703125,-0.99517822265625,-0.0341033935546875
1686343332554222800,10.683222900390625,-0.010162353515625,-0.9853057861328125,-0.02557373046875
1686343332564242000,10.693241943359375,-0.011199951171875,-0.9892120361328125,-0.0130462646484375
1686343332574260700,10.7032607421875,-0.0099945068359375,-0.9896697998046875,-0.0103302001953125
1686343332584279800,10.71327978515625,-0.0105743408203125,-0.9845733642578125,-0.0074920654296875
1686343332594299000,10.723298828125,-0.01641845703125,-0.986541748046875,0.0000152587890625
1686343332604317700,10.733317626953125,-0.0228424072265625,-0.9898834228515625,0.0043792724609375
1686343332614336800,10.743336669921876,-0.0240325927734375,-0.991607666015625,-0.0015411376953125
1686343332624354800,10.753354736328125,-0.025787353515625,-0.997161865234375,-0.008697509765625
1686343332634373600,10.76337353515625,-0.02532958984375,-1.002838134765625,-0.0155792236328125
1686343332644392700,10.773392822265626,-0.0198211669921875,-1.00189208984375,-0.0195770263671875
1686343332654411800,10.783411865234376,-0.0174713134765625,-1.0027008056640625,-0.0174102783203125
1686343332664430800,10.793430908203124,-0.0084381103515625,-1.000152587890625,-0.0108642578125
1686343332674449700,10.80344970703125,-0.0008392333984375,-0.9985809326171875,-0.0051116943359375
1686343332684468700,10.81346875,0.0014190673828125,-0.9977874755859375,-0.003814697265625
1686343332694487800,10.82348779296875,-0.007354736328125,-1.002777099609375,-0.0065460205078125
1686343332704507000,10.8335068359375,-0.02435302734375,-1.0052490234375,-0.019500732421875
1686343332714525700,10.843525634765625,-0.0363006591796875,-0.9984588623046875,-0.0320281982421875
1686343332724543700,10.853543701171875,-0.03924560546875,-0.9980010986328125,-0.0314483642578125
1686343332734562800,10.863562744140625,-0.0093994140625,-1.00128173828125,-0.056610107421875
1686343332744581600,10.87358154296875,0.0161895751953125,-1.016204833984375,-0.0784912109375
1686343332754600700,10.8836005859375,0.0067596435546875,-1.0130767822265625,-0.0570220947265625
1686343332764619800,10.893619873046875,0.0001068115234375,-1.015777587890625,-0.0497589111328125
1686343332774638800,10.903638916015625,-0.01190185546875,-1.0095367431640625,-0.0410614013671875
1686343332784657700,10.91365771484375,-0.023406982421875,-1.00164794921875,-0.0305328369140625
1686343332794676700,10.9236767578125,-0.04656982421875,-1.0124053955078125,-0.0260772705078125
1686343332804694800,10.93369482421875,-0.0676116943359375,-1.008819580078125,-0.02557373046875
1686343332814713600,10.943713623046875,-0.0791015625,-1.00152587890625,-0.021697998046875
1686343332824732700,10.953732666015625,-0.0871124267578125,-1.0114898681640625,-0.01678466796875
1686343332834751700,10.963751708984375,-0.0872955322265625,-1.0104522705078125,-0.0204010009765625
1686343332844770600,10.9737705078125,-0.0808868408203125,-1.0081939697265625,-0.0322113037109375
1686343332854789600,10.98378955078125,-0.078369140625,-1.0112762451171875,-0.03533935546875
1686343332864808700,10.99380859375,-0.085113525390625,-1.0157470703125,-0.02630615234375
1686343332874827800,11.003827880859374,-0.0890350341796875,-1.0189208984375,-0.0164337158203125
1686343332884846600,11.0138466796875,-0.0606231689453125,-1.0092010498046875,-0.0387725830078125
1686343332894865000,11.023864990234374,-0.0329437255859375,-0.999359130859375,-0.0442657470703125
1686343332904884000,11.033884033203124,-0.0217742919921875,-1.00115966796875,-0.0312042236328125
1686343332914902800,11.04390283203125,-0.0118408203125,-0.9967193603515625,-0.0281219482421875
1686343332924921900,11.053921875,0.00750732421875,-0.9945831298828125,-0.0395965576171875
1686343332934941000,11.06394091796875,0.01605224609375,-0.9955291748046875,-0.0466461181640625
1686343332944960000,11.0739599609375,0.0006561279296875,-0.99957275390625,-0.035186767578125
1686343332954978800,11.083978759765625,-0.0098876953125,-1.0012054443359375,-0.028045654296875
1686343332964998000,11.093997802734375,-0.0133514404296875,-1.0013427734375,-0.0277252197265625
1686343332975017000,11.104016845703125,-0.0189208984375,-1.0076904296875,-0.0311737060546875
1686343332985034800,11.11403466796875,-0.0131378173828125,-1.00775146484375,-0.0355377197265625
1686343332995053800,11.1240537109375,0.006591796875,-0.9979705810546875,-0.021697998046875
1686343333005073000,11.134072998046875,0.01153564453125,-0.999053955078125,-0.0000152587890625
1686343333015091700,11.144091796875,0.0054473876953125,-1.0017547607421875,0.0056304931640625
1686343333025110800,11.15411083984375,0.0006561279296875,-0.9981231689453125,-0.00946044921875
1686343333035129900,11.1641298828125,-0.0026397705078125,-0.999114990234375,-0.022705078125
1686343333045149000,11.17414892578125,-0.0067138671875,-1.000213623046875,-0.026031494140625
1686343333055167700,11.184167724609376,-0.0125885009765625,-0.9993743896484375,-0.022125244140625
1686343333065186800,11.194186767578126,-0.0179595947265625,-0.99847412109375,-0.0192718505859375
1686343333075204900,11.204204833984376,-0.031158447265625,-0.9954071044921875,-0.0206756591796875
1686343333085223700,11.2142236328125,-0.0446319580078125,-0.994476318359375,-0.0197296142578125
1686343333095242800,11.22424267578125,-0.04803466796875,-0.99554443359375,-0.0221099853515625
1686343333105261800,11.23426171875,-0.047882080078125,-0.9984130859375,-0.0244140625
1686343333115281000,11.244281005859374,-0.049285888671875,-1.002227783203125,-0.0294342041015625
1686343333125299700,11.2542998046875,-0.049224853515625,-1.0040283203125,-0.03277587890625
1686343333135318800,11.26431884765625,-0.0533447265625,-1.0054779052734375,-0.03192138671875
1686343333145337900,11.274337890625,-0.059844970703125,-1.007476806640625,-0.0326080322265625
1686343333155355600,11.284355712890624,-0.0610504150390625,-1.0092620849609375,-0.0311737060546875
1686343333165374700,11.294374755859375,-0.0589752197265625,-1.005706787109375,-0.0315704345703125
1686343333175393800,11.304393798828125,-0.0484161376953125,-1.0031585693359375,-0.025848388671875
1686343333185412900,11.314412841796875,-0.0391387939453125,-1.0044708251953125,-0.0240478515625
1686343333195431700,11.324431640625,-0.0353240966796875,-1.0034942626953125,-0.0282135009765625
1686343333205450800,11.33445068359375,-0.03753662109375,-1.0003814697265625,-0.0313262939453125
1686343333215469800,11.3444697265625,-0.039215087890625,-1.0012664794921875,-0.0337371826171875
1686343333225488600,11.354488525390625,-0.0349273681640625,-1.002960205078125,-0.0333099365234375
1686343333235507700,11.3645078125,-0.03070068359375,-1.004180908203125,-0.0329437255859375
1686343333245525800,11.37452587890625,-0.024017333984375,-1.005126953125,-0.029388427734375
1686343333255544600,11.384544677734375,-0.0250396728515625,-1.005340576171875,-0.025848388671875
1686343333265563600,11.394563720703125,-0.0362396240234375,-1.0042572021484375,-0.0253448486328125
1686343333275582700,11.404582763671876,-0.0409088134765625,-1.0013580322265625,-0.027496337890625
1686343333285601800,11.414601806640626,-0.0406494140625,-0.9966278076171875,-0.02618408203125
1686343333295620600,11.42462060546875,-0.04364013671875,-0.9957427978515625,-0.022613525390625
1686343333305639700,11.4346396484375,-0.0457763671875,-0.996124267578125,-0.0200653076171875
1686343333315658800,11.44465869140625,-0.041595458984375,-0.996978759765625,-0.01898193359375
1686343333325677800,11.454677734375,-0.03863525390625,-0.9994964599609375,-0.018341064453125
1686343333335695600,11.464695556640624,-0.035552978515625,-1.00067138671875,-0.0162506103515625
1686343333345714700,11.474714599609374,-0.0363006591796875,-1.00396728515625,-0.0208282470703125
1686343333355733800,11.484733642578124,-0.0334014892578125,-1.0041351318359375,-0.02288818359375
1686343333365752600,11.494752685546874,-0.0345001220703125,-1.003509521484375,-0.0167083740234375
1686343333375771600,11.504771728515625,-0.0421600341796875,-1.0033111572265625,-0.0153961181640625
1686343333385790700,11.514790771484375,-0.047332763671875,-1.003082275390625,-0.02496337890625
1686343333395810300,11.524810302734375,-0.0404205322265625,-1.0037078857421875,-0.0333099365234375
1686343333405829400,11.534829345703125,-0.0337371826171875,-1.003509521484375,-0.0312042236328125
1686343333415848400,11.544848388671875,-0.035003662109375,-1.002777099609375,-0.0304412841796875
1686343333425866200,11.5548662109375,-0.0377349853515625,-0.9979400634765625,-0.03143310546875
1686343333435885300,11.56488525390625,-0.0421600341796875,-0.9970245361328125,-0.03009033203125
1686343333445904400,11.574904296875,-0.0458526611328125,-0.9974822998046875,-0.0228424072265625
1686343333455923200,11.584923095703125,-0.045745849609375,-0.99365234375,-0.0179901123046875
1686343333465942300,11.5949423828125,-0.0413055419921875,-0.990631103515625,-0.010528564453125
1686343333475961300,11.60496142578125,-0.034515380859375,-0.9941558837890625,-0.0063018798828125
1686343333485980400,11.61498046875,-0.028106689453125,-0.998809814453125,-0.01544189453125
1686343333495999200,11.624999267578126,-0.026885986328125,-0.99810791015625,-0.0231475830078125
1686343333506017500,11.635017578125,-0.0313720703125,-0.9955596923828125,-0.027740478515625
1686343333516036600,11.64503662109375,-0.032928466796875,-0.997894287109375,-0.03094482421875
1686343333526055400,11.655055419921876,-0.0286407470703125,-0.997955322265625,-0.032745361328125
1686343333536074500,11.665074462890624,-0.02447509765625,-0.9981689453125,-0.032440185546875
1686343333546093600,11.675093505859374,-0.0200958251953125,-0.9954681396484375,-0.0280609130859375
1686343333556112400,11.6851123046875,-0.019622802734375,-0.9935760498046875,-0.023223876953125
1686343333566131500,11.69513134765625,-0.0255279541015625,-0.993560791015625,-0.01824951171875
1686343333576150500,11.705150634765625,-0.0285491943359375,-0.992401123046875,-0.0154571533203125
1686343333586169600,11.715169677734375,-0.0294952392578125,-0.993316650390625,-0.01885986328125
1686343333596187400,11.7251875,-0.027252197265625,-0.991363525390625,-0.0194854736328125
1686343333606206500,11.73520654296875,-0.0299835205078125,-0.988006591796875,-0.0168304443359375
1686343333616225500,11.7452255859375,-0.030426025390625,-0.9871063232421875,-0.0131988525390625
1686343333626244400,11.755244384765625,-0.0302734375,-0.990753173828125,-0.00885009765625
1686343333636263400,11.765263427734375,-0.037200927734375,-0.992156982421875,-0.016571044921875
1686343333646282500,11.775282470703125,-0.048095703125,-0.9957427978515625,-0.027557373046875
1686343333656301600,11.785301513671875,-0.048614501953125,-1.0051727294921875,-0.0374908447265625
1686343333666320400,11.7953203125,-0.0469970703125,-1.0123748779296875,-0.0448455810546875
1686343333676339500,11.80533935546875,-0.0479888916015625,-1.0160369873046875,-0.0464630126953125
1686343333686357500,11.815357421875,-0.0509185791015625,-1.0162200927734375,-0.03619384765625
1686343333696376300,11.825376220703125,-0.0540618896484375,-1.0159912109375,-0.0234375
1686343333706395400,11.8353955078125,-0.060760498046875,-1.01287841796875,-0.0189971923828125
1686343333716414500,11.84541455078125,-0.0690155029296875,-1.010528564453125,-0.02215576171875
1686343333726433500,11.85543359375,-0.0738067626953125,-1.00830078125,-0.027984619140625
1686343333736452400,11.865452392578124,-0.07281494140625,-1.006256103515625,-0.0325927734375
1686343333746471400,11.875471435546874,-0.0662384033203125,-0.999114990234375,-0.03021240234375
1686343333756490500,11.885490478515624,-0.0634613037109375,-0.996124267578125,-0.025054931640625
1686343333766508300,11.89550830078125,-0.0649261474609375,-0.9908905029296875,-0.0192413330078125
1686343333776527400,11.90552734375,-0.0616455078125,-0.9850616455078125,-0.019256591796875
1686343333786546400,11.91554638671875,-0.05548095703125,-0.9879302978515625,-0.020721435546875
1686343333796565200,11.925565185546875,-0.05267333984375,-0.9893951416015625,-0.0189056396484375
1686343333806584300,11.935584228515625,-0.0473480224609375,-0.9952850341796875,-0.023773193359375
1686343333816603400,11.945603271484375,-0.0380859375,-0.997955322265625,-0.0312347412109375
1686343333826622500,11.95562255859375,-0.0291748046875,-1.000732421875,-0.03790283203125
1686343333836641300,11.965641357421875,-0.022918701171875,-1.0039825439453125,-0.0449981689453125
1686343333846660400,11.975660400390625,-0.0225372314453125,-1.002716064453125,-0.0507965087890625
1686343333856678400,11.985678466796875,-0.027618408203125,-1.0005035400390625,-0.04754638671875
1686343333866697200,11.995697265625,-0.033599853515625,-0.9991912841796875,-0.0507354736328125
1686343333876716300,12.00571630859375,-0.0393524169921875,-1.0013427734375,-0.0630950927734375
1686343333886735400,12.0157353515625,-0.045379638671875,-1.0023345947265625,-0.062957763671875
1686343333896754400,12.02575439453125,-0.0482330322265625,-1.0009613037109375,-0.053741455078125
1686343333906773200,12.035773193359375,-0.0494384765625,-0.9991912841796875,-0.0454864501953125
1686343333916792300,12.045792236328126,-0.036956787109375,-0.994354248046875,-0.03118896484375
1686343333926811400,12.055811279296876,-0.0239715576171875,-0.999237060546875,-0.021392822265625
1686343333936830200,12.065830322265626,-0.0135955810546875,-1.001678466796875,-0.0188751220703125
1686343333946848500,12.0758486328125,-0.0091705322265625,-1.007659912109375,-0.029876708984375
1686343333956867600,12.08586767578125,-0.013702392578125,-1.01727294921875,-0.051666259765625
1686343333966886400,12.095886474609374,-0.0348358154296875,-1.019012451171875,-0.0609283447265625
1686343333976905500,12.105905517578124,-0.06292724609375,-1.017303466796875,-0.0641632080078125
1686343333986924300,12.11592431640625,-0.083251953125,-1.0128021240234375,-0.058807373046875
1686343333996943400,12.125943359375,-0.0876617431640625,-1.010223388671875,-0.04742431640625
1686343334006962200,12.135962158203125,-0.0817718505859375,-1.0015411376953125,-0.0325469970703125
1686343334016981200,12.145981201171875,-0.083282470703125,-0.9968414306640625,-0.0234832763671875
1686343334026999600,12.15599951171875,-0.08074951171875,-0.9940185546875,-0.026824951171875
1686343334037018400,12.166018310546875,-0.0698699951171875,-0.9923858642578125,-0.027740478515625
1686343334047037400,12.176037353515625,-0.052581787109375,-0.99530029296875,-0.027191162109375
1686343334057056500,12.186056396484375,-0.0399627685546875,-0.9975433349609375,-0.019134521484375
1686343334067075600,12.19607568359375,-0.04327392578125,-1.0008087158203125,-0.0123748779296875
1686343334077094400,12.206094482421875,-0.055206298828125,-1.0001220703125,-0.0186614990234375
1686343334087113500,12.216113525390625,-0.0605621337890625,-1.00079345703125,-0.039154052734375
1686343334097132500,12.226132568359375,-0.060943603515625,-0.9993133544921875,-0.0438690185546875
1686343334107151600,12.236151611328125,-0.0575714111328125,-0.9942779541015625,-0.0327606201171875
1686343334117169400,12.24616943359375,-0.04913330078125,-0.9876708984375,-0.02008056640625
1686343334127188500,12.2561884765625,-0.0479736328125,-0.9829864501953125,-0.0149993896484375
1686343334137207600,12.26620751953125,-0.0474395751953125,-0.98382568359375,-0.0181121826171875
1686343334147226400,12.276226318359376,-0.0361328125,-0.9874420166015625,-0.0348663330078125
1686343334157245400,12.286245361328126,-0.019012451171875,-0.9946441650390625,-0.05322265625
1686343334167264500,12.296264404296876,-0.0081634521484375,-0.995819091796875,-0.06524658203125
1686343334177283300,12.306283447265624,-0.0013275146484375,-0.999725341796875,-0.070068359375
1686343334187302400,12.316302490234374,0.0022125244140625,-0.9986724853515625,-0.0669097900390625
1686343334197321500,12.326321533203124,-0.009613037109375,-0.99945068359375,-0.0456085205078125
1686343334207339300,12.33633935546875,-0.0336151123046875,-1.00335693359375,-0.0287628173828125
1686343334217358300,12.3463583984375,-0.0572967529296875,-0.997314453125,-0.02581787109375
1686343334227377400,12.35637744140625,-0.06243896484375,-0.9905853271484375,-0.0279541015625
1686343334237396500,12.366396484375,-0.06060791015625,-0.987213134765625,-0.0234222412109375
1686343334247415300,12.376415283203125,-0.058685302734375,-0.9817352294921875,-0.0248565673828125
1686343334257434400,12.386434326171875,-0.052459716796875,-0.973114013671875,-0.0249176025390625
1686343334267453400,12.396453369140625,-0.052215576171875,-0.9819183349609375,-0.0311737060546875
1686343334277472500,12.406472412109375,-0.050445556640625,-0.9976654052734375,-0.0456085205078125
1686343334287490300,12.416490234375,-0.0418701171875,-1.0063629150390625,-0.0573883056640625
1686343334297509400,12.42650927734375,-0.038787841796875,-1.0230712890625,-0.0654449462890625
1686343334307528400,12.436528564453125,-0.04632568359375,-1.03790283203125,-0.0609283447265625
1686343334317547300,12.44654736328125,-0.0529937744140625,-1.0483245849609375,-0.0708770751953125
1686343334327566300,12.45656640625,-0.0676116943359375,-1.03802490234375,-0.087615966796875
1686343334337585400,12.46658544921875,-0.0931243896484375,-1.02764892578125,-0.063934326171875
1686343334347604500,12.4766044921875,-0.108856201171875,-1.02020263671875,-0.0338287353515625
1686343334357623300,12.486623291015626,-0.1121826171875,-1.0043487548828125,-0.022125244140625
1686343334367642400,12.496642333984376,-0.1020660400390625,-0.9936370849609375,0.0015411376953125
1686343334377660400,12.506660400390626,-0.0888671875,-0.99298095703125,-0.0052490234375
1686343334387679200,12.51667919921875,-0.0780181884765625,-0.9882659912109375,-0.024566650390625
1686343334397698300,12.5266982421875,-0.0719757080078125,-0.9816131591796875,-0.0281524658203125
1686343334407717400,12.53671728515625,-0.0694427490234375,-0.9801025390625,-0.0234222412109375
1686343334417736200,12.546736083984374,-0.075836181640625,-0.9610137939453125,-0.0009613037109375
1686343334427755300,12.55675537109375,-0.07391357421875,-0.955841064453125,0.0357818603515625
1686343334437774300,12.5667744140625,-0.065582275390625,-0.960540771484375,0.0444488525390625
1686343334447793200,12.576793212890625,-0.0622711181640625,-0.9625701904296875,0.027099609375
1686343334457811500,12.5868115234375,-0.06060791015625,-0.9698944091796875,0.014251708984375
1686343334467830500,12.59683056640625,-0.0595703125,-0.966033935546875,0.0240325927734375
1686343334477849300,12.606849365234375,-0.0643310546875,-0.9559326171875,0.04754638671875
1686343334487868400,12.616868408203125,-0.0838470458984375,-0.94781494140625,0.052337646484375
1686343334497887500,12.626887451171875,-0.0786285400390625,-0.9931793212890625,0.0078277587890625
1686343334507906600,12.636906494140625,-0.0316619873046875,-1.042633056640625,-0.0463409423828125
1686343334517925400,12.64692529296875,0.0133514404296875,-1.0532989501953125,-0.0891265869140625
1686343334527944400,12.6569443359375,0.010162353515625,-1.0389251708984375,-0.0875701904296875
1686343334537963300,12.66696337890625,0.0021514892578125,-1.0216217041015625,-0.0814361572265625
1686343334547981300,12.676981201171875,-0.0020904541015625,-1.0243377685546875,-0.105438232421875
1686343334558000400,12.68700048828125,-0.015167236328125,-1.024017333984375,-0.12994384765625
1686343334568019500,12.69701953125,-0.009429931640625,-1.0026092529296875,-0.1842041015625
1686343334578038500,12.70703857421875,0.0032196044921875,-1.01251220703125,-0.19781494140625
1686343334588057300,12.717057373046876,0.010528564453125,-1.0352783203125,-0.1952667236328125
1686343334598076400,12.727076416015626,-0.0025787353515625,-1.0274505615234375,-0.126434326171875
1686343334608095500,12.737095458984374,-0.0260467529296875,-0.999114990234375,-0.0513763427734375
1686343334618114600,12.747114501953124,-0.0578460693359375,-0.9833831787109375,-0.013916015625
1686343334628132400,12.75713232421875,-0.1009521484375,-0.9752197265625,-0.0099639892578125
1686343334638151400,12.7671513671875,-0.128173828125,-0.9735260009765625,-0.0521240234375
1686343334648170500,12.77717041015625,-0.134429931640625,-0.9767913818359375,-0.0918426513671875
1686343334658189300,12.787189208984374,-0.1191864013671875,-0.9892120361328125,-0.105438232421875
1686343334668208400,12.79720849609375,-0.0904388427734375,-1.03070068359375,-0.0980682373046875
1686343334678227500,12.8072275390625,-0.06292724609375,-1.054107666015625,-0.0966949462890625
1686343334688246300,12.817246337890625,-0.060394287109375,-1.043670654296875,-0.1558685302734375
1686343334698265300,12.827265380859375,-0.1445159912109375,-1.0272369384765625,-0.2346954345703125
1686343334708284400,12.837284423828125,-0.231597900390625,-1.011688232421875,-0.278656005859375
1686343334718302200,12.84730224609375,-0.2898406982421875,-0.98699951171875,-0.22625732421875
1686343334728321300,12.8573212890625,-0.313720703125,-0.99554443359375,-0.137359619140625
1686343334738340400,12.86734033203125,-0.2159881591796875,-0.9877471923828125,-0.0637969970703125
1686343334748359400,12.877359375,-0.140625,-0.9853057861328125,-0.0260009765625
1686343334758378200,12.887378173828125,-0.0715179443359375,-0.96807861328125,-0.0117645263671875
1686343334768397300,12.897397216796875,0.0012969970703125,-0.946319580078125,-0.0370941162109375
1686343334778416400,12.90741650390625,0.129180908203125,-0.9515533447265625,-0.0337982177734375
1686343334788435500,12.917435546875,0.1362457275390625,-1.00592041015625,-0.1099395751953125
1686343334798454300,12.927454345703126,0.0753021240234375,-1.013671875,-0.15203857421875
1686343334808472300,12.937472412109376,-0.0045928955078125,-0.9773712158203125,-0.0931549072265625
1686343334818491400,12.947491455078126,-0.082061767578125,-1.004669189453125,0.0022125244140625
1686343334828510200,12.95751025390625,-0.119140625,-1.0372772216796875,0.0087432861328125
1686343334838529300,12.967529296875,-0.1349334716796875,-1.0413055419921875,-0.0023345947265625
1686343334848548400,12.97754833984375,-0.146728515625,-1.0286407470703125,-0.0156402587890625
1686343334858567200,12.987567138671874,-0.1239776611328125,-1.00665283203125,-0.0294952392578125
