time,seconds_elapsed,z,y,x
1686343322119544000,0.2485439453125,-0.006006759591400623,0.04036686569452286,-0.0002719087351579219
1686343322129563100,0.258563232421875,-0.002159823663532734,0.0241993460804224,0.0038029940333217382
1686343322139581000,0.268580810546875,-0.0035870117135345936,0.013487845659255981,0.013807158917188644
1686343322149600000,0.27860009765625,-0.006446447689086199,0.01817847043275833,0.02696477249264717
1686343322159619000,0.288619140625,-0.011285677552223206,0.01635846681892872,0.02593466080725193
1686343322169638000,0.298637939453125,-0.007938883267343044,-0.0010135991033166647,0.01986238732933998
1686343322179657000,0.308656982421875,-0.0020216056145727634,-0.010572216473519802,0.01636139675974846
1686343322189676000,0.318676025390625,-0.003352919826284051,-0.0052197957411408424,0.013873470947146416
1686343322199694800,0.32869482421875,-0.0036647759843617678,0.015293735079467297,0.0062943813391029835
1686343322209714000,0.3387138671875,-0.005511145573109388,0.028809010982513428,0.0033047166652977467
1686343322219733000,0.34873291015625,-0.006952714640647173,0.032874058932065964,0.00615163566544652
1686343322229752000,0.358751953125,-0.0014692660188302398,0.029511552304029465,0.00905501376837492
1686343322239771000,0.36877099609375,-0.0030426615849137306,0.01954786852002144,0.009022523649036884
1686343322249789000,0.378788818359375,-0.004358529578894377,0.01239355280995369,0.004899683874100447
1686343322259808000,0.38880810546875,-0.0046607982367277145,0.008311726152896881,0.0036160401068627834
1686343322269826800,0.398826904296875,-0.00720678037032485,-0.011601794511079788,-0.0011704593198373914
1686343322279846000,0.408845947265625,-0.0008556736283935606,-0.025259817019104958,0.003059173235669732
1686343322289865000,0.418864990234375,-0.002120941411703825,-0.0234049241989851,0.013461479917168617
1686343322299884000,0.428884033203125,-0.003313771216198802,-0.0038312235847115517,0.010361826978623867
1686343322309902800,0.43890283203125,-0.0029001825023442507,0.01326680276542902,-0.0026551715563982725
1686343322319922000,0.448921875,-0.0054906392470002174,0.019765183329582214,-0.021679196506738663
1686343322329941000,0.45894091796875,-0.0037462685722857714,0.024764735251665115,-0.020244019106030464
1686343322339960000,0.4689599609375,-0.003964115399867296,0.01889725774526596,-0.016292421147227287
1686343322349979000,0.478978759765625,-0.0038631814531981945,0.0007158577209338546,-0.009978864341974258
1686343322359998000,0.488998046875,-0.004652009811252356,-0.014028467237949371,-0.0049678608775138855
1686343322370016000,0.49901611328125,-0.0033073797821998596,-0.013013536110520363,0.001612011343240738
1686343322380034800,0.509034912109375,-0.00692075677216053,-0.014634069986641407,0.004922853317111731
1686343322390054000,0.519053955078125,-0.0033396040089428425,-0.013234845362603664,0.011109642684459686
1686343322400073000,0.529072998046875,-0.0035920715890824795,0.004779841285198927,0.010004164651036263
1686343322410091800,0.539091796875,-0.0036762275267392397,0.02370373159646988,0.015514245256781578
1686343322420110800,0.54911083984375,-0.0059633501805365086,0.03148309141397476,0.021261878311634064
1686343322430130000,0.5591298828125,-0.009010273031890392,0.033300433307886124,0.030247917398810387
1686343322440149000,0.56914892578125,-0.00911386962980032,0.029744580388069153,0.03272758796811104
1686343322450167800,0.579167724609375,-0.00887817982584238,0.02123764343559742,0.03405117616057396
1686343322460187000,0.589186767578125,-0.005736981518566608,0.0059841228649020195,0.02960236743092537
1686343322470206000,0.5992060546875,-0.005828061606734991,-0.0014136058744043112,0.011928831227123737
1686343322480225000,0.60922509765625,-0.004479703027755022,-0.002302569104358554,-0.0003456783015280962
1686343322490243000,0.6192431640625,-0.0033518546260893345,-0.007759119849652052,-0.005864547099918127
1686343322500262100,0.62926220703125,-0.007738347165286541,-0.017945976927876472,-0.0190794188529253
1686343322510281000,0.639281005859375,-0.00015632755821570754,-0.012228436768054962,-0.021433653309941292
1686343322520300000,0.649300048828125,-0.0005020058597438037,0.002552906284108758,-0.012737100012600422
1686343322530318800,0.65931884765625,-0.00427224300801754,0.011667042039334774,-0.010382600128650665
1686343322540338000,0.669337890625,-0.008263789117336273,0.014482536353170872,-0.009615609422326088
1686343322550357000,0.67935693359375,-0.007482151035219431,0.020070115104317665,-0.019525764510035515
1686343322560375800,0.689375732421875,-0.008358331397175789,0.017416540533304214,-0.0150402020663023
1686343322570395000,0.699394775390625,-0.0046813045628368855,0.010683270171284676,-0.014101438224315643
1686343322580414000,0.7094140625,0.00008495483780279756,0.016593623906373978,-0.012723784893751144
1686343322590432800,0.719432861328125,-0.0038772961124777794,0.030303576961159706,-0.012396748177707195
1686343322600451800,0.729451904296875,-0.0007153250626288354,0.03542803227901459,-0.00509835546836257
1686343322610471000,0.739470947265625,-0.008468053303658962,0.03116937167942524,0.009342368692159653
1686343322620489000,0.749489013671875,-0.00823902152478695,0.02803456410765648,0.02365206554532051
1686343322630508000,0.759508056640625,-0.006125270389020443,0.010003898292779922,0.030250314623117447
1686343322640527000,0.769527099609375,-0.008474178612232208,-0.017309214919805527,0.028773857280611992
1686343322650546200,0.779546142578125,-0.005789978429675102,-0.03489566594362259,0.0242020096629858
1686343322660565000,0.78956494140625,-0.0034756914246827364,-0.032528381794691086,0.030731813982129097
1686343322670584000,0.799583984375,-0.007238738238811493,-0.005877596326172352,0.032467663288116455
1686343322680603100,0.80960302734375,-0.009241967462003231,0.022122345864772797,0.02599112130701542
1686343322690622200,0.819622314453125,-0.005679723806679249,0.02562733180820942,0.01908021792769432
1686343322700641000,0.82964111328125,-0.0036067189648747444,0.013057745061814785,0.010484065860509872
1686343322710660000,0.83966015625,-0.0029401297215372324,0.007441138383001089,0.010389789938926697
1686343322720679200,0.84967919921875,-0.008460063487291336,0.006819822825491428,0.0189617071300745
1686343322730698000,0.859697998046875,-0.007515440694987774,0.008962069638073444,0.026064356788992882
1686343322740716000,0.869716064453125,-0.007994276471436024,0.015796540305018425,0.029945382848381996
1686343322750735000,0.879735107421875,-0.00890854001045227,0.01594221405684948,0.02810433879494667
1686343322760754000,0.88975390625,-0.002176867797970772,0.007898403331637383,0.006077333353459835
1686343322770773000,0.89977294921875,0.0009835053933784366,0.0008881642133928835,-0.01025583315640688
1686343322780792000,0.9097919921875,-0.002098038326948881,-0.0012189288390800357,-0.021048294380307198
1686343322790811100,0.91981103515625,0.004625378176569939,0.0020509003661572933,-0.018136393278837204
1686343322800830000,0.929829833984375,-0.0007379619055427611,0.0003448793722782284,-0.014631140977144241
1686343322810849000,0.93984912109375,-0.0021853898651897907,0.003025883575901389,-0.01908261515200138
1686343322820868000,0.9498681640625,0.00003488740912871435,0.010922688990831375,-0.017655692994594574
1686343322830887200,0.95988720703125,-0.0035515916533768177,0.007672566920518875,-0.021016335114836693
1686343322840906000,0.969906005859375,-0.002428004052489996,0.007444866932928562,-0.009680856950581074
1686343322850925000,0.979925048828125,-0.006520750001072884,0.014888402074575424,0.00019441076437942684
1686343322860944100,0.989944091796875,-0.003990480676293373,0.015683887526392937,0.007647000718861818
1686343322870962000,0.9999619140625,-0.003981425892561674,0.012047075666487217,0.0019198728259652853
1686343322880981000,1.00998095703125,-0.004740426782518625,0.008444883860647678,0.0046091326512396336
1686343322891000000,1.02,-0.002115082461386919,0.00023515711654908955,0.00566960358992219
1686343322901019100,1.03001904296875,-0.00652660895138979,-0.0036213663406670094,0.00938950665295124
1686343322911038000,1.040037841796875,-0.005845638457685709,0.0009353021741844714,0.014505173079669476
1686343322921057000,1.05005712890625,-0.005028314422816038,-0.001275920425541699,0.015741944313049316
1686343322931076000,1.060076171875,-0.004988100845366716,-0.0070405988954007626,0.011871307156980038
1686343322941095000,1.070094970703125,-0.003910852130502462,-0.010692059062421322,0.008723982609808445
1686343322951114000,1.080114013671875,-0.004791825544089079,0.003864779369905591,0.007105313707143068
1686343322961133000,1.090133056640625,-0.005805691238492727,0.006190517917275429,0.010885670781135559
1686343322971152100,1.100152099609375,-0.004954278469085693,0.001064998097717762,0.01248276885598898
1686343322981171000,1.1101708984375,-0.0065111625008285046,0.007751396391540766,0.01124865934252739
1686343322991189000,1.12018896484375,-0.008558334782719612,0.008128766901791096,0.007669371087104082
1686343323001208000,1.1302080078125,-0.005188636481761932,0.004308728501200676,0.0016192019684240222
1686343323011227000,1.140226806640625,-0.005270129535347223,0.0004444815858732909,-0.00001757686368364375
1686343323021246000,1.150245849609375,-0.005831523798406124,-0.0031092404387891293,-0.0011086739832535386
1686343323031265000,1.16026513671875,-0.003382480936124921,0.0001901497016660869,0.000678307143971324
1686343323041284000,1.1702841796875,-0.006700247060507536,0.004172640852630138,0.00025726135936565697
1686343323051303000,1.180302978515625,-0.0048799761570990086,0.006333263125270605,-0.006187588442116976
1686343323061322000,1.190322021484375,-0.005622199270874262,0.00564137427136302,-0.0027113643009215593
1686343323071341000,1.200341064453125,-0.005437375977635384,0.004345213528722525,0.0027590349782258272
1686343323081360000,1.21035986328125,-0.0046416232362389565,0.0059995693154633045,0.0006114617572166026
1686343323091379000,1.22037890625,-0.006449377164244652,0.008637962862849236,0.002721750643104315
1686343323101398000,1.23039794921875,-0.006565757095813751,0.005543103441596031,0.0024972460232675076
1686343323111415800,1.240415771484375,-0.003920705523341894,0.0059806606732308865,0.0037651772145181894
1686343323121435000,1.250434814453125,-0.00666535971686244,0.002177666872739792,-0.011321896687150002
1686343323131454000,1.260453857421875,-0.0027830032631754875,-0.003569700988009572,-0.0212408397346735
1686343323141473000,1.27047314453125,-0.0005587312043644488,0.0031164311803877354,-0.011570636183023453
1686343323151491800,1.280491943359375,0.002173938322812319,0.005487443413585424,-0.006047506351023912
1686343323161511000,1.290510986328125,-0.0014729943359270692,-0.004896221682429314,0.0006077333819121122
1686343323171530000,1.300530029296875,-0.002966495230793953,-0.013910755515098572,0.006681072060018778
1686343323181549000,1.310549072265625,-0.0036253612488508224,-0.012921124696731567,0.009557552635669708
1686343323191568000,1.32056787109375,-0.0018639464396983385,-0.013437777757644653,0.012081696651875973
1686343323201587000,1.3305869140625,-0.005181978922337294,-0.013455887325108051,0.004594219382852316
1686343323211606000,1.34060595703125,-0.001784850494004786,-0.007750065065920353,-0.007874168455600739
1686343323221625000,1.350625,-0.0006002765148878098,0.00018189390539191663,-0.013226589187979698
1686343323231643000,1.360642822265625,-0.005586512852460146,0.009652361273765564,-0.01224361639469862
1686343323241662000,1.370661865234375,-0.0065290057100355625,0.021991850808262825,-0.005708752200007439
1686343323251681000,1.380680908203125,-0.006648581475019455,0.025535719469189644,0.0004886900424025953
1686343323261699800,1.390699951171875,-0.0008117315010167658,0.018370218575000763,0.007429154124110937
1686343323271719000,1.400718994140625,-0.0029260150622576475,0.009484048932790756,0.013787451200187206
1686343323281738000,1.410738037109375,-0.0070078419521451,0.003448793664574623,0.0211257915943861
1686343323291756800,1.4207568359375,-0.010753578506410122,-0.007390804588794708,0.02683214657008648
1686343323301776000,1.43077587890625,-0.007546333130449057,-0.01571211777627468,0.023014504462480545
1686343323311795000,1.440794921875,0.0008098672842606902,-0.013093165121972561,0.011898471042513847
1686343323321814000,1.45081396484375,0.007137804292142391,-0.005191300064325333,0.004988100845366716
1686343323331831800,1.460831787109375,0.005246960092335939,0.0026349315885454416,-0.009065399877727032
1686343323341851000,1.470850830078125,0.0060262009501457214,0.011035340838134289,-0.021894380450248718
1686343323351870000,1.480869873046875,-0.0007880293414928019,0.014741661958396435,-0.025415876880288124
1686343323361888800,1.490888671875,-0.0015531554818153381,0.007669637445360422,-0.013337642885744572
1686343323371907800,1.500907958984375,-0.006642988882958889,-0.007938883267343044,-0.003864513011649251
1686343323381927000,1.510927001953125,-0.006867759861052036,-0.021998509764671326,0.0008008125587366521
1686343323391945700,1.52094580078125,-0.003489273600280285,-0.03172836825251579,-0.0014676681021228433
1686343323401964800,1.53096484375,-0.0016913736471906304,-0.021585453301668167,0.0016900419723242521
1686343323411984000,1.54098388671875,-0.001074052881449461,-0.003079679561778903,0.0036722328513860703
1686343323422002700,1.551002685546875,-0.003683950752019882,0.016990967094898224,0.005798500496894121
1686343323432021800,1.561021728515625,-0.006414223462343216,0.03335289657115936,0.015178686939179897
1686343323442040800,1.571040771484375,-0.0046213832683861256,0.03514333814382553,0.017426660284399986
1686343323452059000,1.581058837890625,-0.0051987566985189915,0.030605578795075417,0.02202460914850235
1686343323462078000,1.591077880859375,-0.001785383210517466,0.02672455459833145,0.023211313411593437
1686343323472097000,1.601096923828125,-0.007808388210833073,0.023441143333911896,0.025893915444612503
1686343323482115800,1.61111572265625,-0.007879761047661304,0.015327024273574352,0.03622937574982643
1686343323492135000,1.621135009765625,-0.008134892210364342,0.008763664402067661,0.038607578724622726
1686343323502154000,1.631154052734375,-0.004378769546747208,0.0013401026371866465,0.03621819242835045
1686343323512173000,1.641173095703125,-0.00839454960078001,-0.011886753141880035,0.023616379126906395
1686343323522192000,1.65119189453125,-0.0028700886759907007,-0.009167665615677834,0.01786688156425953
1686343323532211000,1.6612109375,-0.00475347600877285,-0.0027475832030177116,0.00854635052382946
1686343323542230000,1.67122998046875,-0.0057167415507137775,0.0017600831342861056,0.0008905610884539783
1686343323552247800,1.681247802734375,0.00009081379539566115,0.007354851812124252,-0.003875698195770383
1686343323562267000,1.691266845703125,-0.006901581771671772,0.009936519898474216,-0.009093896485865116
1686343323572286000,1.701285888671875,-0.005245095584541559,0.009150088764727116,-0.01763385534286499
1686343323582305000,1.711304931640625,-0.008623315952718258,0.001282312092371285,-0.013773336075246334
1686343323592323800,1.72132373046875,-0.01070697233080864,-0.008174306713044643,-0.007896805182099342
1686343323602343000,1.731343017578125,-0.0071069118566811085,-0.009010273031890392,-0.004355333745479584
1686343323612362000,1.741362060546875,-0.004793157335370779,-0.00592606607824564,0.0033510555513203144
1686343323622381000,1.751381103515625,-0.006505836267024279,0.004338555503636599,0.006756439805030823
1686343323632400000,1.76139990234375,-0.003954261541366577,0.02568592131137848,0.010219347663223743
1686343323642419000,1.7714189453125,-0.006070143077522516,0.028746958822011948,0.011748534627258778
1686343323652438000,1.78143798828125,-0.00914715975522995,0.020926853641867638,0.00560968229547143
1686343323662455800,1.791455810546875,-0.008978048339486122,0.008482168428599834,0.004607534967362881
1686343323672475000,1.801474853515625,-0.008347411639988422,-0.0023635553661733866,0.0025102957151830196
1686343323682494000,1.811493896484375,-0.01212830189615488,-0.014568822458386421,0.004960137419402599
1686343323692512800,1.8215126953125,-0.0034445326309651136,-0.0150388702750206,0.00951041467487812
1686343323702531800,1.83153173828125,-0.008778044953942299,-0.011994611471891403,0.017248760908842087
1686343323712551000,1.841551025390625,-0.0059724049642682076,-0.00977593194693327,0.019458653405308723
1686343323722570000,1.851570068359375,-0.0060264673084020615,-0.013118465431034565,0.012182896956801414
1686343323732588800,1.8615888671875,-0.00803289283066988,-0.004210457671433687,0.0024794030468910933
1686343323742608000,1.87160791015625,-0.0024780714884400368,0.004450408276170492,-0.0011289139511063695
1686343323752626000,1.8816259765625,-0.007450992241501808,0.009000418707728386,0.00046339002437889576
1686343323762644700,1.891644775390625,-0.008533833548426628,0.010492322035133839,0.01041402481496334
1686343323772663800,1.901663818359375,-0.009217200800776482,0.01398452464491129,0.013793310150504112
1686343323782683000,1.911682861328125,-0.0099610211327672,0.013148292899131775,0.022399049252271652
1686343323792702000,1.921701904296875,-0.011385812424123287,0.024291224777698517,0.027455326169729233
1686343323802720800,1.931720703125,-0.010008425451815128,0.04639546200633049,0.029016736894845963
1686343323812739800,1.94173974609375,-0.007829161360859871,0.0833263173699379,0.027721377089619637
1686343323822759000,1.951759033203125,-0.010884338989853859,0.10277698189020157,0.02117426134645939
1686343323832777700,1.96177783203125,-0.009870474226772785,0.08964946120977402,0.005123389419168234
1686343323842796800,1.971796875,-0.005982258822768927,0.07471524924039841,0.0023086944129318
1686343323852816000,1.98181591796875,-0.006178267300128937,0.09479229152202606,0.0364094078540802
1686343323862833700,1.991833740234375,-0.01678164303302765,0.12171711027622223,0.061165086925029755
1686343323872852700,2.001852783203125,-0.0315944105386734,0.12224575132131577,0.061946723610162735
1686343323882871800,2.011871826171875,-0.04544071853160858,0.10063819587230682,0.04183666408061981
1686343323892891000,2.021890869140625,-0.0724496990442276,0.0934085100889206,0.02798529528081417
1686343323902909700,2.03190966796875,-0.11303414404392242,0.08787286281585693,0.02104962430894375
1686343323912928800,2.0419287109375,-0.13318201899528503,0.10025177150964737,0.02026985213160515
1686343323922947800,2.05194775390625,-0.17404796183109283,0.1419305056333542,0.000333161442540586
1686343323932967000,2.061966796875,-0.22736524045467377,0.1403890699148178,-0.03514067828655243
1686343323942985700,2.07198583984375,-0.2545452117919922,0.08497054874897003,-0.0592297688126564
1686343323953004800,2.0820048828125,-0.3004714250564575,0.06028890609741211,-0.07943570613861084
1686343323963022800,2.09202294921875,-0.3706502318382263,0.09966534376144409,-0.11174570769071579
1686343323973041700,2.102041748046875,-0.4391677677631378,0.08973520994186401,-0.1431475728750229
1686343323983060700,2.112060791015625,-0.6402750611305237,-0.2980162501335144,0.1976771205663681
1686343323993079800,2.122079833984375,-0.7123713493347168,-0.26111868023872375,0.5005693435668945
1686343324003099000,2.132098876953125,-0.8582028746604919,0.029749372974038124,0.612840473651886
1686343324013117700,2.14211767578125,-0.7748792171478271,-0.3496552109718323,0.6737504601478577
1686343324023136800,2.15213671875,-0.7613176107406616,-0.869486927986145,0.602378785610199
1686343324033155800,2.16215576171875,-0.6631955504417419,-1.2933039665222168,0.5438694357872009
1686343324043174700,2.172174560546875,-0.6117475628852844,-1.831547737121582,0.5384629368782043
1686343324053193700,2.18219384765625,-0.5845926403999329,-2.12477707862854,0.5417817831039429
1686343324063212000,2.1922119140625,-0.5563915967941284,-1.8624728918075562,0.5700088739395142
1686343324073230800,2.20223095703125,-0.3181934058666229,-0.8161736726760864,0.5370661020278931
1686343324083250000,2.21225,0.2700810134410858,0.3770918846130371,0.26239752769470215
1686343324093269000,2.22226904296875,0.23973803222179413,0.30220964550971985,-0.18905967473983765
1686343324103287800,2.232287841796875,0.1677061766386032,0.39283517003059387,-0.5117958784103394
1686343324113307000,2.242306884765625,0.16359318792819977,0.5197460055351257,-0.6532095074653625
1686343324123326000,2.252325927734375,0.16541345417499542,0.48625272512435913,-0.7276882529258728
1686343324133344800,2.2623447265625,0.18842583894729614,0.4659402668476105,-0.7819099426269531
1686343324143363800,2.27236376953125,0.21848253905773163,0.5017755031585693,-0.80000239610672
1686343324153382700,2.282382568359375,0.22108177840709686,0.5022751092910767,-0.7341698408126831
1686343324163401000,2.29240087890625,0.19871416687965393,0.41104772686958313,-0.5687390565872192
1686343324173420000,2.302419921875,0.1796666979789734,0.2851068377494812,-0.39870983362197876
1686343324183438800,2.31243896484375,0.15943387150764465,0.2838013470172882,-0.27740150690078735
1686343324193458000,2.3224580078125,0.09907012432813644,0.4379642903804779,-0.2622305452823639
1686343324203477000,2.33247705078125,0.05688165873289108,0.6544944643974304,-0.30166369676589966
1686343324213496000,2.34249609375,0.028173048049211502,0.8493483662605286,-0.3494184613227844
1686343324223515000,2.352514892578125,0.012890231795608997,0.9117521047592163,-0.35640233755111694
1686343324233534000,2.362533935546875,0.0027691549621522427,0.8540757298469543,-0.3029060661792755
1686343324243553000,2.372552978515625,0.0020154803059995174,0.7608789801597595,-0.22380059957504272
1686343324253571800,2.38257177734375,-0.0007416903390549123,0.6780738234519958,-0.20208598673343658
1686343324263590000,2.39258984375,-0.010233995504677296,0.6398899555206299,-0.23558855056762695
1686343324273609000,2.40260888671875,-0.005475192796438932,0.6042670011520386,-0.35043230652809143
1686343324283627800,2.412627685546875,0.022700518369674683,0.5921650528907776,-0.4981274902820587
1686343324293646800,2.422646728515625,0.031377628445625305,0.5553931593894958,-0.6223535537719727
1686343324303666000,2.432666015625,0.04002544656395912,0.5425767302513123,-0.6439473032951355
1686343324313685000,2.44268505859375,0.04873664677143097,0.5838413238525391,-0.5999161601066589
1686343324323703800,2.452703857421875,0.026851054280996323,0.6609244346618652,-0.5661121606826782
1686343324333723000,2.462722900390625,0.01631718873977661,0.8440760970115662,-0.6235935688018799
1686343324343742000,2.472741943359375,0.002597647253423929,1.0807543992996216,-0.8044703602790833
1686343324353761000,2.482760986328125,-0.026609506458044052,1.3042356967926025,-0.9650217294692993
1686343324363779800,2.49277978515625,-0.026982614770531654,1.4219166040420532,-1.003303050994873
1686343324373798000,2.5027978515625,-0.017727864906191826,1.3921855688095093,-0.9376052618026733
1686343324383817000,2.51281689453125,0.0062738750129938126,1.1748052835464478,-0.8127943873405457
1686343324393836500,2.52283642578125,0.00021997711155563593,0.9897201061248779,-0.6996052265167236
1686343324403855600,2.532855712890625,-0.029396504163742065,0.8874680399894714,-0.6356493830680847
1686343324413874400,2.54287451171875,-0.02948225848376751,0.698082447052002,-0.5692490935325623
1686343324423893500,2.5528935546875,-0.033002156764268875,0.4206249713897705,-0.4721715450286865
1686343324433912600,2.56291259765625,-0.08417613059282303,0.1104186549782753,-0.33032679557800293
1686343324443931600,2.572931640625,-0.13143925368785858,-0.08618521690368652,-0.1510867178440094
1686343324453950500,2.582950439453125,-0.16333645582199097,-0.3221740424633026,0.015787485986948013
1686343324463968500,2.592968505859375,-0.19354523718357086,-0.5395321846008301,0.1498163938522339
1686343324473987600,2.602987548828125,-0.2263156920671463,-0.6226673126220703,0.2588837444782257
1686343324484006400,2.61300634765625,-0.27253085374832153,-0.5730696320533752,0.3521692156791687
1686343324494025500,2.623025390625,-0.334514856338501,-0.48935985565185547,0.4282858371734619
1686343324504044500,2.63304443359375,-0.3389575481414795,-0.37978726625442505,0.46657517552375793
1686343324514063600,2.643063720703125,-0.31935909390449524,-0.3396691381931305,0.4426328241825104
1686343324524082400,2.65308251953125,-0.29028722643852234,-0.2977352738380432,0.39040663838386536
1686343324534101500,2.6631015625,-0.22839535772800446,-0.17506875097751617,0.26786234974861145
1686343324544120600,2.67312060546875,-0.055152200162410736,0.0018168084789067507,0.04962560907006264
1686343324554139400,2.683139404296875,0.12475817650556564,0.0900001972913742,-0.17104418575763702
1686343324564157400,2.693157470703125,0.21387925744056702,0.18107205629348755,-0.2076658457517624
1686343324574176500,2.703176513671875,0.21839065849781036,0.25333186984062195,-0.059895023703575134
1686343324584195300,2.7131953125,0.20806318521499634,0.17722778022289276,0.138902485370636
1686343324594214400,2.72321435546875,0.17071793973445892,-0.010837733745574951,0.26685991883277893
1686343324604233500,2.7332333984375,0.12156877666711807,-0.2235872894525528,0.2970500588417053
1686343324614252500,2.74325244140625,0.015077752992510796,-0.3954402804374695,0.22009214758872986
1686343324624271400,2.753271240234375,-0.03428154066205025,-0.4538702964782715,0.12216106057167053
1686343324634290400,2.76329052734375,-0.06272649765014648,-0.44434815645217896,0.08412739634513855
1686343324644309500,2.7733095703125,-0.09205322712659836,-0.44465309381484985,0.12355922162532806
1686343324654328600,2.78332861328125,-0.11009906977415085,-0.48171496391296387,0.18489448726177216
1686343324664346400,2.793346435546875,-0.09772069752216339,-0.4911433458328247,0.24043551087379456
1686343324674365400,2.803365478515625,-0.10237936675548553,-0.4726346433162689,0.262781023979187
1686343324684384500,2.813384521484375,-0.13578233122825623,-0.4185575842857361,0.2794145941734314
1686343324694403300,2.8234033203125,-0.18036338686943054,-0.3274649381637573,0.2665499448776245
1686343324704422400,2.83342236328125,-0.17578434944152832,-0.30981752276420593,0.2302771508693695
1686343324714441500,2.84344140625,-0.16051937639713287,-0.36990347504615784,0.19948914647102356
1686343324724460300,2.853460205078125,-0.15037459135055542,-0.41313430666923523,0.14413799345493317
1686343324734479400,2.863479248046875,-0.16675595939159393,-0.40314745903015137,0.08298303186893463
1686343324744498400,2.87349853515625,-0.18071305751800537,-0.3506600260734558,0.006409962195903063
1686343324754517500,2.883517578125,-0.17929013073444366,-0.3165896534919739,-0.050445862114429474
1686343324764535600,2.89353564453125,-0.1621801108121872,-0.3292290270328522,-0.07746922224760056
1686343324774554400,2.903554443359375,-0.13045787811279297,-0.35619619488716125,-0.09086332470178604
1686343324784573400,2.913573486328125,-0.09590735286474228,-0.3834427297115326,-0.09633932262659073
1686343324794592300,2.92359228515625,-0.058759454637765884,-0.3594819903373718,-0.11696097254753113
1686343324804611300,2.933611328125,-0.04320952296257019,-0.28381282091140747,-0.15631024539470673
1686343324814630400,2.94363037109375,-0.04754434898495674,-0.2147517204284668,-0.20585408806800842
1686343324824649500,2.9536494140625,-0.04992761090397835,-0.14874473214149475,-0.23485378921031952
1686343324834668300,2.963668212890625,-0.04547613859176636,-0.09639178216457367,-0.2406107485294342
1686343324844687400,2.973687255859375,-0.04036073759198189,-0.07546253502368927,-0.2101135551929474
1686343324854705700,2.98370556640625,-0.023209715262055397,-0.07979176938533783,-0.15943387150764465
1686343324864724500,2.993724365234375,-0.0009526127250865102,-0.06649167835712433,-0.11399128288030624
1686343324874743600,3.00374365234375,0.013413543812930584,-0.03736840933561325,-0.08622090518474579
1686343324884762600,3.0137626953125,0.020140688866376877,-0.048534780740737915,-0.049738794565200806
1686343324894781700,3.02378173828125,0.03362081199884415,-0.0760074183344841,-0.022098910063505173
1686343324904800500,3.033800537109375,0.04794781655073166,-0.08028924465179443,-0.007901065982878208
1686343324914819600,3.043819580078125,0.05949688330292702,-0.03548528999090195,-0.012735769152641296
1686343324924838700,3.053838623046875,0.05685848742723465,0.005577458068728447,-0.032292693853378296
1686343324934857500,3.063857421875,0.04096447676420212,0.003489273600280285,-0.03756974637508392
1686343324944876500,3.07387646484375,0.03610234335064888,0.01486203633248806,-0.059844426810741425
1686343324954894600,3.08389453125,0.03357740119099617,0.02996722050011158,-0.08618628233671188
1686343324964913400,3.093913330078125,0.030493993312120438,0.03285302221775055,-0.09573584794998169
1686343324974932500,3.103932373046875,0.028055069968104362,0.016569389030337334,-0.082095667719841
1686343324984951600,3.11395166015625,0.04509184509515762,-0.004328702110797167,-0.049490321427583694
1686343324994970600,3.123970703125,0.0735170915722847,-0.013274526223540306,-0.02557327039539814
1686343325004989400,3.133989501953125,0.09930048882961273,-0.007496798411011696,-0.012370649725198746
1686343325015008500,3.144008544921875,0.10519512742757797,-0.0225034449249506,-0.008333031088113785
1686343325025027600,3.154027587890625,0.1063152551651001,-0.04572194814682007,0.003388073528185487
1686343325035046700,3.164046630859375,0.10817760229110718,-0.07769772410392761,0.020236030220985413
1686343325045065500,3.1740654296875,0.1212230995297432,-0.10833073407411575,0.036252278834581375
1686343325055083500,3.18408349609375,0.1271028220653534,-0.11101306974887848,0.04438850283622742
1686343325065102600,3.1941025390625,0.1372489333152771,-0.09411744028329849,0.031157653778791428
1686343325075121400,3.204121337890625,0.13825801014900208,-0.07392509281635284,0.008582303300499916
1686343325085140500,3.214140380859375,0.13280145823955536,-0.03965473547577858,-0.02965669520199299
1686343325095159600,3.22415966796875,0.12262258678674698,-0.00375985074788332,-0.07545294612646103
1686343325105178600,3.2341787109375,0.10628675669431686,0.0241351630538702,-0.11379580944776535
1686343325115197400,3.244197509765625,0.0862019956111908,0.0057502975687384605,-0.11895594745874405
1686343325125216500,3.254216552734375,0.060072656720876694,-0.014416223391890526,-0.11514603346586227
1686343325135235600,3.264235595703125,0.03458540886640549,-0.020060259848833084,-0.10008318722248077
1686343325145254400,3.27425439453125,0.015528359450399876,-0.006314354948699474,-0.08175771683454514
1686343325155272400,3.2842724609375,0.003693005535751581,0.01429345179349184,-0.06309188157320023
1686343325165291500,3.29429150390625,0.011126953177154064,0.02485128678381443,-0.047384291887283325
1686343325175310300,3.304310302734375,0.020836573094129562,0.027115240693092346,-0.03175952658057213
1686343325185329400,3.314329345703125,0.031313713639974594,0.02406272478401661,-0.02130342461168766
1686343325195348500,3.324348388671875,0.030911576002836227,0.0036274916492402554,-0.006702111102640629
1686343325205367600,3.334367431640625,0.03209029138088226,-0.005121791269630194,0.004323375876992941
1686343325215386400,3.344386474609375,0.03694390133023262,0.001276186783798039,0.01438293419778347
1686343325225405400,3.354405517578125,0.04163452982902527,0.020560136064887047,0.014371216297149658
1686343325235424500,3.364424560546875,0.04083691164851189,0.030415164306759834,0.019532687962055206
1686343325245442300,3.3744423828125,0.03196219354867935,0.016812801361083984,0.028925124555826187
1686343325255461400,3.38446142578125,0.01883307658135891,0.0017531589837744832,0.03941158950328827
1686343325265480400,3.39448046875,0.014949122443795204,-0.0015848471084609628,0.04965570196509361
1686343325275499500,3.40449951171875,0.020200876519083977,-0.0030692932195961475,0.06493186205625534
1686343325285518300,3.414518310546875,0.02093644067645073,0.011650264263153076,0.07062916457653046
1686343325295537400,3.424537353515625,0.024645691737532616,0.023123161867260933,0.0661047175526619
1686343325305556500,3.434556396484375,0.007443535141646862,0.023068035021424294,0.06633641570806503
1686343325315575600,3.444575439453125,-0.01098367478698492,0.03602724149823189,0.05573436990380287
1686343325325594400,3.454594482421875,-0.024220118299126625,0.041126396507024765,0.04604898393154144
1686343325335613400,3.464613525390625,-0.032337434589862823,0.030125943943858147,0.050159305334091187
1686343325345631500,3.474631591796875,-0.028439896181225777,0.019936423748731613,0.05786782503128052
1686343325355650300,3.484650390625,-0.02684652805328369,0.001243962557055056,0.07281056046485901
1686343325365669400,3.49466943359375,-0.025776736438274384,-0.016825051978230476,0.08381234109401703
1686343325375688400,3.5046884765625,-0.02285631373524666,0.0010069411946460605,0.08173081278800964
1686343325385707300,3.514707275390625,-0.01816515624523163,0.032753150910139084,0.06280772387981415
1686343325395726600,3.5247265625,-0.020727382972836494,0.043843355029821396,0.044372789561748505
1686343325405745700,3.53474560546875,-0.013529657386243343,0.02859249711036682,0.03086976520717144
1686343325415764500,3.544764404296875,-0.001499359728768468,0.017405888065695763,0.022396652027964592
1686343325425783600,3.554783447265625,0.008038485422730446,0.014452708885073662,0.008894159458577633
1686343325435801900,3.5648017578125,0.0065290057100355625,0.019296998158097267,0.0059569585137069225
1686343325445820700,3.574820556640625,0.009807889349758625,0.024538632482290268,0.0025513083674013615
1686343325455839700,3.58483984375,0.01540771871805191,0.017679395154118538,-0.0062858592718839645
1686343325465858800,3.59485888671875,0.02052365057170391,-0.002037850907072425,-0.01149633340537548
1686343325475878000,3.6048779296875,0.02184644341468811,-0.012538961134850979,-0.025607625022530556
1686343325485896700,3.614896728515625,0.029080120846629143,0.0051995557732880116,-0.03754817321896553
1686343325495915800,3.624915771484375,0.029641514644026756,0.04036340117454529,-0.051182761788368225
1686343325505934600,3.6349345703125,0.03021409548819065,0.0747048631310463,-0.049913763999938965
1686343325515953700,3.64495361328125,0.028730448335409164,0.07213198393583298,-0.04216476529836655
1686343325525971700,3.6549716796875,0.026852652430534363,0.038845401257276535,-0.008961270563304424
1686343325535990800,3.66499072265625,0.02750592678785324,0.01973695307970047,0.02431252971291542
1686343325546009600,3.675009521484375,0.03496703878045082,0.021828599274158478,0.04306544363498688
1686343325556028700,3.685028564453125,0.04002278298139572,0.04291417822241783,0.04875608906149864
1686343325566047700,3.6950478515625,0.042145855724811554,0.0593850314617157,0.04344308003783226
1686343325576066800,3.70506689453125,0.04454456642270088,0.06314967572689056,0.041721612215042114
1686343325586085600,3.715085693359375,0.041845183819532394,0.04923572391271591,0.0527348518371582
1686343325596104700,3.725104736328125,0.03913142532110214,0.033070068806409836,0.07331842184066772
1686343325606123800,3.735123779296875,0.04247581958770752,0.018201373517513275,0.09480293840169907
1686343325616142800,3.745142822265625,0.03832874819636345,0.02335059642791748,0.09460746496915817
1686343325626160600,3.75516064453125,0.030974959954619408,0.03117576241493225,0.07677600532770157
1686343325636179700,3.7651796875,0.023121563717722893,0.05073268711566925,0.045036185532808304
1686343325646198800,3.77519873046875,0.025978604331612587,0.06219999119639397,0.018195515498518944
1686343325656217600,3.785217529296875,0.028250813484191895,0.05633464455604553,0.011313640512526035
1686343325666236700,3.795236572265625,0.030059631913900375,0.04313734918832779,0.011520301923155785
1686343325676255700,3.805255859375,0.027822576463222504,0.03510579094290733,0.0280326995998621
1686343325686274800,3.81527490234375,0.02930835448205471,0.02377030998468399,0.036805152893066406
1686343325696293600,3.825293701171875,0.03473987057805061,0.012487562373280525,0.04746285825967789
1686343325706312700,3.835312744140625,0.03501204773783684,0.005634716246277094,0.04923545569181442
1686343325716330800,3.845330810546875,0.03170759603381157,0.009213738143444061,0.026867300271987915
1686343325726349600,3.855349609375,0.025591645389795303,0.014708371832966805,0.0016695356462150812
1686343325736368600,3.86536865234375,0.0165542084723711,0.022540995851159096,-0.0260638240724802
1686343325746387700,3.8753876953125,0.012358399108052254,0.020130833610892296,-0.04059882462024689
1686343325756406500,3.885406494140625,0.011494736187160015,0.013733655214309692,-0.03424771875143051
1686343325766425600,3.895425537109375,0.011668640188872814,0.004563859198242426,-0.01799284853041172
1686343325776444700,3.905444580078125,0.008922655135393143,0.0011036139912903309,-0.0024170849937945604
1686343325786463700,3.915463623046875,0.005317001137882471,-0.006977215874940157,0.01600959338247776
1686343325796482600,3.925482666015625,-0.0003448793722782284,-0.010853447020053864,0.024712003767490387
1686343325806500600,3.93550048828125,0.001576857641339302,-0.0157089214771986,0.029691848903894424
1686343325816519700,3.945519775390625,-0.0008700547041371465,-0.02057052217423916,0.032111331820487976
1686343325826538500,3.95553857421875,0.002379534300416708,-0.02352423407137394,0.026861974969506264
1686343325836557600,3.9655576171875,0.004577707499265671,-0.014101171866059303,0.017894312739372253
1686343325846576600,3.97557666015625,0.0014732606941834092,0.011234278790652752,-0.00027270769351162016
1686343325856595700,3.985595703125,-0.006326072849333286,0.024985777214169502,-0.007873902097344398
1686343325866614500,3.995614501953125,-0.01353471726179123,0.03310948237776756,-0.010651845484972
1686343325876633600,4.005633544921875,-0.016952885314822197,0.02696610428392887,0.0005510080372914672
1686343325886652700,4.015652587890625,-0.009788980707526207,0.014762700535356998,0.01642690971493721
1686343325896670500,4.02567041015625,-0.0032871398143470287,0.005371063016355038,0.029567480087280273
1686343325906689500,4.035689453125,0.0073165022768080235,0.010893394239246845,0.0352029949426651
1686343325916708600,4.04570849609375,0.010854511521756649,0.013789582066237926,0.03284343332052231
1686343325926727400,4.0557275390625,0.012106730602681637,0.009921073913574219,0.02857598476111889
1686343325936746500,4.06574658203125,0.018097244203090668,0.0033388049341738224,0.022839268669486046
1686343325946765600,4.075765625,0.01944507099688053,-0.004710332956165075,0.012888101860880852
1686343325956784600,4.08578466796875,0.014683871529996395,-0.008013185113668442,0.007531685754656792
1686343325966803500,4.095803466796875,0.013558952137827873,-0.005272259935736656,-0.0015523566398769617
1686343325976822500,4.105822509765625,0.010458766482770443,-0.000060986389144090936,-0.0026676885318011045
1686343325986841600,4.115841552734375,0.013805294409394264,0.0011249192757532,-0.002517219865694642
1686343325996859600,4.125859619140625,0.015387744642794132,-0.003570233704522252,0.0095684714615345
1686343326006878700,4.135878662109375,0.02153352089226246,-0.00395772373303771,0.01263882964849472
1686343326016897800,4.145897705078125,0.021792912855744362,-0.00027324032271280885,0.00777669670060277
1686343326026916900,4.155916748046875,0.020299412310123444,0.0037910097744315863,-0.0017473000334575772
1686343326036935700,4.165935791015625,0.015566975809633732,0.00159470085054636,-0.010388459078967571
1686343326046954800,4.175954833984375,0.00926140882074833,-0.004464789759367704,-0.009497631341218948
1686343326056973600,4.1859736328125,0.007405451964586973,-0.000975782226305455,-0.010780476033687592
1686343326066992600,4.19599267578125,0.0029060414526611567,-0.006689860485494137,-0.0009653958841226995
1686343326077011700,4.20601171875,0.0060264673084020615,-0.016151539981365204,0.011571435257792473
1686343326087029800,4.21602978515625,0.005080778617411852,-0.01714995875954628,0.019769709557294846
1686343326097048800,4.226048828125,0.003468500915914774,-0.025307221338152885,0.02454422414302826
1686343326107067600,4.236067626953125,0.0007872303831391037,-0.020491426810622215,0.022224079817533493
1686343326117086700,4.246086669921875,-0.004165716469287872,-0.007166033610701561,0.01702745258808136
1686343326127105800,4.256105712890625,-0.005006742663681507,0.004349474795162678,0.0054211304523050785
1686343326137124600,4.26612451171875,-0.008159392513334751,0.006813963875174522,-0.002032258315011859
1686343326147143700,4.276143798828125,-0.01008059736341238,0.010896589607000351,-0.0011235876008868217
1686343326157162800,4.286162841796875,-0.006910370197147131,0.011129350401461124,0.0057737333700060844
1686343326167181800,4.296181884765625,-0.00732449209317565,0.0052259210497140884,0.014698518440127373
1686343326177200600,4.30620068359375,-0.012054531835019588,-0.0038714371621608734,0.020565995946526527
1686343326187218700,4.31621875,-0.005573463626205921,-0.008412126451730728,0.01732945628464222
1686343326197237800,4.32623779296875,-0.008006793446838856,-0.011636416427791119,0.01050190906971693
1686343326207256600,4.336256591796875,-0.010036122053861618,-0.003754258155822754,0.005489840172231197
1686343326217275600,4.346275634765625,-0.007509848102927208,0.006899984087795019,0.0023339942563325167
1686343326227294700,4.356294677734375,-0.01492169126868248,0.02189810760319233,-0.005061604082584381
1686343326237313800,4.366313720703125,-0.008303736336529255,0.039391614496707916,-0.009635050781071186
1686343326247332600,4.37633251953125,-0.003376621985808015,0.03690448775887489,-0.005775064695626497
1686343326257351700,4.3863515625,0.004310858901590109,0.02129570208489895,0.0028399948496371508
1686343326267370800,4.396370849609375,0.01684555970132351,0.004771052859723568,0.017188308760523796
1686343326277388500,4.406388427734375,0.028440695255994797,-0.012605540454387665,0.031747810542583466
1686343326287407600,4.41640771484375,0.030671892687678337,-0.02701537311077118,0.03609222546219826
1686343326297426700,4.4264267578125,0.03337926045060158,-0.022285597398877144,0.028681179508566856
1686343326307445800,4.43644580078125,0.020559603348374367,-0.00866113230586052,0.020505275577306747
1686343326317464600,4.446464599609375,0.014023673720657825,0.009838515892624855,0.005921272095292807
1686343326327483600,4.456483642578125,0.005388906225562096,0.026803385466337204,-0.005275189410895109
1686343326337502700,4.466502685546875,0.0096273273229599,0.021928468719124794,-0.006625944748520851
1686343326347521500,4.476521484375,0.008904545567929745,0.003954261541366577,-0.0018500980222597718
1686343326357540600,4.48654052734375,0.007719971239566803,-0.022066952660679817,0.004405667539685965
1686343326367558700,4.49655859375,0.006881874520331621,-0.033718813210725784,0.0043920851312577724
1686343326377577500,4.506577392578125,0.004027498420327902,-0.024649953469634056,-0.00047936898772604764
1686343326387596500,4.516596435546875,-0.007871504873037338,-0.007276821415871382,-0.013568272814154625
1686343326397614800,4.52661474609375,-0.015801865607500076,0.006135124247521162,-0.02949104644358158
1686343326407634000,4.536634033203125,-0.023496272042393684,-0.003230680711567402,-0.027166107669472694
1686343326417653000,4.546653076171875,-0.02616848610341549,-0.018796058371663094,-0.012072108685970306
1686343326427671800,4.556671875,-0.025562351569533348,-0.02558259107172489,0.008419317193329334
1686343326437691000,4.56669091796875,-0.022725285962224007,-0.025622805580496788,0.029917152598500252
1686343326447710000,4.5767099609375,-0.013816479593515396,-0.013621003367006779,0.040468331426382065
1686343326457729000,4.58672900390625,-0.005625128746032715,0.01164706889539957,0.041125331073999405
1686343326467747000,4.5967470703125,-0.0012490225490182638,0.02327629365026951,0.02792564034461975
1686343326477766100,4.60676611328125,0.002572879893705249,0.016716929152607918,0.02166588045656681
1686343326487785200,4.61678515625,0.0014974954538047314,0.015518239699304104,0.005056810099631548
1686343326497804000,4.626803955078125,-0.005276254843920469,0.02171461656689644,-0.0009366337326355278
1686343326507823000,4.636822998046875,-0.010480071417987347,0.036190226674079895,-0.003862382611259818
1686343326517842200,4.64684228515625,-0.012051070109009743,0.043105658143758774,0.0012996225850656629
1686343326527861000,4.656861083984375,-0.010941064916551113,0.024819595739245415,0.01738032139837742
1686343326537880000,4.666880126953125,-0.0025297366082668304,0.010489125736057758,0.025485120713710785
1686343326547899000,4.67689892578125,0.0044264402240514755,0.0016887104138731956,0.02039928175508976
1686343326557917200,4.686917236328125,0.013628194108605385,0.024833444505929947,0.00908271037042141
1686343326567936000,4.69693603515625,0.025463281199336052,0.035110849887132645,0.01841922104358673
1686343326577955000,4.706955078125,0.03310096263885498,0.02322622574865818,0.02900768257677555
1686343326587974100,4.71697412109375,0.030883347615599632,0.010862501338124275,0.03437954559922218
1686343326597993200,4.7269931640625,0.02478577382862568,0.002558232517912984,0.02473224513232708
1686343326608012000,4.737011962890625,0.020682908594608307,-0.0019238675013184547,0.016806676983833313
1686343326618031000,4.747031005859375,0.01070750504732132,-0.0007920240750536323,0.010268083773553371
1686343326628050200,4.75705029296875,0.004102333448827267,0.0020849888678640127,0.010410829447209835
1686343326638069000,4.767069091796875,-0.003049852093681693,-0.0014618091518059373,0.01613529399037361
1686343326648087000,4.777087158203125,0.0026900589000433683,0.0026517093647271395,0.018391789868474007
1686343326658106000,4.787106201171875,0.005328719038516283,-0.0041310954838991165,0.02269306220114231
1686343326668125000,4.797125,0.0102579640224576,-0.011803662404417992,0.020445620641112328
1686343326678144000,4.80714404296875,0.01050350721925497,-0.01661652699112892,0.017285246402025223
1686343326688163000,4.8171630859375,0.006335127633064985,-0.024897094815969467,0.009910155087709427
1686343326698182100,4.82718212890625,0.0009235842735506594,-0.02634931541979313,0.0034826158080250025
1686343326708201000,4.837200927734375,-0.00007376955909421667,-0.022071747109293938,-0.0018745990237221122
1686343326718220000,4.847219970703125,-0.0034173682797700167,-0.009708020836114883,-0.004475175868719816
1686343326728239000,4.857239013671875,-0.0038160434924066067,0.0037209687288850546,-0.014994395896792412
1686343326738258200,4.867258056640625,-0.0032474587205797434,0.012383699417114258,-0.02221129648387432
1686343326748276000,4.87727587890625,-0.00490208063274622,0.010071010328829288,-0.027649737894535065
1686343326758295000,4.887294921875,-0.0073165022768080235,0.001844771672040224,-0.022530876100063324
1686343326768314000,4.897314208984375,-0.0013363742036744952,-0.008653941564261913,-0.007207578979432583
1686343326778333000,4.9073330078125,0.002292981604114175,-0.005979862064123154,0.0012918994762003422
1686343326788352000,4.91735205078125,0.0027891285717487335,0.0027052389923483133,0.01642824150621891
1686343326798371000,4.92737109375,0.000517718493938446,0.003719104453921318,0.029518743976950645
1686343326808390100,4.93739013671875,-0.002266616327688098,0.00954024214297533,0.033480994403362274
1686343326818409000,4.947408935546875,-0.0051990230567753315,0.009672068059444427,0.03705229237675667
1686343326828428000,4.957427978515625,-0.011166634038090706,0.017587516456842422,0.03153156116604805
1686343326838446000,4.967446044921875,-0.016036756336688995,0.02333754673600197,0.025475798174738884
1686343326848465000,4.97746484375,-0.01900724694132805,0.02231915481388569,0.03350922465324402
1686343326858484000,4.98748388671875,-0.009863549843430519,0.02208000235259533,0.045649778097867966
1686343326868503000,4.9975029296875,-0.0015185344964265823,0.014977085404098034,0.053760431706905365
1686343326878521900,5.00752197265625,0.01044465135782957,0.0027481159195303917,0.06198374181985855
1686343326888541000,5.017541015625,0.02257028967142105,-0.004277036525309086,0.04772411286830902
1686343326898560000,5.02756005859375,0.021218469366431236,0.0006479470757767558,0.02040434069931507
1686343326908579000,5.0375791015625,0.010097907856106758,0.028956817463040352,-0.021648304536938667
1686343326918598000,5.047597900390625,0.0031241541728377342,0.03482642397284508,-0.02317855693399906
1686343326928616000,5.057615966796875,-0.004463990684598684,0.018760904669761658,-0.004769987892359495
1686343326938635000,5.067635009765625,-0.011965316720306873,0.005724730901420116,0.018208565190434456
1686343326948653800,5.07765380859375,-0.010937868617475033,0.007257646415382624,0.034378744661808014
1686343326958673000,5.0876728515625,-0.00780652416869998,0.01407613791525364,0.03922782838344574
1686343326968692000,5.09769189453125,0.0028573055751621723,0.01429345179349184,0.037759896367788315
1686343326978711000,5.1077109375,0.00618226220831275,0.016466857865452766,0.026671558618545532
1686343326988729900,5.117729736328125,0.016215454787015915,0.006638195365667343,0.012744823470711708
1686343326998749000,5.1277490234375,0.017588315531611443,-0.010824418626725674,0.011322695761919022
1686343327008768000,5.13776806640625,0.02647395245730877,-0.02346937358379364,0.013369068503379822
1686343327018786800,5.147786865234375,0.021686386317014694,-0.03311534225940704,0.018006430938839912
1686343327028805000,5.15780517578125,0.014507037587463856,-0.03572097793221474,0.02889316715300083
1686343327038824200,5.16782421875,0.009250489994883537,-0.02375646121799946,0.02828143909573555
1686343327048843000,5.177843017578125,0.004595017991960049,-0.011178085580468178,0.018248511478304863
1686343327058862000,5.187862060546875,0.0012828446924686432,-0.0007869640830904245,0.008799350820481777
1686343327068881200,5.197881103515625,-0.0057130130007863045,0.009639577940106392,-0.0022184131667017937
1686343327078900200,5.207900146484375,-0.01146677229553461,0.004930043593049049,-0.0012655340833589435
1686343327088919000,5.2179189453125,-0.015234612859785557,-0.00011451592581579462,0.00250470289029181
1686343327098938000,5.227938232421875,-0.01931297779083252,-0.006908506155014038,0.0109855392947793
1686343327108957000,5.23795703125,-0.02202221192419529,-0.006905843038111925,0.017100157216191292
1686343327118975000,5.24797509765625,-0.024224113672971725,-0.001549693406559527,0.015802131965756416
1686343327128994000,5.257994140625,-0.020290890708565712,0.002301770029589534,0.01540505513548851
1686343327139013000,5.26801318359375,-0.021021662279963493,0.010324276052415371,0.012232963927090168
1686343327149032200,5.2780322265625,-0.028561603277921677,0.011184477247297764,0.005312473513185978
1686343327159051000,5.288051025390625,-0.025715749710798264,0.012839632108807564,0.0027393274940550327
1686343327169070000,5.298070068359375,-0.025188976898789406,0.011464109644293785,0.00854714959859848
1686343327179089200,5.308089111328125,-0.020681576803326607,0.006196110509335995,0.020618192851543427
1686343327189108200,5.318108154296875,-0.022127140313386917,0.004444815684109926,0.02900022640824318
1686343327199127000,5.328126953125,-0.02563478983938694,-0.005149754695594311,0.0451941080391407
1686343327209145000,5.33814501953125,-0.01581944338977337,-0.009875534102320671,0.04927407205104828
1686343327219164200,5.3481640625,-0.003549727378413081,-0.0076334187760949135,0.04788816347718239
1686343327229183000,5.358182861328125,0.0003014698449987918,0.002079662401229143,0.03831889480352402
1686343327239202000,5.3682021484375,0.005022721830755472,0.021703431382775307,0.021472003310918808
1686343327249221000,5.37822119140625,0.00797510240226984,0.029287314042448997,0.0006601976347155869
1686343327259240000,5.388239990234375,0.007291735149919987,0.021166272461414337,-0.008255532942712307
1686343327269259000,5.398259033203125,0.006909305229783058,0.016934774816036224,-0.011513910256326199
1686343327279278000,5.408278076171875,0.007393201347440481,0.00746111199259758,-0.006599845830351114
1686343327289297200,5.418297119140625,0.01468680053949356,-0.0031007183715701103,0.0028783443849533796
1686343327299316000,5.42831591796875,0.028924591839313507,-0.009958891198039055,0.008734636008739471
1686343327309334000,5.438333984375,0.03699237108230591,-0.004723382648080587,0.006046973634511232
1686343327319353000,5.44835302734375,0.04007391631603241,0.008446215651929379,-0.0038035267498344183
1686343327329372000,5.458371826171875,0.03647039458155632,0.015416240319609642,-0.01110564824193716
1686343327339391000,5.468390869140625,0.02719406969845295,0.012769857421517372,-0.017345966771245003
1686343327349410000,5.47841015625,0.016326509416103363,0.0041063278913497925,-0.022413961589336395
1686343327359429000,5.48842919921875,-0.0032714270055294037,-0.016747288405895233,-0.02155349589884281
1686343327369448000,5.498447998046875,-0.00836898386478424,-0.030831415206193924,-0.025077922269701958
1686343327379467000,5.508467041015625,-0.022767629474401474,-0.027640415355563164,-0.033734261989593506
1686343327389486000,5.518486083984375,-0.02702549286186695,-0.02774188295006752,-0.04385906830430031
1686343327399504600,5.528504638671875,-0.02370879054069519,-0.03313451632857323,-0.02810167521238327
1686343327409523700,5.538523681640625,-0.01858566887676716,-0.04869749769568443,0.0038301581516861916
1686343327419542800,5.548542724609375,-0.01805037260055542,-0.049554236233234406,0.026801787316799164
1686343327429561600,5.5585615234375,-0.014085724949836731,-0.03797667846083641,0.034450918436050415
1686343327439580700,5.56858056640625,-0.008164718747138977,-0.007387875113636255,0.015296132303774357
1686343327449599700,5.578599853515625,-0.012144014239311218,0.025797508656978607,-0.01564181037247181
1686343327459618800,5.588618896484375,-0.018506307154893875,0.04530170187354088,-0.041547175496816635
1686343327469637600,5.5986376953125,-0.020126041024923325,0.04169471561908722,-0.03858307749032974
1686343327479656700,5.60865673828125,-0.017224792391061783,0.02677994966506958,-0.0065622953698039055
1686343327489674800,5.6186748046875,-0.015791213139891624,0.011771970428526402,0.03729863464832306
1686343327499693600,5.628693603515625,-0.01458959560841322,-0.004009921569377184,0.0678488239645958
1686343327509712600,5.638712646484375,-0.018966766074299812,-0.008014516904950142,0.08062853664159775
1686343327519731700,5.648731689453125,-0.02558285742998123,0.0008780442294664681,0.07627879083156586
1686343327529750800,5.658750732421875,-0.0370701365172863,0.0032764871139079332,0.06233261525630951
1686343327539769600,5.66876953125,-0.03632684797048569,0.003540672594681382,0.05854906514286995
1686343327549788700,5.67878857421875,-0.03254462778568268,0.004197141621261835,0.06065881997346878
1686343327559807700,5.688807861328125,-0.01266652625054121,0.0049433596432209015,0.06082500144839287
1686343327569826800,5.698826904296875,-0.0010791128734126687,0.0012607404496520758,0.05037981644272804
1686343327579845600,5.708845703125,0.001535312389023602,-0.003468500915914774,0.037875477224588394
1686343327589863700,5.71886376953125,0.0008484831196255982,-0.012010323815047741,0.02273593842983246
1686343327599882800,5.7288828125,0.00006338323146337643,-0.02762417122721672,0.015517440624535084
1686343327609901600,5.738901611328125,-0.00205249828286469,-0.029889987781643867,0.007445133291184902
1686343327619920600,5.748920654296875,-0.004522846546024084,-0.01830337382853031,-0.005258944351226091
1686343327629939700,5.758939697265625,-0.004995024763047695,-0.0056799896992743015,-0.020854415372014046
1686343327639958500,5.76895849609375,-0.0054791877046227455,0.0007331682136282325,-0.033184852451086044
1686343327649977600,5.7789775390625,-0.00700837466865778,-0.006658968050032854,-0.032819997519254684
1686343327659996700,5.78899658203125,-0.0001512675517005846,-0.012761334888637066,-0.024825455620884895
1686343327670015700,5.799015625,0.014116351492702961,-0.013512080535292625,-0.014006363227963448
1686343327680033800,5.80903369140625,0.021693045273423195,-0.02069489285349846,-0.007940481416881084
1686343327690052900,5.819052978515625,0.019568108022212982,-0.02750219777226448,-0.001793905277736485
1686343327700072000,5.829072021484375,0.011079282499849796,-0.037087712436914444,-0.0008617989369668067
1686343327710090800,5.8390908203125,0.0054967645555734634,-0.031320370733737946,-0.01366334781050682
1686343327720109800,5.84910986328125,0.0026703516487032175,-0.01859046146273613,-0.02155243046581745
1686343327730128600,5.859128662109375,0.007072290405631065,-0.011388209648430347,-0.027472637593746185
1686343327740147700,5.869147705078125,0.009944509714841843,-0.017654893919825554,-0.009845706634223461
1686343327750166500,5.87916650390625,0.006638994440436363,-0.014984807930886745,0.009224656969308853
1686343327760185600,5.889185546875,0.010803112760186195,-0.022699186578392982,0.032278310507535934
1686343327770204000,5.899203857421875,0.014494786970317364,-0.030186131596565247,0.0446297861635685
1686343327780222700,5.90922265625,0.019568108022212982,-0.0275003332644701,0.04132134094834328
1686343327790241800,5.91924169921875,0.015021027065813541,-0.019284214824438095,0.02690538391470909
1686343327800260900,5.9292607421875,0.010438259690999985,0.0025390577502548695,0.0008016114588826895
1686343327810280000,5.939280029296875,0.002675145398825407,0.022039255127310753,-0.02996162697672844
1686343327820298800,5.949298828125,-0.0033846113365143538,0.03568422794342041,-0.04008004069328308
1686343327830317800,5.95931787109375,-0.0068057081662118435,0.03123781457543373,-0.02816585823893547
1686343327840337000,5.9693369140625,-0.011443070136010647,0.022220617160201073,-0.004966529086232185
1686343327850355700,5.979355712890625,-0.011447598226368427,0.010936005041003227,0.011464376002550125
1686343327860373800,5.989373779296875,-0.005870139691978693,0.0064802695997059345,0.020618459209799767
1686343327870392800,5.999392822265625,-0.006360693834722042,0.004884770140051842,0.020126041024923325
1686343327880411600,6.00941162109375,-0.0025891251862049103,-0.00016245282313320786,0.020662134513258934
1686343327890430700,6.0194306640625,-0.0007440872141160071,-0.0023425165563821793,0.020862137898802757
1686343327900449800,6.02944970703125,0.0015398397808894515,0.00606455048546195,0.01571238413453102
1686343327910468900,6.03946875,-0.008560198359191418,0.012989035807549953,0.008065915666520596
1686343327920487700,6.04948779296875,-0.022460035979747772,0.017522800713777542,-0.009760218672454357
1686343327930506800,6.0595068359375,-0.03265168517827988,0.017641311511397362,-0.025362614542245865
1686343327940525800,6.06952587890625,-0.03134753555059433,0.01847354881465435,-0.03784564882516861
1686343327950543600,6.079543701171875,-0.028541097417473793,0.02888730727136135,-0.043474506586790085
1686343327960562700,6.089562744140625,-0.020867198705673218,0.03175686299800873,-0.0335390530526638
1686343327970581800,6.099581787109375,-0.01555152889341116,0.01992124319076538,-0.01320794690400362
1686343327980600800,6.109600830078125,-0.010306965559720993,0.0031140341889113188,0.014657772146165371
1686343327990619600,6.11961962890625,-0.006765228230506182,-0.030280141159892082,0.04367264732718468
1686343328000638700,6.129638671875,-0.0010575412306934595,-0.04391659051179886,0.052796367555856705
1686343328010657800,6.13965771484375,0.0003275688213761896,-0.031012510880827904,0.0415748730301857
1686343328020676600,6.149676513671875,-0.00714579364284873,-0.015184013172984123,0.02184404619038105
1686343328030695700,6.15969580078125,-0.01950099691748619,-0.007981227710843086,0.014629276469349861
1686343328040714800,6.16971484375,-0.028732845559716225,-0.009971673600375652,0.008643555454909801
1686343328050732500,6.179732666015625,-0.03271640092134476,-0.005008074454963207,0.008920524269342422
1686343328060751600,6.189751708984375,-0.030766701325774193,-0.011070494540035725,0.015802131965756416
1686343328070770700,6.199770751953125,-0.023517576977610588,-0.020917266607284546,0.02774614281952381
1686343328080789800,6.209789794921875,-0.01263856329023838,-0.023738086223602295,0.032947830855846405
1686343328090808600,6.21980859375,-0.004256530199199915,-0.02443263866007328,0.029891053214669228
1686343328100827600,6.22982763671875,-0.0054360441863536835,-0.018849320709705353,0.020240822806954384
1686343328110846700,6.2398466796875,-0.003870904678478837,-0.00954157393425703,0.011787417344748974
1686343328120865800,6.24986572265625,-0.0005118595436215401,-0.0033949976786971092,0.0029230855870991945
1686343328130884600,6.259884521484375,-0.0032794165890663862,0.009867277927696705,-0.008673649281263351
1686343328140902700,6.269902587890625,-0.004449876025319099,0.01962297037243843,-0.010393252596259117
1686343328150921700,6.279921630859375,-0.008580971509218216,0.01998036541044712,-0.011352789588272572
1686343328160940500,6.2899404296875,-0.006192914675921202,0.007721036672592163,-0.003922836389392614
1686343328170959600,6.299959716796875,-0.004731638357043266,-0.010940265841782093,0.010944793000817299
1686343328180978700,6.309978759765625,-0.009059807285666466,-0.014815697446465492,0.02172553539276123
1686343328190997800,6.319997802734375,-0.013255617581307888,-0.011893144808709621,0.018123876303434372
1686343328201016600,6.3300166015625,-0.007463508751243353,-0.005934588145464659,0.008311726152896881
1686343328211035600,6.34003564453125,-0.007227020338177681,-0.0017454357584938407,0.0010365023044869304
1686343328221054700,6.3500546875,-0.005274390336126089,-0.006227003410458565,0.003040797309949994
1686343328231072800,6.36007275390625,-0.0016415724530816078,-0.007383880205452442,0.011470234952867031
1686343328241091800,6.370091796875,-0.003519633784890175,-0.002329467097297311,0.017956895753741264
1686343328251111000,6.38011083984375,-0.005853627808392048,0.005688245873898268,0.017498033121228218
1686343328261129700,6.390129638671875,-0.0067870658822357655,0.005946039687842131,0.008192682638764381
1686343328271148800,6.400148681640625,-0.01369131077080965,-0.0016620787791907787,0.004029895178973675
1686343328281168000,6.41016796875,-0.01715501770377159,-0.008501076139509678,0.004837898537516594
1686343328291186700,6.420186767578125,-0.017919078469276428,-0.011726164259016514,0.003245594445616007
1686343328301205800,6.430205810546875,-0.022793995216488838,-0.005318598821759224,0.003576359013095498
1686343328311224600,6.440224609375,-0.020493291318416595,-0.0013510215794667602,0.00723367789760232
1686343328321243000,6.450242919921875,-0.017912954092025757,0.0023062974214553833,0.02261503040790558
1686343328331261700,6.46026171875,-0.015139005146920681,0.005878661759197712,0.02351970784366131
1686343328341280800,6.47028076171875,-0.012196212075650692,0.010427074506878853,0.017529459670186043
1686343328351299800,6.4802998046875,-0.005589442327618599,0.015539278276264668,0.005549228750169277
1686343328361319000,6.49031884765625,-0.009223326109349728,0.018986741080880165,-0.005824067164212465
1686343328371337700,6.500337646484375,-0.011766644194722176,0.026026541367173195,-0.007110906299203634
1686343328381356800,6.510356689453125,-0.013524863868951797,0.023605193942785263,-0.0005739112384617329
1686343328391374600,6.52037451171875,-0.0185284111648798,0.010754643008112907,0.01543461624532938
1686343328401393700,6.5303935546875,-0.007803861051797867,-0.006906375754624605,0.028731513768434525
1686343328411411500,6.540411376953125,-0.005195028148591518,-0.014297978952527046,0.03628823161125183
1686343328421430500,6.550430419921875,-0.00999218039214611,-0.020389162003993988,0.021261611953377724
1686343328431449600,6.56044970703125,-0.01116237323731184,-0.020845893770456314,0.004280232358723879
1686343328441468700,6.57046875,-0.007978830486536026,-0.018880480900406837,-0.005079447291791439
1686343328451487500,6.580487548828125,-0.004610198084264994,-0.00560968229547143,-0.011201787739992142
1686343328461506600,6.590506591796875,-0.004283161833882332,-0.007893077097833157,-0.004514058120548725
1686343328471525600,6.600525634765625,-0.0020003002136945724,-0.003667971817776561,0.006482134107500315
1686343328481544400,6.61054443359375,-0.009149822406470776,0.0004713795206043869,0.021026454865932465
1686343328491563500,6.6205634765625,-0.013950702734291553,0.004803277086466551,0.02587154507637024
1686343328501582600,6.63058251953125,-0.012913135811686516,0.009281649254262447,0.03158589079976082
1686343328511600400,6.640600341796875,-0.00968831405043602,0.011293667368590832,0.03179361671209335
1686343328521619500,6.650619384765625,0.00004207794336252846,0.0023148194886744022,0.02623027190566063
1686343328531638500,6.660638427734375,0.009633985348045826,0.0001203748834086582,0.0204530768096447
1686343328541657600,6.67065771484375,0.011006845161318779,-0.011022557504475117,0.015467905439436436
1686343328551676400,6.680676513671875,0.008815595880150795,-0.008053931407630444,0.008726113475859165
1686343328561695500,6.690695556640625,-0.0032597091048955917,0.0002335592289455235,0.003238936420530081
1686343328571714600,6.700714599609375,-0.008324242196977139,0.010129599831998348,0.0011598066193982959
1686343328581733600,6.710733642578125,-0.00041252365917898715,0.010055297054350376,-0.0026493126060813665
1686343328591752400,6.72075244140625,0.012485964223742485,0.006306099239736795,-0.0021515677217394114
1686343328601770800,6.730770751953125,0.0103770075365901,0.00040320257539860904,-0.005529255140572786
1686343328611789800,6.740789794921875,0.0015510249650105834,-0.006355367600917816,-0.003763046581298113
1686343328621808600,6.75080859375,-0.010477407835423946,-0.008293350227177143,-0.0043678502552211285
1686343328631827700,6.76082763671875,-0.013219399377703667,-0.006465089973062277,-0.01501170638948679
1686343328641846800,6.7708466796875,-0.01420583389699459,-0.006168946158140898,-0.02064509131014347
1686343328651865600,6.780865478515625,-0.016095345839858055,-0.008212655782699585,-0.01979900524020195
1686343328661884700,6.790884765625,-0.016351277008652687,-0.002430667169392109,-0.022668560966849327
1686343328671903500,6.800903564453125,-0.008418784476816654,0.0018932411912828684,-0.01721786893904209
1686343328681922600,6.810922607421875,-0.0023393207229673862,-0.0017281252657994628,-0.005715409759432077
1686343328691940600,6.820940673828125,-0.00566907087340951,-0.009586048312485218,0.006941529456526041
1686343328701959700,6.830959716796875,-0.0021110877860337496,-0.016216786578297615,0.014844193123281002
1686343328711978800,6.840978759765625,-0.0026612968649715185,-0.02341131679713726,0.034511636942625046
1686343328721997600,6.85099755859375,-0.003285275539383292,-0.024816399440169334,0.04794834926724434
1686343328732016600,6.8610166015625,0.0022184131667017937,-0.014412228949368,0.046426620334386826
1686343328742035700,6.87103564453125,0.009661681950092316,-0.009910421445965767,0.03381761908531189
1686343328752054800,6.8810546875,0.011815113946795464,-0.002445314545184374,0.020731909200549126
1686343328762073600,6.891073486328125,0.00544403400272131,0.004837632179260254,0.0010849718237295747
1686343328772092700,6.9010927734375,-0.0016405072528868914,0.010489125736057758,-0.007126619108021259
1686343328782110700,6.91111083984375,-0.014900119975209236,0.00851652305573225,-0.005289304070174694
1686343328792129500,6.921129638671875,-0.022130070254206657,0.015544870868325233,-0.005839246790856123
1686343328802148600,6.931148681640625,-0.022103704512119293,0.02430747076869011,-0.008421980775892735
1686343328812167700,6.941167724609375,-0.005673864856362343,0.04764688014984131,-0.024270452558994293
1686343328822186800,6.951186767578125,0.019456522539258003,0.09145987778902054,-0.05625235289335251
1686343328832205600,6.96120556640625,0.06016933172941208,0.16072683036327362,-0.11365971714258194
1686343328842224600,6.971224609375,0.061711832880973816,0.22860868275165558,-0.17536196112632751
1686343328852243700,6.98124365234375,-0.005077050067484379,0.1516321301460266,-0.11831732094287872
1686343328862262500,6.991262451171875,-0.01088913343846798,0.01840830221772194,0.02436739206314087
1686343328872280600,7.001280517578125,0.023267505690455437,-0.08672264218330383,0.16440118849277496
1686343328882299600,7.011299560546875,0.0519137978553772,-0.10124991834163666,0.20201967656612396
1686343328892318500,7.021318359375,0.06505730003118515,-0.041482727974653244,0.16512876749038696
1686343328902337500,7.031337646484375,0.05861324444413185,0.05203550308942795,0.06593427807092667
1686343328912356600,7.041356689453125,0.04578666388988495,0.11943291872739792,-0.02708275057375431
1686343328922375700,7.051375732421875,0.028623122721910477,0.12676353752613068,-0.06810315698385239
1686343328932394500,7.06139453125,0.028800489380955696,0.09103803336620331,-0.06452839076519012
1686343328942413600,7.07141357421875,0.03579394891858101,0.03793087229132652,-0.053759101778268814
1686343328952432600,7.0814326171875,0.03713138774037361,0.012820989824831486,-0.06232409551739693
1686343328962450400,7.091450439453125,0.051780108362436295,0.05816423520445824,-0.07674670964479446
1686343328972469500,7.101469482421875,0.07390165328979492,0.0757826417684555,-0.06387778371572495
1686343328982488600,7.111488525390625,0.09977612644433975,0.06660805642604828,-0.03545759245753288
1686343328992507600,7.121507568359375,0.11040746420621872,0.04878884553909302,0.00045540055725723505
1686343329002526500,7.1315263671875,0.10497355461120605,0.015452459454536438,0.019533220678567886
1686343329012545500,7.141545654296875,0.0976802185177803,-0.00022503710351884365,0.02780286967754364
1686343329022564600,7.151564697265625,0.08789975941181183,0.010873153805732727,0.013512879610061646
1686343329032583700,7.161583740234375,0.08763371407985687,0.03719424083828926,-0.015265772119164467
1686343329042602500,7.1716025390625,0.09212379902601242,0.07097990065813065,-0.05241207405924797
1686343329052621600,7.18162158203125,0.11459821462631226,0.0869082659482956,-0.07390937954187393
1686343329062639600,7.1916396484375,0.13536740839481354,0.0641385093331337,-0.0639938935637474
1686343329072658400,7.201658447265625,0.1414135843515396,0.02857944741845131,-0.03243250772356987
1686343329082677500,7.211677490234375,0.1351064294576645,-0.002764893928542733,0.012279835529625416
1686343329092696600,7.221696533203125,0.11999990791082382,-0.028330175206065178,0.0429631806910038
1686343329102715400,7.23171533203125,0.10558341443538666,-0.03578596189618111,0.05245814844965935
1686343329112734500,7.241734375,0.08516442775726318,-0.026031866669654846,0.0390576533973217
1686343329122753500,7.25175341796875,0.0714707225561142,-0.0038077877834439278,0.017781659960746765
1686343329132772600,7.261772705078125,0.05204562470316887,0.022721556946635246,0.0008080030675046146
1686343329142790700,7.271790771484375,0.03550446406006813,0.0390121154487133,-0.009670737199485302
1686343329152809700,7.281809814453125,0.021278124302625656,0.030163761228322983,0.001284975209273398
1686343329162828800,7.291828857421875,0.02219505049288273,0.006797718815505505,0.020922325551509857
1686343329172847600,7.30184765625,0.027536818757653236,-0.017491642385721207,0.0409916415810585
1686343329182866700,7.31186669921875,0.021524466574192047,-0.03139574080705643,0.053213153034448624
1686343329192885800,7.3218857421875,0.010661965236067772,-0.035532958805561066,0.0629107877612114
1686343329202904600,7.331904541015625,-0.007530354429036379,-0.034979287534952164,0.05651121214032173
1686343329212923600,7.341923583984375,-0.015006912872195244,-0.019464245066046715,0.042514171451330185
1686343329222942500,7.3519423828125,-0.013758422806859016,0.010940798558294773,0.023313578218221664
1686343329232960800,7.361960693359375,-0.013431652449071407,0.028440428897738457,0.006435795221477747
1686343329242979600,7.3719794921875,-0.01900911144912243,0.04318422079086304,0.01037620846182108
1686343329252998700,7.38199853515625,-0.01974201388657093,0.04187101870775223,0.03138801455497742
1686343329263017700,7.392017822265625,-0.017890583723783493,0.007363640237599611,0.07128536701202393
1686343329273036800,7.402036865234375,0.005644303746521473,-0.014415957033634186,0.1150544136762619
1686343329283055600,7.4120556640625,0.02010047435760498,-0.019653862342238426,0.1525069773197174
1686343329293074700,7.42207470703125,0.046073753386735916,-0.017764084041118622,0.17202448844909668
1686343329303093800,7.43209375,0.059365056455135345,-0.013164537958800793,0.18297141790390015
1686343329313112600,7.442112548828125,0.07349525392055511,-0.025770876556634903,0.19082587957382202
1686343329323131600,7.452131591796875,0.09186600893735886,-0.04709800332784653,0.1975833773612976
1686343329333149700,7.462149658203125,0.08960871398448944,-0.08203894644975662,0.21694083511829376
1686343329343168500,7.47216845703125,0.09438934922218323,-0.10317724943161011,0.2303171008825302
1686343329353187600,7.4821875,0.10809717327356339,-0.11884383112192154,0.2380591630935669
1686343329363206700,7.49220654296875,0.12289077043533325,-0.13806146383285522,0.2514713704586029
1686343329373225700,7.502225830078125,0.12099432945251465,-0.17570045590400696,0.2763993740081787
1686343329383244500,7.51224462890625,0.11410366743803024,-0.19791920483112335,0.30413007736206055
1686343329393264400,7.522264404296875,0.10663323849439621,-0.19633276760578156,0.30644169449806213
1686343329403283200,7.532283203125,0.09399972856044769,-0.17740647494792938,0.2965738773345947
1686343329413301200,7.54230126953125,0.037934597581624985,0.011916314251720905,0.1500033438205719
1686343329423320300,7.5523203125,-0.16231966018676758,0.253102570772171,-0.37689507007598877
1686343329433339100,7.562339111328125,-0.13013963401317596,0.35359427332878113,-0.48588788509368896
1686343329443358200,7.572358154296875,-0.04697283357381821,0.20112645626068115,-0.40365639328956604
1686343329453377300,7.582377197265625,0.042455315589904785,0.0431637167930603,-0.14242638647556305
1686343329463396400,7.592396240234375,0.0963161513209343,-0.14118322730064392,0.08196384459733963
1686343329473415200,7.602415283203125,0.10950598865747452,-0.25308045744895935,0.2360876351594925
1686343329483434200,7.612434326171875,0.09235789626836777,-0.2933194935321808,0.32405930757522583
1686343329493453300,7.622453369140625,0.06679554283618927,-0.2592552602291107,0.3471457064151764
1686343329503472400,7.632472412109375,0.03676227480173111,-0.17758171260356903,0.3202208876609802
1686343329513490200,7.642490234375,0.007369232829660177,-0.07882343977689743,0.21898800134658813
1686343329523509200,7.65250927734375,-0.013719008304178715,0.004886634182184935,0.1035652756690979
1686343329533528300,7.6625283203125,-0.020015252754092216,0.054243795573711395,0.02064828760921955
1686343329543547100,7.672547119140625,-0.029086779803037643,0.07333014160394669,-0.002037850907072425
1686343329553566200,7.682566162109375,-0.03488155081868172,0.05312526971101761,0.02827957458794117
1686343329563585300,7.692585205078125,-0.04749241843819618,0.01357253361493349,0.08557455241680145
1686343329573604400,7.702604248046875,-0.0586039237678051,-0.02401185967028141,0.13386619091033936
1686343329583623200,7.712623046875,-0.06777851283550262,-0.0380464531481266,0.15656350553035736
1686343329593642200,7.722642333984375,-0.07299777865409851,-0.038707979023456573,0.1487484574317932
1686343329603660300,7.732660400390625,-0.07285263389348984,-0.03370576724410057,0.13381265103816986
1686343329613679000,7.74267919921875,-0.06431986391544342,-0.02995843067765236,0.12101563811302185
1686343329623698200,7.7526982421875,-0.04680265858769417,-0.04430035129189491,0.11842571198940277
1686343329633717200,7.76271728515625,-0.03172703832387924,-0.07400605082511902,0.12319304049015045
1686343329643736000,7.772736083984375,-0.026869963854551315,-0.09836811572313309,0.11008761823177338
1686343329653755100,7.782755126953125,-0.039683230221271515,-0.08525151759386063,0.08390288800001144
1686343329663774200,7.792774169921875,-0.06047985702753067,-0.0844363197684288,0.0821731686592102
1686343329673793300,7.802793212890625,-0.07901066541671753,-0.09151820093393326,0.08707284927368164
1686343329683812000,7.81281201171875,-0.09110967069864273,-0.08232630044221878,0.08660173416137695
1686343329693830100,7.822830078125,-0.1044883280992508,-0.06389882415533066,0.08360221982002258
1686343329703849200,7.83284912109375,-0.12021136283874512,-0.05091990530490875,0.0694296732544899
1686343329713868000,7.842867919921875,-0.14815591275691986,-0.04177487641572952,0.06142421066761017
1686343329723887000,7.85288720703125,-0.1641969233751297,-0.03712819516658783,0.053339120000600815
1686343329733906200,7.86290625,-0.17184659838676453,-0.04513046145439148,0.0458039753139019
1686343329743925200,7.87292529296875,-0.15904264152050018,-0.05415165051817894,0.03546185418963432
1686343329753944000,7.882944091796875,-0.14061011373996735,-0.06476594507694244,0.03602883964776993
1686343329763963100,7.892963134765625,-0.13262514770030975,-0.0773531123995781,0.04508225619792938
1686343329773982200,7.902982177734375,-0.1383453607559204,-0.08799456804990768,0.0621802844107151
1686343329784000300,7.913000244140625,-0.15935823321342468,-0.0998632162809372,0.0745788961648941
1686343329794019300,7.923019287109375,-0.18207259476184845,-0.11605896055698395,0.07779732346534729
1686343329804038400,7.933038330078125,-0.2000073939561844,-0.11520648002624512,0.06253021955490112
1686343329814057500,7.943057373046875,-0.20101965963840485,-0.11723874509334564,0.04386758804321289
1686343329824076300,7.953076171875,-0.1992260217666626,-0.10021688044071198,0.004248540848493576
1686343329834095400,7.963095458984375,-0.18927565217018127,-0.07544548809528351,-0.037221405655145645
1686343329844114200,7.9731142578125,-0.18169735372066498,-0.06687144190073013,-0.0514080636203289
1686343329854133200,7.98313330078125,-0.18177059292793274,-0.0755525454878807,-0.03683338314294815
1686343329864152300,7.99315234375,-0.18610329926013947,-0.07445558905601501,-0.007850999012589455
1686343329874170400,8.00317041015625,-0.1957857459783554,-0.07463721930980682,0.019212044775485992
1686343329884189200,8.013189208984375,-0.19204454123973846,-0.06253714859485626,0.03924141079187393
1686343329894208300,8.023208251953125,-0.17735986411571503,-0.046422358602285385,0.049367282539606094
1686343329904227300,8.033227294921875,-0.15194132924079895,-0.03327193483710289,0.059846289455890656
1686343329914246400,8.043246337890626,-0.11793382465839386,-0.03623443841934204,0.06324981153011322
1686343329924265200,8.05326513671875,-0.09659844636917114,-0.04917819797992706,0.07149522006511688
1686343329934284300,8.0632841796875,-0.08886142820119858,-0.06536116451025009,0.07486411929130554
1686343329944303400,8.073303466796874,-0.09569031000137329,-0.07139801979064941,0.058751195669174194
1686343329954322400,8.083322509765624,-0.0940476655960083,-0.05161206051707268,0.02575383335351944
1686343329964341200,8.09334130859375,-0.07462017238140106,-0.033976342529058456,-0.003602457931265235
1686343329974359300,8.103359375,-0.05000857263803482,-0.023813720792531967,-0.011779427528381348
1686343329984378400,8.11337841796875,-0.029681462794542313,-0.018311362713575363,-0.008086955174803734
1686343329994397200,8.123397216796874,-0.025541312992572784,-0.019183281809091568,0.014819426462054253
1686343330004416300,8.133416259765625,-0.034138794988393784,-0.016995761543512344,0.041613489389419556
1686343330014435300,8.143435302734375,-0.045275069773197174,-0.0022943131625652313,0.04433151334524155
1686343330024454100,8.1534541015625,-0.05589256063103676,0.002415220718830824,0.03448314219713211
1686343330034473200,8.16347314453125,-0.05992645025253296,0.0060182115994393826,0.01471449714154005
1686343330044492300,8.1734921875,-0.05193110927939415,0.006469617132097483,-0.0003635214816313237
1686343330054511400,8.183511474609375,-0.04824422672390938,0.0028700886759907007,-0.007960720919072628
1686343330064529200,8.193529052734375,-0.04180470481514931,-0.03158668801188469,-0.002945722546428442
1686343330074548200,8.20354833984375,-0.01278663519769907,-0.06595451384782791,0.01648044027388096
1686343330084567300,8.2135673828125,0.022110627964138985,-0.09755904972553253,0.04224572330713272
1686343330094586000,8.223586181640625,0.05335856229066849,-0.10651552677154541,0.06089397519826889
1686343330104605200,8.233605224609375,0.0650346577167511,-0.0911962240934372,0.0728856548666954
1686343330114624300,8.243624267578125,0.05724171921610832,-0.08906356245279312,0.08920524269342422
1686343330124643300,8.253643310546876,0.047076962888240814,-0.2552485466003418,0.1264258474111557
1686343330134662100,8.263662109375,0.05476817488670349,-0.24097134172916412,0.16878636181354523
1686343330144681200,8.27368115234375,0.04791532829403877,-0.32160651683807373,0.14978736639022827
1686343330154699300,8.28369921875,0.04000627249479294,-0.30414897203445435,0.1360776722431183
1686343330164718000,8.293718017578126,0.04950203746557236,-0.24733895063400269,0.06429456919431686
1686343330174737200,8.303737060546876,0.026817232370376587,-0.15231230854988098,-0.02863350883126259
1686343330184756200,8.313756103515624,0.007562312297523022,-0.0608937107026577,-0.11604378372430801
1686343330194775300,8.323775390625,0.01230620127171278,0.010494719259440899,-0.16404007375240326
1686343330204794000,8.333794189453124,-0.018863702192902565,0.0850248783826828,-0.20085187256336212
1686343330214813200,8.343813232421875,-0.0711016058921814,0.21120145916938782,-0.2445221245288849
1686343330224832300,8.353832275390625,-0.10947615653276443,0.24284246563911438,-0.24794349074363708
1686343330234851000,8.36385107421875,-0.09455925971269608,0.13822871446609497,-0.16868914663791656
1686343330244869000,8.373869140625,-0.048164598643779755,-0.011548264883458614,-0.05441264063119888
1686343330254888200,8.38388818359375,-0.02612481079995632,-0.10079585015773773,0.04126594588160515
1686343330264907000,8.393906982421875,-0.024636637419462204,-0.10912435501813889,0.08042053878307343
1686343330274926000,8.403926025390625,-0.02755732461810112,-0.04177114740014076,0.05631200969219208
1686343330284945200,8.413945068359375,-0.03250441327691078,0.04357943683862686,-0.001064998097717762
1686343330294964200,8.423964111328125,-0.020557206124067307,0.09503304213285446,-0.059912070631980896
1686343330304983000,8.433983154296875,-0.002359560690820217,0.10986045747995377,-0.08193055540323257
1686343330315002000,8.444002197265625,0.004460528492927551,0.1043863296508789,-0.07097883522510529
1686343330325021200,8.454021240234376,0.0032621060963720083,0.073979951441288,-0.015357917174696922
1686343330335039200,8.464039306640625,0.013945110142230988,0.031859662383794785,0.04862026497721672
1686343330345058300,8.474058349609376,0.02407204732298851,-0.004201402887701988,0.08794263750314713
1686343330355077400,8.484077392578126,0.033360887318849564,-0.017912155017256737,0.09682614356279373
1686343330365096400,8.494096435546876,0.04057192802429199,-0.006331132724881172,0.08164479583501816
1686343330375115300,8.504115234375,0.03473987057805061,0.01702212728559971,0.0497470498085022
1686343330385134300,8.51413427734375,0.023075491189956665,0.04843784123659134,0.03074033558368683
1686343330395153400,8.5241533203125,0.022170549258589745,0.06901475042104721,0.020777983590960503
1686343330405172200,8.534172119140624,0.015673501417040825,0.06905123591423035,0.02279612608253956
1686343330415191300,8.54419140625,0.013613014481961727,0.04946475476026535,0.03585014119744301
1686343330425209300,8.554209228515624,0.005629656370729208,0.029142705723643303,0.044324588030576706
1686343330435228400,8.564228515625,-0.0014974954538047314,0.02311277575790882,0.04827938228845596
1686343330445247500,8.57424755859375,-0.009571400471031666,0.03314117714762688,0.037937529385089874
1686343330455266300,8.584266357421875,-0.0014146711910143495,0.03345835953950882,0.03530339524149895
1686343330465285400,8.594285400390625,0.016461264342069626,0.0280915554612875,0.03907176852226257
1686343330475304400,8.604304443359375,0.03217817470431328,0.024718662723898888,0.04373922571539879
1686343330485323500,8.614323486328125,0.034749992191791534,0.04301777482032776,0.043042007833719254
1686343330495342300,8.62434228515625,0.02906573936343193,0.05040990933775902,0.046480417251586914
1686343330505361400,8.634361328125,0.008391087874770164,0.03636439889669418,0.04954305291175842
1686343330515379500,8.64437939453125,-0.01667485013604164,-0.01079805288463831,0.05963936075568199
1686343330525398300,8.654398193359375,-0.022295186296105385,-0.030597057193517685,0.047685496509075165
1686343330535417300,8.664417236328125,-0.028203142806887627,-0.05570773780345917,0.03940093517303467
1686343330545436400,8.6744365234375,-0.022964971140027046,-0.059368252754211426,0.025102689862251282
1686343330555455500,8.68445556640625,-0.037216078490018845,-0.02148451842367649,0.010657970793545246
1686343330565474300,8.694474365234376,-0.07111092656850815,0.011485148221254349,-0.002186455298215151
1686343330575493400,8.704493408203126,-0.10511043667793274,0.04290645569562912,0.0070584421046078205
1686343330585512400,8.714512451171874,-0.12744183838367462,0.04610224813222885,0.02015799842774868
1686343330595531500,8.724531494140624,-0.14211586117744446,0.03489033877849579,0.02521880343556404
1686343330605549300,8.73454931640625,-0.14969228208065033,0.020608872175216675,0.03833833336830139
1686343330615568400,8.744568359375,-0.15282763540744781,0.01643143780529499,0.05028767138719559
1686343330625587500,8.75458740234375,-0.15861015021800995,0.017643176019191742,0.07648119330406189
1686343330635606300,8.764606201171874,-0.17022553086280823,-0.011296330019831657,0.11601235717535019
1686343330645625300,8.774625244140625,-0.20264631509780884,-0.045452702790498734,0.1654190570116043
1686343330655644400,8.78464453125,-0.20086705684661865,-0.07985594868659973,0.16929581761360168
1686343330665663200,8.794663330078125,-0.17767225205898285,-0.08369596302509308,0.1529967337846756
1686343330675682300,8.804682373046875,-0.15047712624073029,-0.09692095220088959,0.12981365621089935
1686343330685701400,8.814701416015625,-0.13528405129909515,-0.1291486620903015,0.12394058704376221
1686343330695719200,8.82471923828125,-0.08778657764196396,-0.08499212563037872,0.11766485124826431
1686343330705738200,8.83473828125,-0.05064959451556206,0.05084320530295372,0.06344395130872726
1686343330715757300,8.84475732421875,-0.0278561320155859,0.17008598148822784,-0.0005190501105971634
1686343330725776400,8.8547763671875,-0.021792113780975342,0.1338675171136856,-0.022662701085209846
1686343330735795200,8.864795166015625,-0.014157630503177643,0.028174113482236862,0.021562283858656883
1686343330745814300,8.874814208984375,-0.008805742487311363,-0.08040003478527069,0.09587965905666351
1686343330755833300,8.884833251953125,0.010982610285282135,-0.1496206521987915,0.17385008931159973
1686343330765852400,8.894852294921876,0.05710642784833908,-0.17584586143493652,0.2321525514125824
1686343330775871200,8.904871337890626,0.1073933020234108,-0.15389102697372437,0.25135287642478943
1686343330785889300,8.91488916015625,0.12473074346780777,-0.11611329019069672,0.22382137179374695
1686343330795908400,8.924908447265626,0.12934760749340057,-0.0460260808467865,0.17728076875209808
1686343330805927200,8.93492724609375,0.11549250781536102,0.03380749747157097,0.13356046378612518
1686343330815946200,8.9449462890625,0.08973708003759384,0.08939805626869202,0.09103003889322281
1686343330825965300,8.95496533203125,0.07069041579961777,0.11389967054128647,0.05819858983159065
1686343330835984400,8.964984375,0.04138658940792084,0.1562894731760025,0.049138784408569336
1686343330846003200,8.975003173828124,0.01774304360151291,0.03435051813721657,-0.04842452332377434
1686343330856022300,8.985022216796875,0.058224156498909,0.02143152244389057,-0.1427033543586731
1686343330866041300,8.995041259765625,0.06138479709625244,0.03123595006763935,-0.19848112761974335
1686343330876059400,9.005059326171875,0.025416942313313484,0.10947855561971664,-0.1850889027118683
1686343330886078500,9.015078369140625,-0.01679575815796852,0.17797133326530457,-0.13842125236988068
1686343330896097500,9.02509765625,-0.04580903425812721,0.2020750641822815,-0.06712257862091064
1686343330906116400,9.035116455078125,-0.0606582872569561,0.1716471165418625,-0.0007137271459214389
1686343330916135400,9.045135498046875,-0.07202492654323578,0.11065034568309784,0.054736215621232986
1686343330926154500,9.055154541015625,-0.08506961911916733,0.055570852011442184,0.09420186281204224
1686343330936173300,9.06517333984375,-0.0875796526670456,0.02575063705444336,0.10494638979434967
1686343330946192400,9.0751923828125,-0.0846717432141304,0.01834758184850216,0.08687923848628998
1686343330956211500,9.08521142578125,-0.07742954045534134,0.01901337131857872,0.06352091580629349
1686343330966229500,9.0952294921875,-0.06223967298865318,0.030758177861571312,0.03810077905654907
1686343330976248300,9.105248291015625,-0.0491664819419384,0.03978336602449417,0.02677115984261036
1686343330986267400,9.115267333984375,-0.03851410374045372,0.030980287119746208,0.033848777413368225
1686343330996286500,9.125286376953126,-0.02864016592502594,0.013906228356063366,0.049800314009189606
1686343331006305500,9.135305419921876,-0.02400546707212925,-0.011859589256346226,0.0716925635933876
1686343331016324400,9.145324462890626,-0.019406454637646675,-0.039507728070020676,0.09422530233860016
1686343331026343400,9.155343505859374,-0.009013468399643898,-0.04628627374768257,0.11155182868242264
1686343331036362500,9.165362548828124,-0.007210508454591036,-0.03369085118174553,0.14198030531406403
1686343331046381600,9.175381591796874,-0.00008415588672505692,-0.008492021821439266,0.17101168632507324
1686343331056399400,9.1853994140625,0.01804664544761181,0.0019747340120375156,0.17710180580615997
1686343331066418400,9.19541845703125,0.04737177491188049,-0.033314548432826996,0.12587936222553253
1686343331076437500,9.2054375,0.09601760655641556,-0.06956150382757187,0.06145190820097923
1686343331086456300,9.215456298828125,0.13995683193206787,-0.08969473093748093,0.01203881949186325
1686343331096475400,9.225475341796875,0.1487673670053482,-0.06289374083280563,-0.02064109593629837
1686343331106494500,9.235494384765625,0.12748073041439056,-0.012108594179153442,-0.028363464400172234
1686343331116513300,9.24551318359375,0.1000690758228302,0.04121960699558258,-0.0126380305737257
1686343331126532400,9.255532470703125,0.07160254567861557,0.05973976105451584,0.00780679052695632
1686343331136551400,9.265551513671875,0.06013764068484306,0.04719148203730583,0.01600426621735096
1686343331146569200,9.2755693359375,0.05134281516075134,0.03418513387441635,0.022899456322193146
1686343331156588300,9.28558837890625,0.047926247119903564,0.030586937442421913,0.027879567816853523
1686343331166607400,9.295607421875,0.04212987795472145,0.02154657058417797,0.039446476846933365
1686343331176626400,9.30562646484375,0.03970986232161522,0.012146677821874619,0.029867084696888924
1686343331186645200,9.315645263671875,0.0411682091653347,0.021165207028388977,0.024023577570915222
1686343331196664300,9.325664306640626,0.0430113822221756,0.009366337209939957,0.022722888737916946
1686343331206683400,9.335683349609376,0.034980885684490204,0.014511032029986382,0.023066703230142593
1686343331216702500,9.345702392578126,0.03099706396460533,0.029320338740944862,0.011490740813314915
1686343331226721300,9.35572119140625,0.023494940251111984,0.03875698149204254,0.004063451196998358
1686343331236739300,9.3657392578125,0.016041018068790436,0.025017201900482178,-0.0021694109309464693
1686343331246758400,9.37575830078125,0.0049734534695744514,0.0018724685069173574,-0.006473345682024956
1686343331256777200,9.385777099609374,-0.012142150662839413,-0.011106979101896286,-0.009660882875323296
1686343331266796300,9.39579638671875,-0.021742846816778183,-0.004529770463705063,-0.02160143293440342
1686343331276815400,9.4058154296875,-0.02719273790717125,-0.0036394759081304073,-0.03087429329752922
1686343331286834200,9.415834228515624,-0.029472937807440758,-0.001725462032482028,-0.038666702806949615
1686343331296853200,9.425853271484375,-0.03626266494393349,-0.006066680885851383,-0.031212780624628067
1686343331306872300,9.435872314453125,-0.0390952043235302,-0.006158027332276106,-0.019643209874629974
1686343331316891400,9.445891357421875,-0.034690335392951965,-0.0060946443118155,-0.00504083139821887
1686343331326909200,9.4559091796875,-0.029163744300603867,-0.01453100610524416,0.005762814078480005
1686343331336928300,9.46592822265625,-0.030497455969452858,-0.013461213558912277,0.00996288564056158
1686343331346947300,9.475947265625,-0.03323438763618469,-0.011197793297469616,0.013555223122239113
1686343331356966100,9.485966064453125,-0.03841263800859451,-0.016885239630937576,0.01374910119920969
1686343331366985200,9.495985107421875,-0.03961025923490524,-0.01859126053750515,0.021643776446580887
1686343331377004300,9.50600439453125,-0.03402188420295715,-0.01413632556796074,0.01655713841319084
1686343331387023400,9.5160234375,-0.029275329783558846,-0.0007488809060305357,0.018456505611538887
1686343331397042000,9.5260419921875,-0.04397731274366379,0.024392157793045044,0.015723036602139473
1686343331407060700,9.536060791015625,-0.06898945569992065,0.04169045388698578,0.023731162771582603
1686343331417078800,9.546078857421875,-0.0787251740694046,0.05485951900482178,0.022456839680671692
1686343331427097900,9.556097900390625,-0.07527957111597061,0.04103212058544159,0.025910958647727966
1686343331437117000,9.566116943359376,-0.06608634442090988,0.021636053919792175,0.03904220834374428
1686343331447135700,9.5761357421875,-0.05632505938410759,0.023929568007588387,0.04906128719449043
1686343331457154800,9.58615478515625,-0.046726759523153305,0.041858233511447906,0.04556535556912422
1686343331467174000,9.596173828125,-0.04243480786681175,0.04448624327778816,0.03840198367834091
1686343331477193000,9.60619287109375,-0.03675242140889168,0.04025740921497345,0.02834881655871868
1686343331487211800,9.616211669921874,-0.048838380724191666,0.03127829357981682,0.017099890857934952
1686343331497230800,9.62623095703125,-0.06308815628290176,0.057862233370542526,0.009374859742820263
1686343331507249000,9.636248779296874,-0.07982798665761948,0.1010427251458168,0.012252671644091606
1686343331517267700,9.646267822265624,-0.10119825601577759,0.13027705252170563,0.022163892164826393
1686343331527286800,9.656286865234375,-0.11767630279064178,0.12224548310041428,0.02653440460562706
1686343331537305900,9.666305908203125,-0.127525195479393,0.09514675289392471,0.022840866819024086
1686343331547324700,9.67632470703125,-0.11370925605297089,0.07817789167165756,-0.004857605788856745
1686343331557343700,9.68634375,-0.11670131236314774,0.04962960258126259,-0.04511208459734917
1686343331567362800,9.69636279296875,-0.10094019770622253,0.024030767381191254,-0.06278535723686218
1686343331577382000,9.7063818359375,-0.08150098472833633,0.0167922955006361,-0.07821544259786606
1686343331587400700,9.716400634765625,-0.055159393697977066,-0.0025422535836696625,-0.08271139115095139
1686343331597419800,9.726419677734375,-0.03603017330169678,-0.038664836436510086,-0.06566502898931503
1686343331607437800,9.736437744140625,-0.017053551971912384,-0.050758786499500275,-0.04902719706296921
1686343331617456600,9.74645654296875,-0.00213585514575243,-0.0362677276134491,-0.03419019281864166
1686343331627475700,9.756475830078125,-0.001680987305007875,-0.03585147485136986,-0.027541080489754677
1686343331637494800,9.766494873046875,-0.006727145053446293,-0.04120549187064171,-0.02652828022837639
1686343331647513900,9.776513916015626,-0.009367669001221657,-0.02262834645807743,-0.03778839111328125
1686343331657532700,9.78653271484375,-0.017284713685512543,-0.0027569043450057507,-0.054306648671627045
1686343331667551700,9.7965517578125,-0.020843496546149254,0.007149255834519863,-0.06515583395957947
1686343331677570800,9.80657080078125,-0.027402063831686974,0.02107066474854946,-0.05560893192887306
1686343331687590000,9.81658984375,-0.029346702620387077,0.02008742466568947,-0.03935113549232483
1686343331697607700,9.826607666015626,-0.02821406163275242,0.007715177722275257,-0.010233462788164616
1686343331707626800,9.836626708984374,-0.0178756695240736,-0.0008641957538202405,0.012472381815314293
1686343331717645800,9.846645751953124,-0.007648332044482231,0.00413482403382659,0.013702495954930782
1686343331727664600,9.85666455078125,-0.0007195860962383449,0.0022682142443954945,0.012072375044226646
1686343331737683700,9.86668359375,0.004713262431323528,0.003578489413484931,0.0024985778145492077
1686343331747702800,9.876702880859375,-0.0012423646403476596,-0.0005118595436215401,-0.008392686024308205
1686343331757721600,9.8867216796875,-0.012981845065951347,0.0007398261222988367,-0.008363124914467335
1686343331767740700,9.89674072265625,-0.01327053178101778,0.008746620267629623,-0.013285178691148758
1686343331777759700,9.906759765625,0.0013662016717717052,0.009060340002179146,-0.013177321292459965
1686343331787777500,9.916777587890625,0.013079582713544369,-0.0018556906143203378,-0.009762083180248737
1686343331797796600,9.926796630859375,0.02539723552763462,-0.015663914382457733,-0.011049188673496246
1686343331807815700,9.936815673828125,0.026216156780719757,-0.024039288982748985,-0.004991030320525169
1686343331817834800,9.946834716796875,0.028562402352690697,-0.013459616340696812,-0.0008719189208932221
1686343331827853600,9.956853515625,0.012749350629746914,0.013624199666082859,0.00757988914847374
1686343331837872600,9.96687255859375,-0.006393184419721365,0.04208353906869888,0.015415174886584282
1686343331847891700,9.9768916015625,-0.01245320774614811,0.060199689120054245,0.014280934818089008
1686343331857910800,9.986910888671876,-0.01293550617992878,0.04944291710853577,0.011667042039334774
1686343331867929600,9.9969296875,-0.014665761962532997,0.03329377621412277,0.010729343630373478
1686343331877948000,10.006947998046876,-0.0024953819811344147,0.0347401387989521,-0.0010396981379017234
1686343331887967000,10.016967041015626,-0.001987517112866044,0.03206286206841469,-0.012681973166763783
1686343331897985800,10.02698583984375,-0.007836351171135902,0.015386412851512432,-0.0190218947827816
1686343331908004900,10.0370048828125,-0.006048304960131645,-0.0030977888964116573,-0.011573032476007938
1686343331918024000,10.04702392578125,-0.0014317154418677092,-0.031917452812194824,0.007921572774648666
1686343331928043000,10.05704296875,-0.01119113527238369,-0.045099034905433655,0.03039279393851757
1686343331938061800,10.067061767578124,-0.014113688841462135,-0.004025101661682129,0.034989140927791595
1686343331948081000,10.077080810546875,-0.011334946379065514,0.05889713764190674,0.006785201840102673
1686343331958100000,10.087099853515625,-0.02202141284942627,0.06396406888961792,-0.021862953901290894
1686343331968117800,10.09711767578125,-0.031018901616334915,0.049197904765605927,-0.001350488979369402
1686343331978136800,10.10713671875,-0.04114450514316559,0.03326847404241562,0.029405025765299797
1686343331988156000,10.117156005859375,-0.03536491468548775,0.014186658896505833,0.055746354162693024
1686343331998174700,10.1271748046875,-0.03722779452800751,-0.00566960358992219,0.07435732334852219
1686343332008193800,10.13719384765625,-0.04528838396072388,0.010076602920889854,0.08370848000049591
1686343332018212900,10.147212890625,-0.0633494108915329,0.05264057591557503,0.09197866171598434
1686343332028232000,10.15723193359375,-0.07327687740325928,0.09152219444513321,0.11276356875896454
1686343332038250800,10.167250732421875,-0.0860816240310669,0.09917585551738739,0.12559866905212402
1686343332048268800,10.177268798828125,-0.08045516163110733,0.11373082548379898,0.1273409128189087
1686343332058287900,10.187287841796875,-0.0790463462471962,0.10836535692214966,0.108040452003479
1686343332068306700,10.197306640625,-0.09123004227876663,0.09366044402122498,0.09848050028085709
1686343332078325800,10.20732568359375,-0.0872906967997551,0.09264418482780457,0.09260743111371994
1686343332088344800,10.2173447265625,-0.06946882605552673,0.09778860956430435,0.06663042306900024
1686343332098364000,10.227364013671876,-0.03869626298546791,0.05999942123889923,0.027348533272743225
1686343332108382700,10.2373828125,0.0027457191608846188,-0.015973906964063644,0.00023169501218944788
1686343332118401800,10.24740185546875,0.021040037274360657,-0.042934950441122055,-0.005992378573864698
1686343332128420900,10.2574208984375,0.0003278351214248687,0.0008471515611745417,-0.027064640074968338
1686343332138438700,10.267438720703124,-0.023798540234565735,0.061284929513931274,-0.05750323832035065
1686343332148457700,10.277457763671874,-0.048050615936517715,0.08238488435745239,-0.08204054087400436
1686343332158476800,10.287476806640624,-0.05559401959180832,0.041080325841903687,-0.07756456732749939
1686343332168495600,10.29749560546875,-0.04574192315340042,-0.00017443705291952938,-0.06220105662941933
1686343332178514700,10.3075146484375,-0.03970107436180115,-0.01696247234940529,-0.039739955216646194
1686343332188533800,10.31753369140625,-0.035409122705459595,-0.02129516936838627,-0.025588450953364372
1686343332198552800,10.327552734375,-0.030307305976748466,-0.026448385789990425,-0.02238733135163784
1686343332208571600,10.337571533203125,-0.0199848935008049,-0.0374874547123909,-0.02365845814347267
1686343332218590700,10.3475908203125,-0.019094865769147873,-0.042395126074552536,-0.021499698981642723
1686343332228608800,10.35760888671875,-0.033916689455509186,-0.025353826582431793,-0.02058596909046173
1686343332238627600,10.367627685546875,-0.052916742861270905,0.009878729470074177,-0.02707742340862751
1686343332248646700,10.377646728515625,-0.07505853474140167,0.030891070142388344,-0.029920082539319992
1686343332258665700,10.387665771484375,-0.08117075264453888,0.03335769101977348,-0.01901736669242382
1686343332268684800,10.397684814453125,-0.06944592297077179,0.014435132034122944,0.002770752878859639
1686343332278703600,10.40770361328125,-0.05017475411295891,-0.015601330436766148,0.02401399053633213
1686343332288722700,10.41772265625,-0.03321867436170578,-0.0205119326710701,0.04235198348760605
1686343332298741800,10.42774169921875,-0.019747605547308922,-0.027222566306591034,0.05673385411500931
1686343332308760800,10.4377607421875,-0.00490181427448988,-0.037693582475185394,0.0585985966026783
1686343332318779000,10.44777880859375,0.021144166588783264,-0.04838457703590393,0.0680171325802803
1686343332328797700,10.457797607421876,0.03248230740427971,-0.04418263956904411,0.07388833910226822
1686343332338816800,10.467816650390626,0.0348847471177578,-0.03483814001083374,0.07282866537570953
1686343332348835600,10.477835693359374,0.019648535177111626,-0.025910692289471626,0.07395970821380615
1686343332358854700,10.487854736328124,-0.00327275856398046,0.0006154565489850938,0.060876667499542236
1686343332368873700,10.497873779296874,-0.025530926883220673,0.01561091747134924,0.04344814270734787
1686343332378892500,10.507892578125,-0.03093501180410385,0.00307541829533875,0.0464700311422348
1686343332388911600,10.51791162109375,-0.027773840352892876,-0.008268582634627819,0.05720443278551102
1686343332398930700,10.5279306640625,-0.022876286879181862,-0.018546253442764282,0.06818357855081558
1686343332408948700,10.53794873046875,-0.01630227454006672,-0.022474415600299835,0.0741376131772995
1686343332418967800,10.5479677734375,-0.011663580313324928,-0.0013166668359190226,0.0592191144824028
1686343332428987000,10.55798681640625,-0.007981760427355766,0.024080568924546242,0.0378618948161602
1686343332439006000,10.568005859375,0.0005462143453769386,0.01926024630665779,0.025670742616057396
1686343332449024800,10.578024658203125,0.02143152244389057,0.008159392513334751,0.027334418147802353
1686343332459043800,10.5880439453125,0.039802007377147675,0.012133361771702766,0.029688918963074684
1686343332469063000,10.59806298828125,0.05421130731701851,0.010725348256528378,0.03104819729924202
1686343332479082000,10.60808203125,0.06440296024084091,0.003029612125828862,0.035722844302654266
1686343332489100800,10.618100830078125,0.0680333822965622,-0.016171779483556747,0.041843585669994354
1686343332499118800,10.628118896484375,0.03683844208717346,-0.008315986953675747,0.03658570721745491
1686343332509138000,10.638137939453125,0.02014734596014023,-0.00675351032987237,0.019571837037801743
1686343332519156700,10.64815673828125,0.023506125435233116,-0.008224373683333397,0.009078449569642544
1686343332529175800,10.65817578125,0.023183882236480713,0.0008261125767603517,0.005274656694382429
1686343332539195000,10.66819482421875,0.018936406821012497,0.02821619063615799,-0.0017856494523584843
1686343332549214000,10.6782138671875,0.019361980259418488,0.039921049028635025,-0.010010556317865849
1686343332559232800,10.688232666015624,0.01847807690501213,0.0029467877466231585,-0.006217948626726866
1686343332569251800,10.698251953125,0.018376877531409264,-0.02225763536989689,-0.010734669864177704
1686343332579271000,10.70827099609375,0.02093670703470707,-0.028617262840270996,-0.012752546928822994
1686343332589288700,10.718288818359374,0.0273866169154644,-0.03308551385998726,-0.016933176666498184
1686343332599307800,10.728307861328124,0.04787750914692879,-0.03327593207359314,-0.015858059749007225
1686343332609326800,10.738326904296875,0.0627741664648056,-0.027660390362143517,-0.012440424412488937
1686343332619345700,10.748345703125,0.06569112837314606,-0.029393574222922325,0.0004551342281047255
1686343332629364700,10.75836474609375,0.058332283049821854,-0.02618126943707466,0.013601296581327915
1686343332639383800,10.7683837890625,0.045697715133428574,-0.01961098611354828,0.018511632457375526
1686343332649403000,10.77840283203125,0.03723099082708359,-0.011834821663796902,0.019160645082592964
1686343332659421700,10.788421630859375,0.03193929046392441,0.004707137122750282,0.005320196971297264
1686343332669440800,10.798440673828125,0.03810557350516319,0.010893127880990505,-0.02057718113064766
1686343332679458800,10.808458740234375,0.05036250501871109,0.007864315062761307,-0.0432734377682209
1686343332689477600,10.8184775390625,0.06367804855108261,0.0007736482657492161,-0.05478229001164436
1686343332699496700,10.82849658203125,0.06591856479644775,0.000180029688635841,-0.05567684397101402
1686343332709515800,10.838515869140625,0.056235574185848236,0.007926899008452892,-0.04012797772884369
1686343332719534800,10.848534912109375,0.049918558448553085,0.01121989730745554,-0.02341078408062458
1686343332729553700,10.8585537109375,0.01739310473203659,-0.0552414171397686,-0.01649135909974575
1686343332739572700,10.86857275390625,-0.01829964481294155,-0.019724968820810318,-0.039074163883924484
1686343332749591800,10.878591796875,-0.031317442655563354,-0.01356454472988844,-0.07701701670885086
1686343332759609600,10.888609619140626,-0.04156582057476044,0.02785533294081688,-0.10385822504758835
1686343332769628700,10.898628662109376,-0.028728850185871124,0.07165554165840149,-0.1305771768093109
1686343332779647700,10.908647705078126,-0.02936641126871109,0.09162605553865433,-0.1452019363641739
1686343332789666800,10.918666748046874,-0.04186089709401131,0.10596851259469986,-0.14295582473278046
1686343332799685600,10.928685546875,-0.0396515391767025,0.1297188401222229,-0.1360502392053604
1686343332809704700,10.93870458984375,-0.040640637278556824,0.15894277393817902,-0.12707193195819855
1686343332819723800,10.948723876953125,-0.031796813011169434,0.15587136149406433,-0.1098221018910408
1686343332829742600,10.95874267578125,-0.028138959780335426,0.12592491507530212,-0.08349329233169556
1686343332839761700,10.96876171875,-0.027055053040385246,0.09871991723775864,-0.0507180392742157
1686343332849780000,10.978780029296875,-0.02147786132991314,0.06900649517774582,-0.02027278020977974
1686343332859798800,10.988798828125,-0.020062390714883804,0.010399111546576023,0.038493331521749496
1686343332869817900,10.99881787109375,0.008190818130970001,-0.025841983035206795,0.0978541225194931
1686343332879836700,11.008836669921875,0.017539579421281815,0.0019409117521718144,0.12787701189517975
1686343332889855700,11.018855712890625,0.010430004447698593,0.005487443413585424,0.14552363753318787
1686343332899874600,11.02887451171875,0.015925969928503036,-0.022302908822894096,0.14855565130710602
1686343332909893600,11.0388935546875,0.01654355600476265,-0.04357677325606346,0.14395317435264587
1686343332919912700,11.04891259765625,0.014387727715075016,-0.035402730107307434,0.09072297811508179
1686343332929931800,11.058931884765625,-0.0007368966471403837,0.009097624570131302,0.03190679848194122
1686343332939949800,11.06894970703125,0.0019014970166608691,0.02539617009460926,-0.00023276027059182525
1686343332949969000,11.078968994140626,0.008747951127588749,0.025118403136730194,0.000895621080417186
1686343332959988000,11.088988037109376,0.007132744416594505,0.01902296021580696,0.0020248014479875565
1686343332970006800,11.0990068359375,-0.009465673007071018,0.025176992639899254,0.018670091405510902
1686343332980025900,11.10902587890625,-0.018743326887488365,0.051059190183877945,0.02171408385038376
1686343332990045000,11.119044921875,-0.02689845860004425,0.054184939712285995,0.012003932148218155
1686343333000063700,11.129063720703124,-0.01641705632209778,0.022936474531888962,-0.002986735198646784
1686343333010082800,11.139082763671874,-0.003212571144104004,-0.0018972359830513597,-0.019774237647652626
1686343333020102000,11.149101806640624,0.003296993440017104,-0.00851652305573225,-0.038306109607219696
1686343333030119700,11.15911962890625,-0.00720518222078681,-0.001511610229499638,-0.055754076689481735
1686343333040138800,11.169138671875,-0.016767261549830437,0.003608849598094821,-0.07435359060764313
1686343333050157800,11.17915771484375,-0.016529707238078117,0.0010753844399005175,-0.08803211897611618
1686343333060177000,11.189177001953125,-0.0130920996889472,0.003263970138505101,-0.09960728138685226
1686343333070195700,11.19919580078125,-0.015723835676908493,-0.0022945795208215714,-0.10360069572925568
1686343333080214800,11.20921484375,-0.01082921214401722,-0.0070557789877057076,-0.08339875191450119
1686343333090233900,11.21923388671875,-0.0024578312877565622,-0.0017355820164084435,-0.0692933201789856
1686343333100253000,11.2292529296875,0.0011073424248024821,-0.00806112214922905,-0.06221490353345871
1686343333110271700,11.239271728515625,0.005994243081659079,-0.003229881636798382,-0.058462776243686676
1686343333120289800,11.249289794921875,0.004403803031891584,0.004808071069419384,-0.05417801812291145
1686343333130308900,11.259308837890625,0.004022704903036356,0.0017638115677982569,-0.04152986779808998
1686343333140327700,11.26932763671875,0.0031731564085930586,-0.002861566608771682,-0.021434985101222992
1686343333150346800,11.2793466796875,-0.002401372417807579,-0.0014168017078191042,-0.005613677203655243
1686343333160365800,11.28936572265625,-0.000008255799002654385,0.005511678289622068,0.012060125358402729
1686343333170385000,11.299385009765626,0.0024029703345149755,0.008970857597887516,0.013858024962246418
1686343333180403700,11.30940380859375,0.010181797668337822,-0.0008034756756387651,0.013146694749593735
1686343333190422800,11.3194228515625,0.008167915046215057,-0.01299409568309784,0.009402822703123093
1686343333200440800,11.32944091796875,0.005902630276978016,-0.019947342574596405,0.011414041742682457
1686343333210459600,11.339459716796876,0.0013523531379178166,-0.019093001261353493,0.016510799527168274
1686343333220478700,11.349478759765624,-0.0048919604159891605,-0.0033899378031492233,0.00836658664047718
1686343333230497800,11.359497802734374,-0.0035859462805092335,0.01811908185482025,-0.0049185920506715775
1686343333240516600,11.3695166015625,-0.007663512136787176,0.03141438215970993,-0.025737321004271507
1686343333250535700,11.37953564453125,-0.004312190227210522,0.02959677390754223,-0.03593429923057556
1686343333260554800,11.3895546875,-0.0028759476263076067,0.01507002953439951,-0.03116351179778576
1686343333270573800,11.39957373046875,-0.005820338614284992,0.0080323601141572,-0.016894293949007988
1686343333280592600,11.409592529296875,-0.008743956685066223,0.0014708638191223145,-0.000865793670527637
1686343333290610700,11.419610595703125,-0.005923935677856207,-0.0062547000125050545,0.006111422087997198
1686343333300629800,11.429629638671875,-0.008774050511419773,-0.01392993051558733,0.014995461329817772
1686343333310648600,11.439648681640625,-0.007191866636276245,-0.018511366099119186,0.017889784649014473
1686343333320667600,11.449667724609375,-0.011028150096535683,-0.015899604186415672,0.013686783611774445
1686343333330686700,11.459686767578125,-0.008801747113466263,-0.0059785302728414536,-0.0015060176374390721
1686343333340705800,11.469705810546875,-0.008916796185076237,0.00930108968168497,-0.018141187727451324
1686343333350724600,11.479724609375,-0.012397547252476215,0.020832045003771782,-0.03480139002203941
1686343333360743700,11.48974365234375,-0.007173757068812847,0.018222413957118988,-0.03879719600081444
1686343333370762800,11.4997626953125,0.0025220136158168316,-0.00006125270738266408,-0.02478683926165104
1686343333380780800,11.50978076171875,0.0010554107138887048,-0.013529923744499683,-0.0052352421917021275
1686343333390800000,11.5197998046875,-0.004776113200932741,-0.011230284348130226,-0.0013022858183830976
1686343333400819200,11.529819091796876,-0.014569355174899101,-0.005216333549469709,-0.004567055031657219
1686343333410838300,11.53983837890625,-0.018314292654395103,0.007851265370845795,-0.017597636207938194
1686343333420857300,11.549857421875,-0.018322281539440155,0.02221236191689968,-0.020860008895397186
1686343333430876400,11.55987646484375,-0.019833892583847046,0.032351281493902206,-0.02064056321978569
1686343333440895200,11.569895263671874,-0.01871136948466301,0.031563252210617065,-0.01131284236907959
1686343333450914300,11.579914306640624,-0.02298041619360447,0.028901422396302223,-0.0008916263468563557
1686343333460932600,11.5899326171875,-0.013950436376035213,0.012871590442955494,0.0041460092179477215
1686343333470951400,11.599951416015625,0.0032487902790308,0.0002008023438975215,0.0029699571896344423
1686343333480970500,11.609970458984375,0.0043923514895141125,-0.010427607223391533,-0.0030514500103890896
1686343333490989600,11.619989501953125,0.008785502053797245,-0.010323211550712585,-0.002712962217628956
1686343333501008400,11.63000830078125,0.012972789816558361,-0.005587311927229166,-0.003060770919546485
1686343333511027500,11.64002734375,0.011835887096822262,-0.0048946235328912735,0.007739678490906954
1686343333521046500,11.650046630859375,0.0027885958552360535,-0.00990269798785448,0.009310677647590637
1686343333531065300,11.6600654296875,-0.00021544973424170166,-0.012269183062016964,0.001320927869528532
1686343333541084400,11.67008447265625,-0.0038189729675650597,-0.0027326694689691067,-0.01575845666229725
1686343333551102500,11.6801025390625,0.00019707392493728548,0.014030065387487411,-0.03624322637915611
1686343333561121500,11.69012158203125,0.002758768619969487,0.007918909192085266,-0.04272456094622612
1686343333571140400,11.700140380859375,0.0049529471434652805,-0.012492355890572071,-0.04025368019938469
1686343333581159400,11.710159423828125,0.005261873826384544,-0.036067456007003784,-0.03959720954298973
1686343333591178500,11.720178466796876,0.007803861051797867,-0.04896141588687897,-0.03881530463695526
1686343333601197600,11.730197509765626,0.004804342519491911,-0.06254220753908157,-0.04165956377983093
1686343333611216400,11.74021630859375,0.01142815686762333,-0.0645049586892128,-0.04559917747974396
1686343333621235500,11.7502353515625,0.03230121359229088,-0.0459805428981781,-0.0591871552169323
1686343333631254500,11.760254638671874,0.041788991540670395,-0.032589368522167206,-0.06378723680973053
1686343333641272300,11.770272216796876,0.04140203446149826,-0.02479562722146511,-0.05086904019117355
1686343333651291400,11.78029150390625,0.026928553357720375,-0.015911322087049484,-0.04838590696454048
1686343333661310500,11.790310546875,0.01636991836130619,0.0027113643009215593,-0.04659200459718704
1686343333671329500,11.80032958984375,-0.0007326356135308743,0.015304121188819408,-0.04700878635048866
1686343333681348400,11.810348388671875,-0.004532434046268463,0.010578341782093048,-0.048767007887363434
1686343333691367400,11.820367431640625,0.003745469730347395,0.0029933929909020662,-0.05019978806376457
1686343333701386500,11.830386474609375,0.023996945470571518,-0.005058674607425928,-0.0397210456430912
1686343333711405600,11.840405517578125,0.032710008323192596,-0.027158116921782494,-0.022659773007035255
1686343333721424400,11.85042431640625,0.035590484738349915,-0.045703038573265076,-0.0022453111596405506
1686343333731442400,11.8604423828125,0.0275003332644701,-0.05362887308001518,0.015080149285495281
1686343333741461500,11.87046142578125,0.028978655114769936,-0.050757985562086105,0.023516245186328888
1686343333751480300,11.880480224609375,0.03209029138088226,-0.03148921579122543,0.023542344570159912
1686343333761499400,11.89049951171875,0.0402480885386467,-0.012683038599789143,0.024206003174185753
1686343333771518500,11.9005185546875,0.043900080025196075,-0.008248608559370041,0.0332181416451931
1686343333781537300,11.910537353515625,0.050809383392333984,-0.006355101242661476,0.03928055986762047
1686343333791556400,11.920556396484375,0.0630122572183609,-0.004322044085711241,0.04363216459751129
1686343333801575400,11.930575439453126,0.06923472881317139,0.0037611823063343763,0.043483562767505646
1686343333811593200,11.94059326171875,0.07038681209087372,0.013756025582551956,0.03675002604722977
1686343333821612300,11.9506123046875,0.06551269441843033,0.020792629569768906,0.025979669764637947
1686343333831631400,11.96063134765625,0.05649709701538086,0.02737729623913765,0.008761000819504261
1686343333841650400,11.970650390625,0.041856370866298676,0.03129986673593521,-0.01031708624213934
1686343333851669200,11.980669189453126,0.04111787676811218,0.024659806862473488,-0.018703114241361618
1686343333861688300,11.990688232421874,0.030660973861813545,0.017678862437605858,-0.019171031191945076
1686343333871707400,12.000707275390624,0.01302312407642603,0.0006958839949220419,-0.008350341580808163
1686343333881726500,12.0107265625,0.0007227819296531379,-0.021444572135806084,0.013139770366251469
1686343333891745300,12.020745361328125,-0.016380837187170982,-0.042755719274282455,0.039564188569784164
1686343333901763300,12.030763427734374,-0.015749935060739517,-0.026764236390590668,0.05266960337758064
1686343333911782400,12.040782470703125,0.0034112429711967707,-0.010302438400685787,0.047875914722681046
1686343333921801200,12.05080126953125,0.015747537836432457,-0.0065045044757425785,0.019241871312260628
1686343333931820300,12.0608203125,0.028837507590651512,-0.005082110408693552,-0.017602428793907166
1686343333941839400,12.07083935546875,0.03136910870671272,-0.011577027849853039,-0.06473958492279053
1686343333951858200,12.080858154296875,0.011669172905385494,-0.00894103106111288,-0.10510324686765671
1686343333961877200,12.090877197265625,-0.00737376045435667,0.0003576625313144177,-0.13344727456569672
1686343333971896300,12.100896240234375,-0.02628859505057335,0.016098275780677795,-0.1327870786190033
1686343333981914400,12.110914306640625,-0.04306411370635033,0.013132046908140182,-0.10577116906642914
1686343333991933400,12.120933349609375,-0.042634278535842896,0.0033214944414794445,-0.07536505907773972
1686343334001952500,12.130952392578125,-0.025841983035206795,-0.004034422803670168,-0.04146594926714897
1686343334011971600,12.1409716796875,-0.01025716494768858,-0.03069666028022766,0.0033244239166378975
1686343334021990400,12.150990478515626,-0.007582552265375853,-0.0384049117565155,0.03568209707736969
1686343334032009500,12.161009521484376,-0.006078665144741535,-0.02196308970451355,0.04686550796031952
1686343334042028500,12.171028564453126,-0.004012318328022957,0.013862285763025284,0.025249164551496506
1686343334052047600,12.181047607421876,0.012918462045490742,0.031446341425180435,-0.007559382822364569
1686343334062066400,12.19106640625,0.031322501599788666,0.019873572513461113,-0.02804148755967617
1686343334072084500,12.20108447265625,0.03868534415960312,-0.009594038128852844,-0.025293106213212013
1686343334082103600,12.211103515625,0.02190689742565155,-0.02286137267947197,-0.011414041742682457
