time,seconds_elapsed,z,y,x
1686343322130815000,0.25981494140625,0.004662543535232544,0.020041251555085182,0.00340586737729609
1686343322140833000,0.2698330078125,0.0011223508045077324,0.010325203649699688,0.014101475477218628
1686343322150851800,0.279851806640625,-0.001981030683964491,0.01655486971139908,0.02476184256374836
1686343322160871000,0.289870849609375,-0.00330938259139657,0.012005454860627651,0.02368304505944252
1686343322170890000,0.299889892578125,-0.0008153319358825684,-0.004839305765926838,0.017352977767586708
1686343322180908800,0.30990869140625,0.004685116931796074,-0.012412985786795616,0.013428430072963238
1686343322190928000,0.319927978515625,0.005355700850486755,-0.007186532020568848,0.012574088759720325
1686343322200947000,0.329947021484375,0.003931661602109671,0.013393960893154144,0.006546324118971825
1686343322210965800,0.3399658203125,0.00017314264550805092,0.025863679125905037,0.0027699614875018597
1686343322220984800,0.34998486328125,0.0011277981102466583,0.03075554035604,0.0043186284601688385
1686343322231004000,0.36000390625,0.002486809156835079,0.02479511871933937,0.006313868798315525
1686343322241023000,0.37002294921875,0.0034280819818377495,0.014083926565945148,0.007204639725387096
1686343322251041000,0.380041015625,0.003033667802810669,0.00889342650771141,0.002397367497906089
1686343322261060000,0.39006005859375,0.00028261682018637657,0.003180181374773383,0.001297899754717946
1686343322271079200,0.4000791015625,-0.0009240615181624889,-0.017368769273161888,-0.0008150521898642182
1686343322281098000,0.410097900390625,0.0044874632731080055,-0.028311673551797867,-0.0023904459085315466
1686343322291117000,0.420116943359375,0.00502435676753521,-0.024452487006783485,0.011975443921983242
1686343322301136100,0.43013623046875,0.005014793481677771,-0.0050077419728040695,0.006534854881465435
1686343322311155200,0.4401552734375,0.004831035155802965,0.012382966466248035,-0.007147135213017464
1686343322321174000,0.450174072265625,0.001232377253472805,0.02017006278038025,-0.0243441853672266
1686343322331193000,0.460193115234375,0.0009199883788824081,0.020453689619898796,-0.02415057271718979
1686343322341212200,0.470212158203125,0.0029500543605536222,0.015518159605562687,-0.016189834102988243
1686343322351231000,0.48023095703125,0.0006123315542936325,-0.0015183475334197283,-0.00990770198404789
1686343322361250000,0.49025,0.0010182308033108711,-0.017055166885256767,-0.010154263116419315
1686343322371268000,0.50026806640625,0.0034121463540941477,-0.01671667955815792,-0.0012377338716760278
1686343322381287200,0.510287109375,-0.00005015172064304352,-0.01960090361535549,0.0021949755027890205
1686343322391306000,0.520305908203125,0.0038295413833111525,-0.01525169424712658,0.007711714133620262
1686343322401325000,0.530324951171875,0.004386829677969217,0.004092399962246418,0.008818848058581352
1686343322411344100,0.54034423828125,0.0026917278300970793,0.020942220464348793,0.015216026455163956
1686343322421363000,0.550363037109375,0.00021979119628667831,0.028109174221754074,0.019993269816040993
1686343322431382000,0.560382080078125,-0.004267369396984577,0.03203733637928963,0.02875746786594391
1686343322441401000,0.570401123046875,-0.004347951617091894,0.025675086304545403,0.0343463197350502
1686343322451420200,0.580420166015625,-0.0018480420112609863,0.016445636749267578,0.03210979700088501
1686343322461439000,0.59043896484375,0.0010733818635344505,0.000008712755516171455,0.023903554305434227
1686343322471458000,0.6004580078125,-0.0015261294320225716,-0.0037066631484776735,0.008300626650452614
1686343322481477000,0.61047705078125,0.0017837542109191418,-0.004942294210195541,-0.0008134169038385153
1686343322491495000,0.620494873046875,0.0026207859627902508,-0.009515208192169666,-0.007819660939276218
1686343322501514000,0.630513916015625,-0.003364020958542824,-0.020332694053649902,-0.023393232375383377
1686343322511533000,0.640532958984375,0.007620719261467457,-0.013338700868189335,-0.023427320644259453
1686343322521552100,0.65055224609375,0.003692063270136714,0.001856714952737093,-0.015687379986047745
1686343322531571000,0.660571044921875,0.005335499998182058,0.008103159256279469,-0.013143794611096382
1686343322541590000,0.670590087890625,-0.0046664997935295105,0.014261247590184212,-0.01613660901784897
1686343322551609000,0.680609130859375,-0.00022541219368577003,0.016431724652647972,-0.021595289930701256
1686343322561628000,0.6906279296875,-0.0027953479439020157,0.014393161982297897,-0.015487680211663246
1686343322571647000,0.70064697265625,0.003302491968497634,0.008277212269604206,-0.01530445460230112
1686343322581666000,0.710666015625,0.0038725300692021847,0.015976307913661003,-0.017220323905348778
1686343322591685000,0.72068505859375,0.0022237671073526144,0.028497692197561264,-0.014343311078846455
1686343322601704000,0.730703857421875,0.002470975276082754,0.02992313914000988,-0.007331377826631069
1686343322611723000,0.740722900390625,-0.0008358717896044254,0.02859608642756939,0.010102206841111183
1686343322621741000,0.750740966796875,-0.0019306098110973835,0.02241525612771511,0.020351076498627663
1686343322631760000,0.760759765625,-0.0026861480437219143,0.0028325002640485764,0.02882046066224575
1686343322641779000,0.770779052734375,-0.0008595511317253113,-0.025169197469949722,0.02786148153245449
1686343322651798000,0.780798095703125,0.00027815112844109535,-0.038901522755622864,0.02399430423974991
1686343322661817000,0.790817138671875,0.001920411828905344,-0.033176034688949585,0.029479941353201866
1686343322671836000,0.8008359375,-0.0016335765831172466,-0.0028407657518982887,0.027801616117358208
1686343322681855000,0.81085498046875,-0.005005538929253817,0.020135406404733658,0.025097781792283058
1686343322691874000,0.8208740234375,0.002125607104972005,0.02190534397959709,0.014958327636122704
1686343322701893000,0.83089306640625,0.002321783686056733,0.011462602764368057,0.005848429165780544
1686343322711912000,0.840911865234375,0.0019092601723968983,0.0016645663417875767,0.007261502556502819
1686343322721931000,0.850930908203125,0.0012731053866446018,0.0015639120247215033,0.01709526591002941
1686343322731950000,0.8609501953125,-0.0015903254970908165,0.008129137568175793,0.024939874187111855
1686343322741968000,0.8709677734375,-0.0022012745030224323,0.012934835627675056,0.027432993054389954
1686343322751987000,0.880987060546875,-0.0037083574570715427,0.012379299849271774,0.02326780930161476
1686343322762006000,0.891006103515625,0.004296659957617521,0.0033813780173659325,-0.0001978746149688959
1686343322772024800,0.90102490234375,0.007259692996740341,-0.003681325353682041,-0.014130733907222748
1686343322782044000,0.9110439453125,0.005112874787300825,-0.00268628541380167,-0.025095349177718163
1686343322792063000,0.92106298828125,0.009617878124117851,0.00012548011727631092,-0.02122071571648121
1686343322802082000,0.93108203125,0.005627754144370556,-0.0013128267601132393,-0.01783628761768341
1686343322812100900,0.941100830078125,0.0011890637688338757,0.0012294265907257795,-0.02139267325401306
1686343322822120000,0.951119873046875,0.007365753874182701,0.008387979120016098,-0.021803203970193863
1686343322832139000,0.961138916015625,0.0026146748568862677,0.0060851434245705605,-0.021748876199126244
1686343322842158000,0.971157958984375,0.0038371661212295294,0.004933780059218407,-0.014228231273591518
1686343322852177000,0.981177001953125,-0.00047688838094472885,0.013706497848033905,-0.003058400470763445
1686343322862196000,0.991196044921875,0.001421390101313591,0.01343544665724039,0.00509035587310791
1686343322872214000,1.001214111328125,0.0037130401469767094,0.008623648434877396,0.00022502685897052288
1686343322882232800,1.01123291015625,0.0012129093520343304,0.004390969406813383,0.0006114204879850149
1686343322892252000,1.021251953125,0.0011314167641103268,-0.0023321807384490967,0.002821577712893486
1686343322902271000,1.03127099609375,-0.0023643039166927338,-0.007427876815199852,0.008848011493682861
1686343322912290000,1.0412900390625,-0.0006945021450519562,-0.0011353602167218924,0.01241957675665617
1686343322922308900,1.051308837890625,0.001869643572717905,-0.003841360565274954,0.012905515730381012
1686343322932328000,1.061327880859375,0.0013806871138513088,-0.012115801684558392,0.012792331166565418
1686343322942347000,1.071346923828125,-0.001959731336683035,-0.013629895634949207,0.003938737325370312
1686343322952365800,1.08136572265625,0.002507189055904746,0.002043872606009245,0.005968066398054361
1686343322962385000,1.091385009765625,-0.001204686239361763,0.004243938252329826,0.007506205700337887
1686343322972404000,1.101404052734375,0.000009981915354728699,0.0003112480044364929,0.009570688009262085
1686343322982423000,1.111423095703125,-0.000042937230318784714,0.004829812794923782,0.008328751660883427
1686343322992440800,1.12144091796875,-0.0017273868434131145,0.0032044854015111923,0.006026981398463249
1686343323002460000,1.1314599609375,-0.00021352432668209076,0.0010858369059860706,0.001130235381424427
1686343323012479000,1.14147900390625,0.000606196466833353,-0.003534215036779642,-0.002157703274860978
1686343323022497800,1.151497802734375,-0.0019289781339466572,-0.00586345698684454,-0.0017893313197419047
1686343323032516900,1.161516845703125,0.002830889541655779,-0.0013179739471524954,-0.0022676349617540836
1686343323042536000,1.171535888671875,0.0013117888011038303,0.0010279424022883177,-0.003286076243966818
1686343323052555000,1.181554931640625,-0.00011992640793323517,0.003484708722680807,-0.005268799606710672
1686343323062573800,1.19157373046875,-0.0003014085814356804,0.004139417316764593,-0.00552899856120348
1686343323072593000,1.201593017578125,0.002034183358773589,0.0025135576725006104,0.001026372192427516
1686343323082612000,1.211612060546875,0.0018984735943377018,0.004017486236989498,-0.00022323965094983578
1686343323092630800,1.221630859375,-0.0008930517360568047,0.006086762994527817,-0.000482631498016417
1686343323102649900,1.23164990234375,-0.00007092440500855446,0.003953158389776945,0.0009957542642951012
1686343323112668200,1.241668212890625,-0.0005236617289483547,0.0041574230417609215,-0.001607751939445734
1686343323122687000,1.25168701171875,0.0019667944870889187,-0.0017955577932298183,-0.01703418605029583
1686343323132706000,1.2617060546875,0.001421379391103983,-0.0081629091873765,-0.02142919972538948
1686343323142724900,1.271724853515625,0.00746525451540947,0.0018995325081050396,-0.014690577983856201
1686343323152744000,1.281743896484375,0.007238353136926889,0.001808186061680317,-0.00610694382339716
1686343323162763000,1.291762939453125,0.005234304815530777,-0.009295838885009289,-0.000332276220433414
1686343323172781800,1.30178173828125,0.0028675536159425974,-0.016270391643047333,0.002606788417324424
1686343323182801000,1.31180078125,0.0012015243992209435,-0.01796211488544941,0.007010438479483128
1686343323192820000,1.321820068359375,0.0033344498369842768,-0.017407378181815147,0.008401674218475819
1686343323202838800,1.3318388671875,-0.00004144106060266495,-0.01324737910181284,0.0007673599757254124
1686343323212857900,1.34185791015625,0.004124009050428867,-0.009766893461346626,-0.0132496552541852
1686343323222877000,1.351876953125,0.0022079083137214184,-0.001606252510100603,-0.014105482026934624
1686343323232895000,1.36189501953125,-0.00006829528138041496,0.007558484096080065,-0.014635451138019562
1686343323242914000,1.3719140625,-0.0005638515576720238,0.01967001147568226,-0.009054766036570072
1686343323252933000,1.38193310546875,0.0005765138193964958,0.02292838878929615,-0.00029589561745524406
1686343323262952200,1.3919521484375,0.003299306146800518,0.013195926323533058,0.007722100242972374
1686343323272971000,1.401970947265625,0.0026910400483757257,0.004212017636746168,0.01077195256948471
1686343323282990000,1.411989990234375,0.0019584381952881813,-0.00026922114193439484,0.02021290734410286
1686343323293009200,1.422009033203125,-0.006078982260078192,-0.012137864716351032,0.025838036090135574
1686343323303028000,1.432028076171875,-0.000858532264828682,-0.01817934960126877,0.015457842499017715
1686343323313047000,1.442047119140625,0.006298713386058807,-0.01364957820624113,0.007996462285518646
1686343323323066000,1.452066162109375,0.013403595425188541,-0.008384055458009243,0.00047743809409439564
1686343323333084000,1.462083984375,0.012654980644583702,0.0012432716321200132,-0.013078850694000721
1686343323343103000,1.47210302734375,0.010585582815110683,0.010219026356935501,-0.025738460943102837
1686343323353122000,1.4821220703125,0.006726928986608982,0.012597229331731796,-0.027157658711075783
1686343323363141000,1.49214111328125,0.005146106239408255,0.0026956936344504356,-0.01540280319750309
1686343323373160000,1.502159912109375,0.0006014220416545868,-0.015258273109793663,-0.006216761656105518
1686343323383179000,1.512178955078125,0.0000611371360719204,-0.02680644765496254,0.0004429547116160393
1686343323393197800,1.52219775390625,0.0026071190368384123,-0.03342440351843834,-0.0009956848807632923
1686343323403217000,1.532216796875,0.003912622109055519,-0.021367497742176056,-0.0015761253889650106
1686343323413236000,1.542236083984375,0.004311031196266413,-0.0036657333839684725,0.00023322622291743755
1686343323423255000,1.552255126953125,0.0029465823899954557,0.01785363256931305,0.002671406837180257
1686343323433273900,1.56227392578125,-0.0025203549303114414,0.03283923864364624,0.010628133080899715
1686343323443293000,1.57229296875,0.0012806975282728672,0.031290631741285324,0.015657085925340652
1686343323453311000,1.58231103515625,0.0009501990862190723,0.02518373727798462,0.019811084493994713
1686343323463329800,1.592329833984375,0.0002474444918334484,0.02336643449962139,0.023883502930402756
1686343323473348900,1.602348876953125,-0.0003379182890057564,0.019586076959967613,0.02678927779197693
1686343323483368000,1.612367919921875,-0.004134329501539469,0.011186453513801098,0.03425354138016701
1686343323493386800,1.62238671875,-0.0025414922274649143,0.004517365247011185,0.036581676453351974
1686343323503405800,1.63240576171875,0.0017958530224859715,-0.003257038304582238,0.03038051538169384
1686343323513425000,1.6424248046875,-0.0019655954092741013,-0.01451555173844099,0.020840274170041084
1686343323523444000,1.65244384765625,0.0038494167383760214,-0.013513403944671154,0.014789572916924953
1686343323533462800,1.662462890625,0.0010690763592720032,-0.007037395611405373,0.005291408859193325
1686343323543481900,1.67248193359375,0.0007930146530270576,0.001210223650559783,-0.00274325767531991
1686343323553500000,1.6825,0.003168554278090596,0.004980194382369518,-0.005386977456510067
1686343323563518700,1.692518798828125,-0.0012393742799758911,0.008408198133111,-0.011363718658685684
1686343323573537800,1.702537841796875,0.001123115886002779,0.007347194477915764,-0.01958383247256279
1686343323583556900,1.712556884765625,-0.0011510453186929226,-0.004902380518615246,-0.01563645340502262
1686343323593576000,1.722575927734375,-0.0032285768538713455,-0.012422348372638226,-0.007487180642783642
1686343323603594800,1.7325947265625,-0.0024969191290438175,-0.011842744424939156,-0.0031316212844103575
1686343323613613800,1.74261376953125,0.004176696762442589,-0.007021624129265547,0.000030349940061569214
1686343323623633000,1.7526328125,0.001573378685861826,0.005936006084084511,0.0025093250442296267
1686343323633652000,1.76265185546875,-0.0009598201140761375,0.023554682731628418,0.008253763429820538
1686343323643670800,1.7726708984375,0.0009366613812744617,0.026587672531604767,0.0071872808039188385
1686343323653689900,1.78268994140625,-0.005183016415685415,0.017863688990473747,0.0038687160704284906
1686343323663708000,1.7927080078125,-0.001968326047062874,0.0033629226963967085,0.00047471816651523113
1686343323673726700,1.802726806640625,-0.0026445025578141212,-0.004636680707335472,0.0008670017123222351
1686343323683745800,1.812745849609375,-0.009332263842225075,-0.018130747601389885,0.0021611074917018414
1686343323693764900,1.822764892578125,0.002503356197848916,-0.017946189269423485,0.006092199124395847
1686343323703783700,1.83278369140625,-0.001514666248112917,-0.013494491577148438,0.01681281067430973
1686343323713802800,1.842802734375,0.0005372995510697365,-0.012358120642602444,0.017820283770561218
1686343323723821800,1.85282177734375,0.0013688714243471622,-0.014130438677966595,0.009636727161705494
1686343323733841000,1.8628408203125,-0.0006402176804840565,-0.005923374556005001,-0.0036327396519482136
1686343323743859700,1.872859619140625,0.000608349684625864,0.0012010934296995401,-0.0016700946725904942
1686343323753877800,1.882877685546875,-0.0018305731937289238,0.006073080003261566,0.001105984440073371
1686343323763896800,1.892896728515625,-0.002605640795081854,0.00783146545290947,0.006948202382773161
1686343323773915600,1.90291552734375,-0.004980115685611963,0.010749224573373795,0.016363808885216713
1686343323783934700,1.912934814453125,-0.002194793429225683,0.010102629661560059,0.020657727494835854
1686343323793953800,1.922953857421875,-0.006971971597522497,0.022648248821496964,0.028711926192045212
1686343323803972900,1.932972900390625,-0.00535514485090971,0.04553915932774544,0.028803667053580284
1686343323813991700,1.94299169921875,-0.0029825344681739807,0.08513743430376053,0.024292005226016045
1686343323824010800,1.9530107421875,-0.004182521253824234,0.10219290852546692,0.016119612380862236
1686343323834029800,1.96302978515625,-0.0018820827826857567,0.08711196482181549,0.004341514781117439
1686343323844048600,1.973048583984375,0.00019350741058588028,0.07048720121383667,0.000576176680624485
1686343323854067700,1.983067626953125,-0.005050256848335266,0.09478215873241425,0.03548435866832733
1686343323864086000,1.9930859375,-0.014629781246185303,0.11675059050321579,0.06142228841781616
1686343323874104800,2.003104736328125,-0.027518147602677345,0.11679506301879883,0.05851118639111519
1686343323884124000,2.0131240234375,-0.04292643442749977,0.09587027877569199,0.039234649389982224
1686343323894143000,2.02314306640625,-0.07083795964717865,0.09140682220458984,0.026007791981101036
1686343323904162000,2.033162109375,-0.11130610853433609,0.08464214950799942,0.018794991075992584
1686343323914180900,2.043180908203125,-0.1291378289461136,0.1017359122633934,0.019104717299342155
1686343323924200000,2.053199951171875,-0.17310310900211334,0.14108721911907196,-0.005920360796153545
1686343323934219000,2.063218994140625,-0.22324511408805847,0.13310280442237854,-0.04291193187236786
1686343323944237800,2.07323779296875,-0.2517322301864624,0.07779733836650848,-0.06222022324800491
1686343323954257000,2.0832568359375,-0.30137303471565247,0.05911180004477501,-0.08576975762844086
1686343323964275000,2.09327490234375,-0.36984625458717346,0.10607509315013885,-0.11577564477920532
1686343323974294000,2.1032939453125,-0.4499559998512268,0.05645826831459999,-0.13895553350448608
1686343323984312800,2.113312744140625,-0.6439329981803894,-0.3272550702095032,0.24575252830982208
1686343323994332000,2.123331787109375,-0.7200717329978943,-0.22109082341194153,0.5179515480995178
1686343324004351000,2.13335107421875,-0.8673592209815979,0.05148503929376602,0.6170536279678345
1686343324014370000,2.1433701171875,-0.7632903456687927,-0.4308810830116272,0.672315776348114
1686343324024388900,2.153388916015625,-0.7493753433227539,-0.9184574484825134,0.5836498141288757
1686343324034408000,2.163407958984375,-0.645659327507019,-1.359542727470398,0.5382961630821228
1686343324044427000,2.173427001953125,-0.6047999262809753,-1.8938376903533936,0.5349082946777344
1686343324054445800,2.18344580078125,-0.5718859434127808,-2.1317293643951416,0.5404807329177856
1686343324064464000,2.1934638671875,-0.5459821820259094,-1.786181092262268,0.57247394323349
1686343324074483000,2.20348291015625,-0.23410256206989288,-0.6427025198936462,0.5144338607788086
1686343324084501800,2.213501708984375,0.3115386962890625,0.4379546344280243,0.20491640269756317
1686343324094520800,2.223520751953125,0.22741104662418365,0.2810547649860382,-0.23959793150424957
1686343324104540000,2.233539794921875,0.1716640740633011,0.41950440406799316,-0.5404632091522217
1686343324114559000,2.24355908203125,0.16968481242656708,0.5166754126548767,-0.6647489070892334
1686343324124577800,2.253577880859375,0.17056402564048767,0.47997280955314636,-0.7371388077735901
1686343324134596900,2.263596923828125,0.19923268258571625,0.4638651907444,-0.7891327738761902
1686343324144616000,2.273615966796875,0.22860457003116608,0.504194974899292,-0.7991971969604492
1686343324154635000,2.283635009765625,0.22385269403457642,0.4921761155128479,-0.7186208367347717
1686343324164652800,2.29365283203125,0.20112985372543335,0.37169569730758667,-0.5519446730613708
1686343324174672000,2.303671875,0.1844392865896225,0.2769113779067993,-0.38155215978622437
1686343324184691000,2.31369091796875,0.15846899151802063,0.295302152633667,-0.27430078387260437
1686343324194709800,2.323709716796875,0.09684238582849503,0.46093878149986267,-0.2671895921230316
1686343324204728800,2.333728759765625,0.059163667261600494,0.6777465343475342,-0.31335362792015076
1686343324214748000,2.343747802734375,0.032283052802085876,0.8610500693321228,-0.3567168116569519
1686343324224767000,2.35376708984375,0.017764922231435776,0.9084328413009644,-0.3545345067977905
1686343324234785800,2.363785888671875,0.007802302949130535,0.8424897789955139,-0.29523682594299316
1686343324244804900,2.373804931640625,0.007855487987399101,0.746399462223053,-0.2203342765569687
1686343324254824000,2.383823974609375,0.003069255268201232,0.6679272651672363,-0.20629675686359406
1686343324264841700,2.393841796875,-0.00631821108981967,0.629321277141571,-0.2482282966375351
1686343324274860800,2.40386083984375,0.0031008566729724407,0.6010782122612,-0.3719683289527893
1686343324284880000,2.4138798828125,0.032329294830560684,0.5837705731391907,-0.5207443833351135
1686343324294898700,2.423898681640625,0.036980241537094116,0.5463302731513977,-0.6309278607368469
1686343324304917800,2.433917724609375,0.04881623759865761,0.5454983115196228,-0.64615398645401
1686343324314936800,2.443936767578125,0.053194206207990646,0.586199939250946,-0.595346212387085
1686343324324956000,2.453955810546875,0.02939777448773384,0.6753376126289368,-0.5682504177093506
1686343324334974700,2.463974609375,0.022755585610866547,0.8710285425186157,-0.643168568611145
1686343324344993800,2.473993896484375,0.0052984319627285,1.1086360216140747,-0.8320555090904236
1686343324355012900,2.484012939453125,-0.019111836329102516,1.3248412609100342,-0.9782212376594543
1686343324365032000,2.494031982421875,-0.02142702043056488,1.4246619939804077,-1.0002413988113403
1686343324375049700,2.5040498046875,-0.007111998274922371,1.3705981969833374,-0.9263680577278137
1686343324385068800,2.51406884765625,0.014374859631061554,1.1409155130386353,-0.7987046837806702
1686343324395088400,2.52408837890625,0.0005927355960011482,0.971788763999939,-0.691881537437439
1686343324405107500,2.534107421875,-0.024732792750000954,0.8654941320419312,-0.6293175220489502
1686343324415126500,2.54412646484375,-0.023126905784010887,0.6645330786705017,-0.5635923147201538
1686343324425145300,2.554145263671875,-0.02980935573577881,0.3696245551109314,-0.4606586992740631
1686343324435164400,2.564164306640625,-0.08693283051252365,0.07516150176525116,-0.3121216893196106
1686343324445183500,2.57418359375,-0.13170059025287628,-0.11151337623596191,-0.13285717368125916
1686343324455202600,2.58420263671875,-0.16527293622493744,-0.35858893394470215,0.029941853135824203
1686343324465220400,2.594220458984375,-0.19026723504066467,-0.5630010962486267,0.1648949384689331
1686343324475239400,2.604239501953125,-0.22532561421394348,-0.6231626868247986,0.26930710673332214
1686343324485258500,2.614258544921875,-0.2745712399482727,-0.5670856237411499,0.3598770201206207
1686343324495277300,2.62427734375,-0.3347959518432617,-0.4745038151741028,0.4341872036457062
1686343324505296400,2.63429638671875,-0.3307241201400757,-0.3779278099536896,0.4632026255130768
1686343324515315500,2.6443154296875,-0.3083437383174896,-0.3391348719596863,0.43495607376098633
1686343324525334500,2.65433447265625,-0.2798578143119812,-0.29152438044548035,0.37716272473335266
1686343324535353300,2.664353271484375,-0.20710717141628265,-0.15712259709835052,0.24205921590328217
1686343324545372400,2.674372314453125,-0.025567371398210526,0.015834448859095573,0.018287787213921547
1686343324555391500,2.6843916015625,0.15132030844688416,0.09701239317655563,-0.19189448654651642
1686343324565409500,2.694409423828125,0.22389625012874603,0.19210907816886902,-0.19789963960647583
1686343324575428600,2.7044287109375,0.2236994355916977,0.24877609312534332,-0.039743822067976
1686343324585447400,2.714447509765625,0.20958025753498077,0.15637975931167603,0.15684448182582855
1686343324595466500,2.724466552734375,0.17128241062164307,-0.039841409772634506,0.2739633619785309
1686343324605485300,2.7344853515625,0.11557286977767944,-0.25566866993904114,0.289457231760025
1686343324615504400,2.74450439453125,0.008831247687339783,-0.4130215346813202,0.2054067850112915
1686343324625523500,2.7545234375,-0.03135916218161583,-0.4553564786911011,0.11175800114870071
1686343324635542300,2.764542236328125,-0.06251228600740433,-0.4479592740535736,0.08176015317440033
1686343324645561300,2.774561279296875,-0.09174416214227676,-0.44799745082855225,0.1251484900712967
1686343324655580400,2.784580322265625,-0.10388790816068649,-0.4901294708251953,0.1913573294878006
1686343324665598500,2.794598388671875,-0.0924069806933403,-0.4929218888282776,0.23999807238578796
1686343324675617500,2.804617431640625,-0.09826673567295074,-0.46857181191444397,0.2629510462284088
1686343324685636600,2.81463671875,-0.13708938658237457,-0.4077693521976471,0.2787356972694397
1686343324695655700,2.82465576171875,-0.17513184249401093,-0.32065150141716003,0.259994238615036
1686343324705674500,2.834674560546875,-0.16620363295078278,-0.3195408880710602,0.2259426862001419
1686343324715693600,2.844693603515625,-0.15047873556613922,-0.3795325756072998,0.19067390263080597
1686343324725712600,2.854712646484375,-0.1462015062570572,-0.4202975034713745,0.1385745108127594
1686343324735731500,2.8647314453125,-0.1633184403181076,-0.398443341255188,0.07262319326400757
1686343324745750500,2.87475048828125,-0.17620746791362762,-0.34905219078063965,-0.0035577272064983845
1686343324755769600,2.88476953125,-0.17250487208366394,-0.3202703595161438,-0.05791657045483589
1686343324765787400,2.894787353515625,-0.15187306702136993,-0.3345400094985962,-0.08294876664876938
1686343324775806500,2.904806396484375,-0.11730258911848068,-0.36113274097442627,-0.0915374606847763
1686343324785825500,2.914825439453125,-0.08473978191614151,-0.38646990060806274,-0.0980643630027771
1686343324795844600,2.9248447265625,-0.04991548880934715,-0.3548682928085327,-0.12122001498937607
1686343324805863400,2.934863525390625,-0.036999091506004333,-0.2796480357646942,-0.1635611206293106
1686343324815882500,2.944882568359375,-0.04361917823553085,-0.21049878001213074,-0.21163757145404816
1686343324825901600,2.954901611328125,-0.04434593394398689,-0.14416451752185822,-0.23951995372772217
1686343324835920600,2.964920654296875,-0.04089207947254181,-0.09465768188238144,-0.24321375787258148
1686343324845939500,2.974939453125,-0.03345572203397751,-0.0767291709780693,-0.20566897094249725
1686343324855957500,2.98495751953125,-0.014352069236338139,-0.08366856724023819,-0.15398846566677094
1686343324865976600,2.9949765625,0.008259756490588188,-0.06552749872207642,-0.10946234315633774
1686343324875995400,3.004995361328125,0.021252520382404327,-0.03799467533826828,-0.08392662554979324
1686343324886014500,3.015014404296875,0.026384375989437103,-0.05371744930744171,-0.046410441398620605
1686343324896033500,3.025033447265625,0.04345070943236351,-0.0810777023434639,-0.02308514527976513
1686343324906052600,3.035052490234375,0.0557374507188797,-0.08001933246850967,-0.011536209844052792
1686343324916071400,3.045071533203125,0.06603296101093292,-0.03205154463648796,-0.017736315727233887
1686343324926090500,3.055090576171875,0.06095962971448898,0.004473090637475252,-0.03717464581131935
1686343324936109600,3.065109619140625,0.04721638932824135,0.0025252546183764935,-0.040746744722127914
1686343324946128400,3.07512841796875,0.043481770902872086,0.015638766810297966,-0.06835624575614929
1686343324956146400,3.085146484375,0.041433535516262054,0.02733829990029335,-0.08830758184194565
1686343324966165500,3.09516552734375,0.035081494599580765,0.029865922406315804,-0.09731964766979218
1686343324976184300,3.105184326171875,0.037785936146974564,0.011817414313554764,-0.07904210686683655
1686343324986203400,3.115203369140625,0.054904211312532425,-0.010579949244856834,-0.048585209995508194
1686343324996222500,3.125222412109375,0.08292306214570999,-0.01650308445096016,-0.024091586470603943
1686343325006241500,3.135241455078125,0.10657071322202682,-0.012673950754106045,-0.013598785735666752
1686343325016260400,3.14526025390625,0.114171102643013,-0.029231887310743332,-0.010773970745503902
1686343325026279400,3.155279541015625,0.11287359893321991,-0.051666032522916794,0.0017034849151968956
1686343325036298500,3.165298583984375,0.11532636731863022,-0.0844133272767067,0.02281010150909424
1686343325046317600,3.175317626953125,0.12851586937904358,-0.11229731887578964,0.03851985186338425
1686343325056335400,3.18533544921875,0.13509440422058105,-0.11164670437574387,0.04008525609970093
1686343325066354400,3.1953544921875,0.1428266167640686,-0.093941830098629,0.02824944630265236
1686343325076373500,3.20537353515625,0.14266124367713928,-0.07554338127374649,0.003402154427021742
1686343325086392300,3.215392333984375,0.13528214395046234,-0.03743792697787285,-0.03702149540185928
1686343325096411400,3.225411376953125,0.12595495581626892,0.001516661373898387,-0.0834427922964096
1686343325106430500,3.235430419921875,0.11356629431247711,0.020580587908625603,-0.11710619181394577
1686343325116449500,3.245449462890625,0.09040957689285278,0.002030872041359544,-0.12078002095222473
1686343325126468400,3.25546826171875,0.06531146168708801,-0.021919583901762962,-0.1124933585524559
1686343325136487400,3.2654873046875,0.037326693534851074,-0.021745679900050163,-0.09982763230800629
1686343325146506500,3.275506591796875,0.018855508416891098,-0.004218114539980888,-0.08076942712068558
1686343325156524500,3.285524658203125,0.009464136324822903,0.014891398139297962,-0.061664704233407974
1686343325166543400,3.29554345703125,0.018381476402282715,0.023340895771980286,-0.04739077389240265
1686343325176562400,3.3055625,0.029832269996404648,0.025157703086733818,-0.03312874957919121
1686343325186581200,3.315581298828125,0.039098937064409256,0.021134842187166214,-0.02102012373507023
1686343325196600300,3.325600341796875,0.03523416072130203,0.002145970705896616,-0.0061333198100328445
1686343325206619400,3.335619384765625,0.04014892131090164,-0.007658877409994602,0.004242615308612585
1686343325216638500,3.345638427734375,0.04530906304717064,-0.0007354572881013155,0.011792942881584167
1686343325226657300,3.3556572265625,0.04704143851995468,0.01820961758494377,0.013989720493555069
1686343325236676400,3.36567626953125,0.04609522223472595,0.027320824563503265,0.01652664691209793
1686343325246694700,3.375694580078125,0.035701800137758255,0.0124115701764822,0.026716580614447594
1686343325256713500,3.38571337890625,0.02617727220058441,-0.002526100492104888,0.038036614656448364
1686343325266732500,3.395732666015625,0.022781219333410263,-0.006663999520242214,0.050098396837711334
1686343325276751600,3.405751708984375,0.024954359978437424,-0.0039827292785048485,0.06382645666599274
1686343325286770700,3.415770751953125,0.029586317017674446,0.012704925611615181,0.06531926989555359
1686343325296789500,3.42578955078125,0.028658205643296242,0.020306119695305824,0.06625110656023026
1686343325306808600,3.43580859375,0.009728733450174332,0.02172783575952053,0.06321170926094055
1686343325316827600,3.44582763671875,-0.006804970093071461,0.03340846300125122,0.04933610558509827
1686343325326846700,3.4558466796875,-0.018943004310131073,0.03732556849718094,0.04584722965955734
1686343325336865500,3.465865478515625,-0.023578502237796783,0.02636665850877762,0.051994070410728455
1686343325346883600,3.475883544921875,-0.02246343530714512,0.013903099112212658,0.05557643249630928
1686343325356902700,3.485902587890625,-0.020559009164571762,-0.003784285858273506,0.07275887578725815
1686343325366921500,3.49592138671875,-0.020451772958040237,-0.018996628001332283,0.08357774466276169
1686343325376940500,3.5059404296875,-0.014341414906084538,0.003839711891487241,0.0785403773188591
1686343325386959600,3.515959716796875,-0.014427968300879002,0.03464396297931671,0.06080985069274902
1686343325396978700,3.525978759765625,-0.013169358484447002,0.03944191336631775,0.040067289024591446
1686343325406997800,3.535997802734375,-0.005495237652212381,0.023991666734218597,0.027609972283244133
1686343325417016800,3.546016845703125,0.0064596920274198055,0.014002683572471142,0.017885971814393997
1686343325427035600,3.55603564453125,0.013348234817385674,0.011112475767731667,0.008729557506740093
1686343325437053700,3.5660537109375,0.011779633350670338,0.0190175361931324,0.004727092571556568
1686343325447072800,3.57607275390625,0.014999873004853725,0.023278556764125824,-0.004103061277419329
1686343325457091600,3.586091552734375,0.02474730834364891,0.010238122195005417,-0.005273786839097738
1686343325467110700,3.596110595703125,0.026141319423913956,-0.008970684371888638,-0.015071611851453781
1686343325477129700,3.606129638671875,0.030212759971618652,-0.014446409419178963,-0.029477981850504875
1686343325487148800,3.616148681640625,0.03586812689900398,0.00888058915734291,-0.040150076150894165
1686343325497167600,3.626167724609375,0.036368802189826965,0.04174000024795532,-0.05292898789048195
1686343325507186700,3.636186767578125,0.03794540464878082,0.07475000619888306,-0.051960598677396774
1686343325517205800,3.646205810546875,0.0349794402718544,0.0653597041964531,-0.03874226659536362
1686343325527223600,3.6562236328125,0.03234308958053589,0.03358862176537514,-0.006743010599166155
1686343325537242600,3.66624267578125,0.034478411078453064,0.015100688673555851,0.025107331573963165
1686343325547261700,3.67626171875,0.041641224175691605,0.01989683322608471,0.042161960154771805
1686343325557280500,3.686280517578125,0.04480985552072525,0.04253450036048889,0.04628719761967659
1686343325567299600,3.696299560546875,0.05007515847682953,0.05809502303600311,0.0421760268509388
1686343325577318700,3.706318603515625,0.04905543476343155,0.058575455099344254,0.04147934168577194
1686343325587337700,3.716337646484375,0.04675883427262306,0.043768055737018585,0.05170715972781181
1686343325597356500,3.7263564453125,0.045156411826610565,0.02863863855600357,0.07292882353067398
1686343325607375600,3.736375732421875,0.050458453595638275,0.015140224248170853,0.09391122311353683
1686343325617394700,3.746394775390625,0.044309746474027634,0.01897783949971199,0.0933450385928154
1686343325627412500,3.75641259765625,0.03317520394921303,0.03169042244553566,0.07393132150173187
1686343325637431600,3.766431640625,0.029914695769548416,0.049478475004434586,0.038199424743652344
1686343325647450600,3.77645068359375,0.02969564124941826,0.061912134289741516,0.015615292824804783
1686343325657469700,3.7864697265625,0.03396362066268921,0.0516030415892601,0.0076087648048996925
1686343325667488500,3.796488525390625,0.035203978419303894,0.04048636928200722,0.009960874915122986
1686343325677507600,3.806507568359375,0.03329155966639519,0.029539979994297028,0.027397388592362404
1686343325687526700,3.816526611328125,0.03450971469283104,0.02057655155658722,0.04155035316944122
1686343325697545700,3.826545654296875,0.042060576379299164,0.008637066930532455,0.04552005976438522
1686343325707564500,3.836564453125,0.04069116711616516,0.00026423484086990356,0.040329232811927795
1686343325717582600,3.84658251953125,0.037834394723176956,0.004558848217129707,0.0221257247030735
1686343325727601700,3.8566015625,0.031347908079624176,0.01233145035803318,-0.003979869186878204
1686343325737620500,3.866620361328125,0.022370392456650734,0.021194450557231903,-0.029670584946870804
1686343325747639600,3.8766396484375,0.01849367469549179,0.01657458208501339,-0.044502150267362595
1686343325757658600,3.88665869140625,0.016332251951098442,0.010801381431519985,-0.03630387410521507
1686343325767677400,3.896677490234375,0.01753751002252102,0.002094908617436886,-0.01958063617348671
1686343325777696500,3.906696533203125,0.010931005701422691,-0.0012164658401161432,-0.0034440099261701107
1686343325787715600,3.916715576171875,0.00963176041841507,-0.011041889898478985,0.016367187723517418
1686343325797734700,3.926734619140625,0.00837474875152111,-0.014263782650232315,0.025454958900809288
1686343325807752700,3.936752685546875,0.004319032188504934,-0.02238207682967186,0.02894362062215805
1686343325817771800,3.946771728515625,0.0063720629550516605,-0.024585310369729996,0.030726607888936996
1686343325827790800,3.956790771484375,0.008334746584296227,-0.027251791208982468,0.02321666292846203
1686343325837809700,3.9668095703125,0.009695088490843773,-0.012439821846783161,0.0102222990244627
1686343325847828700,3.976828857421875,0.008170783519744873,0.00848926231265068,-0.004879994783550501
1686343325857847800,3.986847900390625,0.000027636531740427017,0.023669812828302383,-0.012264140881597996
1686343325867867000,3.996866943359375,-0.008270074613392353,0.03244524076581001,-0.009744280949234962
1686343325877885700,4.0068857421875,-0.011403283104300499,0.023056000471115112,0.0040913731791079044
1686343325887904800,4.01690478515625,-0.0056289625354111195,0.010315974242985249,0.013942975550889969
1686343325897922800,4.0269228515625,0.004551503341645002,0.000923538114875555,0.026658236980438232
1686343325907941600,4.036941650390625,0.013048985973000526,0.006506871432065964,0.03213456645607948
1686343325917960700,4.046960693359375,0.017434146255254745,0.01147366687655449,0.031170764937996864
1686343325927979800,4.056979736328125,0.01757715828716755,0.006655476056039333,0.023944279178977013
1686343325937998600,4.06699853515625,0.024974621832370758,0.0008838735520839691,0.018312757834792137
1686343325948017700,4.077017578125,0.022855211049318314,-0.00947408378124237,0.01282122265547514
1686343325958036700,4.08703662109375,0.018751278519630432,-0.010445072315633297,0.00409803818911314
1686343325968055800,4.097055908203125,0.018420502543449402,-0.006811842322349548,-0.00078679493162781
1686343325978074600,4.10707470703125,0.01829719915986061,-0.001027722842991352,-0.0049591693095862865
1686343325988093700,4.11709375,0.020027343183755875,-0.001203000545501709,-0.001143602654337883
1686343325998111700,4.12711181640625,0.020673159509897232,-0.006047290749847889,0.009898129850625992
1686343326008130600,4.137130615234375,0.027033710852265358,-0.004672670736908913,0.008104497566819191
1686343326018149600,4.147149658203125,0.02801082469522953,-0.0020569139160215855,0.006318315863609314
1686343326028168700,4.157168701171875,0.026907233521342278,-0.0005245893262326717,-0.005778840743005276
1686343326038187800,4.167187744140625,0.02035958506166935,-0.004737710114568472,-0.012681754305958748
1686343326048206600,4.17720654296875,0.01900416798889637,-0.004441283643245697,-0.012185271829366684
1686343326058225700,4.1872255859375,0.009749949909746647,-0.0040870835073292255,-0.011830005794763565
1686343326068244700,4.19724462890625,0.00972618069499731,-0.010071863420307636,-0.0016562945675104856
1686343326078263800,4.207263916015625,0.01095869205892086,-0.018979869782924652,0.010362550616264343
1686343326088281600,4.217281494140625,0.011404039338231087,-0.021265536546707153,0.017235469073057175
1686343326098300700,4.22730078125,0.007569087203592062,-0.025924205780029297,0.02219880186021328
1686343326108319700,4.23731982421875,0.006325557827949524,-0.020267073065042496,0.02016865462064743
1686343326118338600,4.247338623046875,0.0016296058893203735,-0.008590709418058395,0.010816963389515877
1686343326128357600,4.257357666015625,-0.001788705587387085,0.0011579543352127075,-0.000493741943500936
1686343326138376700,4.267376708984375,-0.0037197633646428585,0.006261902861297131,-0.004799274727702141
1686343326148395500,4.2773955078125,-0.0031629749573767185,0.008823119103908539,-0.002588336355984211
1686343326158414600,4.28741455078125,0.0006317626684904099,0.008794888854026794,0.004325762391090393
1686343326168433700,4.29743359375,0.0013769273646175861,0.000314406119287014,0.017253996804356575
1686343326178452700,4.30745263671875,-0.003739804495126009,-0.004628154449164867,0.0165724940598011
1686343326188470500,4.317470458984375,-0.0013301866129040718,-0.013936023227870464,0.012611779384315014
1686343326198489600,4.327489501953125,-0.0008577420376241207,-0.014402342028915882,0.01099177822470665
1686343326208508700,4.3375087890625,-0.004843040835112333,-0.0057863215915858746,0.004096594639122486
1686343326218527500,4.347527587890625,-0.0023231576196849346,0.006423738785088062,-0.0032569258473813534
1686343326228546600,4.357546630859375,-0.005382309667766094,0.02043803408741951,-0.009752389043569565
1686343326238565600,4.367565673828125,-0.0027883900329470634,0.03654509782791138,-0.010251465253531933
1686343326248584700,4.377584716796875,0.003699203720316291,0.03283613175153732,-0.004871011711657047
1686343326258603500,4.387603515625,0.012486303225159645,0.01662813127040863,0.0011045890860259533
1686343326268622600,4.39762255859375,0.025113191455602646,0.0020738409366458654,0.017067018896341324
1686343326278640600,4.407640625,0.03240892291069031,-0.01652061566710472,0.028562288731336594
1686343326288659500,4.417659423828125,0.03930553421378136,-0.028992097824811935,0.03493252396583557
1686343326298678500,4.427678466796875,0.03564928099513054,-0.023518238216638565,0.026728123426437378
1686343326308697600,4.437697509765625,0.02536499686539173,-0.010529020801186562,0.015181301161646843
1686343326318716700,4.447716552734375,0.016913987696170807,0.008268902078270912,0.0018878672271966934
1686343326328735500,4.457735595703125,0.011492589488625526,0.02511126548051834,-0.0063945637084543705
1686343326338754600,4.467754638671875,0.013111259788274765,0.019129807129502296,-0.010418600402772427
1686343326348773600,4.477773681640625,0.014107380993664265,-0.003033066401258111,-0.005189727991819382
1686343326358792400,4.48779248046875,0.012624265626072884,-0.029617538675665855,0.0017504694405943155
1686343326368810800,4.497810791015625,0.014895166270434856,-0.03743238002061844,0.0027912179939448833
1686343326378829800,4.507829833984375,0.008271351456642151,-0.026137910783290863,-0.0047694966197013855
1686343326388848600,4.5178486328125,-0.001718176994472742,-0.008202973753213882,-0.014748956076800823
1686343326398867200,4.5278671875,-0.01048184186220169,0.003427316900342703,-0.033684298396110535
1686343326408886000,4.537885986328125,-0.018298450857400894,-0.008191959001123905,-0.026602495461702347
1686343326418905000,4.547905029296875,-0.020593563094735146,-0.0187228973954916,-0.011680006049573421
1686343326428924200,4.557924072265625,-0.02009834721684456,-0.02699895389378071,0.009436126798391342
1686343326438943000,4.56794287109375,-0.013919280841946602,-0.02755582146346569,0.027386365458369255
1686343326448962000,4.577962158203125,-0.006856778636574745,-0.014770657755434513,0.0410199835896492
1686343326458981000,4.587981201171875,0.001871731597930193,0.011877731420099735,0.038345370441675186
1686343326468999000,4.5979990234375,0.00605395995080471,0.02186964452266693,0.023662034422159195
1686343326479018000,4.60801806640625,0.007186335977166891,0.013580289669334888,0.016497332602739334
1686343326489037000,4.618037109375,0.01032298430800438,0.016865890473127365,0.002649173606187105
1686343326499056000,4.62805615234375,-0.002303861081600189,0.02309742011129856,-0.0035472032614052296
1686343326509075000,4.638074951171875,-0.005263588856905699,0.037155989557504654,-0.007610048167407513
1686343326519094000,4.648093994140625,-0.00533176539465785,0.03750938922166824,0.0009975547436624765
1686343326529113000,4.658113037109375,-0.003461947664618492,0.019310301169753075,0.016072578728199005
1686343326539132200,4.668132080078125,0.008524673990905285,0.006017133593559265,0.02386205829679966
1686343326549151000,4.67815087890625,0.012023456394672394,0.0006389000918716192,0.01625164784491062
1686343326559169000,4.6881689453125,0.02072213962674141,0.024344230070710182,0.0042208172380924225
1686343326569188000,4.69818798828125,0.03254944831132889,0.031019140034914017,0.020418785512447357
1686343326579207000,4.70820703125,0.04134799912571907,0.019079389050602913,0.030683675780892372
1686343326589226000,4.71822607421875,0.036083441227674484,0.0060645779594779015,0.030255185440182686
1686343326599245000,4.7282451171875,0.0302220918238163,0.0008786050602793694,0.02253042161464691
1686343326609264000,4.73826416015625,0.02547951228916645,-0.005287386476993561,0.013547452166676521
1686343326619283000,4.748282958984375,0.015657242387533188,-0.002720099175348878,0.009921026416122913
1686343326629302000,4.758302001953125,0.0065789795480668545,-0.0022452366538345814,0.008720312267541885
1686343326639321000,4.768321044921875,0.0015354854986071587,-0.0026641518343240023,0.013089760206639767
1686343326649339000,4.7783388671875,0.008403864689171314,-0.0029594292864203453,0.014461909420788288
1686343326659358000,4.78835791015625,0.012852142564952374,-0.01026661042124033,0.020188238471746445
1686343326669377000,4.798376953125,0.01461960468441248,-0.01577240787446499,0.020451197400689125
1686343326679395800,4.808395751953125,0.018112607300281525,-0.020922163501381874,0.012347465381026268
1686343326689415000,4.818414794921875,0.01096661388874054,-0.028763916343450546,0.009841806255280972
1686343326699434000,4.82843408203125,0.0065052867867052555,-0.02865712344646454,-0.0034987665712833405
1686343326709453000,4.838453125,0.0007176841609179974,-0.02151023969054222,-0.00495697557926178
1686343326719471900,4.848471923828125,0.004137715324759483,-0.010973709635436535,-0.008198575116693974
1686343326729491000,4.858490966796875,0.0035074229817837477,0.0023774947039783,-0.017113346606492996
1686343326739510000,4.868510009765625,0.002503411378711462,0.008113143965601921,-0.027377167716622353
1686343326749527800,4.87852783203125,0.0019257045350968838,0.0043233418837189674,-0.028279278427362442
1686343326759547000,4.888546875,-0.0003590211272239685,-0.002192880492657423,-0.025178825482726097
1686343326769566000,4.89856591796875,0.004193984437733889,-0.012736243195831776,-0.007719448767602444
1686343326779585000,4.9085849609375,0.007903235033154488,-0.00846480019390583,0.0032538401428610086
1686343326789603800,4.918603759765625,0.008288639597594738,0.0015134490095078945,0.01643686555325985
1686343326799623000,4.928622802734375,0.009510232135653496,0.0014660446904599667,0.029274899512529373
1686343326809642000,4.93864208984375,0.0015087188221514225,0.006583924405276775,0.029713142663240433
1686343326819661000,4.9486611328125,-0.000018869992345571518,0.006240377202630043,0.0339217372238636
1686343326829679900,4.958679931640625,-0.005141958128660917,0.01795598305761814,0.027908772230148315
1686343326839698200,4.9686982421875,-0.011947667226195335,0.020640183240175247,0.025930842384696007
1686343326849717200,4.97871728515625,-0.013836357742547989,0.020080596208572388,0.033589549362659454
1686343326859736000,4.988736083984375,-0.005024224519729614,0.019954629242420197,0.045678168535232544
1686343326869755100,4.998755126953125,0.005881065037101507,0.012293179519474506,0.0556793175637722
1686343326879774200,5.008774169921875,0.019471708685159683,-0.0013757607666775584,0.05734992027282715
1686343326889793000,5.01879296875,0.02719653956592083,-0.004218294285237789,0.0446038655936718
1686343326899812000,5.02881201171875,0.027476171031594276,-0.001355129643343389,0.0149969682097435
1686343326909831200,5.0388310546875,0.0152920326218009,0.031475622206926346,-0.024846626445651054
1686343326919850000,5.04885009765625,0.010358793660998344,0.03154006972908974,-0.024616528302431107
1686343326929868000,5.058867919921875,0.0010511004365980625,0.013670263811945915,-0.0019303562585264444
1686343326939887000,5.06888720703125,-0.00727127818390727,0.002248231554403901,0.01636343076825142
1686343326949906200,5.07890625,-0.005008622072637081,0.004667775705456734,0.03306975215673447
1686343326959925000,5.088925048828125,0.0012423493899405003,0.010034844279289246,0.04140251874923706
1686343326969944000,5.098944091796875,0.011484267190098763,0.010279197245836258,0.0365072637796402
1686343326979963100,5.108963134765625,0.012077352963387966,0.011293595656752586,0.02358267828822136
1686343326989982200,5.118982177734375,0.019342344254255295,0.0010010029654949903,0.00898476131260395
1686343327000001000,5.1290009765625,0.024648958817124367,-0.014806722290813923,0.008610587567090988
1686343327010020000,5.13902001953125,0.032640907913446426,-0.02946040965616703,0.011708595789968967
1686343327020039200,5.1490390625,0.026428017765283585,-0.041527725756168365,0.019126564264297485
1686343327030057000,5.159056884765625,0.021100597456097603,-0.03456921502947807,0.02583928033709526
1686343327040076000,5.169075927734375,0.012303111143410206,-0.027112893760204315,0.027017727494239807
1686343327050095000,5.17909521484375,0.009924676269292831,-0.01184865739196539,0.01464073546230793
1686343327060114000,5.189114013671875,0.0053054229356348515,-0.004644274711608887,0.004473586101084948
1686343327070133000,5.199133056640625,0.0010409364476799965,0.0031964003574103117,-0.004268190823495388
1686343327080152000,5.209152099609375,-0.0051820725202560425,0.0001071335282176733,0.0002096483949571848
1686343327090171100,5.219171142578125,-0.01075328141450882,-0.0034075442235916853,0.00045466586016118526
1686343327100190000,5.22918994140625,-0.01238606683909893,-0.009442001581192017,0.008590356446802616
1686343327110209000,5.239208984375,-0.016100823879241943,-0.00784803181886673,0.014833691529929638
1686343327120227000,5.24922705078125,-0.018767714500427246,-0.0037909727543592453,0.014326625503599644
1686343327130246000,5.259245849609375,-0.016705326735973358,0.001068060053512454,0.011663917452096939
1686343327140265000,5.269264892578125,-0.015771089121699333,0.008222642354667187,0.008149078115820885
1686343327150284000,5.279283935546875,-0.019192252308130264,0.010105905123054981,0.0011967981699854136
1686343327160303000,5.28930322265625,-0.01838558167219162,0.006790269166231155,0.0001443170476704836
1686343327170322000,5.299322021484375,-0.01855618879199028,0.006596045568585396,0.0075640301220119
1686343327180341000,5.309341064453125,-0.017678678035736084,0.00459228316321969,0.018485654145479202
1686343327190360000,5.319360107421875,-0.014409060589969158,0.0012825110461562872,0.028419815003871918
1686343327200379100,5.329379150390625,-0.019584912806749344,-0.011583751998841763,0.04327572509646416
1686343327210397000,5.33939697265625,-0.007960614748299122,-0.012925436720252037,0.04715202376246452
1686343327220416000,5.349416015625,0.0006621680222451687,-0.010277455672621727,0.044337593019008636
1686343327230435000,5.35943505859375,0.0076438309624791145,-0.00042829872108995914,0.033433783799409866
1686343327240454000,5.369453857421875,0.012193309143185616,0.020335301756858826,0.016216184943914413
1686343327250473000,5.379472900390625,0.016632122918963432,0.026264727115631104,-0.0018325864803045988
1686343327260492000,5.389491943359375,0.012210476212203503,0.020153038203716278,-0.011598930694162846
1686343327270510800,5.3995107421875,0.012571869418025017,0.014835802838206291,-0.01257723942399025
1686343327280530000,5.409530029296875,0.013547651469707489,0.006906773895025253,-0.008888761512935162
1686343327290549000,5.419549072265625,0.023731723427772522,-0.00910005159676075,0.001414468977600336
1686343327300568000,5.429568115234375,0.03438862785696983,-0.01319066621363163,0.006569016724824905
1686343327310585900,5.4395859375,0.04336727410554886,-0.0052362121641635895,0.005155776161700487
1686343327320605000,5.44960498046875,0.04585493355989456,0.008017541840672493,-0.007072127889841795
1686343327330624000,5.4596240234375,0.0411592498421669,0.013524426147341728,-0.014975324273109436
1686343327340642800,5.469642822265625,0.03334367275238037,0.0104623232036829,-0.020455311983823776
1686343327350662000,5.479661865234375,0.021931501105427742,-0.0005913046188652515,-0.02197658084332943
1686343327360681000,5.489680908203125,-0.00019697053357958794,-0.020455025136470795,-0.02342161163687706
1686343327370700000,5.499699951171875,-0.00421595573425293,-0.03526947647333145,-0.030809415504336357
1686343327380718800,5.50971875,-0.012852054089307785,-0.03123984858393669,-0.03996962308883667
1686343327390738000,5.519738037109375,-0.01811431720852852,-0.029733194038271904,-0.04614230617880821
1686343327400756700,5.5297568359375,-0.018147870898246765,-0.03845824673771858,-0.027543585747480392
1686343327410775600,5.539775634765625,-0.013847867026925087,-0.05186766758561134,0.004839752800762653
1686343327420794600,5.549794677734375,-0.01013382151722908,-0.04852167144417763,0.0266965813934803
1686343327430813700,5.559813720703125,-0.007229987066239119,-0.03988179191946983,0.03037038818001747
1686343327440832500,5.56983251953125,-0.004235795233398676,-0.007534237578511238,0.009206780232489109
1686343327450851600,5.5798515625,-0.006668537389487028,0.02826957032084465,-0.027099259197711945
1686343327460870700,5.58987060546875,-0.011420682072639465,0.04120640829205513,-0.04527001082897186
1686343327470889700,5.5998896484375,-0.01662069372832775,0.03784707933664322,-0.04004446044564247
1686343327480908500,5.609908447265625,-0.012727685272693634,0.02021189033985138,-0.005208980292081833
1686343327490926800,5.6199267578125,-0.008669105358421803,0.006501724012196064,0.03940640389919281
1686343327500946000,5.62994580078125,-0.006473595276474953,-0.006381849758327007,0.06598076224327087
1686343327510964700,5.63996484375,-0.014382252469658852,-0.009575828909873962,0.07900580763816833
1686343327520983800,5.64998388671875,-0.02075865864753723,-0.0004638228565454483,0.07140380889177322
1686343327531003000,5.6600029296875,-0.02674286812543869,-0.00028039817698299885,0.05862534046173096
1686343327541021700,5.670021728515625,-0.028070718050003052,-0.0008007797878235579,0.054834332317113876
1686343327551040800,5.680040771484375,-0.024095822125673294,0.000766207929700613,0.05715440958738327
1686343327561059800,5.690059814453125,-0.007224163506180048,0.0031057950109243393,0.05660739541053772
1686343327571078700,5.70007861328125,0.005161966197192669,-0.0025200704112648964,0.04535798728466034
1686343327581097700,5.71009765625,0.007881851866841316,-0.00642000325024128,0.030899686738848686
1686343327591115800,5.72011572265625,0.009939598850905895,-0.017337610945105553,0.019670840352773666
1686343327601134800,5.730134765625,0.0058678919449448586,-0.028914373368024826,0.012241421267390251
1686343327611154000,5.74015380859375,0.00006331084296107292,-0.032542746514081955,0.0031697398517280817
1686343327621172700,5.7501728515625,0.0010095317848026752,-0.018802165985107422,-0.009384933859109879
1686343327631191800,5.76019189453125,-0.0020052772015333176,-0.006678168196231127,-0.02477475255727768
1686343327641211000,5.7702109375,0.0004914365708827972,-0.0010977804195135832,-0.03487718850374222
1686343327651229700,5.780229736328125,0.0013316427357494831,-0.01222707238048315,-0.033741872757673264
1686343327661248800,5.790248779296875,0.0076225618831813335,-0.01384840440005064,-0.024674341082572937
1686343327671267800,5.800267822265625,0.022909991443157196,-0.016943994909524918,-0.01640673540532589
1686343327681285600,5.81028564453125,0.027532173320651054,-0.023229055106639862,-0.009640442207455635
1686343327691304700,5.8203046875,0.024226903915405273,-0.030160140246152878,-0.004681358113884926
1686343327701323800,5.83032373046875,0.015317033044993877,-0.03932807594537735,-0.0025455032009631395
1686343327711342800,5.8403427734375,0.010386866517364979,-0.031135819852352142,-0.018671749159693718
1686343327721361700,5.850361572265625,0.008191356435418129,-0.018032001331448555,-0.02554376982152462
1686343327731380700,5.860380615234375,0.013317786157131195,-0.016107261180877686,-0.027701912447810173
1686343327741399800,5.87039990234375,0.011794725432991982,-0.01969267427921295,-0.012844936922192574
1686343327751419000,5.8804189453125,0.0140610970556736,-0.019028540700674057,0.008174315094947815
1686343327761437700,5.890437744140625,0.015725307166576385,-0.0294505562633276,0.02951502427458763
1686343327771455700,5.900455810546875,0.021577181294560432,-0.03284391388297081,0.04159852862358093
1686343327781474800,5.910474853515625,0.02145414426922798,-0.02857859432697296,0.0372578427195549
1686343327791493600,5.92049365234375,0.019265424460172653,-0.019986720755696297,0.02318616211414337
1686343327801512700,5.9305126953125,0.011942262761294842,0.005293603055179119,-0.003027330618351698
1686343327811531800,5.94053173828125,0.009005707688629627,0.021849485114216805,-0.034415800124406815
1686343327821550800,5.95055078125,0.002128893043845892,0.033106397837400436,-0.0437304712831974
1686343327831569700,5.960569580078125,-0.001411080826073885,0.02723151259124279,-0.025006337091326714
1686343327841588700,5.970588623046875,-0.004809540696442127,0.019805287942290306,-0.004085342865437269
1686343327851607800,5.98060791015625,-0.00610768748447299,0.009527454152703285,0.011667781509459019
1686343327861625600,5.99062548828125,-0.0018064165487885475,0.0027409209869802,0.01887509413063526
1686343327871644700,6.000644775390625,0.001283422578126192,0.0014451774768531322,0.015293123200535774
1686343327881663700,6.010663818359375,0.004284272901713848,-0.005342154763638973,0.016750670969486237
1686343327891682600,6.0206826171875,0.008647589944303036,-0.004014091566205025,0.019139733165502548
1686343327901701600,6.03070166015625,0.005582025274634361,0.006214843597263098,0.014605168253183365
1686343327911720700,6.040720703125,-0.004585412796586752,0.008478023111820221,0.002956643234938383
1686343327921739800,6.05073974609375,-0.015985872596502304,0.013989966362714767,-0.012673715129494667
1686343327931758600,6.060758544921875,-0.02749680168926716,0.013796892948448658,-0.030319781973958015
1686343327941777700,6.070777587890625,-0.025122061371803284,0.016445940360426903,-0.03803176432847977
1686343327951795700,6.080795654296875,-0.020514890551567078,0.02669922076165676,-0.04655255749821663
1686343327961814500,6.090814453125,-0.013252449221909046,0.03018769808113575,-0.032988015562295914
1686343327971833600,6.10083349609375,-0.006815044209361076,0.0150857949629426,-0.011370147578418255
1686343327981852700,6.110852783203125,-0.005076533183455467,-0.003961132373660803,0.01630275882780552
1686343327991871700,6.120871826171875,0.000810505822300911,-0.036731965839862823,0.04031994938850403
1686343328001890600,6.130890625,0.006300878711044788,-0.045589908957481384,0.04856003820896149
1686343328011909600,6.14090966796875,0.0034609597641974688,-0.03162141144275665,0.03611830994486809
1686343328021928700,6.1509287109375,0.0002585086040198803,-0.01509383600205183,0.017031697556376457
1686343328031947500,6.160947509765625,-0.010940449312329292,-0.010024163872003555,0.010704410262405872
1686343328041966600,6.170966552734375,-0.025047212839126587,-0.009020151570439339,0.005340804345905781
1686343328051985000,6.18098486328125,-0.027355695143342018,-0.009467567317187786,0.01080876961350441
1686343328062003700,6.191003662109375,-0.024387601763010025,-0.015307347290217876,0.013678325340151787
1686343328072022800,6.201022705078125,-0.013917675241827965,-0.02498551458120346,0.028962882235646248
1686343328082041900,6.211041748046875,-0.003321755211800337,-0.024966873228549957,0.03290276229381561
1686343328092061000,6.22106103515625,0.0009127156808972359,-0.024932866916060448,0.028307056054472923
1686343328102079700,6.231079833984375,0.002716741058975458,-0.02121722511947155,0.017964936792850494
1686343328112098800,6.241098876953125,0.00048318086192011833,-0.011360803619027138,0.008856709115207195
1686343328122117600,6.25111767578125,0.0049580903723835945,-0.0040853144600987434,-0.003754690056666732
1686343328132136700,6.26113671875,0.002747579012066126,0.009312981739640236,-0.010155150666832924
1686343328142154800,6.27115478515625,0.0010594013147056103,0.017664920538663864,-0.012728828936815262
1686343328152173800,6.281173828125,0.0010519097559154034,0.01632099412381649,-0.011229656636714935
1686343328162193000,6.29119287109375,-0.0025233845226466656,0.00004109158180654049,-0.0028140670619904995
1686343328172211700,6.301211669921875,-0.00030727824196219444,-0.013593661598861217,0.00879593938589096
1686343328182230800,6.311230712890625,-0.0016772085800766945,-0.01833168976008892,0.018649103119969368
1686343328192249900,6.321249755859375,-0.008064402267336845,-0.01361631415784359,0.015030331909656525
1686343328202269000,6.33126904296875,-0.001991596072912216,-0.004293385893106461,0.003698050044476986
1686343328212287700,6.341287841796875,0.0019805203191936016,-0.003639459377154708,-0.004500164184719324
1686343328222306800,6.351306884765625,0.0011626635678112507,-0.007567089516669512,0.0021894301753491163
1686343328232324900,6.361324951171875,0.004970441106706858,-0.009284117259085178,0.010143036022782326
1686343328242343700,6.37134375,0.002829259727150202,-0.004009194206446409,0.015451246872544289
1686343328252362800,6.38136279296875,-0.0009448602795600891,0.001980030443519354,0.0103850606828928
1686343328262381800,6.3913818359375,-0.001545935869216919,0.0031563485972583294,0.0071844737976789474
1686343328272400600,6.401400634765625,-0.006526947487145662,-0.003977947402745485,0.0008597136475145817
1686343328282419700,6.411419677734375,-0.01167323999106884,-0.011083260178565979,0.0006322797853499651
1686343328292438800,6.421438720703125,-0.013143382035195827,-0.012578072026371956,0.002259310334920883
1686343328302457900,6.431457763671875,-0.015549548901617527,-0.007357478141784668,0.003608733881264925
1686343328312476700,6.4414765625,-0.013947035185992718,-0.0037711653858423233,0.009037810377776623
1686343328322494700,6.45149462890625,-0.01305887196213007,-0.0012542118784040213,0.02270328812301159
1686343328332513800,6.461513671875,-0.008025046437978745,0.004143205005675554,0.022299528121948242
1686343328342532600,6.47153271484375,-0.0018475772812962532,0.010794982314109802,0.013541722670197487
1686343328352551700,6.4815517578125,-0.00012446288019418716,0.013500703498721123,0.0007465416565537453
1686343328362570800,6.49157080078125,-0.0013095694594085217,0.018104776740074158,-0.008430711925029755
1686343328372589800,6.50158984375,-0.007233783137053251,0.02281551994383335,-0.00853010918945074
1686343328382608600,6.511608642578125,-0.010342223569750786,0.01817016862332821,0.001492431154474616
1686343328392626400,6.52162646484375,-0.009069155901670456,0.0033967948984354734,0.016550637781620026
1686343328402645500,6.5316455078125,-0.00208474975079298,-0.010297445580363274,0.031594567000865936
1686343328412663800,6.541663818359375,-0.00286121666431427,-0.016693783923983574,0.030657079070806503
1686343328422682600,6.5516826171875,-0.00015624426305294037,-0.022234492003917694,0.01733248680830002
1686343328432701700,6.56170166015625,-0.004792029969394207,-0.026415862143039703,-0.0001183974090963602
1686343328442720800,6.571720703125,-0.002089720219373703,-0.020938005298376083,-0.008369402959942818
1686343328452739800,6.58173974609375,0.004270527511835098,-0.008613628335297108,-0.012054863385856152
1686343328462758700,6.591758544921875,0.0015383907593786716,-0.010348411276936531,-0.007770903408527374
1686343328472777700,6.60177783203125,0.003002709709107876,-0.005129074212163687,0.00408210838213563
1686343328482796500,6.611796630859375,-0.004161726217716932,-0.0033221193589270115,0.018478358164429665
1686343328492815600,6.621815673828125,-0.010892966762185097,0.006105250678956509,0.023442471399903297
1686343328502834400,6.63183447265625,-0.006522452924400568,0.005115353502333164,0.025116799399256706
1686343328512852700,6.641852783203125,-0.002691839821636677,0.008219555020332336,0.028787806630134583
1686343328522871600,6.65187158203125,0.0068172430619597435,0.001086544245481491,0.023881465196609497
1686343328532890600,6.661890625,0.016948025673627853,-0.0038462989032268524,0.015594115480780602
1686343328542909700,6.67190966796875,0.014137858524918556,-0.012276003137230873,0.011091241613030434
1686343328552928800,6.6819287109375,0.014816956594586372,-0.010962087661027908,0.004248053766787052
1686343328562947600,6.691947509765625,0.0037358098197728395,-0.0017198529094457626,0.0006280187517404556
1686343328572966700,6.701966552734375,-0.004537665285170078,0.007799428887665272,0.001348254969343543
1686343328582985700,6.71198583984375,0.008413553237915039,0.0082393828779459,-0.005082480143755674
1686343328593004800,6.7220048828125,0.018096528947353363,-0.00021361093968153,-0.005378419533371925
1686343328603022600,6.732022705078125,0.018591077998280525,-0.004418742377310991,-0.005110505037009716
1686343328613041700,6.742041748046875,0.003460758598521352,-0.01035994105041027,-0.005534229334443808
1686343328623060700,6.752060791015625,-0.003891429863870144,-0.008832085877656937,-0.00932550523430109
1686343328633079600,6.76207958984375,-0.007459075190126896,-0.009628018364310265,-0.0170791856944561
1686343328643098600,6.7720986328125,-0.0070172566920518875,-0.01049833931028843,-0.022336265072226524
1686343328653117700,6.78211767578125,-0.009533831849694252,-0.011353738605976105,-0.022416356950998306
1686343328663136800,6.79213671875,-0.008656853809952736,-0.0050825271755456924,-0.020734570920467377
1686343328673155600,6.802155517578125,-0.003993570804595947,-0.002071989933028817,-0.016440266743302345
1686343328683174700,6.812174560546875,0.0026781808119267225,-0.0053463466465473175,-0.0031673386693000793
1686343328693192700,6.822192626953125,-0.00016815587878227234,-0.014397126622498035,0.0033192301634699106
1686343328703211500,6.83221142578125,0.0006169439293444157,-0.019437158480286598,0.01651785522699356
1686343328713230600,6.842230712890625,0.0009333654306828976,-0.025699753314256668,0.036355387419462204
1686343328723249700,6.852249755859375,0.0025802641175687313,-0.02853868342936039,0.04922245070338249
1686343328733268500,6.8622685546875,0.006989835761487484,-0.01664004661142826,0.04154486954212189
1686343328743287600,6.87228759765625,0.01716151274740696,-0.011711865663528442,0.03254897892475128
1686343328753306600,6.882306640625,0.017821669578552246,-0.005509514827281237,0.014947104267776012
1686343328763325700,6.89232568359375,0.01261199451982975,0.0016663726419210434,-0.0022694324143230915
1686343328773344500,6.902344482421875,0.003061709925532341,0.007424904964864254,-0.009494161233305931
1686343328783362600,6.912362548828125,-0.00885779969394207,0.00644086766988039,-0.008568978868424892
1686343328793381600,6.922381591796875,-0.018974285572767258,0.013179055415093899,-0.007873794995248318
1686343328803400400,6.932400390625,-0.016931109130382538,0.02254113182425499,-0.011708480305969715
1686343328813419500,6.94241943359375,0.00310800364241004,0.047728732228279114,-0.03190264105796814
1686343328823438600,6.9524384765625,0.030429905280470848,0.09649520367383957,-0.06344033032655716
1686343328833457700,6.962457763671875,0.07078201323747635,0.16893501579761505,-0.12195311486721039
1686343328843476500,6.9724765625,0.059975169599056244,0.22381611168384552,-0.17771385610103607
1686343328853495600,6.98249560546875,-0.005157673265784979,0.1335829496383667,-0.10845453292131424
1686343328863514600,6.9925146484375,-0.00138956680893898,-0.0023075086064636707,0.039963435381650925
1686343328873532400,7.002532470703125,0.03322429209947586,-0.09532837569713593,0.17591744661331177
1686343328883551500,7.012551513671875,0.062130242586135864,-0.10339109599590302,0.1999114602804184
1686343328893570600,7.022570556640625,0.07335133105516434,-0.03445691242814064,0.15283595025539398
1686343328903589400,7.03258935546875,0.06331494450569153,0.05852549523115158,0.04934791103005409
1686343328913608400,7.0426083984375,0.046509768813848495,0.12103427946567535,-0.03508610278367996
1686343328923627500,7.05262744140625,0.03389490768313408,0.12065770477056503,-0.07084250450134277
1686343328933646600,7.062646484375,0.03536567464470863,0.082343690097332,-0.0631738156080246
1686343328943665400,7.07266552734375,0.0405372679233551,0.02805940993130207,-0.054127056151628494
1686343328953684500,7.0826845703125,0.04476457089185715,0.01467079110443592,-0.06756673008203506
1686343328963702800,7.092702880859375,0.06079147383570671,0.06079966947436333,-0.08094911277294159
1686343328973721600,7.1027216796875,0.08543717116117477,0.06990883499383926,-0.06456142663955688
1686343328983740700,7.11274072265625,0.10789081454277039,0.0643010139465332,-0.032059140503406525
1686343328993759700,7.122759765625,0.11549226194620132,0.041422124952077866,-0.0016815182752907276
1686343329003778800,7.13277880859375,0.11112041771411896,0.00925353541970253,0.018440529704093933
1686343329013797600,7.142797607421875,0.1029561311006546,-0.0002739899791777134,0.025535371154546738
1686343329023816700,7.152816650390625,0.09445079416036606,0.009910470806062222,0.009531904011964798
1686343329033835800,7.162835693359375,0.09448888152837753,0.0382683090865612,-0.02119418978691101
1686343329043854600,7.1728544921875,0.10199899226427078,0.0728507861495018,-0.058824390172958374
1686343329053873700,7.182873779296875,0.11942631006240845,0.08289772272109985,-0.07471492886543274
1686343329063891700,7.1928916015625,0.13990549743175507,0.058652039617300034,-0.06293763220310211
1686343329073910800,7.202910888671875,0.14535538852214813,0.02219783514738083,-0.028517354279756546
1686343329083929600,7.2129296875,0.13834542036056519,-0.009501239284873009,0.014123048633337021
1686343329093948700,7.22294873046875,0.12373220920562744,-0.030650489032268524,0.04130476340651512
1686343329103967700,7.2329677734375,0.1124475970864296,-0.038243960589170456,0.049517687410116196
1686343329113986600,7.242986572265625,0.08952587097883224,-0.027275241911411285,0.03663519769906998
1686343329124005600,7.253005615234375,0.07552297413349152,-0.001756833866238594,0.013238792307674885
1686343329134024700,7.263024658203125,0.05652349814772606,0.023268895223736763,-0.0021529095247387886
1686343329144042500,7.27304248046875,0.03669360280036926,0.0363474115729332,-0.01202657911926508
1686343329154061600,7.2830615234375,0.02758932299911976,0.0263120885938406,0.0011241103056818247
1686343329164080600,7.29308056640625,0.029742754995822906,0.0005558596458286047,0.020747879520058632
1686343329174099700,7.303099609375,0.03251846879720688,-0.023836221545934677,0.038813017308712006
1686343329184118500,7.313118408203125,0.02687203511595726,-0.034707508981227875,0.05200205743312836
1686343329194137600,7.3231376953125,0.013380758464336395,-0.0354779027402401,0.058423250913619995
1686343329204156700,7.33315673828125,-0.0025505367666482925,-0.03711361438035965,0.05182180926203728
1686343329214175700,7.34317578125,-0.0070940228179097176,-0.020150858908891678,0.038072776049375534
1686343329224194600,7.353194580078125,-0.007271389476954937,0.010930627584457397,0.01818162575364113
1686343329234212600,7.363212646484375,-0.008648920804262161,0.027422115206718445,0.0015777519438415766
1686343329244231700,7.373231689453125,-0.013225032016634941,0.04586424306035042,0.009601855650544167
1686343329254250500,7.38325048828125,-0.011882717721164227,0.03594903647899628,0.031876035034656525
1686343329264269600,7.39326953125,-0.0074184611439704895,-0.00018180301412940025,0.07441869378089905
1686343329274288600,7.40328857421875,0.012434914708137512,-0.019788112491369247,0.11745402961969376
1686343329284307700,7.4133076171875,0.028830133378505707,-0.021800663322210312,0.1537763476371765
1686343329294326500,7.423326416015625,0.05242626368999481,-0.01830458454787731,0.17048601806163788
1686343329304345600,7.433345703125,0.0662030577659607,-0.017499510198831558,0.18053679168224335
1686343329314364700,7.44336474609375,0.0814337283372879,-0.03094562701880932,0.18713435530662537
1686343329324383500,7.453383544921875,0.09673305600881577,-0.05456307530403137,0.19956998527050018
1686343329334401500,7.463401611328125,0.09477761387825012,-0.08766094595193863,0.21578224003314972
1686343329344420600,7.473420654296875,0.10311410576105118,-0.10943308472633362,0.22964559495449066
1686343329354439400,7.483439453125,0.11696087568998337,-0.1227319985628128,0.2350316196680069
1686343329364458500,7.49345849609375,0.12877146899700165,-0.14530175924301147,0.25083720684051514
1686343329374477600,7.5034775390625,0.12596768140792847,-0.17946238815784454,0.27954235672950745
1686343329384496600,7.51349658203125,0.11981658637523651,-0.19999216496944427,0.3020884096622467
1686343329394516200,7.52351611328125,0.11199548840522766,-0.19356971979141235,0.30186939239501953
1686343329404535300,7.533535400390625,0.09876836836338043,-0.17843922972679138,0.2951321303844452
1686343329414553000,7.543552978515625,0.011427197605371475,0.08419818431138992,0.07411865890026093
1686343329424572200,7.553572265625,-0.15815171599388123,0.25331076979637146,-0.4065464735031128
1686343329434591200,7.56359130859375,-0.1173057034611702,0.34548452496528625,-0.4933043420314789
1686343329444610000,7.573610107421875,-0.026734260842204094,0.17968571186065674,-0.37847042083740234
1686343329454629000,7.583629150390625,0.05500108376145363,0.015803296118974686,-0.11489309370517731
1686343329464648200,7.593648193359375,0.1052251011133194,-0.16082952916622162,0.10364723205566406
1686343329474667300,7.603667236328125,0.11483260244131088,-0.2682749330997467,0.24578998982906342
1686343329484686000,7.61368603515625,0.09468072652816772,-0.2970818281173706,0.3259599208831787
1686343329494705200,7.623705078125,0.06957376003265381,-0.2553710639476776,0.34552857279777527
1686343329504724200,7.63372412109375,0.0390094555914402,-0.1695498824119568,0.30920305848121643
1686343329514742000,7.643741943359375,0.009186280891299248,-0.06912454217672348,0.20315620303153992
1686343329524761000,7.653760986328125,-0.0092084389179945,0.011009440757334232,0.08730656653642654
1686343329534780200,7.6637802734375,-0.015007472597062588,0.0566839836537838,0.01284005492925644
1686343329544799200,7.67379931640625,-0.02100544422864914,0.07126878201961517,-0.0004805438220500946
1686343329554818000,7.683818115234375,-0.030891476199030876,0.04517322778701782,0.03536859154701233
1686343329564837000,7.693837158203125,-0.04547521471977234,0.004093969240784645,0.09096314013004303
1686343329574856200,7.703856201171875,-0.05551176518201828,-0.030003095045685768,0.13666899502277374
1686343329584875300,7.713875244140625,-0.0631217509508133,-0.03985518962144852,0.1539691537618637
1686343329594894000,7.72389404296875,-0.06589385867118835,-0.0393880158662796,0.14437219500541687
1686343329604912400,7.733912353515625,-0.06498997658491135,-0.033273931592702866,0.12787950038909912
1686343329614931500,7.743931396484375,-0.05434976518154144,-0.03248713165521622,0.1164126917719841
1686343329624950300,7.7539501953125,-0.03909411281347275,-0.05337963253259659,0.11472558230161667
1686343329634969300,7.76396923828125,-0.020752668380737305,-0.07929873466491699,0.1201997846364975
1686343329644988400,7.773988525390625,-0.02163337543606758,-0.10109857469797134,0.10374171286821365
1686343329655007200,7.78400732421875,-0.03724031522870064,-0.08608165383338928,0.08138681203126907
1686343329665026300,7.7940263671875,-0.05805158242583275,-0.08742735534906387,0.07968984544277191
1686343329675045400,7.80404541015625,-0.07499606907367706,-0.09330862760543823,0.08699749410152435
1686343329685064200,7.814064208984375,-0.0861499235033989,-0.08254120498895645,0.0843559056520462
1686343329695082200,7.824082275390625,-0.10012838244438171,-0.0645715594291687,0.0797487273812294
1686343329705101300,7.834101318359375,-0.11882190406322479,-0.052146583795547485,0.06686621904373169
1686343329715120400,7.844120361328125,-0.14243516325950623,-0.04441700503230095,0.05852822959423065
1686343329725139200,7.85413916015625,-0.15984664857387543,-0.039941828697919846,0.04800448194146156
1686343329735158300,7.864158203125,-0.16709235310554504,-0.048177570104599,0.040824223309755325
1686343329745177300,7.87417724609375,-0.15155866742134094,-0.058201175183057785,0.036248378455638885
1686343329755196400,7.884196533203125,-0.13179022073745728,-0.06761185824871063,0.03412221372127533
1686343329765215200,7.89421533203125,-0.12767243385314941,-0.07979688793420792,0.04358682036399841
1686343329775234300,7.904234375,-0.13186199963092804,-0.0904313176870346,0.05961292237043381
1686343329785252400,7.91425244140625,-0.15574975311756134,-0.10491758584976196,0.07558576762676239
1686343329795271200,7.924271240234375,-0.17948950827121735,-0.11929769068956375,0.0726131871342659
1686343329805290200,7.934290283203125,-0.1948636770248413,-0.120240718126297,0.06221327930688858
1686343329815309300,7.944309326171875,-0.19469867646694183,-0.11752229183912277,0.0314088836312294
1686343329825328400,7.954328369140625,-0.18988369405269623,-0.09826736897230148,-0.006035959348082542
1686343329835347200,7.96434716796875,-0.18208904564380646,-0.07571088522672653,-0.03929197043180466
1686343329845366300,7.9743662109375,-0.17469371855258942,-0.07132919132709503,-0.05333934724330902
1686343329855385300,7.98438525390625,-0.17471833527088165,-0.07744450122117996,-0.03551348298788071
1686343329865404200,7.994404052734375,-0.17878498136997223,-0.07838273048400879,-0.004856505431234837
1686343329875422200,8.004422119140624,-0.18986357748508453,-0.07563115656375885,0.021833617240190506
1686343329885441300,8.014441162109375,-0.18788564205169678,-0.0618027001619339,0.03965336084365845
1686343329895460000,8.024460205078125,-0.16891439259052277,-0.04595005884766579,0.049411267042160034
1686343329905479200,8.034479248046875,-0.1398686170578003,-0.03807775676250458,0.055791664868593216
1686343329915498200,8.044498291015625,-0.10634181648492813,-0.038714516907930374,0.061262600123882294
1686343329925517300,8.054517333984375,-0.08841527998447418,-0.05230622738599777,0.06930507719516754
1686343329935536000,8.0645361328125,-0.08453428000211716,-0.06988971680402756,0.07280568033456802
1686343329945555200,8.07455517578125,-0.08924674987792969,-0.07340562343597412,0.05578728765249252
1686343329955574300,8.08457421875,-0.08684676885604858,-0.048410654067993164,0.017588399350643158
1686343329965593300,8.09459326171875,-0.06644908338785172,-0.03388497605919838,-0.010147356428205967
1686343329975611100,8.104611083984375,-0.040017373859882355,-0.02707798220217228,-0.016380736604332924
1686343329985630200,8.114630126953125,-0.019380005076527596,-0.019776925444602966,-0.006555270403623581
1686343329995649300,8.124649169921875,-0.017753347754478455,-0.02058359794318676,0.014085826463997364
1686343330005668000,8.134668212890626,-0.03071681782603264,-0.01745891012251377,0.03804602101445198
1686343330015687200,8.144687255859376,-0.04315618798136711,-0.004834049381315708,0.04288066178560257
1686343330025706200,8.154706298828126,-0.05375583469867706,-0.0003394323866814375,0.030759815126657486
1686343330035725000,8.16472509765625,-0.051713671535253525,0.0035027149133384228,0.013284461572766304
1686343330045744000,8.174744140625,-0.04460036754608154,0.006537386681884527,-0.0038918624632060528
1686343330055763200,8.18476318359375,-0.04250897094607353,-0.0016924268566071987,-0.010705100372433662
1686343330065781000,8.194781005859374,-0.033251821994781494,-0.03756547346711159,-0.00252333702519536
1686343330075800000,8.204800048828124,-0.0013169525191187859,-0.07229148596525192,0.016840318217873573
1686343330085819100,8.214819091796874,0.03376353532075882,-0.10287123173475266,0.042902279645204544
1686343330095838200,8.224838134765625,0.06257912516593933,-0.10683905333280563,0.05860065296292305
1686343330105857000,8.23485693359375,0.07195425778627396,-0.09175118058919907,0.07249888777732849
1686343330115876000,8.2448759765625,0.06391015648841858,-0.0916973277926445,0.08929599076509476
1686343330125895200,8.254895263671875,0.0512060783803463,-0.32446879148483276,0.1348847895860672
1686343330135914200,8.264914306640625,0.06471023708581924,-0.2554533779621124,0.16892805695533752
1686343330145933000,8.27493310546875,0.052797913551330566,-0.3232625126838684,0.1480608582496643
1686343330155951400,8.284951416015625,0.050768788903951645,-0.30486392974853516,0.12626279890537262
1686343330165970400,8.294970458984375,0.05536700412631035,-0.23585423827171326,0.0486883781850338
1686343330175989200,8.3049892578125,0.02917034924030304,-0.14281632006168365,-0.04225367680191994
1686343330186008300,8.31500830078125,0.016584251075983047,-0.05349735543131828,-0.12781386077404022
1686343330196027400,8.32502734375,0.01570579968392849,0.015517061576247215,-0.17489121854305267
1686343330206046500,8.33504638671875,-0.01721353456377983,0.096333347260952,-0.20964066684246063
1686343330216065300,8.345065185546876,-0.07209135591983795,0.22070558369159698,-0.2481430321931839
1686343330226084400,8.35508447265625,-0.10386180132627487,0.23475243151187897,-0.2491787225008011
1686343330236103400,8.365103515625,-0.0797499343752861,0.1164364442229271,-0.15699253976345062
1686343330246121200,8.375121337890626,-0.03631777688860893,-0.029366295784711838,-0.043953873217105865
1686343330256140300,8.385140380859376,-0.020671574398875237,-0.1089245155453682,0.047766126692295074
1686343330266159400,8.395159423828124,-0.021561069414019585,-0.10781265050172806,0.07773946970701218
1686343330276178200,8.40517822265625,-0.023634975776076317,-0.03549419716000557,0.048458535224199295
1686343330286197200,8.415197265625,-0.0293613038957119,0.05073922127485275,-0.011882038787007332
1686343330296216300,8.42521630859375,-0.012355552986264229,0.09475942701101303,-0.06771381944417953
1686343330306235400,8.4352353515625,0.006253550760447979,0.11058499664068222,-0.08683318644762039
1686343330316254200,8.445254150390625,0.010544558055698872,0.10029017925262451,-0.06543387472629547
1686343330326273300,8.455273193359375,0.010512599721550941,0.0678267776966095,-0.0066224923357367516
1686343330336291300,8.465291259765625,0.021224653348326683,0.025120001286268234,0.05248688906431198
1686343330346310100,8.47531005859375,0.03193402290344238,-0.009215868078172207,0.08914024382829666
1686343330356329200,8.4853291015625,0.03988396003842354,-0.018359282985329628,0.09558834880590439
1686343330366348300,8.495348388671875,0.046712569892406464,-0.006751895882189274,0.07615633308887482
1686343330376367400,8.505367431640625,0.03923047333955765,0.01786663569509983,0.043274056166410446
1686343330386386200,8.51538623046875,0.030312612652778625,0.05030633509159088,0.028147034347057343
1686343330396405500,8.525405517578125,0.02646559104323387,0.06846556067466736,0.01972949132323265
1686343330406424300,8.53542431640625,0.023537445813417435,0.06475578248500824,0.02171754091978073
1686343330416443400,8.545443359375,0.018352478742599487,0.04354233667254448,0.0352475605905056
1686343330426461400,8.55546142578125,0.012633340433239937,0.024182217195630074,0.044591259211301804
1686343330436480300,8.565480224609376,0.004170458763837814,0.022008854895830154,0.04375710338354111
1686343330446499300,8.575499267578126,-0.0034091640263795853,0.031642042100429535,0.03723955154418945
1686343330456518400,8.585518310546876,0.004407237749546766,0.03260527923703194,0.03238632529973984
1686343330466537200,8.595537109375,0.02520306408405304,0.02348688244819641,0.03557146340608597
1686343330476556300,8.605556396484374,0.038855671882629395,0.022590629756450653,0.0421319417655468
1686343330486575400,8.615575439453124,0.04145491495728493,0.04084233567118645,0.04321505129337311
1686343330496594400,8.625594482421874,0.03342394158244133,0.04741133004426956,0.04634310305118561
1686343330506613200,8.63561328125,0.009857363998889923,0.02832551673054695,0.051091521978378296
1686343330516631300,8.64563134765625,-0.01240500994026661,-0.018278731033205986,0.05707994103431702
1686343330526650400,8.655650390625,-0.0172751322388649,-0.037054017186164856,0.045086927711963654
1686343330536669200,8.665669189453125,-0.019933294504880905,-0.060311973094940186,0.03656650707125664
1686343330546688300,8.675688232421875,-0.01886749640107155,-0.05867066606879234,0.020854124799370766
1686343330556707300,8.685707275390625,-0.0358261913061142,-0.021708469837903976,0.006508585065603256
1686343330566726400,8.695726318359375,-0.0698360949754715,0.014002121984958649,-0.0036471134517341852
1686343330576745200,8.7057451171875,-0.10297652333974838,0.04451475292444229,0.007918155752122402
1686343330586764300,8.715764404296875,-0.12513934075832367,0.04073519632220268,0.015898318961262703
1686343330596783400,8.725783447265625,-0.13634352385997772,0.0305524542927742,0.025390151888132095
1686343330606801200,8.73580126953125,-0.14242565631866455,0.016969799995422363,0.037355467677116394
1686343330616820200,8.7458203125,-0.1500556915998459,0.012673722580075264,0.052070681005716324
1686343330626839300,8.75583935546875,-0.1517808884382248,0.01541624590754509,0.07826899737119675
1686343330636858400,8.7658583984375,-0.16717854142189026,-0.019764617085456848,0.12230338901281357
1686343330646877200,8.775877197265626,-0.20054475963115692,-0.0520370677113533,0.16685567796230316
1686343330656896300,8.785896240234376,-0.1955394446849823,-0.08573506772518158,0.16709960997104645
1686343330666915300,8.795915283203126,-0.16794589161872864,-0.08638274669647217,0.1445855051279068
1686343330676934100,8.80593408203125,-0.1453087329864502,-0.10517406463623047,0.12446131557226181
1686343330686953200,8.815953125,-0.12345697730779648,-0.13019180297851562,0.1215163916349411
1686343330696971500,8.825971435546874,-0.07923360913991928,-0.07636180520057678,0.11015775799751282
1686343330706990300,8.835990234375,-0.04426497220993042,0.07084576040506363,0.0531219020485878
1686343330717009400,8.846009521484374,-0.021594423800706863,0.1678406298160553,-0.009449327364563942
1686343330727028500,8.856028564453124,-0.013680841773748398,0.11903155595064163,-0.02386794611811638
1686343330737047600,8.866047607421875,-0.0061087459325790405,0.013316955417394638,0.026653584092855453
1686343330747066400,8.87606640625,-0.0010905512608587742,-0.09380657225847244,0.1054338812828064
1686343330757085400,8.88608544921875,0.019991645589470863,-0.16122713685035706,0.17785245180130005
1686343330767104500,8.8961044921875,0.07083192467689514,-0.17788547277450562,0.23540548980236053
1686343330777123300,8.906123291015625,0.11763095110654831,-0.15050560235977173,0.2482689768075943
1686343330787141400,8.916141357421875,0.13089217245578766,-0.11177977919578552,0.21886928379535675
1686343330797160400,8.926160400390625,0.13452492654323578,-0.038543153554201126,0.16955401003360748
1686343330807179500,8.936179443359375,0.11764687299728394,0.03996869921684265,0.12512795627117157
1686343330817198300,8.9461982421875,0.09387211501598358,0.08934181928634644,0.08571600914001465
1686343330827217400,8.956217529296875,0.07237721234560013,0.11563680320978165,0.05456048250198364
1686343330837236500,8.966236572265625,0.042510416358709335,0.15200811624526978,0.041879959404468536
1686343330847255600,8.976255615234376,0.02622891217470169,0.0204082690179348,-0.06647713482379913
1686343330857274400,8.9862744140625,0.06631184369325638,0.017348380759358406,-0.15129892528057098
1686343330867293400,8.99629345703125,0.06294933706521988,0.034007783979177475,-0.20054103434085846
1686343330877311500,9.0063115234375,0.02801038883626461,0.11721210926771164,-0.1833312213420868
1686343330887330300,9.016330322265626,-0.017816754058003426,0.1800193041563034,-0.1334046721458435
1686343330897349400,9.026349365234376,-0.0445307120680809,0.1975623369216919,-0.06039842218160629
1686343330907368400,9.036368408203124,-0.059280361980199814,0.16027675569057465,0.006004570052027702
1686343330917387300,9.04638720703125,-0.06588210165500641,0.0997958555817604,0.05886499956250191
1686343330927406300,9.05640625,-0.08046956360340118,0.04740588739514351,0.09281763434410095
1686343330937425400,9.06642529296875,-0.08053310960531235,0.01936674676835537,0.10189583897590637
1686343330947444500,9.076444580078125,-0.08025853335857391,0.015449769794940948,0.08298872411251068
1686343330957463300,9.08646337890625,-0.06845973432064056,0.019506141543388367,0.05785677954554558
1686343330967481300,9.0964814453125,-0.053550295531749725,0.02956623025238514,0.0343509204685688
1686343330977500400,9.10650048828125,-0.03811144828796387,0.03924090042710304,0.025532608851790428
1686343330987519200,9.116519287109375,-0.03134409338235855,0.02738024666905403,0.03108796291053295
1686343330997538300,9.126538330078125,-0.025163961574435234,0.0081157386302948,0.049415573477745056
1686343331007557400,9.136557373046875,-0.018023494631052017,-0.020134808495640755,0.07222660630941391
1686343331017576400,9.146576416015625,-0.009721765294671059,-0.04491216316819191,0.09490316361188889
1686343331027595300,9.15659521484375,-0.002838293556123972,-0.0468786396086216,0.11637116968631744
1686343331037614300,9.1666142578125,-0.0007319748401641846,-0.03336845338344574,0.14436937868595123
1686343331047633400,9.17663330078125,0.005217527039349079,-0.00887775607407093,0.17317438125610352
1686343331057651200,9.186651123046875,0.026148231700062752,-0.0023856062907725573,0.171676367521286
1686343331067670300,9.196670166015625,0.05798579007387161,-0.03945308178663254,0.1138591468334198
1686343331077689300,9.206689453125,0.10648178309202194,-0.07718295603990555,0.05015088617801666
1686343331087708400,9.21670849609375,0.14905081689357758,-0.09051208198070526,0.0042539676651358604
1686343331097727200,9.226727294921876,0.1516527533531189,-0.06003524735569954,-0.024143338203430176
1686343331107746300,9.236746337890626,0.13186733424663544,-0.007255390752106905,-0.031172486022114754
1686343331117765400,9.246765380859374,0.10139439254999161,0.042881812900304794,-0.012020096182823181
1686343331127784200,9.2567841796875,0.07524001598358154,0.0541621632874012,0.008306480944156647
1686343331137803300,9.26680322265625,0.06478174030780792,0.04128110408782959,0.016336197033524513
1686343331147821300,9.2768212890625,0.05555974692106247,0.029525110498070717,0.023317940533161163
1686343331157840100,9.286840087890624,0.05139458552002907,0.028828369453549385,0.02772972173988819
1686343331167859200,9.296859130859374,0.048842210322618484,0.01523399818688631,0.03728354722261429
1686343331177878300,9.306878173828125,0.047765087336301804,0.011117978021502495,0.029032545164227486
1686343331187897300,9.3168974609375,0.049517180770635605,0.014837613329291344,0.02496376819908619
1686343331197916200,9.326916259765625,0.04780382290482521,0.007183851208537817,0.02112802304327488
1686343331207935200,9.336935302734375,0.041454583406448364,0.012879820540547371,0.018803350627422333
1686343331217954300,9.346954345703125,0.03569724038243294,0.026560848578810692,0.00715813972055912
1686343331227973400,9.356973388671875,0.027130382135510445,0.03388374671339989,0.001293059904128313
1686343331237991400,9.366991455078125,0.02198054827749729,0.02137436345219612,-0.006137319840490818
1686343331248010500,9.377010498046875,0.009483398869633675,-0.002333628246560693,-0.00925162062048912
1686343331258029600,9.387029541015625,-0.007188982795923948,-0.012575133703649044,-0.010534165427088737
1686343331268048400,9.39704833984375,-0.0164280217140913,-0.007740963250398636,-0.024774087592959404
1686343331278067500,9.4070673828125,-0.02323910780251026,-0.006238678935915232,-0.0329471081495285
1686343331288086500,9.41708642578125,-0.026340091601014137,-0.006560388952493668,-0.04201410338282585
1686343331298105300,9.427105224609376,-0.03248592093586922,-0.007866674102842808,-0.033528514206409454
1686343331308124400,9.43712451171875,-0.033619631081819534,-0.009252317249774933,-0.01785847544670105
1686343331318143500,9.4471435546875,-0.027173148468136787,-0.0093153715133667,-0.006672881543636322
1686343331328161300,9.457161376953126,-0.021787438541650772,-0.01787077635526657,0.0037129137199372053
1686343331338180400,9.467180419921876,-0.025877695530653,-0.017937788739800453,0.008041305467486382
1686343331348199400,9.477199462890624,-0.029597334563732147,-0.012219448573887348,0.011858947575092316
1686343331358218500,9.487218505859374,-0.035722941160202026,-0.021593399345874786,0.009248550981283188
1686343331368237300,9.4972373046875,-0.03189890831708908,-0.019105475395917892,0.015600988641381264
1686343331378256400,9.50725634765625,-0.024518223479390144,-0.01735391467809677,0.016744283959269524
1686343331388275500,9.517275390625,-0.023599965497851372,0.00003839167766273022,0.0167730450630188
1686343331398293800,9.527293701171875,-0.04067252203822136,0.022673742845654488,0.015829602256417274
1686343331408312800,9.537312744140625,-0.06623434275388718,0.04105062037706375,0.01978226751089096
1686343331418330600,9.54733056640625,-0.07340876758098602,0.05031201243400574,0.020254913717508316
1686343331428349700,9.557349609375,-0.06687284260988235,0.034929059445858,0.027913898229599
1686343331438368800,9.56736865234375,-0.061539534479379654,0.016587374731898308,0.03803914040327072
1686343331448387800,9.577387939453125,-0.05056491121649742,0.02436966262757778,0.046246469020843506
1686343331458406700,9.58740673828125,-0.04086359590291977,0.03971328213810921,0.042787980288267136
1686343331468425700,9.59742578125,-0.033016856759786606,0.03973645344376564,0.035448573529720306
1686343331478444800,9.60744482421875,-0.03311171382665634,0.03704914078116417,0.024024300277233124
1686343331488464000,9.6174638671875,-0.043835997581481934,0.032328952103853226,0.01353011466562748
1686343331498482700,9.627482666015625,-0.05977696180343628,0.061331864446401596,0.00807713158428669
1686343331508500700,9.637500732421875,-0.0780600905418396,0.10236584395170212,0.010765060782432556
1686343331518519800,9.647519775390625,-0.09937290102243423,0.13023518025875092,0.022230666130781174
1686343331528538600,9.65753857421875,-0.11266207695007324,0.11560217291116714,0.023736685514450073
1686343331538557700,9.6675576171875,-0.11825177073478699,0.09227219969034195,0.017462870106101036
1686343331548576800,9.67757666015625,-0.10915441066026688,0.07212671637535095,-0.01211659424006939
1686343331558595600,9.687595703125,-0.11254590004682541,0.04362361878156662,-0.05087639391422272
1686343331568614700,9.69761474609375,-0.09356635063886642,0.01908099092543125,-0.06763060390949249
1686343331578633700,9.7076337890625,-0.07041089236736298,0.010369738563895226,-0.08233974874019623
1686343331588652800,9.71765283203125,-0.04955354705452919,-0.008550423197448254,-0.08482713997364044
1686343331598671600,9.727671630859374,-0.02625252678990364,-0.04534054920077324,-0.06709659844636917
1686343331608689700,9.737689697265624,-0.007378704845905304,-0.05314973369240761,-0.04969949275255203
1686343331618708700,9.747708740234375,0.0023687188513576984,-0.03696422651410103,-0.0346769280731678
1686343331628727600,9.7577275390625,0.004824952222406864,-0.03921566158533096,-0.032303523272275925
1686343331638746600,9.76774658203125,-0.000745704397559166,-0.043667830526828766,-0.028456322848796844
1686343331648765700,9.777765625,-0.0032344283536076546,-0.0245500635355711,-0.04409200698137283
1686343331658784800,9.78778466796875,-0.012338178232312202,-0.004891939461231232,-0.06003422290086746
1686343331668803600,9.797803466796875,-0.01484607718884945,0.006796141620725393,-0.06638745963573456
1686343331678822700,9.80782275390625,-0.023686297237873077,0.021165598183870316,-0.059688545763492584
1686343331688841700,9.817841796875,-0.02671617642045021,0.017324520274996758,-0.03855770081281662
1686343331698859800,9.82785986328125,-0.023843377828598022,-0.0012031740043312311,-0.007300864905118942
1686343331708878800,9.83787890625,-0.010263387113809586,-0.0033739167265594006,0.012041673995554447
1686343331718898000,9.84789794921875,-0.001499788835644722,0.0004151039756834507,0.010897745378315449
1686343331728917000,9.8579169921875,0.00553867919370532,-0.0005755920428782701,0.00515889935195446
1686343331738935800,9.867935791015626,0.010242562741041183,-0.00152398063801229,-0.001722345594316721
1686343331748955000,9.877954833984376,0.0026152697391808033,-0.0010677811224013567,-0.010576823726296425
1686343331758974000,9.887973876953126,-0.006324191112071276,0.00176206324249506,-0.011947738006711006
1686343331768992800,9.89799267578125,-0.0044439989142119884,0.006073987577110529,-0.013606620952486992
1686343331779011800,9.90801171875,0.006837646942585707,0.003414193633943796,-0.017550678923726082
1686343331789030000,9.91802978515625,0.020818177610635757,-0.006864276714622974,-0.015301638282835484
1686343331799048700,9.928048583984374,0.030242525041103363,-0.021001050248742104,-0.012049230746924877
1686343331809067800,9.93806787109375,0.03515845537185669,-0.02735055983066559,-0.005990805570036173
1686343331819086800,9.9480869140625,0.03497949615120888,-0.013076459988951683,-0.003511467482894659
1686343331829106000,9.95810595703125,0.016565602272748947,0.017735514789819717,0.005806400440633297
1686343331839124700,9.968124755859375,-0.0000071069225668907166,0.04344012588262558,0.016425414010882378
1686343331849143800,9.978143798828125,-0.005249539390206337,0.058223333209753036,0.013419236056506634
1686343331859163000,9.988162841796875,-0.008521161042153835,0.0433143712580204,0.011593405157327652
1686343331869182000,9.998181884765625,-0.007294774986803532,0.02767176367342472,0.008822386153042316
1686343331879199700,10.00819970703125,0.005242413375526667,0.035702358931303024,-0.00351848267018795
1686343331889218800,10.01821875,0.0042250859551131725,0.02725933864712715,-0.017198076471686363
1686343331899238000,10.02823779296875,-0.0008257557637989521,0.008773313835263252,-0.018229305744171143
1686343331909256700,10.038256591796875,-0.0009237597696483135,-0.007584886625409126,-0.01058150827884674
1686343331919275800,10.04827587890625,0.0024728230200707912,-0.03691679611802101,0.0059547992423176765
1686343331929294800,10.058294921875,-0.005990703124552965,-0.047833893448114395,0.02689257264137268
1686343331939314000,10.06831396484375,-0.009351877495646477,0.0020071668550372124,0.03007584810256958
1686343331949332700,10.078332763671876,-0.004381887149065733,0.05926193296909332,-0.0012879332061856985
1686343331959351800,10.088351806640626,-0.013900700956583023,0.06086265295743942,-0.02401508018374443
1686343331969369900,10.098369873046876,-0.026008764281868935,0.043915897607803345,-0.002375564305111766
1686343331979388700,10.108388671875,-0.036493219435214996,0.02872985601425171,0.029928307980298996
1686343331989407700,10.11840771484375,-0.0306696854531765,0.009676538407802582,0.054536983370780945
1686343331999426800,10.1284267578125,-0.03362499549984932,-0.00947611778974533,0.07460736483335495
1686343332009445600,10.138445556640624,-0.041893042623996735,0.011675773188471794,0.08212173730134964
1686343332019464700,10.148464599609374,-0.059664662927389145,0.05499344319105148,0.09180349856615067
1686343332029483800,10.15848388671875,-0.06915509700775146,0.08844567090272903,0.10978303104639053
1686343332039502800,10.1685029296875,-0.08180857449769974,0.10001497715711594,0.12640568614006042
1686343332049520600,10.178520751953124,-0.07316422462463379,0.11082794517278671,0.12558463215827942
1686343332059539700,10.188539794921875,-0.07565520703792572,0.1057848185300827,0.10595979541540146
1686343332069558800,10.198558837890625,-0.0861392691731453,0.0877738669514656,0.09570582211017609
1686343332079577600,10.20857763671875,-0.07970044016838074,0.09086689352989197,0.08891870826482773
1686343332089596700,10.2185966796875,-0.06019624322652817,0.0922328308224678,0.06058559939265251
1686343332099615700,10.22861572265625,-0.02922648936510086,0.04966653883457184,0.022401003167033195
1686343332109634800,10.238634765625,0.011997111141681671,-0.025927554816007614,0.0020057165529578924
1686343332119653600,10.248653564453125,0.02594836801290512,-0.044959623366594315,-0.013179103843867779
1686343332129672700,10.258672607421875,0.00413015391677618,0.006615950260311365,-0.02957858331501484
1686343332139690800,10.268690673828125,-0.01936309039592743,0.06442670524120331,-0.06445518881082535
1686343332149709800,10.278709716796875,-0.04454541206359863,0.07762479782104492,-0.08589949458837509
1686343332159728600,10.288728759765625,-0.049664441496133804,0.030758090317249298,-0.07748328149318695
1686343332169747700,10.298747802734376,-0.03635715693235397,-0.007192486897110939,-0.06189101189374924
1686343332179766500,10.3087666015625,-0.03044244460761547,-0.02146178111433983,-0.04208200424909592
1686343332189785600,10.31878564453125,-0.0313204862177372,-0.024078872054815292,-0.02875528112053871
1686343332199804700,10.3288046875,-0.02437068521976471,-0.03033336251974106,-0.025141913443803787
1686343332209823700,10.33882373046875,-0.015615010634064674,-0.04209734499454498,-0.024875065311789513
1686343332219842600,10.348842529296874,-0.012713372707366943,-0.04564637690782547,-0.02224678546190262
1686343332229860900,10.35886083984375,-0.029888629913330078,-0.02446306124329567,-0.021489914506673813
1686343332239880000,10.3688798828125,-0.04981766268610954,0.011827975511550903,-0.03230617940425873
1686343332249898800,10.378898681640624,-0.07321486622095108,0.02967275120317936,-0.03238660842180252
1686343332259917800,10.388917724609374,-0.07350537180900574,0.03199145197868347,-0.021918537095189095
1686343332269937000,10.39893701171875,-0.06203354522585869,0.007465336937457323,0.0028328816406428814
1686343332279956000,10.4089560546875,-0.04045100510120392,-0.018165605142712593,0.025325998663902283
1686343332289974800,10.418974853515625,-0.02740098536014557,-0.02477343939244747,0.04263255372643471
1686343332299993900,10.428993896484375,-0.010826094076037407,-0.031547822058200836,0.05406394973397255
1686343332310013000,10.439012939453125,0.003181866370141506,-0.039541035890579224,0.057837650179862976
1686343332320030700,10.44903076171875,0.02945830300450325,-0.051038868725299835,0.06792991608381271
1686343332330049800,10.4590498046875,0.037616897374391556,-0.046341583132743835,0.07388314604759216
1686343332340068900,10.46906884765625,0.04062410444021225,-0.03522587567567825,0.07228466868400574
1686343332350088000,10.479087890625,0.02173270657658577,-0.02449600026011467,0.06772107630968094
1686343332360106800,10.489106689453125,0.0001442008651793003,0.0038353437557816505,0.05427823215723038
1686343332370125800,10.499125732421875,-0.02100129798054695,0.013958550989627838,0.039956554770469666
1686343332380145000,10.509144775390626,-0.026581063866615295,-0.0022464178036898375,0.04450305551290512
1686343332390163700,10.519163818359376,-0.019995596259832382,-0.011301964521408081,0.05783723667263985
1686343332400182800,10.529182861328126,-0.016442596912384033,-0.02380526065826416,0.06985411792993546
1686343332410200800,10.539200927734376,-0.010137297213077545,-0.027855396270751953,0.07123149931430817
1686343332420219600,10.5492197265625,-0.005846989341080189,0.0007936430629342794,0.05486120656132698
1686343332430238700,10.55923876953125,-0.002911919727921486,0.023450486361980438,0.031950827687978745
1686343332440257800,10.5692578125,0.01019267737865448,0.014558248221874237,0.02358265407383442
1686343332450276900,10.57927685546875,0.03070700727403164,0.006517899688333273,0.023122459650039673
1686343332460295700,10.589295654296874,0.04572122171521187,0.010064738802611828,0.025687560439109802
1686343332470314800,10.599314697265624,0.06323283165693283,0.008267903700470924,0.029842358082532883
1686343332480333800,10.609333740234375,0.0702769011259079,-0.004555927123874426,0.03478405252099037
1686343332490353000,10.619352783203125,0.07409641146659851,-0.019915975630283356,0.03530523180961609
1686343332500370700,10.62937060546875,0.042312271893024445,-0.010689228773117065,0.031100686639547348
1686343332510389800,10.6393896484375,0.02651333436369896,-0.008648182265460491,0.019041361287236214
1686343332520408800,10.649408935546875,0.03023257479071617,-0.010161373764276505,0.005483805201947689
1686343332530427600,10.659427734375,0.030126314610242844,0.002891843905672431,0.0003865149337798357
1686343332540446700,10.66944677734375,0.026713751256465912,0.028898531571030617,-0.0057954201474785805
1686343332550465800,10.6794658203125,0.02520294114947319,0.03605550900101662,-0.010428788140416145
1686343332560484900,10.68948486328125,0.025404926389455795,-0.0029162606224417686,-0.0072794584557414055
1686343332570503700,10.699503662109375,0.02441662736237049,-0.02587377279996872,-0.010088826529681683
1686343332580522800,10.709522705078125,0.026778798550367355,-0.030841639265418053,-0.015590161085128784
1686343332590540800,10.719540771484375,0.03642663359642029,-0.03523585572838783,-0.016324659809470177
1686343332600559600,10.7295595703125,0.05740257352590561,-0.038941577076911926,-0.01881382428109646
1686343332610578700,10.73957861328125,0.06813697516918182,-0.02837601862847805,-0.01028478518128395
1686343332620597800,10.74959765625,0.06871190667152405,-0.0321405790746212,0.0011637695133686066
1686343332630616600,10.759616455078126,0.06195972487330437,-0.026637157425284386,0.01503058336675167
1686343332640635600,10.7696357421875,0.049008067697286606,-0.021919000893831253,0.015121616423130035
1686343332650654700,10.77965478515625,0.045279908925294876,-0.013288495130836964,0.014993784949183464
1686343332660673800,10.789673828125,0.037251099944114685,0.002958485158160329,-0.0006049296353012323
1686343332670692600,10.799692626953124,0.04467812553048134,0.0097886947914958,-0.023209307342767715
1686343332680711000,10.8097109375,0.05955873429775238,0.005618293769657612,-0.049646466970443726
1686343332690730000,10.81972998046875,0.07110486924648285,-0.005138480570167303,-0.05743248760700226
1686343332700748800,10.829748779296875,0.07074995338916779,-0.0020112975034862757,-0.056193362921476364
1686343332710767900,10.839767822265625,0.05966508388519287,0.0067244041711091995,-0.040078841149806976
1686343332720786700,10.84978662109375,0.05443628504872322,0.004266311414539814,-0.025410640984773636
1686343332730805800,10.8598056640625,0.015086747705936432,-0.0570329986512661,-0.02038685418665409
1686343332740824600,10.869824462890625,-0.013865260407328606,-0.02492607571184635,-0.04942058026790619
1686343332750843600,10.87984375,-0.029605606570839882,-0.012028120458126068,-0.08301448822021484
1686343332760862000,10.889862060546875,-0.03256553038954735,0.030589045956730843,-0.11122358590364456
1686343332770880800,10.899880859375,-0.020330168306827545,0.07154020667076111,-0.1348429024219513
1686343332780899800,10.90989990234375,-0.023087210953235626,0.09285932779312134,-0.14761734008789062
1686343332790919000,10.9199189453125,-0.035172369331121445,0.10589922964572906,-0.14422206580638885
1686343332800938000,10.92993798828125,-0.03387140855193138,0.13045179843902588,-0.13988545536994934
1686343332810956800,10.939956787109375,-0.03500804677605629,0.15900275111198425,-0.12663595378398895
1686343332820975900,10.949975830078126,-0.025022463873028755,0.14902019500732422,-0.10806237906217575
1686343332830995000,10.959994873046876,-0.020589100196957588,0.1194138377904892,-0.08081584423780441
1686343332841013800,10.970013671875,-0.016568809747695923,0.09494290500879288,-0.05049947276711464
1686343332851031800,10.98003173828125,-0.01589556410908699,0.05988132581114769,-0.01523655652999878
1686343332861051000,10.99005078125,-0.013260269537568092,0.0017332530114799738,0.043304137885570526
1686343332871069700,11.000069580078126,0.020842306315898895,-0.026822226122021675,0.0988914966583252
1686343332881088800,11.0100888671875,0.02335027977824211,0.0013381971511989832,0.12772336602210999
1686343332891107800,11.02010791015625,0.016511812806129456,-0.00037501449696719646,0.1430559903383255
1686343332901127000,11.030126953125,0.019991161301732063,-0.02944730408489704,0.14922018349170685
1686343332911145700,11.040145751953125,0.021821817383170128,-0.04754987359046936,0.13741545379161835
1686343332921164800,11.050164794921875,0.01773644983768463,-0.03424150496721268,0.08113177865743637
1686343332931183900,11.060183837890625,0.005469132214784622,0.010683359578251839,0.023776082322001457
1686343332941201700,11.07020166015625,0.008214455097913742,0.023354962468147278,-0.003292757086455822
1686343332951220700,11.080220703125,0.018024740740656853,0.019367676228284836,-0.0021585167851299047
1686343332961239800,11.09023974609375,0.010443046689033508,0.017334923148155212,0.00025447714142501354
1686343332971259000,11.1002587890625,-0.004739101510494947,0.023802410811185837,0.01913762092590332
1686343332981277700,11.110277587890625,-0.01422921009361744,0.05144188553094864,0.01884663850069046
1686343332991296800,11.120296875,-0.022740673273801804,0.04902986064553261,0.0070357853546738625
1686343333001315800,11.13031591796875,-0.008915717713534832,0.0158565454185009,-0.008839961141347885
1686343333011334700,11.140334716796875,0.0021941917948424816,-0.008850133046507835,-0.022610366344451904
1686343333021353700,11.150353759765625,0.005897712893784046,-0.008756672032177448,-0.040645889937877655
1686343333031371800,11.160371826171875,-0.003358636051416397,-0.003646864788606763,-0.05781582370400429
1686343333041390600,11.170390625,-0.00996243767440319,0.0025240404065698385,-0.07519916445016861
1686343333051409700,11.18040966796875,-0.00848038773983717,-0.0012254242319613695,-0.09251583367586136
1686343333061428700,11.1904287109375,-0.005509943701326847,0.002824527909979224,-0.1042623519897461
1686343333071447800,11.20044775390625,-0.011109505780041218,-0.004577994346618652,-0.1040133461356163
1686343333081466600,11.210466552734376,-0.0038031362928450108,-0.008616798557341099,-0.085638128221035
1686343333091485700,11.220485595703124,0.0013740486465394497,-0.005432190373539925,-0.06847485154867172
1686343333101504800,11.2305048828125,0.0072008236311376095,-0.009875757619738579,-0.06290526688098907
1686343333111523800,11.24052392578125,0.01215670071542263,-0.004812023602426052,-0.05987725779414177
1686343333121541600,11.250541748046874,0.012980761006474495,0.00030814879573881626,-0.05428019538521767
1686343333131560700,11.260560791015624,0.010035837069153786,-0.0011699055321514606,-0.040303125977516174
1686343333141579800,11.270579833984375,0.00898672640323639,-0.005817487370222807,-0.01983642391860485
1686343333151598600,11.2805986328125,0.0038111393805593252,-0.002502650720998645,-0.00416931277140975
1686343333161617700,11.29061767578125,0.006433726754039526,0.0029966216534376144,0.012953195720911026
1686343333171636700,11.30063671875,0.009867340326309204,0.005587344989180565,0.011916427873075008
1686343333181655800,11.31065576171875,0.014405746012926102,-0.002346380613744259,0.010084717534482479
1686343333191674600,11.320674560546875,0.012868302874267101,-0.01736447960138321,0.006557093933224678
1686343333201693000,11.33069287109375,0.012634106911718845,-0.022770171985030174,0.008194586262106895
1686343333211712000,11.3407119140625,0.008052404969930649,-0.02160903438925743,0.015222668647766113
1686343333221730800,11.350730712890625,0.0006329361349344254,-0.003595757996663451,0.00483968760818243
1686343333231750000,11.36075,0.00045264000073075294,0.017399806529283524,-0.007471573539078236
1686343333241769000,11.37076904296875,0.0007256139069795609,0.03018404170870781,-0.029773151502013206
1686343333251787800,11.380787841796876,0.0014728968963027,0.025172241032123566,-0.03689391165971756
1686343333261806800,11.390806884765626,0.003907558508217335,0.010745630599558353,-0.03093641996383667
1686343333271825700,11.40082568359375,0.00046382518485188484,0.006092289462685585,-0.017500240355730057
1686343333281844700,11.4108447265625,-0.0024867309257388115,-0.003709569340571761,-0.0009025286417454481
1686343333291862800,11.42086279296875,0.0005783010274171829,-0.009826317429542542,0.004245894029736519
1686343333301881900,11.4308818359375,-0.003266588319092989,-0.015573220327496529,0.012147929519414902
1686343333311901000,11.44090087890625,-0.0010138200595974922,-0.01882360875606537,0.01502947136759758
1686343333321919700,11.450919677734374,-0.004373457282781601,-0.019245490431785583,0.007700815796852112
1686343333331938800,11.460938720703124,-0.0037747779861092567,-0.008050626143813133,-0.006430183537304401
1686343333341958000,11.4709580078125,-0.0038424283266067505,0.007857412099838257,-0.02344372123479843
1686343333351977000,11.48097705078125,-0.00588533841073513,0.019583575427532196,-0.036278024315834045
1686343333361995800,11.490995849609375,-0.0011572088114917278,0.01530635729432106,-0.04048380255699158
1686343333372014800,11.501014892578125,0.007692208979278803,-0.00543940206989646,-0.02436475269496441
1686343333382033000,11.511032958984375,0.004298490937799215,-0.014684037305414677,-0.005652358755469322
1686343333392051700,11.5210517578125,-0.0016757780686020851,-0.012484266422688961,-0.0018946381751447916
1686343333402071600,11.531071533203125,-0.008625829592347145,-0.0065430207177996635,-0.0073439981788396835
1686343333412090400,11.54109033203125,-0.010876467451453209,0.006660399027168751,-0.021913619711995125
1686343333422109400,11.551109375,-0.013443767093122005,0.021035490557551384,-0.025271926075220108
1686343333432128500,11.56112841796875,-0.016017712652683258,0.0290092620998621,-0.020149335265159607
1686343333442147600,11.571147705078126,-0.010832186788320541,0.029941964894533157,-0.012767492793500423
1686343333452166400,11.58116650390625,-0.019578274339437485,0.02472936175763607,-0.002230162965133786
1686343333462184400,11.591184326171875,-0.007136738859117031,0.006658665370196104,0.004458208568394184
1686343333472203500,11.60120361328125,0.010601244866847992,-0.007671271916478872,-0.001506206812337041
1686343333482222300,11.611222412109376,0.011349054053425789,-0.013443761505186558,-0.004384483210742474
1686343333492241400,11.621241455078126,0.0187076348811388,-0.013670130632817745,-0.006192769389599562
1686343333502260500,11.631260498046874,0.01919635757803917,-0.00779619999229908,-0.00435859989374876
1686343333512279600,11.641279541015624,0.017722297459840775,-0.007546928711235523,0.006631999276578426
1686343333522298400,11.65129833984375,0.008711777627468109,-0.013555875979363918,0.0084711704403162
1686343333532317400,11.6613173828125,0.005081889219582081,-0.012275162152945995,-0.0007982286624610424
1686343333542336500,11.67133642578125,0.002134711481630802,-0.0035095291677862406,-0.020079251378774643
1686343333552354300,11.681354248046874,0.003956313710659742,0.01100789476186037,-0.040489718317985535
1686343333562373400,11.691373291015625,0.009964294731616974,0.004426648840308189,-0.04522290080785751
1686343333572392400,11.701392333984375,0.012237036600708961,-0.018580399453639984,-0.043125659227371216
1686343333582411300,11.711411376953125,0.012974938377737999,-0.04155579209327698,-0.0449969619512558
1686343333592430300,11.721430419921875,0.013917164877057076,-0.0534803606569767,-0.04312768951058388
1686343333602449400,11.731449462890625,0.011895086616277695,-0.06800813972949982,-0.04165586084127426
1686343333612468500,11.741468505859375,0.02065528929233551,-0.067061647772789,-0.048184867948293686
1686343333622487300,11.7514873046875,0.04238578677177429,-0.04445932060480118,-0.06521167606115341
1686343333632506400,11.76150634765625,0.04641515016555786,-0.03509697690606117,-0.06518770754337311
1686343333642524400,11.7715244140625,0.0426386296749115,-0.02674473077058792,-0.05192708596587181
1686343333652543200,11.781543212890625,0.033827297389507294,-0.017428727820515633,-0.04978856444358826
1686343333662562300,11.791562255859375,0.01860514096915722,0.00036993948742747307,-0.04948459938168526
1686343333672581400,11.801581298828125,0.005199055187404156,0.0108990129083395,-0.04834796115756035
1686343333682600400,11.811600341796876,0.0003756936639547348,0.00637053232640028,-0.05097990855574608
1686343333692619300,11.821619384765626,0.014614017680287361,-0.0011944433208554983,-0.050359394401311874
1686343333702638300,11.831638427734376,0.03185495734214783,-0.010553245432674885,-0.03909623995423317
1686343333712657400,11.841657470703124,0.0385056734085083,-0.030918704345822334,-0.02284429781138897
1686343333722676500,11.851676513671874,0.041518788784742355,-0.04848231002688408,-0.0011712356936186552
1686343333732694300,11.8616943359375,0.03209865838289261,-0.05564194917678833,0.0133206220343709
1686343333742713300,11.87171337890625,0.03564984351396561,-0.050673309713602066,0.017642073333263397
1686343333752732400,11.881732421875,0.03911275416612625,-0.031276438385248184,0.020269813016057014
1686343333762751200,11.891751220703124,0.04761556535959244,-0.015369629487395287,0.023237699642777443
1686343333772770300,11.901770263671875,0.05311419442296028,-0.012374905869364738,0.03170894831418991
1686343333782789400,11.911789306640625,0.059322502464056015,-0.011231082491576672,0.036630693823099136
1686343333792808200,11.92180810546875,0.07010271400213242,-0.006959904916584492,0.04267686977982521
1686343333802827300,11.9318271484375,0.07421517372131348,0.00038331770338118076,0.0425092913210392
1686343333812845600,11.941845458984375,0.07314778119325638,0.010361915454268456,0.03359702229499817
1686343333822864400,11.951864501953125,0.06924764066934586,0.01763584464788437,0.021904580295085907
1686343333832883500,11.961883544921875,0.05944401025772095,0.023402120918035507,0.0037138592451810837
1686343333842902500,11.971902587890625,0.04514717310667038,0.026544896885752678,-0.015329979360103607
1686343333852921600,11.981921630859375,0.04418470710515976,0.02203882671892643,-0.02503427118062973
1686343333862940400,11.9919404296875,0.03546012565493584,0.011753042228519917,-0.022144043818116188
1686343333872959500,12.00195947265625,0.017174329608678818,-0.004383849911391735,-0.011245323345065117
1686343333882978600,12.011978515625,0.00504202488809824,-0.026867086067795753,0.014727029949426651
1686343333892997400,12.021997314453126,-0.008654345758259296,-0.04533451050519943,0.04090910032391548
1686343333903015400,12.032015380859375,-0.0075600845739245415,-0.026740916073322296,0.05176835507154465
1686343333913034500,12.042034423828126,0.01031744945794344,-0.010225322097539902,0.042844634503126144
1686343333923053600,12.052053466796876,0.02174229361116886,-0.011038249358534813,0.01486664917320013
1686343333933072400,12.062072265625,0.03546636179089546,-0.007546844892203808,-0.024916183203458786
1686343333943091500,12.072091552734374,0.037128712981939316,-0.015094155445694923,-0.0718906819820404
1686343333953110500,12.082110595703124,0.017369922250509262,-0.010697541758418083,-0.11294357478618622
1686343333963129300,12.09212939453125,-0.0033305040560662746,-0.0005300890188664198,-0.13720214366912842
1686343333973148400,12.1021484375,-0.02263149619102478,0.014619569294154644,-0.1319171041250229
1686343333983166500,12.11216650390625,-0.037338972091674805,0.009512347169220448,-0.10772079974412918
1686343333993185300,12.122185302734374,-0.033616676926612854,0.000652276212349534,-0.07348079979419708
1686343334003204400,12.132204345703125,-0.018812302500009537,-0.00942309945821762,-0.041120197623968124
1686343334013223400,12.142223388671875,-0.003966512158513069,-0.03680465370416641,0.007197003345936537
1686343334023242500,12.152242431640625,0.0000897417776286602,-0.04021625593304634,0.03567824512720108
1686343334033261300,12.16226123046875,0.0002442053519189358,-0.02022683247923851,0.044261347502470016
1686343334043280400,12.1722802734375,0.0029648453928530216,0.014825775288045406,0.01988079771399498
1686343334053299500,12.182299560546875,0.021604575216770172,0.029416438192129135,-0.015308879315853119
1686343334063318500,12.192318603515625,0.038621947169303894,0.014857620000839233,-0.030606625601649284
1686343334073336300,12.20233642578125,0.045124590396881104,-0.013125812634825706,-0.024788150563836098
1686343334083355400,12.21235546875,0.02547636814415455,-0.023506276309490204,-0.012094147503376007
1686343334093374500,12.22237451171875,0.017251992598176003,-0.005550178699195385,-0.0016516264295205474
