"Time (s)","Acceleration x (m/s^2)","Acceleration y (m/s^2)","Acceleration z (m/s^2)"
3.489578200E-2,-2.811865807E0,-1.280548954E1,-6.736393929E0
3.741833400E-2,-2.775973320E0,-1.285125256E1,-6.695715904E0
3.994343800E-2,-2.701496840E0,-1.274088287E1,-6.458527565E0
4.246854200E-2,-2.658426046E0,-1.271456242E1,-6.271588326E0
4.499645900E-2,-2.711068153E0,-1.265713406E1,-6.163911343E0
4.751885500E-2,-2.833401203E0,-1.264517021E1,-6.037091732E0
5.003937500E-2,-2.969791889E0,-1.270020485E1,-5.893223286E0
5.266468800E-2,-3.106482029E0,-1.285125256E1,-5.749653816E0
5.518520900E-2,-3.204587698E0,-1.302353573E1,-5.498108387E0
5.770573000E-2,-3.331706524E0,-1.319611740E1,-5.176871777E0
6.022625000E-2,-3.391526937E0,-1.338305664E1,-4.765007019E0
6.022630200E-2,-3.374777317E0,-1.356969738E1,-4.192524433E0
6.520010500E-2,-3.132802963E0,-1.373031521E1,-3.531208038E0
6.772062500E-2,-2.826222658E0,-1.399861050E1,-2.776571512E0
7.026468800E-2,-2.550748825E0,-1.417328644E1,-2.062912226E0
7.280880200E-2,-2.344667196E0,-1.416371536E1,-1.387238979E0
7.535286500E-2,-1.990230203E0,-1.405125237E1,-7.740781307E-1
7.789692700E-2,-1.611566067E0,-1.394118309E1,-4.938187599E-1
8.041744800E-2,-1.249950767E0,-1.378295708E1,-3.595215976E-1
8.295526100E-2,-9.266205430E-1,-1.355773354E1,-1.417747438E-1
8.544385500E-2,-5.479564071E-1,-1.329900932E1,2.105683982E-1
8.792588600E-2,-2.318046987E-1,-1.302114296E1,4.091726840E-1
9.053687500E-2,-1.193420291E-1,-1.274327564E1,5.530411601E-1
9.301921900E-2,7.776673418E-3,-1.247498131E1,7.974081635E-1
9.550125000E-2,6.759724021E-2,-1.215882874E1,1.048953652E0
9.815520900E-2,7.477571070E-2,-1.186421299E1,1.350748420E0
1.005946360E-1,-1.615155302E-2,-1.159113216E1,1.647757530E0
1.031197400E-1,-2.054836452E-1,-1.124626637E1,1.925624013E0
1.056017710E-1,-5.096712112E-1,-1.093938732E1,2.275275230E0
1.081852090E-1,-7.731808424E-1,-1.064477062E1,2.651546478E0
1.107686460E-1,-1.003190875E0,-1.042911720E1,3.061018467E0
1.132202610E-1,-1.221236825E0,-1.031426239E1,3.432504177E0
1.157453650E-1,-1.333699465E0,-1.025204849E1,3.818047523E0
1.182705210E-1,-1.420140266E0,-1.013450146E1,4.261318207E0
1.207956250E-1,-1.477568030E0,-9.870991707E0,4.677968502E0
1.233207820E-1,-1.585245013E0,-9.559625626E0,5.027918816E0
1.258458860E-1,-1.556531072E0,-9.293723106E0,5.356034279E0
1.283710420E-1,-1.525424480E0,-9.006285667E0,5.727221012E0
1.308961980E-1,-1.417747378E0,-8.821739197E0,6.158527374E0
1.334212500E-1,-1.336092353E0,-8.682954788E0,6.587440968E0
1.359464070E-1,-1.340878010E0,-8.510373116E0,6.925127983E0
1.384715630E-1,-1.340878010E0,-8.362017632E0,7.131209850E0
1.409966670E-1,-1.302592874E0,-8.323732376E0,7.253243446E0
1.435217710E-1,-1.228415370E0,-8.249256134E0,7.238886833E0
1.460469270E-1,-1.166201949E0,-8.210970879E0,7.121638298E0
1.485720840E-1,-1.072582722E0,-8.117650986E0,6.809973240E0
1.510971360E-1,-1.094118118E0,-7.937890053E0,6.345466614E0
1.536222920E-1,-1.175773263E0,-7.763214111E0,5.727221012E0
1.561473960E-1,-1.324128270E0,-7.588238716E0,5.049454212E0
1.586725520E-1,-1.456032634E0,-7.502097130E0,4.266103745E0
1.611977090E-1,-1.511067510E0,-7.489833832E0,3.415754318E0
1.637228130E-1,-1.503889084E0,-7.418049335E0,2.428714991E0
1.662479170E-1,-1.460818172E0,-7.441977501E0,1.173380375E0
1.687730730E-1,-1.393520117E0,-7.557132244E0,-4.124628007E-1
1.712981770E-1,-1.331306696E0,-7.686344624E0,-2.000698805E0
1.738233340E-1,-1.321735382E0,-7.866105556E0,-3.519243956E0
1.763484380E-1,-1.309771299E0,-8.012067795E0,-4.954339504E0
1.788735420E-1,-1.254736423E0,-8.141578674E0,-6.269195557E0
1.813986980E-1,-1.185344458E0,-8.172685623E0,-6.992724895E0
1.839238020E-1,-1.134796143E0,-8.151150703E0,-7.337590694E0
1.864489590E-1,-1.228415370E0,-8.155936241E0,-7.733004570E0
1.889740630E-1,-1.302592874E0,-8.230113029E0,-8.303094864E0
1.914992190E-1,-1.408176184E0,-8.230113029E0,-8.894720078E0
1.940243230E-1,-1.518245935E0,-8.304590225E0,-9.462417603E0
1.965494270E-1,-1.534995675E0,-8.345268250E0,-9.836296082E0
1.990745840E-1,-1.534995675E0,-8.328517914E0,-9.845867157E0
2.015996880E-1,-1.506281853E0,-8.239685059E0,-9.591928482E0
2.041248440E-1,-1.690828323E0,-8.199007034E0,-8.969196320E0
2.066499480E-1,-1.934896231E0,-8.187042236E0,-8.027621269E0
2.091751050E-1,-2.093121529E0,-8.189435959E0,-7.093522549E0
2.117002090E-1,-2.234597206E0,-8.086544037E0,-6.147161484E0
2.142253130E-1,-2.347059965E0,-8.069794655E0,-5.217848778E0
2.167504690E-1,-2.522035122E0,-7.887640953E0,-4.199702740E0
2.192755730E-1,-2.684746981E0,-7.681559086E0,-3.277269602E0
2.218007300E-1,-2.826222658E0,-7.480262756E0,-2.335993052E0
2.243258340E-1,-2.914757013E0,-7.226623535E0,-1.569392562E0
2.268509900E-1,-2.969791889E0,-6.869494915E0,-8.171489239E-1
2.293760940E-1,-3.068196774E0,-6.491129398E0,-1.728814393E-1
2.319012500E-1,-3.151945591E0,-6.110072613E0,3.613162339E-1
2.344263550E-1,-3.324527979E0,-5.686244011E0,8.045865893E-1
2.369514590E-1,-3.501596928E0,-5.231009483E0,1.111167073E0
2.394766150E-1,-3.700500250E0,-4.804488659E0,1.333998680E0
2.420017190E-1,-3.861118555E0,-4.361517429E0,1.362712502E0
2.445268750E-1,-3.760320902E0,-3.975674868E0,9.819545746E-1
2.470519800E-1,-3.503989697E0,-3.695415497E0,4.429712892E-1
2.495771360E-1,-3.317349434E0,-3.496811152E0,1.483550072E-1
2.521022400E-1,-3.125624657E0,-3.228515863E0,-1.250249892E-1
2.546273960E-1,-2.881257534E0,-2.907279491E0,-4.459623098E-1
2.571525000E-1,-2.670390129E0,-2.655734062E0,-7.070791125E-1
2.596776050E-1,-2.512463808E0,-2.267797709E0,-9.681958556E-1
2.622027610E-1,-2.289632082E0,-1.949253201E0,-1.173978567E0
2.647278650E-1,-2.308774710E0,-1.704886079E0,-1.185942769E0
2.672529690E-1,-2.366202593E0,-1.383948803E0,-1.353739381E0
2.697781250E-1,-2.375773668E0,-1.115653515E0,-1.500000715E0
2.723032300E-1,-2.373380899E0,-9.933205247E-1,-1.614856124E0
2.748283860E-1,-2.382952213E0,-8.090731502E-1,-1.662712693E0
2.773534900E-1,-2.380559444E0,-7.226324677E-1,-1.691426516E0
2.798786460E-1,-2.435594320E0,-7.034898400E-1,-1.751546144E0
2.824037500E-1,-2.461915493E0,-8.138588071E-1,-1.859223247E0
2.849288550E-1,-2.440380096E0,-9.669994712E-1,-1.904686809E0
2.874540110E-1,-2.577069998E0,-1.043569803E0,-1.976471543E0
2.899791670E-1,-2.764009237E0,-1.096511006E0,-2.024626970E0
2.925042710E-1,-2.914757013E0,-1.206580877E0,-2.041376829E0
2.950294270E-1,-3.017947674E0,-1.415055513E0,-2.139482498E0
2.975545320E-1,-3.216551781E0,-1.450947881E0,-2.216052771E0
3.000796360E-1,-3.470490217E0,-1.544267893E0,-2.177767754E0
3.026047920E-1,-3.681357622E0,-1.640279889E0,-2.204088688E0
3.051298960E-1,-3.877868176E0,-1.735992789E0,-2.230409861E0
3.076550520E-1,-3.980759621E0,-1.939681888E0,-2.184946060E0
3.101801570E-1,-4.069293976E0,-2.174477577E0,-2.098804474E0
3.127052610E-1,-4.143770695E0,-2.270190477E0,-2.043769598E0
3.152304170E-1,-4.105485439E0,-2.414058924E0,-1.983649969E0
3.177555210E-1,-4.057330132E0,-2.519343138E0,-1.844866276E0
3.202806770E-1,-4.098307133E0,-2.545664072E0,-1.806581140E0
3.228057820E-1,-4.002295017E0,-2.581556559E0,-1.775474429E0
3.253308860E-1,-3.930510283E0,-2.687139750E0,-1.847259045E0
3.278560420E-1,-3.846761465E0,-2.708675146E0,-1.866401672E0
3.303811460E-1,-3.731606960E0,-2.756531715E0,-1.990828395E0
3.329063020E-1,-3.600001574E0,-2.828316450E0,-2.220838547E0
3.354314070E-1,-3.537489176E0,-2.775674343E0,-2.381456852E0
3.379565630E-1,-3.484847069E0,-2.739781857E0,-2.635395050E0
3.404816670E-1,-3.499203920E0,-2.617448807E0,-2.915654421E0
3.430067710E-1,-3.580859184E0,-2.524128675E0,-3.136093140E0
3.455319270E-1,-3.640679598E0,-2.459522486E0,-3.382853031E0
3.480570840E-1,-3.664607763E0,-2.368296146E0,-3.514458179E0
3.506985420E-1,-3.671786308E0,-2.248655081E0,-3.655933857E0
3.532236460E-1,-3.707678795E0,-2.205584288E0,-3.768396616E0
3.557488020E-1,-3.695714474E0,-2.253440619E0,-3.847359657E0
3.582739070E-1,-3.647858143E0,-2.339582443E0,-3.907479286E0
3.607990630E-1,-3.571287870E0,-2.322832584E0,-3.895515203E0
3.633241670E-1,-3.518346548E0,-2.488236427E0,-3.912265062E0
3.658493230E-1,-3.448954821E0,-2.624627352E0,-3.893122435E0
3.683744270E-1,-3.355634689E0,-2.799602509E0,-3.988835335E0
3.708995320E-1,-3.271586657E0,-3.000898600E0,-4.024727821E0
3.734246880E-1,-3.135195971E0,-3.240479946E0,-4.178167343E0
3.759885940E-1,-3.013161898E0,-3.451048374E0,-4.290630341E0
3.784748960E-1,-2.893221617E0,-3.633202076E0,-4.415356159E0
3.810000520E-1,-2.759223700E0,-3.781856298E0,-4.599603176E0
3.835251570E-1,-2.615355253E0,-3.956532240E0,-4.784149647E0
3.860503130E-1,-2.591426849E0,-4.109972000E0,-4.932504654E0
3.885754170E-1,-2.541177750E0,-4.217648983E0,-5.090730190E0
3.911005730E-1,-2.550748825E0,-4.337589264E0,-5.145765305E0
3.936256770E-1,-2.579462767E0,-4.466801643E0,-5.289633751E0
3.961508340E-1,-2.641676188E0,-4.512265205E0,-5.404489040E0
3.986759380E-1,-2.807080030E0,-4.512265205E0,-5.591428280E0
4.012010940E-1,-2.890828848E0,-4.562813759E0,-5.780760288E0
4.037261980E-1,-2.960220814E0,-4.577170849E0,-6.008078575E0
4.062513020E-1,-3.017947674E0,-4.622634411E0,-6.293422699E0
4.087764590E-1,-3.049054146E0,-4.653740883E0,-6.585646152E0
4.113015630E-1,-3.113660574E0,-4.711168766E0,-6.858726978E0
4.138267190E-1,-3.149552822E0,-4.749454021E0,-7.129415035E0
4.163518230E-1,-3.147160053E0,-4.778167725E0,-7.457530975E0
4.188769800E-1,-3.120838881E0,-4.792524815E0,-7.711469173E0
4.214020840E-1,-3.111267567E0,-4.802095890E0,-8.003692627E0
4.239271880E-1,-3.106482029E0,-4.778167725E0,-8.327022552E0
4.264523440E-1,-3.032304525E0,-4.773382187E0,-8.674281120E0
4.289774480E-1,-3.051447153E0,-4.759025097E0,-9.019445419E0
4.315026050E-1,-3.017947674E0,-4.713561535E0,-9.433703423E0
4.340665110E-1,-2.996113062E0,-4.694418907E0,-9.917651176E0
4.365528130E-1,-2.996113062E0,-4.634598255E0,-1.041595650E1
4.390779690E-1,-2.981756210E0,-4.627419949E0,-1.098126125E1
4.416419270E-1,-3.010469913E0,-4.622634411E0,-1.157767200E1
4.441282300E-1,-3.051447153E0,-4.584349155E0,-1.226530933E1
4.466533340E-1,-3.125624657E0,-4.593920231E0,-1.310130215E1
4.491784900E-1,-3.163909674E0,-4.625027180E0,-1.408834171E1
4.517035940E-1,-3.144767046E0,-4.634598255E0,-1.504158211E1
4.542675520E-1,-3.381955624E0,-4.660919189E0,-1.652453423E1
4.567538550E-1,-3.892225027E0,-4.814060211E0,-1.812952042E1
4.592789590E-1,-4.512564182E0,-5.048855782E0,-1.954995918E1
4.618041150E-1,-5.245665550E0,-5.449055195E0,-2.082204437E1
4.643680210E-1,-6.100800514E0,-5.899504185E0,-2.201247215E1
4.668543750E-1,-7.003791809E0,-6.500700951E0,-2.126022911E1
4.693794800E-1,-7.981259823E0,-7.195217609E0,-1.862782478E1
4.719046360E-1,-8.980263710E0,-7.868498325E0,-1.429651737E1
4.744685420E-1,-9.758828163E0,-8.587242126E0,-8.937790871E0
4.769548960E-1,-9.873683929E0,-9.334401131E0,-3.780360699E0
4.794800000E-1,-9.396913528E0,-1.013689423E1,3.798605874E-2
4.820051570E-1,-8.362017632E0,-1.084845924E1,1.861017823E0
4.845302610E-1,-7.344171047E0,-1.146879864E1,1.374676585E0
4.870553650E-1,-6.745068073E0,-1.205833054E1,-9.128618240E-1
4.895805210E-1,-6.491428852E0,-1.255872917E1,-4.139882088E0
4.921056250E-1,-6.235097408E0,-1.308096313E1,-7.162914753E0
4.946307820E-1,-5.751149178E0,-1.358883953E1,-9.261420250E0
4.971558860E-1,-5.171487808E0,-1.395314693E1,-1.014048290E1
4.996810420E-1,-4.577170849E0,-1.400100327E1,-9.948758125E0
5.022061460E-1,-4.249054909E0,-1.386431313E1,-9.158229828E0
5.047312500E-1,-4.244269371E0,-1.353619766E1,-8.626424789E0
5.072564070E-1,-4.404887199E0,-1.310010624E1,-8.779864311E0
5.097815110E-1,-4.752145767E0,-1.265474129E1,-9.235098839E0
5.123066670E-1,-5.274379253E0,-1.209900856E1,-9.462417603E0
5.148317710E-1,-5.796612740E0,-1.143051338E1,-8.942576408E0
5.173568750E-1,-6.287739754E0,-1.060409260E1,-7.601100445E0
5.198820320E-1,-6.596713066E0,-9.658030510E0,-5.517251015E0
5.224071360E-1,-6.632605076E0,-8.587242126E0,-3.250948668E0
5.249322920E-1,-6.505785465E0,-7.526025295E0,-1.411167145E0
5.274574480E-1,-6.316453457E0,-6.486343861E0,-5.177469850E-1
5.299825520E-1,-6.040979862E0,-5.664708614E0,-5.201398134E-1
5.325076570E-1,-5.734399319E0,-4.993820667E0,-1.181157112E0
5.350328130E-1,-5.504389286E0,-4.512265205E0,-2.103590250E0
5.375579170E-1,-5.341378212E0,-4.078865528E0,-3.078665495E0
5.400830730E-1,-5.171487808E0,-3.728914976E0,-4.024727821E0
5.426081770E-1,-4.878965378E0,-3.580559969E0,-4.836791992E0
5.451333340E-1,-4.562813759E0,-3.535096407E0,-5.313561916E0
5.476584380E-1,-4.213162422E0,-3.580559969E0,-5.430809975E0
5.501835940E-1,-3.875475407E0,-3.812962770E0,-5.430809975E0
5.527086980E-1,-3.573680639E0,-4.009174347E0,-5.411667347E0
5.552338550E-1,-3.271586657E0,-4.406980991E0,-5.335097313E0
5.577589590E-1,-3.051447153E0,-4.888536453E0,-5.164907455E0
5.602841150E-1,-2.986541748E0,-5.516054630E0,-4.906183720E0
5.628092190E-1,-2.938685417E0,-6.150750637E0,-4.733900547E0
5.653343230E-1,-2.991327524E0,-6.840780735E0,-4.666602135E0
5.678594800E-1,-3.046661377E0,-7.535596848E0,-4.645066738E0
5.703845840E-1,-3.077768087E0,-8.172685623E0,-4.659423828E0
5.729097400E-1,-2.993720293E0,-8.709276199E0,-4.558925152E0
5.754736980E-1,-2.893221617E0,-9.250652313E0,-4.381557465E0
5.779600000E-1,-2.828615427E0,-9.921540260E0,-4.077369690E0
5.804851050E-1,-2.780759096E0,-1.056102180E1,-3.665505171E0
5.830102610E-1,-2.795115948E0,-1.108086300E1,-3.227020502E0
5.855353650E-1,-2.888436079E0,-1.156481075E1,-2.982653379E0
5.880605210E-1,-2.981756210E0,-1.193121147E1,-2.997010469E0
5.905856250E-1,-2.993720293E0,-1.224736404E1,-3.160021305E0
5.931107820E-1,-3.037090063E0,-1.253480148E1,-3.428316593E0
5.956358860E-1,-3.013161898E0,-1.261645603E1,-3.742075443E0
5.981998440E-1,-2.941078186E0,-1.261406326E1,-3.981656790E0
6.006823440E-1,-2.888436079E0,-1.251087284E1,-4.168596268E0
6.031993230E-1,-2.854936600E0,-1.227607727E1,-4.283451557E0
6.057163020E-1,-2.749652386E0,-1.198863983E1,-4.324129581E0
6.082332820E-1,-2.656033039E0,-1.161505985E1,-4.374378681E0
6.107502610E-1,-2.572284460E0,-1.119811058E1,-4.331307888E0
6.132672400E-1,-2.449951172E0,-1.076949692E1,-4.300201416E0
6.157842190E-1,-2.421237469E0,-1.028315544E1,-4.151846409E0
6.183011980E-1,-2.414058924E0,-9.801599503E0,-4.101297855E0
6.208181770E-1,-2.414058924E0,-9.312865257E0,-3.996013880E0
6.233351570E-1,-2.392523527E0,-8.860322952E0,-3.897907972E0
6.258521360E-1,-2.406880379E0,-8.426624298E0,-3.773182154E0
6.283691150E-1,-2.416451693E0,-8.048258781E0,-3.732504129E0
6.309839070E-1,-2.428415775E0,-7.695915699E0,-3.684647799E0
6.335008860E-1,-2.418844700E0,-7.370193005E0,-3.718147278E0
6.360178650E-1,-2.430808783E0,-7.080362320E0,-3.677469254E0
6.385348440E-1,-2.442772865E0,-6.840780735E0,-3.679862022E0
6.410518230E-1,-2.426023006E0,-6.651448727E0,-3.658326626E0
6.435688020E-1,-2.416451693E0,-6.474380016E0,-3.672683716E0
6.460857820E-1,-2.347059965E0,-6.344868183E0,-3.710968733E0
6.486027610E-1,-2.339881420E0,-6.294619083E0,-3.699004650E0
6.511197400E-1,-2.299203396E0,-6.239583969E0,-3.715754509E0
6.536367190E-1,-2.256132603E0,-6.227620125E0,-3.687040567E0
6.561536980E-1,-2.225025892E0,-6.280261993E0,-3.675076485E0
6.586706770E-1,-2.114656925E0,-6.419045925E0,-3.583850145E0
6.612854690E-1,-2.050050735E0,-6.567699909E0,-3.545564890E0
6.638024480E-1,-1.942373753E0,-6.771389008E0,-3.466601849E0
6.663194270E-1,-1.827219248E0,-7.051648140E0,-3.406781197E0
6.688364070E-1,-1.707578063E0,-7.334300518E0,-3.315554857E0
6.713533860E-1,-1.578066587E0,-7.621738434E0,-3.296412230E0
6.738703650E-1,-1.352842093E0,-7.971389771E0,-3.171985626E0
6.763873440E-1,-1.134796143E0,-8.378767967E0,-3.056830883E0
6.789043230E-1,-9.505487680E-1,-8.716454506E0,-2.985046148E0
6.814213020E-1,-7.588238716E-1,-9.023035049E0,-2.949153900E0
6.839382820E-1,-5.407779217E-1,-9.365508080E0,-2.944368362E0
6.864552610E-1,-3.275175989E-1,-9.677172661E0,-2.889333248E0
6.889722400E-1,-1.695913076E-1,-9.986145973E0,-2.889333248E0
6.915870320E-1,3.649054468E-2,-1.025683403E1,-2.851048231E0
6.941040110E-1,2.090728730E-1,-1.047248745E1,-2.767000198E0
6.966209900E-1,3.669991791E-1,-1.069980526E1,-2.704786777E0
6.991379690E-1,5.156532526E-1,-1.081735325E1,-2.628216505E0
7.016549480E-1,6.041877270E-1,-1.091545868E1,-2.542074919E0
7.041719270E-1,6.879364848E-1,-1.086281681E1,-2.462812662E0
7.066889070E-1,7.935197949E-1,-1.081496048E1,-2.381456852E0
7.092058860E-1,8.198408484E-1,-1.075753212E1,-2.350350142E0
7.117228650E-1,8.724829555E-1,-1.067109203E1,-2.307279348E0
7.142398440E-1,8.892326951E-1,-1.052034378E1,-2.256730795E0
7.167568230E-1,8.509475589E-1,-1.030708313E1,-2.228017092E0
7.192738020E-1,8.533403873E-1,-1.007946587E1,-2.196910381E0
7.218885940E-1,8.509475589E-1,-9.892526627E0,-2.180160522E0
7.244055730E-1,8.126623631E-1,-9.653244972E0,-2.211267233E0
7.269225520E-1,6.927221417E-1,-9.478269577E0,-2.242373943E0
7.294395320E-1,6.233302951E-1,-9.308079720E0,-2.273779631E0
7.319565110E-1,5.539384484E-1,-9.128618240E0,-2.295315027E0
7.344734900E-1,4.148556292E-1,-8.915358543E0,-2.328814745E0
7.369904690E-1,2.784647346E-1,-8.761918068E0,-2.388635159E0
7.395074480E-1,8.195417374E-2,-8.613563538E0,-2.520240545E0
7.420244270E-1,-1.073779166E-1,-8.474480629E0,-2.517847538E0
7.445414070E-1,-2.748754919E-1,-8.431409836E0,-2.486740828E0
7.470583860E-1,-4.953143001E-1,-8.383553505E0,-2.412563324E0
7.495753650E-1,-6.702894568E-1,-8.393124580E0,-2.355135679E0
7.521901570E-1,-9.337990284E-1,-8.390731812E0,-2.429313183E0
7.547071360E-1,-1.249950767E0,-8.397910118E0,-2.474776745E0
7.572241150E-1,-1.511067510E0,-8.409873962E0,-2.539682150E0
7.597410940E-1,-1.815255046E0,-8.402695656E0,-2.654537678E0
7.622580730E-1,-2.073979139E0,-8.424231529E0,-2.769393206E0
7.647750520E-1,-2.335095882E0,-8.474480629E0,-2.822334290E0
7.672920320E-1,-2.569891453E0,-8.486444473E0,-2.855833769E0
7.698090110E-1,-2.761616468E0,-8.500801086E0,-2.889333248E0
7.723259900E-1,-2.847758055E0,-8.546265602E0,-2.891726255E0
7.748429690E-1,-2.900400162E0,-8.606385231E0,-2.882154942E0
7.773599480E-1,-2.933899641E0,-8.666205406E0,-2.846262455E0
7.798769270E-1,-2.890828848E0,-8.697312355E0,-2.745464802E0
7.824917190E-1,-2.912364244E0,-8.702097893E0,-2.633002281E0
7.850086980E-1,-2.826222658E0,-8.673383713E0,-2.513062000E0
7.875256770E-1,-2.732603550E0,-8.678169250E0,-2.328814745E0
7.900426570E-1,-2.512463808E0,-8.685347557E0,-2.137089729E0
7.925596360E-1,-2.327917337E0,-8.632705688E0,-1.993221283E0
7.950766150E-1,-2.124228239E0,-8.615956306E0,-1.830509305E0
7.975935940E-1,-1.894218206E0,-8.572885513E0,-1.708176255E0
8.001105730E-1,-1.724327803E0,-8.584849358E0,-1.653141379E0
8.026275520E-1,-1.647458434E0,-8.632705688E0,-1.631605983E0
8.051445320E-1,-1.513460279E0,-8.623134613E0,-1.593320727E0
8.076615110E-1,-1.350449324E0,-8.599205971E0,-1.523928881E0
8.101784900E-1,-1.192523003E0,-8.584849358E0,-1.430309772E0
8.127933340E-1,-1.046261668E0,-8.560622215E0,-1.332203984E0
8.153103130E-1,-9.266205430E-1,-8.551051140E0,-1.255633712E0
8.178272920E-1,-7.660023570E-1,-8.553443909E0,-1.135693431E0
8.203442710E-1,-6.559324861E-1,-8.555836678E0,-1.037587762E0
8.228612500E-1,-6.104688644E-1,-8.507980347E0,-9.104689956E-1
8.253782300E-1,-5.838487148E-1,-8.436195374E0,-7.788637877E-1
8.278952090E-1,-5.886343718E-1,-8.397910118E0,-7.214360237E-1
8.304121880E-1,-5.312066078E-1,-8.321339607E0,-6.182455420E-1
8.329291670E-1,-5.551348329E-1,-8.256434441E0,-5.536393523E-1
8.354461460E-1,-5.647061467E-1,-8.175078392E0,-5.273182988E-1
8.379631250E-1,-6.005984545E-1,-8.069794655E0,-5.081757307E-1
8.404801050E-1,-6.846463680E-1,-8.012067795E0,-5.536393523E-1
8.430948960E-1,-7.827520967E-1,-7.952247143E0,-6.182455420E-1
8.456118750E-1,-8.114659786E-1,-7.846962929E0,-6.469594240E-1
8.481288550E-1,-9.361918569E-1,-7.741379261E0,-7.357929349E-1
8.506458340E-1,-1.108475089E0,-7.698308468E0,-8.338986635E-1
8.531628130E-1,-1.170987606E0,-7.600203037E0,-9.346963167E-1
8.556797920E-1,-1.362413406E0,-7.588238716E0,-1.083051324E0
8.581967710E-1,-1.575673699E0,-7.557132244E0,-1.207777262E0
8.607137500E-1,-1.714756489E0,-7.533204079E0,-1.365703583E0
8.632307300E-1,-1.920539260E0,-7.533204079E0,-1.533500195E0
8.657477090E-1,-2.133799553E0,-7.564310551E0,-1.643570065E0
8.682646880E-1,-2.347059965E0,-7.595417500E0,-1.782652855E0
8.707816670E-1,-2.490928411E0,-7.640881062E0,-1.890329838E0
8.733965110E-1,-2.615355253E0,-7.717451096E0,-1.916650891E0
8.759134900E-1,-2.744866610E0,-7.823034763E0,-2.015055656E0
8.784304690E-1,-2.775973320E0,-7.890033722E0,-2.129911184E0
8.809474480E-1,-2.761616468E0,-8.062616348E0,-2.244766712E0
8.834644270E-1,-2.814258575E0,-8.210970879E0,-2.324028969E0
8.859814070E-1,-2.775973320E0,-8.330910683E0,-2.410170555E0
8.884983860E-1,-2.651247501E0,-8.529515266E0,-2.563610315E0
8.910153650E-1,-2.514856577E0,-8.670990944E0,-2.625823736E0
8.935323440E-1,-2.411666155E0,-8.771489143E0,-2.688037157E0
8.960493230E-1,-2.284846544E0,-8.901000977E0,-2.867797852E0
8.985663020E-1,-2.148156643E0,-9.027820587E0,-2.970689297E0
9.010832820E-1,-2.054836512E0,-9.183652878E0,-3.126521826E0
9.036980730E-1,-1.922932148E0,-9.245866776E0,-3.267698526E0
9.062150520E-1,-1.879861236E0,-9.231510162E0,-3.315554857E0
9.087320320E-1,-1.872682810E0,-9.320044518E0,-3.361317635E0
9.112490110E-1,-1.879861236E0,-9.305686951E0,-3.397209883E0
9.137659900E-1,-1.959123492E0,-9.276973724E0,-3.378067255E0
9.162829690E-1,-2.014158487E0,-9.200403214E0,-3.366103172E0
9.187999480E-1,-2.117049932E0,-9.152546883E0,-3.425923824E0
9.213169270E-1,-2.227418661E0,-9.111868858E0,-3.440280676E0
9.238339070E-1,-2.330310106E0,-8.991928101E0,-3.504886866E0
9.263508860E-1,-2.426023006E0,-8.932107925E0,-3.519243956E0
9.288678650E-1,-2.533999205E0,-8.862715721E0,-3.571886063E0
9.313848440E-1,-2.622533560E0,-8.728418350E0,-3.581457376E0
9.340390110E-1,-2.651247501E0,-8.747561455E0,-3.603291750E0
9.365559900E-1,-2.691925526E0,-8.766703606E0,-3.622434378E0
9.390729690E-1,-2.694318295E0,-8.766703606E0,-3.696611881E0
9.415899480E-1,-2.684746981E0,-8.766703606E0,-3.768396616E0
9.441069270E-1,-2.603390932E0,-8.879466057E0,-3.809074640E0
9.466239070E-1,-2.493321180E0,-9.027820587E0,-3.873979807E0
9.491408860E-1,-2.306381941E0,-9.157332420E0,-3.979264021E0
9.516578650E-1,-2.136192322E0,-9.370592117E0,-4.024727821E0
9.541748440E-1,-1.891825438E0,-9.593125343E0,-4.060619831E0
9.566918230E-1,-1.686042666E0,-9.787242889E0,-4.072584152E0
9.592088020E-1,-1.441675663E0,-1.003639507E1,-4.055834293E0
9.617257820E-1,-1.182951689E0,-1.020419216E1,-4.017549038E0
9.643012500E-1,-9.601200819E-1,-1.040997505E1,-3.929014683E0
9.668182300E-1,-7.205387354E-1,-1.062562847E1,-3.770789385E0
9.693352090E-1,-5.503492355E-1,-1.081735325E1,-3.598206997E0
9.718521880E-1,-3.924229145E-1,-1.101625633E1,-3.346960783E0
9.743691670E-1,-2.294118702E-1,-1.118614674E1,-3.069094181E0
9.768861460E-1,-1.097707376E-1,-1.132044411E1,-2.827120066E0
9.794031250E-1,-8.973085321E-3,-1.145683479E1,-2.498705149E0
9.819201050E-1,5.324030295E-2,-1.150229836E1,-2.170589209E0
9.844370840E-1,1.106680483E-1,-1.155763245E1,-1.844866276E0
9.869540630E-1,1.226321608E-1,-1.155763245E1,-1.593320727E0
9.894710420E-1,5.802594870E-2,-1.163420296E1,-1.260419369E0
9.919880210E-1,-2.811566554E-2,-1.168923759E1,-9.873384237E-1
9.946028650E-1,-1.384846121E-1,-1.178524971E1,-7.262216806E-1
9.971198440E-1,-2.988037169E-1,-1.190010548E1,-5.919244885E-1
9.996368230E-1,-5.312066078E-1,-1.198863983E1,-4.603192508E-1
1.002153802E0,-7.540382147E-1,-1.202931786E1,-3.499503136E-1
1.004670782E0,-1.051047325E0,-1.200778198E1,-3.164508045E-1
1.007187761E0,-1.266700506E0,-1.201496029E1,-3.236292601E-1
1.009704740E0,-1.465603828E0,-1.196949673E1,-3.619144261E-1
1.012221719E0,-1.635494232E0,-1.196231842E1,-4.698905349E-1
1.014738698E0,-1.800898194E0,-1.192642593E1,-6.469594240E-1
1.017255677E0,-1.971087694E0,-1.185942745E1,-8.458628058E-1
1.019772657E0,-2.105085611E0,-1.179482079E1,-1.106979609E0
1.022289636E0,-2.234597206E0,-1.171795177E1,-1.447059512E0
1.024904480E0,-2.320738792E0,-1.165813065E1,-1.746760488E0
1.027421459E0,-2.299203396E0,-1.166291714E1,-2.015055656E0
1.029938438E0,-2.186441660E0,-1.167009544E1,-2.288136721E0
1.032455417E0,-2.105085611E0,-1.175384426E1,-2.522633314E0
1.034972396E0,-2.057229280E0,-1.182832050E1,-2.769393206E0
1.037489375E0,-2.057229280E0,-1.191685486E1,-2.918047190E0
1.040006355E0,-2.045265198E0,-1.200778198E1,-3.071486950E0
1.042523334E0,-2.102692842E0,-1.212293720E1,-3.217449188E0
1.045040313E0,-2.210669041E0,-1.220907879E1,-3.267698526E0
1.047557292E0,-2.246561289E0,-1.226889896E1,-3.303590775E0
1.050074271E0,-2.275275230E0,-1.247737408E1,-3.313162088E0
1.052591250E0,-2.299203396E0,-1.267149162E1,-3.289233923E0
1.055206042E0,-2.272882462E0,-1.279591846E1,-3.227020502E0
1.057723021E0,-2.284846544E0,-1.289193058E1,-3.054438114E0
1.060240000E0,-2.306381941E0,-1.304028511E1,-2.913261652E0
1.062756980E0,-2.282453775E0,-1.321526051E1,-2.690429926E0
1.065273959E0,-2.248954296E0,-1.338305664E1,-2.462812662E0
1.067790938E0,-2.232204437E0,-1.361755371E1,-2.239981174E0
1.070307917E0,-2.241775751E0,-1.388106346E1,-2.003091574E0
1.072824896E0,-2.181656122E0,-1.419272804E1,-1.756331801E0
1.075341875E0,-2.220240355E0,-1.450887966E1,-1.583749533E0
1.077858855E0,-2.306381941E0,-1.482024574E1,-1.341775298E0
1.080375834E0,-2.507678032E0,-1.512921906E1,-1.092622638E0
1.082892813E0,-2.718246460E0,-1.540229988E1,-8.195417523E-1
1.085507657E0,-2.998505831E0,-1.565863132E1,-5.105685592E-1
1.088024636E0,-3.271586657E0,-1.598435402E1,-1.561316848E-1
1.090541615E0,-3.633501291E0,-1.622872162E1,2.440679073E-1
1.093058594E0,-3.992723703E0,-1.644676781E1,7.016952634E-1
1.095575573E0,-4.268197536E0,-1.669352722E1,1.173380375E0
1.098092552E0,-4.455136776E0,-1.685145378E1,1.671685696E0
1.100609532E0,-4.651647091E0,-1.689243126E1,2.107777596E0
1.103126511E0,-4.780859470E0,-1.689243126E1,2.476571321E0
1.105643490E0,-4.835894585E0,-1.687089539E1,2.720938444E0
1.108160469E0,-4.955834866E0,-1.672463417E1,2.840878725E0
1.110677448E0,-4.996512890E0,-1.658315849E1,2.824128866E0
1.113194427E0,-4.984548569E0,-1.647787476E1,2.685046196E0
1.115808542E0,-5.070690155E0,-1.621436501E1,2.474178553E0
1.118332032E0,-5.099404335E0,-1.596042633E1,2.169991016E0
1.120855521E0,-4.948656559E0,-1.578784370E1,1.709970832E0
1.123379011E0,-4.733003139E0,-1.564188194E1,1.219143152E0
1.125902552E0,-4.603491783E0,-1.539033604E1,7.734799385E-1
1.128426042E0,-4.526921272E0,-1.515314770E1,3.086741269E-1
1.130949532E0,-4.376173496E0,-1.488245964E1,-1.561316848E-1
1.133473021E0,-4.194019794E0,-1.457827187E1,-5.297111273E-1
1.135996511E0,-4.155734539E0,-1.427886963E1,-8.817551732E-1
1.138520052E0,-4.155734539E0,-1.384038544E1,-1.207777262E0
1.141043542E0,-4.213162422E0,-1.332772255E1,-1.459023595E0
1.143567032E0,-4.282554150E0,-1.285364532E1,-1.636391640E0
1.146110157E0,-4.419244289E0,-1.238644600E1,-1.818545222E0
1.148633646E0,-4.562813759E0,-1.195035458E1,-1.971685886E0
1.151157136E0,-4.756931305E0,-1.145444202E1,-2.132304192E0
1.153680625E0,-4.955834866E0,-1.113350487E1,-2.268994093E0
1.156204167E0,-5.104189873E0,-1.083649540E1,-2.379063845E0
1.158727657E0,-5.231308460E0,-1.061127090E1,-2.460419893E0
1.161251146E0,-5.389235020E0,-1.038365364E1,-2.546860695E0
1.163774636E0,-5.458925724E0,-1.025204849E1,-2.609073877E0
1.166298125E0,-5.557031631E0,-1.018983555E1,-2.719143867E0
1.168821667E0,-5.547460079E0,-1.015125084E1,-2.755036116E0
1.171345157E0,-5.504389286E0,-1.015125084E1,-2.790928602E0
1.173868646E0,-5.384449005E0,-1.024487019E1,-2.865405083E0
1.176411771E0,-5.157131195E0,-1.032861900E1,-2.922832966E0
1.178935261E0,-4.867001057E0,-1.044377327E1,-2.980260611E0
1.181458750E0,-4.476672173E0,-1.063280678E1,-3.126521826E0
1.183982240E0,-4.138985157E0,-1.078146076E1,-3.227020502E0
1.186505782E0,-3.851547241E0,-1.090349483E1,-3.313162088E0
1.189029271E0,-3.647858143E0,-1.093699455E1,-3.375674486E0
1.191552761E0,-3.482454300E0,-1.096570778E1,-3.524029493E0
1.194076250E0,-3.396312714E0,-1.094417286E1,-3.677469254E0
1.196599740E0,-3.353241920E0,-1.091067314E1,-3.885943890E0
1.199123282E0,-3.381955624E0,-1.087238789E1,-4.178167343E0
1.201646771E0,-3.453740358E0,-1.086042404E1,-4.465605259E0
1.204170261E0,-3.542274714E0,-1.086520958E1,-4.824827671E0
1.206713386E0,-3.638286829E0,-1.092263699E1,-5.227420330E0
1.209236875E0,-3.714857101E0,-1.097797108E1,-5.615356445E0
1.211760365E0,-3.810570002E0,-1.109282684E1,-6.116054535E0
1.214283855E0,-3.894618034E0,-1.120528889E1,-6.638288021E0
1.216807396E0,-3.849154234E0,-1.132283688E1,-7.103094101E0
1.219330886E0,-3.849154234E0,-1.146401310E1,-7.574779034E0
1.221854375E0,-3.858725548E0,-1.159352493E1,-8.001299858E0
1.224377865E0,-3.796213150E0,-1.172273731E1,-8.327022552E0
1.226901355E0,-3.695714474E0,-1.184506989E1,-8.638388634E0
1.229424896E0,-3.568894863E0,-1.198385429E1,-8.782257080E0
1.231948386E0,-3.403491020E0,-1.213729382E1,-8.858827591E0
1.234471875E0,-3.183052301E0,-1.228086281E1,-8.899505615E0
1.237015000E0,-2.912364244E0,-1.242233849E1,-8.813364029E0
1.239538490E0,-2.591426849E0,-1.257787228E1,-8.645566940E0
1.242061980E0,-2.332702875E0,-1.264756298E1,-8.374878883E0
1.244585469E0,-2.138585329E0,-1.278156090E1,-8.113762856E0
1.247109011E0,-2.059622049E0,-1.295892906E1,-7.833503246E0
1.249632500E0,-1.980658889E0,-1.312194061E1,-7.522137165E0
1.252155990E0,-2.011765718E0,-1.337797260E1,-7.232306480E0
1.254679480E0,-2.064407825E0,-1.361037540E1,-6.894619465E0
1.257202969E0,-2.131406784E0,-1.385713482E1,-6.472884178E0
1.259726511E0,-2.251347065E0,-1.407278824E1,-5.907579899E0
1.262250000E0,-2.361416817E0,-1.417328644E1,-5.222634315E0
1.264773490E0,-2.430808783E0,-1.423819160E1,-4.499104977E0
1.267316615E0,-2.543570518E0,-1.425254917E1,-3.789932013E0
1.269840105E0,-2.764009237E0,-1.409432316E1,-2.889333248E0
1.272363594E0,-2.914757013E0,-1.387388515E1,-2.058126688E0
1.274887084E0,-3.025125980E0,-1.365135193E1,-1.291526079E0
1.277410625E0,-3.281457186E0,-1.332293701E1,-5.392823815E-1
1.279934115E0,-3.456133127E0,-1.293260860E1,1.001994461E-1
1.282457605E0,-3.542274714E0,-1.260209942E1,7.519445419E-1
1.284981094E0,-3.614358664E0,-1.230000591E1,1.424925923E0
1.287504584E0,-3.607180119E0,-1.203888893E1,2.134098768E0
1.290028125E0,-3.410669565E0,-1.183310604E1,2.857628345E0
1.292551615E0,-3.063411236E0,-1.172991562E1,3.609572887E0
1.295075105E0,-2.756830692E0,-1.170120144E1,4.294817448E0
1.297618230E0,-2.416451693E0,-1.170359421E1,4.867300510E0
1.300141719E0,-2.155334949E0,-1.165334511E1,5.341677666E0
1.302665209E0,-1.910967946E0,-1.163898849E1,5.866303921E0
1.305188698E0,-1.702792406E0,-1.156959629E1,6.168098450E0
1.307712240E0,-1.424925923E0,-1.151456165E1,6.438786507E0
1.310235730E0,-1.156630635E0,-1.140419292E1,6.517749786E0
1.312759219E0,-9.457631707E-1,-1.127976608E1,6.474678993E0
1.315282709E0,-8.210372925E-1,-1.110000515E1,6.282954216E0
1.317806198E0,-7.396813035E-1,-1.091785145E1,6.009873390E0
1.320329740E0,-7.133602500E-1,-1.074796104E1,5.667400360E0
1.322853230E0,-7.085745931E-1,-1.051077271E1,5.047060966E0
1.325376719E0,-8.377870321E-1,-1.027836990E1,4.637290478E0
1.327919844E0,-9.337990284E-1,-1.001725292E1,4.131806374E0
1.330443334E0,-1.094118118E0,-9.746564865E0,3.648157120E0
1.332966823E0,-1.379163146E0,-9.430413246E0,3.027518749E0
1.335490313E0,-1.599601984E0,-9.159725189E0,2.478964329E0
1.338013855E0,-1.865504384E0,-8.989535332E0,1.837089539E0
1.340537344E0,-2.126621008E0,-8.834002495E0,1.214058399E0
1.343060834E0,-2.327917337E0,-8.697312355E0,5.219344497E-1
1.345584323E0,-2.507678032E0,-8.560622215E0,-1.345962733E-1
1.348107813E0,-2.691925526E0,-8.464909554E0,-7.788637877E-1
1.350631355E0,-2.857329369E0,-8.481658936E0,-1.384846091E0
1.353154844E0,-2.976970434E0,-8.457730293E0,-1.962114573E0
1.355678334E0,-3.151945591E0,-8.400302887E0,-2.376671076E0
1.358221459E0,-3.302992582E0,-8.323732376E0,-2.735893488E0
1.360744948E0,-3.460918903E0,-8.177471161E0,-3.001796007E0
1.363268438E0,-3.585644722E0,-8.074580193E0,-3.260519981E0
1.365791927E0,-3.657429457E0,-7.973782539E0,-3.552743435E0
1.368315469E0,-3.707678795E0,-7.875676632E0,-3.849752426E0
1.370838959E0,-3.659822226E0,-7.897212029E0,-4.149453640E0
1.373362448E0,-3.652643681E0,-7.851748466E0,-4.458426952E0
1.375885938E0,-3.652643681E0,-7.777570724E0,-4.674079895E0
1.378409427E0,-3.564109325E0,-7.763214111E0,-4.887041092E0
1.380932969E0,-3.444169044E0,-7.695915699E0,-5.078765869E0
1.383456459E0,-3.230908871E0,-7.671987534E0,-5.160121918E0
1.385979948E0,-3.106482029E0,-7.609774113E0,-5.327918530E0
1.388523073E0,-3.013161898E0,-7.480262756E0,-5.272883892E0
1.391046563E0,-2.816651344E0,-7.327122211E0,-5.236991405E0
1.393570052E0,-2.622533560E0,-7.226623535E0,-5.129015446E0
1.396093542E0,-2.493321180E0,-7.054041386E0,-4.978267670E0
1.398617084E0,-2.339881420E0,-6.819245338E0,-4.815256596E0
1.401140573E0,-2.246561289E0,-6.625127792E0,-4.592424870E0
1.403664063E0,-2.205584288E0,-6.347260952E0,-4.295415878E0
1.406187552E0,-2.193620205E0,-6.105287075E0,-3.964907169E0
1.408711042E0,-2.200798512E0,-5.904289722E0,-3.672683716E0
1.411234584E0,-2.203191519E0,-5.647958755E0,-3.339782238E0
1.413758073E0,-2.213061810E0,-5.401198864E0,-3.006581545E0
1.416281563E0,-2.196012974E0,-5.195116997E0,-2.680858612E0
1.418824688E0,-2.227418661E0,-5.010570526E0,-2.350350142E0
1.421348177E0,-2.253739834E0,-4.847858906E0,-2.072483540E0
1.423871667E0,-2.296810627E0,-4.644169807E0,-1.763510346E0
1.426395157E0,-2.313560486E0,-4.514657974E0,-1.523928881E0
1.428918698E0,-2.337488651E0,-4.411766529E0,-1.303490162E0
1.431442188E0,-2.344667196E0,-4.335196495E0,-1.023230791E0
1.433965677E0,-2.349452734E0,-4.279862404E0,-7.477570772E-1
1.436489167E0,-2.313560486E0,-4.227220535E0,-6.062814593E-1
1.439012657E0,-2.315953255E0,-4.174578190E0,-4.196412563E-1
1.441536198E0,-2.361416817E0,-4.064508438E0,-2.135594189E-1
1.444059688E0,-2.418844700E0,-3.942175388E0,-1.103689447E-1
1.446583177E0,-2.394916296E0,-3.836891174E0,-1.465603895E-2
1.449126355E0,-2.404487610E0,-3.789034605E0,-1.226321608E-2
1.451649844E0,-2.347059965E0,-3.748356581E0,-6.011966988E-2
1.454173334E0,-2.373380899E0,-3.637987614E0,-1.345962733E-1
1.456696823E0,-2.356631279E0,-3.594916821E0,-2.518445849E-1
1.459220365E0,-2.234597206E0,-3.587738514E0,-3.523431420E-1
1.461743855E0,-2.102692842E0,-3.523132324E0,-4.435695112E-1
1.464267344E0,-2.052443504E0,-3.551846027E0,-5.919244885E-1
1.466790834E0,-2.100300074E0,-3.467798233E0,-7.812566161E-1
1.469314323E0,-2.155334949E0,-3.312264681E0,-9.514461160E-1
1.471837865E0,-2.205584288E0,-3.307479143E0,-1.114158034E0
1.474361355E0,-2.313560486E0,-3.185146093E0,-1.281954765E0
1.476884844E0,-2.442772865E0,-2.972184896E0,-1.401595831E0
1.479427969E0,-2.560320139E0,-2.878565550E0,-1.552642822E0
1.481951459E0,-2.706282377E0,-2.849851847E0,-1.595713615E0
1.484474948E0,-2.871686220E0,-2.711068153E0,-1.665105462E0
1.486998438E0,-3.005684376E0,-2.603091955E0,-1.739582062E0
1.489521980E0,-3.228515863E0,-2.389831543E0,-1.840080619E0
1.492045469E0,-3.432204962E0,-2.282154560E0,-1.959721804E0
1.494568959E0,-3.571287870E0,-2.181656122E0,-2.103590250E0
1.497092448E0,-3.710071564E0,-2.092822552E0,-2.220838547E0
1.499615938E0,-3.784249067E0,-1.980359793E0,-2.369492531E0
1.502139480E0,-3.980759621E0,-1.846062660E0,-2.501097918E0
1.504662969E0,-4.150949001E0,-1.800599098E0,-2.668894529E0
1.507186459E0,-4.194019794E0,-1.769492388E0,-2.781357288E0
1.509729584E0,-4.292125702E0,-1.726421595E0,-2.915654421E0
1.512253073E0,-4.304089546E0,-1.764706731E0,-2.937189817E0
1.514776563E0,-4.328018188E0,-1.817348838E0,-2.863012314E0
1.517300052E0,-4.311268330E0,-1.913360834E0,-2.778964281E0
1.519823594E0,-4.153341770E0,-1.994716763E0,-2.630609512E0
1.522347084E0,-3.954438448E0,-2.164906263E0,-2.577967405E0
1.524870573E0,-3.724428415E0,-2.318047047E0,-2.551646233E0
1.527394063E0,-3.580859184E0,-2.406581402E0,-2.570788860E0
1.529917552E0,-3.322135210E0,-2.418844700E0,-2.599502802E0
1.532441094E0,-3.092125177E0,-2.478665113E0,-2.510669231E0
1.534964584E0,-3.032304525E0,-2.430808783E0,-2.508276224E0
1.537488073E0,-2.976970434E0,-2.365903378E0,-2.642573595E0
1.540031198E0,-2.957827806E0,-2.219941139E0,-2.716751099E0
1.542554688E0,-2.912364244E0,-2.078465462E0,-2.894119024E0
1.545078177E0,-2.821436882E0,-1.937289000E0,-3.061616659E0
1.547601667E0,-2.720639229E0,-1.740778446E0,-3.148057222E0
1.550125209E0,-2.629712105E0,-1.589731574E0,-3.296412230E0
1.552648698E0,-2.512463808E0,-1.431805253E0,-3.447459221E0
1.555172188E0,-2.461915493E0,-1.211366415E0,-3.608077526E0
1.557695677E0,-2.452344179E0,-1.022034407E0,-3.770789385E0
1.560219167E0,-2.344667196E0,-8.976075649E-1,-3.936193228E0
1.562742709E0,-2.251347065E0,-8.114659786E-1,-4.089334011E0
1.565266198E0,-2.256132603E0,-7.298108935E-1,-4.211667061E0
1.567789688E0,-2.256132603E0,-7.609176040E-1,-4.350450516E0
1.570332865E0,-2.222633123E0,-8.330013752E-1,-4.484747887E0
1.572856355E0,-2.188834429E0,-9.741778970E-1,-4.604389191E0
1.575379844E0,-2.196012974E0,-1.156331539E0,-4.698008060E0
1.577903334E0,-2.260918379E0,-1.417448282E0,-4.848755836E0
1.580426875E0,-2.332702875E0,-1.680957913E0,-5.021338463E0
1.582950365E0,-2.445165634E0,-1.896611094E0,-5.164907455E0
1.585473855E0,-2.598605394E0,-2.109572172E0,-5.327918530E0
1.587997344E0,-2.821436882E0,-2.267797709E0,-5.464309692E0
1.590520834E0,-3.049054146E0,-2.464308262E0,-5.548357487E0
1.593044375E0,-3.147160053E0,-2.672483683E0,-5.679962635E0
1.595567865E0,-3.310171127E0,-2.859423161E0,-5.759224892E0
1.598091355E0,-3.518346548E0,-3.024827003E0,-5.842973709E0
1.600634480E0,-3.700500250E0,-3.189931631E0,-5.921936989E0
1.603157969E0,-3.777070522E0,-3.343371391E0,-6.065805435E0
1.605681459E0,-3.889832258E0,-3.570988655E0,-6.295815468E0
1.608204948E0,-4.028615952E0,-3.671487331E0,-6.573681831E0
1.610728490E0,-4.091128349E0,-3.848855257E0,-6.952046871E0
1.613251980E0,-4.232305050E0,-3.980460405E0,-7.373782158E0
1.615775469E0,-4.308875561E0,-4.052544117E0,-7.831110477E0
1.618298959E0,-4.357030869E0,-4.105186462E0,-8.350951195E0
1.620822448E0,-4.452744007E0,-4.160221100E0,-8.909076691E0
1.623345990E0,-4.502993107E0,-4.196113586E0,-9.450452805E0
1.625869480E0,-4.642076015E0,-4.174578190E0,-1.007348442E1
1.628392969E0,-4.689932346E0,-4.121936321E0,-1.079432201E1
1.630935938E0,-4.701896667E0,-4.100400925E0,-1.144128132E1
1.633460730E0,-4.759324074E0,-4.066901207E0,-1.203290653E1
1.635985573E0,-4.773681164E0,-4.054936886E0,-1.267238903E1
1.638510365E0,-4.912764072E0,-4.035794258E0,-1.314437294E1
1.641035157E0,-5.027619362E0,-4.009174347E0,-1.388465214E1
1.643560000E0,-4.998905659E0,-3.966103554E0,-1.467278862E1
1.646084792E0,-4.910371304E0,-3.891926050E0,-1.505115318E1
1.648609584E0,-4.845465660E0,-3.856033802E0,-1.522373581E1
1.651134427E0,-4.821537495E0,-3.860819340E0,-1.554945850E1
1.653659219E0,-4.910371304E0,-3.757927895E0,-1.582493210E1
1.656184011E0,-5.030012131E0,-3.693022728E0,-1.658674812E1
1.658708802E0,-5.226522923E0,-3.724129438E0,-1.732224083E1
1.661237605E0,-5.482853889E0,-3.920639992E0,-1.784686852E1
1.663762396E0,-5.870790482E0,-4.232006073E0,-1.772453499E1
1.666287240E0,-6.527320862E0,-4.653740883E0,-1.682154274E1
1.668812032E0,-7.310671329E0,-5.223830700E0,-1.487647724E1
1.671336823E0,-8.177770615E0,-5.904289722E0,-1.208554935E1
1.673861667E0,-9.042476654E0,-6.713961124E0,-8.676673889E0
1.676386459E0,-9.698708534E0,-7.576274872E0,-5.385346413E0
1.678911250E0,-1.004387283E1,-8.474480629E0,-2.941975355E0
1.681436094E0,-1.017547798E1,-9.276973724E0,-1.931007862E0
1.683960886E0,-1.016112137E1,-1.016321468E1,-2.498705149E0
1.686485677E0,-9.840184212E0,-1.108086300E1,-4.458426952E0
1.689010469E0,-9.303593636E0,-1.190249825E1,-7.215556622E0
1.691539219E0,-8.520243645E0,-1.256351566E1,-9.929615974E0
1.694064011E0,-7.662715435E0,-1.310249901E1,-1.184357452E1
1.696588855E0,-6.800402164E0,-1.350269794E1,-1.277318668E1
1.699113646E0,-6.158228397E0,-1.368724442E1,-1.282822132E1
1.701638438E0,-5.957231045E0,-1.365374470E1,-1.271336555E1
1.704163282E0,-6.033801556E0,-1.355773354E1,-1.270858002E1
1.706688073E0,-6.213263035E0,-1.327986622E1,-1.257667542E1
1.709212865E0,-6.328417778E0,-1.291825104E1,-1.186750317E1
1.711737709E0,-6.194120407E0,-1.249173069E1,-1.031545830E1
1.714262500E0,-5.880361557E0,-1.179482079E1,-8.097012520E0
1.716787292E0,-5.346164227E0,-1.084845924E1,-5.857330799E0
1.719312084E0,-4.639683247E0,-9.811170578E0,-4.185346127E0
1.721840834E0,-4.066901207E0,-8.754739761E0,-3.322733402E0
1.724365625E0,-3.664607763E0,-7.811070442E0,-3.109772205E0
1.726890469E0,-3.401098251E0,-7.010970116E0,-3.361317635E0
1.729415261E0,-3.374777317E0,-6.354439735E0,-3.813860178E0
1.731940052E0,-3.465704441E0,-5.853741646E0,-4.324129581E0
1.734464896E0,-3.681357622E0,-5.489733219E0,-4.796113968E0
1.736989688E0,-3.964009762E0,-5.207081318E0,-5.021338463E0
1.739514480E0,-4.172484398E0,-4.957928658E0,-4.848755836E0
1.742039323E0,-4.400101662E0,-4.694418907E0,-4.297808647E0
1.744564115E0,-4.601099014E0,-4.596313000E0,-3.809074640E0
1.747088907E0,-4.780859470E0,-4.533800602E0,-3.521636724E0
1.749613698E0,-5.063511848E0,-4.596313000E0,-3.615255833E0
1.752142500E0,-5.216951370E0,-4.672883511E0,-3.854538202E0
1.754667292E0,-5.365306377E0,-4.843072891E0,-4.156631947E0
1.757192136E0,-5.417948723E0,-5.089832783E0,-4.412963390E0
1.759716927E0,-5.386841774E0,-5.401198864E0,-4.609174728E0
1.762241719E0,-5.362913609E0,-5.767600060E0,-4.674079895E0
1.764766563E0,-5.226522923E0,-6.126822472E0,-4.601995945E0
1.767291355E0,-4.977370262E0,-6.452844620E0,-4.415356159E0
1.769816146E0,-4.721039295E0,-6.814459801E0,-4.159024715E0
1.772340990E0,-4.431208611E0,-7.173682213E0,-3.883551121E0
1.774865782E0,-4.150949001E0,-7.595417500E0,-3.710968733E0
1.777390573E0,-3.940081596E0,-8.007282257E0,-3.608077526E0
1.779915365E0,-3.676572084E0,-8.436195374E0,-3.703790426E0
1.782444167E0,-3.434597731E0,-8.939286232E0,-3.933800459E0
1.784968959E0,-3.173480988E0,-9.459127426E0,-4.161417484E0
1.787493802E0,-2.991327524E0,-9.870991707E0,-4.314558506E0
1.790018594E0,-2.869293451E0,-1.034536839E1,-4.400700092E0
1.792543386E0,-2.787937403E0,-1.075753212E1,-4.331307888E0
1.795068230E0,-2.754437923E0,-1.110479069E1,-4.185346127E0
1.797593021E0,-2.737389088E0,-1.137308598E1,-4.055834293E0
1.800117813E0,-2.797508717E0,-1.155045414E1,-4.029513359E0
1.802642657E0,-2.826222658E0,-1.162463188E1,-4.019941807E0
1.805167448E0,-2.921935558E0,-1.164138126E1,-4.134797573E0
1.807692240E0,-3.022733212E0,-1.152173996E1,-4.273880482E0
1.810217032E0,-3.053839922E0,-1.133001518E1,-4.444069862E0
1.812745834E0,-3.120838881E0,-1.106650543E1,-4.578067780E0
1.815270625E0,-3.197409153E0,-1.078385353E1,-4.592424870E0
1.817795469E0,-3.221337557E0,-1.046530914E1,-4.623531342E0
1.820320261E0,-3.228515863E0,-1.013210869E1,-4.592424870E0
1.822845052E0,-3.218944550E0,-9.758528709E0,-4.570889473E0
1.825369896E0,-3.192623615E0,-9.461520195E0,-4.508676052E0
1.827894688E0,-3.175873756E0,-9.157332420E0,-4.403092861E0
1.830419480E0,-3.118446112E0,-8.881858826E0,-4.336093903E0
1.832944323E0,-3.070589542E0,-8.656634331E0,-4.252345085E0
1.835469115E0,-2.998505831E0,-8.460124016E0,-4.125226021E0
1.837993907E0,-2.874078989E0,-8.277970314E0,-3.950550079E0
1.840518698E0,-2.764009237E0,-8.153543472E0,-3.801896095E0
1.843047500E0,-2.612962246E0,-8.014460564E0,-3.703790426E0
1.845572292E0,-2.454736948E0,-7.890033722E0,-3.600898981E0
1.848097136E0,-2.232204437E0,-7.823034763E0,-3.473780155E0
1.850621927E0,-1.983051777E0,-7.799106121E0,-3.334996462E0
1.853146719E0,-1.724327803E0,-7.787142277E0,-3.219841957E0
1.855671563E0,-1.494317770E0,-7.782356739E0,-3.114557743E0
1.858196355E0,-1.271486163E0,-7.837391376E0,-2.965903759E0
1.860721146E0,-1.010369420E0,-7.918747425E0,-2.867797852E0
1.863245990E0,-7.755736113E-1,-7.978568077E0,-2.719143867E0
1.865770782E0,-5.599204898E-1,-8.088936806E0,-2.582752943E0
1.868295573E0,-3.589234054E-1,-8.177471161E0,-2.462812662E0
1.870820365E0,-2.054836452E-1,-8.230113029E0,-2.328814745E0
1.873349167E0,-3.290131316E-2,-8.297411919E0,-2.235195398E0
1.875873959E0,1.178465188E-1,-8.405088425E0,-2.163410664E0
1.878398802E0,2.330010980E-1,-8.510373116E0,-2.125125647E0
1.880923594E0,3.311068416E-1,-8.625527382E0,-2.067697763E0
1.883448386E0,4.507479668E-1,-8.709276199E0,-2.055733681E0
1.885973230E0,5.060819983E-1,-8.764310837E0,-2.038984060E0
1.888498021E0,5.730810165E-1,-8.843573570E0,-1.962114573E0
1.891022813E0,6.017948985E-1,-8.924929619E0,-1.976471543E0
1.893547657E0,6.496513486E-1,-9.037391663E0,-1.964507341E0
1.896072448E0,6.807580590E-1,-9.202795982E0,-1.947757602E0
1.898597240E0,6.879364848E-1,-9.368199348E0,-1.954936147E0
1.901122032E0,6.376872063E-1,-9.439984322E0,-2.010270119E0
1.903650834E0,5.802595019E-1,-9.521340370E0,-2.084447622E0
1.906175625E0,5.300102234E-1,-9.655637741E0,-2.144268274E0
1.908700469E0,4.387838542E-1,-9.775279045E0,-2.192124605E0
1.911225261E0,3.693920076E-1,-9.916754723E0,-2.264208317E0
1.913750052E0,2.904288471E-1,-9.995717049E0,-2.340778828E0
1.916274896E0,2.162513435E-1,-1.006271648E1,-2.324028969E0
1.918799688E0,2.042872310E-1,-1.011057281E1,-2.285743713E0
1.921324480E0,1.537388563E-1,-1.017787075E1,-2.314457655E0
1.923849323E0,1.034895778E-1,-1.016560745E1,-2.309672117E0
1.926374115E0,5.324030295E-2,-1.020658493E1,-2.309672117E0
1.928898907E0,8.673982322E-2,-1.017308521E1,-2.216052771E0
1.931423698E0,1.441675574E-1,-1.017069244E1,-2.072483540E0
1.933952500E0,1.824527234E-1,-1.009382343E1,-2.017448664E0
1.936477292E0,1.896311939E-1,-1.000768185E1,-1.959721804E0
1.939002136E0,1.010967568E-1,-9.969396591E0,-2.041376829E0
1.941526927E0,5.982056609E-4,-9.839884758E0,-2.189731836E0
1.944051719E0,-1.241276711E-1,-9.722636223E0,-2.216052771E0
1.946576563E0,-1.791625917E-1,-9.597910881E0,-2.192124605E0
1.949101355E0,-3.131606579E-1,-9.502198219E0,-2.134696960E0
1.951626146E0,-4.426721931E-1,-9.430413246E0,-2.072483540E0
1.954150990E0,-5.814558864E-1,-9.324830055E0,-2.015055656E0
1.956675782E0,-7.229315639E-1,-9.276973724E0,-2.000698805E0
1.959200573E0,-8.835497499E-1,-9.267401695E0,-1.966900229E0
1.961725365E0,-1.113260746E0,-9.126225471E0,-1.849651933E0
1.964293594E0,-1.283450246E0,-9.073284149E0,-1.868794441E0
1.966818438E0,-1.417747378E0,-9.025427818E0,-1.705783486E0
1.969343230E0,-1.570888042E0,-8.896215439E0,-1.610070586E0
1.971868021E0,-1.729113460E0,-8.752346992E0,-1.657927036E0
1.974392865E0,-1.908575177E0,-8.670990944E0,-1.801795483E0
1.976917657E0,-2.040479422E0,-8.580063820E0,-1.947757602E0
1.979442448E0,-2.205584288E0,-8.385946274E0,-2.015055656E0
1.981967292E0,-2.327917337E0,-8.280363083E0,-2.079662085E0
1.984492084E0,-2.337488651E0,-8.194221497E0,-2.058126688E0
1.987016875E0,-2.385344982E0,-8.103293419E0,-2.036591291E0
1.989541719E0,-2.538784742E0,-7.976175308E0,-2.074876308E0
1.992066511E0,-2.627319336E0,-7.820641518E0,-2.072483540E0
1.994555886E0,-2.641676188E0,-7.710272789E0,-2.060519457E0
1.997080677E0,-2.708675146E0,-7.640881062E0,-2.072483540E0
1.999605521E0,-2.792723179E0,-7.516454220E0,-2.060519457E0
2.002130313E0,-2.864507914E0,-7.470691204E0,-2.065304995E0
2.004655105E0,-2.929114103E0,-7.415656567E0,-2.074876308E0
2.007179948E0,-2.976970434E0,-7.310372353E0,-2.050948143E0
2.009704740E0,-3.027518749E0,-7.307979584E0,-1.995913148E0
2.012229532E0,-3.032304525E0,-7.298408031E0,-1.899901152E0
2.014754375E0,-3.029911757E0,-7.197610378E0,-1.823330879E0
2.017279167E0,-2.998505831E0,-7.223931789E0,-1.741974831E0
2.019803959E0,-2.917150021E0,-7.298408031E0,-1.650748491E0
2.022328750E0,-2.857329369E0,-7.355835915E0,-1.593320727E0
2.024857552E0,-2.778366089E0,-7.415656567E0,-1.495215058E0
2.027382344E0,-2.687139750E0,-7.427620411E0,-1.480858088E0
2.029907188E0,-2.622533560E0,-7.475477219E0,-1.569392562E0
2.032431980E0,-2.557927370E0,-7.526025295E0,-1.626820326E0
2.034956771E0,-2.498106956E0,-7.569096088E0,-1.693819284E0
2.037481615E0,-2.368595362E0,-7.645666599E0,-1.773081541E0
2.040006407E0,-2.320738792E0,-7.693522930E0,-1.871187329E0
2.042531198E0,-2.301596165E0,-7.767999649E0,-1.921436548E0
2.045056042E0,-2.268096685E0,-7.844570160E0,-1.966900229E0
2.047580834E0,-2.215454578E0,-7.880462170E0,-2.034198284E0
2.050105625E0,-2.263311148E0,-7.849355698E0,-2.089233160E0
2.052630417E0,-2.308774710E0,-7.911569118E0,-2.101197481E0
2.055159219E0,-2.315953255E0,-7.973782539E0,-2.105983019E0
2.057684011E0,-2.347059965E0,-7.930711746E0,-2.105983019E0
2.060208855E0,-2.433201551E0,-7.923532963E0,-2.091626167E0
2.062733646E0,-2.461915493E0,-7.940282822E0,-2.070090771E0
2.065258438E0,-2.510071039E0,-7.976175308E0,-2.122732878E0
2.067783282E0,-2.565105915E0,-7.887640953E0,-2.086840391E0
2.070308073E0,-2.646461725E0,-7.849355698E0,-2.139482498E0
2.072832865E0,-2.713460922E0,-7.885247707E0,-2.199303150E0
2.075357709E0,-2.821436882E0,-7.827820301E0,-2.216052771E0
2.077882500E0,-2.874078989E0,-7.815855980E0,-2.259123564E0
2.080407292E0,-2.874078989E0,-7.839784145E0,-2.340778828E0
2.082932084E0,-2.926721096E0,-7.863712311E0,-2.410170555E0
2.085460938E0,-2.955435038E0,-7.909176350E0,-2.493919373E0
2.087985730E0,-2.967399120E0,-7.937890053E0,-2.594717026E0
2.090510573E0,-2.967399120E0,-7.973782539E0,-2.659323215E0
2.093035365E0,-2.998505831E0,-8.074580193E0,-2.757428885E0
2.095560157E0,-2.974577665E0,-8.167900085E0,-2.867797852E0
2.098085000E0,-2.960220814E0,-8.222934723E0,-2.992224693E0
2.100609792E0,-2.950649500E0,-8.328517914E0,-3.114557743E0
2.103134584E0,-2.917150021E0,-8.405088425E0,-3.236591816E0
2.105659427E0,-2.835793972E0,-8.443373680E0,-3.308376312E0
2.108184219E0,-2.773580551E0,-8.498408318E0,-3.411566973E0
2.110709011E0,-2.689532757E0,-8.517551422E0,-3.437887907E0
2.113233802E0,-2.514856577E0,-8.580063820E0,-3.528815269E0
2.115762605E0,-2.349452734E0,-8.519944191E0,-3.533600807E0
2.118287396E0,-2.227418661E0,-8.503194809E0,-3.531208038E0
2.120812240E0,-2.073979139E0,-8.553443909E0,-3.569493294E0
2.123337032E0,-1.951945066E0,-8.524729729E0,-3.636791229E0
2.125861823E0,-1.824826360E0,-8.474480629E0,-3.718147278E0
2.128386667E0,-1.709970832E0,-8.431409836E0,-3.804288864E0
2.130911459E0,-1.613958836E0,-8.371588707E0,-3.864109516E0
2.133436250E0,-1.568495274E0,-8.335697174E0,-3.881158352E0
2.135961094E0,-1.523031592E0,-8.285148621E0,-3.873979807E0
2.138485886E0,-1.506281853E0,-8.206185341E0,-3.861716747E0
2.141010677E0,-1.520638824E0,-8.203792572E0,-3.837788343E0
2.143535469E0,-1.568495274E0,-8.215756416E0,-3.789932013E0
2.146064271E0,-1.635494232E0,-8.277970314E0,-3.713361740E0
2.148589323E0,-1.645065546E0,-8.345268250E0,-3.624827147E0
2.151114427E0,-1.702792406E0,-8.488837242E0,-3.519243956E0
2.153639480E0,-1.798505306E0,-8.690134048E0,-3.409173965E0
2.156164584E0,-1.865504384E0,-8.970393181E0,-3.354139090E0
2.158689636E0,-1.887039781E0,-9.269794464E0,-3.380460262E0
2.161214688E0,-1.959123492E0,-9.573982239E0,-3.411566973E0
2.163739792E0,-2.069193363E0,-9.870991707E0,-3.425923824E0
2.166264844E0,-2.047657967E0,-1.020658493E1,-3.555136204E0
2.168789948E0,-2.030908108E0,-1.060887814E1,-3.605684519E0
2.171315000E0,-1.968694806E0,-1.098514938E1,-3.571886063E0
2.173840052E0,-1.879861236E0,-1.144247818E1,-3.488137245E0
2.176365990E0,-1.822433591E0,-1.192164040E1,-3.310769320E0
2.178891042E0,-1.678864241E0,-1.239601803E1,-3.066701412E0
2.181416146E0,-1.599601984E0,-1.279113293E1,-2.692822695E0
2.183941198E0,-1.415354609E0,-1.319372463E1,-2.290529490E0
2.186466302E0,-1.226022482E0,-1.350748348E1,-1.854437590E0
2.188991355E0,-1.058225870E0,-1.372074413E1,-1.360917926E0
2.191516407E0,-8.521439433E-1,-1.386909962E1,-8.338986635E-1
2.194041511E0,-6.678966284E-1,-1.389302731E1,-3.834498227E-1
2.196566563E0,-5.335994363E-1,-1.374228001E1,9.272187948E-3
2.199091667E0,-4.713860750E-1,-1.347877026E1,4.501497746E-1
2.201616719E0,-4.139583111E-1,-1.308814144E1,7.567301393E-1
2.204141771E0,-3.972085714E-1,-1.254676533E1,1.044167995E0
2.206667657E0,-4.809573591E-1,-1.199342537E1,1.221535921E0
2.209192709E0,-5.694918036E-1,-1.133240795E1,1.319641709E0
2.211717813E0,-7.181459069E-1,-1.081256771E1,1.317248821E0
2.214242865E0,-8.955138922E-1,-1.034058285E1,1.221535921E0
2.216767969E0,-1.108475089E0,-1.000768185E1,1.082453132E0
2.219293021E0,-1.295414329E0,-9.732208252E0,8.715856671E-1
2.221818073E0,-1.534995675E0,-9.597910881E0,5.434698462E-1
2.224343177E0,-1.745863199E0,-9.540482521E0,1.456630826E-1
2.226868230E0,-1.990230203E0,-9.535696983E0,-2.374876440E-1
2.229393334E0,-2.225025892E0,-9.593125343E0,-7.310073376E-1
2.231918386E0,-2.411666155E0,-9.811170578E0,-1.277169108E0
2.234443438E0,-2.670390129E0,-1.009860897E1,-1.813759565E0
2.236969375E0,-2.921935558E0,-1.045095158E1,-2.335993052E0
2.239494427E0,-3.159124136E0,-1.088674450E1,-2.834298372E0
2.242019532E0,-3.415455103E0,-1.142572784E1,-3.296412230E0
2.244544584E0,-3.588037491E0,-1.199581814E1,-3.643969774E0
2.247069688E0,-3.635894060E0,-1.253719425E1,-3.856930971E0
2.249594740E0,-3.583251953E0,-1.311207008E1,-3.938585997E0
2.252119792E0,-3.379562855E0,-1.356491184E1,-4.029513359E0
2.254644896E0,-3.041875839E0,-1.399382496E1,-3.993621111E0
2.257169948E0,-2.610569477E0,-1.430758381E1,-3.917050600E0
2.259695052E0,-2.059622049E0,-1.443918896E1,-3.852145433E0
2.262220105E0,-1.513460279E0,-1.457587910E1,-3.777967930E0
2.264745157E0,-1.005583763E0,-1.466919899E1,-3.636791229E0
2.267310573E0,-5.168496966E-1,-1.469312763E1,-3.533600807E0
2.269835625E0,-2.102692872E-1,-1.476281834E1,-3.452244759E0
2.272360677E0,-1.375873014E-2,-1.486331654E1,-3.344567776E0
2.274885782E0,8.434699476E-2,-1.505743504E1,-3.310769320E0
2.277410834E0,7.477571070E-2,-1.536401463E1,-3.241377354E0
2.279935938E0,-1.145563871E-1,-1.564666748E1,-3.234198809E0
2.282460990E0,-3.924229145E-1,-1.597239017E1,-3.195913792E0
2.284986042E0,-7.181459069E-1,-1.634866142E1,-2.992224693E0
2.287511146E0,-1.139880896E0,-1.681077576E1,-2.781357288E0
2.290036198E0,-1.573280931E0,-1.726361656E1,-2.522633314E0
2.292561302E0,-2.102692842E0,-1.762523270E1,-2.175374985E0
2.295086355E0,-2.579462767E0,-1.786720657E1,-1.749153376E0
2.297572761E0,-2.991327524E0,-1.808285904E1,-1.226919770E0
2.300097813E0,-3.480061531E0,-1.816182327E1,-6.999006271E-1
2.302622917E0,-4.004687786E0,-1.809003830E1,-1.250249892E-1
2.305147969E0,-4.495814800E0,-1.797996902E1,2.847459018E-1
2.307673073E0,-5.041976452E0,-1.779542160E1,7.328019142E-1
2.310198125E0,-5.559424400E0,-1.760130501E1,1.065703392E0
2.312723177E0,-6.055336952E0,-1.735932922E1,1.355534077E0
2.315248282E0,-6.481558323E0,-1.708146286E1,1.528116345E0
2.317773334E0,-6.860222340E0,-1.680599022E1,1.599901080E0
2.320298438E0,-7.080661297E0,-1.663609886E1,1.511366606E0
2.322823490E0,-7.281658173E0,-1.644915962E1,1.372283816E0
2.325348542E0,-7.408777237E0,-1.609950829E1,1.170987606E0
2.327874480E0,-7.394420147E0,-1.579053593E1,8.572286963E-1
2.330399532E0,-7.293921471E0,-1.552194118E1,4.764707983E-1
2.332924636E0,-7.157231808E0,-1.511007690E1,-5.294119939E-2
2.335449688E0,-6.946363926E0,-1.469073486E1,-5.081757307E-1
2.337974792E0,-6.711568356E0,-1.433629799E1,-1.023230791E0
2.340499844E0,-6.517749786E0,-1.385234928E1,-1.509572029E0
2.343024896E0,-6.273382664E0,-1.346919823E1,-2.074876308E0
2.345550000E0,-5.973980904E0,-1.307378483E1,-2.525026083E0
2.348075052E0,-5.688935757E0,-1.269302654E1,-2.958725214E0
2.350600157E0,-5.442175865E0,-1.227607727E1,-3.298804998E0
2.353125209E0,-5.027619362E0,-1.197188950E1,-3.694219112E0
2.355650261E0,-4.637290478E0,-1.173948669E1,-4.027120590E0
2.358176198E0,-4.311268330E0,-1.150229836E1,-4.290630341E0
2.360701250E0,-3.940081596E0,-1.125583744E1,-4.482355118E0
2.363226355E0,-3.669393539E0,-1.105454159E1,-4.721936226E0
2.365751407E0,-3.391526937E0,-1.089392376E1,-4.913362026E0
2.368276511E0,-3.209373474E0,-1.069023418E1,-5.064409256E0
2.370801563E0,-3.089732170E0,-1.058016396E1,-5.251348495E0
2.373326615E0,-3.063411236E0,-1.053948689E1,-5.452345371E0
2.375851719E0,-3.166302681E0,-1.052752209E1,-5.706283569E0
2.378376771E0,-3.302992582E0,-1.056341457E1,-5.933900833E0
2.380901875E0,-3.484847069E0,-1.062562847E1,-6.135197163E0
2.383426927E0,-3.690928936E0,-1.067827034E1,-6.334100723E0
2.385951980E0,-3.918546200E0,-1.074556828E1,-6.556932449E0
2.388477917E0,-4.011866093E0,-1.081256771E1,-6.734001160E0
2.391002969E0,-4.170091629E0,-1.081017494E1,-6.870691299E0
2.393528073E0,-4.261018753E0,-1.080060291E1,-6.949654102E0
2.396053125E0,-4.244269371E0,-1.078146076E1,-7.050152779E0
2.398578230E0,-4.277768612E0,-1.077188969E1,-7.174878597E0
2.401103282E0,-4.344767570E0,-1.071446133E1,-7.265805721E0
2.403628334E0,-4.347160339E0,-1.073360443E1,-7.339983463E0
2.406153438E0,-4.390530586E0,-1.069741249E1,-7.337590694E0
2.408678490E0,-4.431208611E0,-1.072163963E1,-7.364210606E0
2.411203594E0,-4.447957993E0,-1.068784142E1,-7.447959423E0
2.413728646E0,-4.469493389E0,-1.067109203E1,-7.529315472E0
2.416253698E0,-4.538885593E0,-1.066630650E1,-7.586743355E0
2.418779636E0,-4.675575256E0,-1.065673447E1,-7.625327587E0
2.421304688E0,-4.766502857E0,-1.061127090E1,-7.613064289E0
2.423829792E0,-4.881358147E0,-1.063519955E1,-7.522137165E0
2.426354844E0,-4.963013172E0,-1.070728302E1,-7.361817837E0
2.428879948E0,-5.025226593E0,-1.085563850E1,-7.191628456E0
2.431405000E0,-5.073082924E0,-1.105932713E1,-6.863512516E0
2.433930052E0,-5.065904617E0,-1.138265705E1,-6.448956013E0
2.436455157E0,-5.006083965E0,-1.174187946E1,-5.902794361E0
2.438980209E0,-4.896014214E0,-1.213968658E1,-5.330311775E0
2.441505313E0,-4.692325115E0,-1.265952682E1,-4.676472664E0
2.444030365E0,-4.457529545E0,-1.314586830E1,-4.007977962E0
2.446555417E0,-4.196412563E0,-1.361994648E1,-3.289233923E0
2.449081355E0,-3.880260944E0,-1.404885960E1,-2.606681108E0
2.451606407E0,-3.511168242E0,-1.439372540E1,-1.887937069E0
2.454131511E0,-3.037090063E0,-1.469312763E1,-1.164407372E0
2.456656563E0,-2.428415775E0,-1.495663738E1,-5.344967842E-1
2.459181667E0,-1.762612939E0,-1.520339680E1,-1.944168359E-1
2.461706719E0,-1.175773263E0,-1.530419445E1,-1.944168471E-2
2.464231771E0,-6.200401783E-1,-1.535444355E1,-1.465603895E-2
2.466756875E0,-2.724826932E-1,-1.525633812E1,-1.226321608E-1
2.469281927E0,1.609173268E-1,-1.512204075E1,-2.542374134E-1
2.471807032E0,6.807580590E-1,-1.499282837E1,-4.028915167E-1
2.474332084E0,1.076171994E0,-1.481067467E1,-5.440680385E-1
2.476857136E0,1.306182027E0,-1.458066463E1,-6.254240274E-1
2.479383073E0,1.454537034E0,-1.427886963E1,-7.142575383E-1
2.481908125E0,1.471286774E0,-1.393400478E1,-7.980063558E-1
2.484433230E0,1.507179141E0,-1.359601784E1,-8.913264275E-1
2.486958282E0,1.507179141E0,-1.325354576E1,-9.777671695E-1
2.489483386E0,1.480858088E0,-1.292064381E1,-9.777671695E-1
2.492008438E0,1.488036633E0,-1.258295727E1,-9.200403094E-1
2.494533490E0,1.478465319E0,-1.228564835E1,-7.525427341E-1
2.497058594E0,1.504786372E0,-1.206072330E1,-5.344967842E-1
2.499583646E0,1.454537034E0,-1.184028435E1,-2.614158690E-1
2.502108750E0,1.191027522E0,-1.157677460E1,4.037888348E-2
2.504633802E0,8.581260443E-1,-1.136112213E1,4.214358926E-1
2.507158855E0,5.084748268E-1,-1.105693436E1,7.328019142E-1
2.509684792E0,1.130608693E-1,-1.083649540E1,1.039382339E0
2.512209844E0,-2.916252613E-1,-1.056341457E1,1.235892892E0
2.514734948E0,-7.109674215E-1,-1.038365364E1,1.420140266E0
2.517260000E0,-1.178166032E0,-1.024008465E1,1.561615825E0
2.519785105E0,-1.714756489E0,-1.000050354E1,1.758126378E0
2.522310157E0,-2.268096685E0,-9.825528145E0,1.975873351E0
2.524835209E0,-2.780759096E0,-9.679565430E0,2.287538528E0
2.527360313E0,-3.247658491E0,-9.495018959E0,2.708974361E0
2.529885365E0,-3.690928936E0,-9.348757744E0,3.082553864E0
2.532410469E0,-4.054936886E0,-9.303294182E0,3.468396425E0
2.534935521E0,-4.414458752E0,-9.188439369E0,3.741477251E0
2.537460573E0,-4.687539577E0,-9.135796547E0,3.952344894E0
2.539986511E0,-5.018048286E0,-8.996713638E0,4.074378967E0
2.542511563E0,-5.319842815E0,-8.781061172E0,4.055236340E0
2.545036667E0,-5.698507309E0,-8.402695656E0,3.858725548E0
2.547561719E0,-6.000301838E0,-8.000102997E0,3.432504177E0
2.550086823E0,-6.263811588E0,-7.688737392E0,2.907877684E0
2.552611875E0,-6.414559364E0,-7.312765121E0,2.435893536E0
2.555136927E0,-6.522535324E0,-6.989434719E0,1.719542146E0
2.557662032E0,-6.512964249E0,-6.689733982E0,9.290133715E-1
2.560187084E0,-6.337988853E0,-6.471987247E0,-4.097708687E-2
2.562712188E0,-6.167799473E0,-6.210870266E0,-9.753743410E-1
2.565237240E0,-5.969195366E0,-6.035895348E0,-1.933400750E0
2.567762292E0,-5.696114540E0,-5.901896954E0,-2.740679264E0
2.570288177E0,-5.463711262E0,-5.805884838E0,-3.500101328E0
2.572813230E0,-5.137689114E0,-5.738885880E0,-4.106083870E0
2.575338334E0,-4.795216560E0,-5.606981754E0,-4.645066738E0
2.577863386E0,-4.452744007E0,-5.484947681E0,-5.114658356E0
2.580388490E0,-4.019044876E0,-5.549553871E0,-5.562714577E0
2.582913542E0,-3.535096407E0,-5.616552830E0,-6.077769279E0
2.585438594E0,-3.084946632E0,-5.640780449E0,-6.523133755E0
2.587963698E0,-2.682354212E0,-5.671886921E0,-7.016653538E0
2.590488750E0,-2.167299032E0,-5.755635738E0,-7.359425068E0
2.593013855E0,-1.686042666E0,-5.844170094E0,-7.605885983E0
2.595538907E0,-1.156630635E0,-6.011966705E0,-7.697112083E0
2.598063959E0,-6.224330068E-1,-6.177370548E0,-7.569993496E0
2.600589948E0,-3.203391433E-1,-6.282654762E0,-7.213163853E0
2.603115000E0,-6.400800496E-2,-6.392724991E0,-6.604788780E0
2.605640105E0,1.322034448E-1,-6.450451851E0,-5.890830040E0
2.608165157E0,3.861417472E-1,-6.570092678E0,-5.181657314E0
2.610690261E0,5.012963414E-1,-6.582056999E0,-4.393521309E0
2.613215313E0,5.754738450E-1,-6.610770702E0,-3.684647799E0
2.615740365E0,6.209374666E-1,-6.505486488E0,-3.006581545E0
2.618265469E0,5.994020700E-1,-6.366403580E0,-2.319243431E0
2.620790521E0,5.204389095E-1,-6.124429703E0,-1.806581140E0
2.623315625E0,4.773681164E-1,-5.805884838E0,-1.332203984E0
2.625840677E0,4.148556292E-1,-5.477769375E0,-8.243274093E-1
2.628365730E0,2.330010980E-1,-5.135296345E0,-4.339981973E-1
2.630891615E0,1.034895778E-1,-4.730311394E0,-1.465603858E-1
2.633416667E0,-9.302098304E-2,-4.275076866E0,1.121635586E-1
2.635941771E0,-3.155534863E-1,-3.827319860E0,3.732803464E-1
2.638466823E0,-4.785645306E-1,-3.391227961E0,4.190430641E-1
2.640991927E0,-6.296114326E-1,-3.022433996E0,4.214358926E-1
2.643516980E0,-8.258228898E-1,-2.646162748E0,3.996013701E-1
2.646042032E0,-1.063011408E0,-2.160120726E0,3.637090325E-1
2.648567136E0,-1.362413406E0,-1.676172256E0,1.627119333E-1
2.651092188E0,-1.546959877E0,-1.316650629E0,1.884347759E-2
2.653617292E0,-1.741077542E0,-9.861420393E-1,-9.601201117E-2
2.656142344E0,-1.889432549E0,-7.298108935E-1,-2.303091735E-1
2.658667396E0,-2.023729801E0,-4.926223755E-1,-4.052843451E-1
2.661193386E0,-2.102692842E0,-1.980060786E-1,-6.014958024E-1
2.663718542E0,-2.179263115E0,5.832505226E-2,-7.716853023E-1
2.666243646E0,-2.234597206E0,1.779661775E-1,-9.323035479E-1
2.668768750E0,-2.246561289E0,2.449652255E-1,-1.176371455E0
2.671293907E0,-2.308774710E0,1.995015889E-1,-1.358525038E0
2.673819011E0,-2.517249346E0,1.803590059E-1,-1.533500195E0
2.676344167E0,-2.711068153E0,1.875374764E-1,-1.605284929E0
2.678869271E0,-2.850150824E0,7.028916478E-2,-1.650748491E0
2.681394427E0,-3.111267567E0,-3.290131316E-2,-1.751546144E0
2.683919532E0,-3.381955624E0,-2.003988922E-1,-1.849651933E0
2.686444688E0,-3.470490217E0,-4.806582630E-1,-1.909472466E0
2.688969792E0,-3.501596928E0,-7.896314859E-1,-1.928615093E0
2.691495052E0,-3.590430260E0,-1.053141117E0,-1.895115495E0
2.694020209E0,-3.688536167E0,-1.307079315E0,-1.856830359E0
2.696545313E0,-3.837190151E0,-1.556231976E0,-1.902294040E0
2.699070417E0,-3.959224224E0,-1.814955950E0,-1.950150490E0
2.701595573E0,-4.026223183E0,-2.049751759E0,-2.012662888E0
2.704120677E0,-4.057330132E0,-2.306082726E0,-2.012662888E0
2.706645834E0,-4.045365810E0,-2.610270500E0,-2.022234201E0
2.709170938E0,-4.016652107E0,-2.909672260E0,-2.050948143E0
2.711696094E0,-4.042973042E0,-3.118146896E0,-2.091626167E0
2.714221198E0,-4.033401489E0,-3.348157167E0,-2.163410664E0
2.716746355E0,-4.160520554E0,-3.458226919E0,-2.319243431E0
2.719271459E0,-4.299304008E0,-3.513561010E0,-2.448455811E0
2.721796771E0,-4.428815842E0,-3.616452217E0,-2.635395050E0
2.724321927E0,-4.553242207E0,-3.645166159E0,-2.721536636E0
2.726847032E0,-4.711467743E0,-3.618845224E0,-2.870190859E0
2.729372136E0,-4.833501816E0,-3.527917862E0,-3.052045345E0
2.731897292E0,-4.936692238E0,-3.424727440E0,-3.148057222E0
2.734422396E0,-4.991727352E0,-3.293122053E0,-3.279662609E0
2.736947552E0,-4.994120121E0,-3.156432152E0,-3.342175007E0
2.739472657E0,-4.994120121E0,-2.988934517E0,-3.507279873E0
2.741997813E0,-4.989334106E0,-2.842673302E0,-3.684647799E0
2.744522917E0,-4.922335148E0,-2.734996319E0,-3.830610037E0
2.747048073E0,-4.821537495E0,-2.643769979E0,-4.003192425E0
2.749573177E0,-4.598706245E0,-2.560021162E0,-4.216452599E0
2.752098490E0,-4.364209175E0,-2.504986286E0,-4.523033142E0
2.754623646E0,-4.134199142E0,-2.524128675E0,-4.812863827E0
2.757148750E0,-3.904189348E0,-2.509771824E0,-5.167300701E0
2.759673855E0,-3.726821184E0,-2.483450890E0,-5.548357487E0
2.762199011E0,-3.633501291E0,-2.461915493E0,-5.962615013E0
2.764724115E0,-3.544667721E0,-2.519343138E0,-6.436992168E0
2.767249271E0,-3.506382465E0,-2.562413931E0,-6.798607349E0
2.769774375E0,-3.441776276E0,-2.636591434E0,-7.172485828E0
2.772299532E0,-3.362813234E0,-2.638984203E0,-7.730611801E0
2.774824636E0,-3.322135210E0,-2.708675146E0,-8.248059273E0
2.777349792E0,-3.291028500E0,-2.811566591E0,-8.758329391E0
2.779874896E0,-3.190230846E0,-2.871387243E0,-9.203693390E0
2.782400209E0,-3.089732170E0,-3.041576624E0,-9.618249893E0
2.784925365E0,-3.005684376E0,-3.144468069E0,-9.953543663E0
2.787450469E0,-2.933899641E0,-3.259622574E0,-1.021466064E1
2.789975573E0,-2.929114103E0,-3.343371391E0,-1.007348442E1
2.792500730E0,-2.998505831E0,-3.317050457E0,-1.010937691E1
2.795025834E0,-2.881257534E0,-3.357728481E0,-1.040877819E1
2.797550990E0,-2.639283419E0,-3.424727440E0,-1.088794136E1
2.800076094E0,-2.510071039E0,-3.415156126E0,-1.149870968E1
2.802601250E0,-2.598605394E0,-3.362514019E0,-1.200658607E1
2.805126355E0,-2.969791889E0,-3.273979664E0,-1.252642632E1
2.807651511E0,-3.468097210E0,-3.209074259E0,-1.298883915E1
2.810176615E0,-4.105485439E0,-3.189931631E0,-1.311326599E1
2.812701980E0,-4.749752998E0,-3.305086374E0,-1.274207973E1
2.815227136E0,-5.336592674E0,-3.520739317E0,-1.129502010E1
2.817752240E0,-5.842076302E0,-3.918246984E0,-8.224131584E0
2.820277344E0,-6.093621731E0,-4.545764923E0,-3.929014683E0
2.822802500E0,-5.993123531E0,-5.599802971E0,-1.369891018E-1
2.825327605E0,-5.662315845E0,-6.883851528E0,1.324427366E0
2.827852761E0,-5.358128071E0,-8.302197456E0,-1.657029688E-1
2.830377865E0,-5.089832783E0,-9.669994354E0,-3.576671600E0
2.832903021E0,-4.871787071E0,-1.094178009E1,-8.193024635E0
2.835428125E0,-4.951049328E0,-1.209183025E1,-1.357089329E1
2.837953282E0,-5.439783096E0,-1.324397469E1,-1.897269058E1
2.840478386E0,-6.064908028E0,-1.450887966E1,-2.329891396E1
2.843003646E0,-6.634998322E0,-1.587907028E1,-2.560350227E1
2.845528802E0,-7.102196693E0,-1.737607956E1,-2.532802773E1
2.848053907E0,-7.494918823E0,-1.891646004E1,-2.224726868E1
2.850579011E0,-7.710571766E0,-2.029622078E1,-1.717119408E1
2.853104167E0,-7.753642559E0,-2.126172447E1,-1.125912762E1
2.855629271E0,-7.708178997E0,-2.164726830E1,-5.222634315E0
2.858154427E0,-7.521239758E0,-2.126411819E1,3.421736360E-1
2.860679532E0,-7.095018387E0,-2.019572258E1,4.220640182E0
2.863204688E0,-6.263811588E0,-1.845404625E1,6.055635929E0
2.865729792E0,-5.212165833E0,-1.619282913E1,6.259026051E0
2.868254948E0,-4.388137817E0,-1.351944828E1,5.348855972E0
2.870780052E0,-3.959224224E0,-1.131087303E1,3.717549086E0
2.873305417E0,-3.786641836E0,-9.631410599E0,1.753340840E0
2.875830573E0,-3.777070522E0,-8.189435959E0,-1.055833027E-1
2.878355677E0,-3.765106440E0,-7.087540627E0,-1.514357686E0
2.880880782E0,-3.738785267E0,-6.131608009E0,-2.537289381E0
2.883405938E0,-3.774677753E0,-5.319543839E0,-3.339782238E0
2.885931042E0,-3.777070522E0,-4.684847832E0,-4.034298897E0
2.888456198E0,-3.818047523E0,-4.186542511E0,-4.652245522E0
2.890981302E0,-3.846761465E0,-3.882354736E0,-5.342275620E0
2.893506459E0,-3.839582920E0,-3.594916821E0,-5.993721485E0
2.896031563E0,-3.798605919E0,-3.436691523E0,-6.556932449E0
2.898556719E0,-3.676572084E0,-3.405584812E0,-6.853941441E0
2.901081823E0,-3.573680639E0,-3.443870068E0,-6.851548672E0
2.903607136E0,-3.460918903E0,-3.496811152E0,-6.640681267E0
2.906132292E0,-3.372384310E0,-3.597309828E0,-5.984150410E0
2.908657396E0,-3.206980467E0,-3.716950893E0,-5.038087845E0
2.911182500E0,-3.046661377E0,-3.970889091E0,-4.010370731E0
2.913707657E0,-2.967399120E0,-4.279862404E0,-2.958725214E0
2.916232761E0,-2.976970434E0,-4.517050743E0,-2.115554333E0
2.918757917E0,-3.037090063E0,-4.847858906E0,-1.650748491E0
2.921283021E0,-3.111267567E0,-5.197509766E0,-1.571785331E0
2.923808177E0,-3.250051260E0,-5.528018475E0,-1.717747569E0
2.926333282E0,-3.350848913E0,-5.868098259E0,-2.017448664E0
2.928858438E0,-3.420240879E0,-6.215655804E0,-2.340778828E0
2.931383542E0,-3.520739317E0,-6.610770702E0,-2.656930447E0
2.933908855E0,-3.600001574E0,-7.015756130E0,-2.934797049E0
2.936434011E0,-3.633501291E0,-7.377371311E0,-3.260519981E0
2.938959115E0,-3.623929977E0,-7.767999649E0,-3.559921980E0
2.941484219E0,-3.537489176E0,-8.136793137E0,-3.792324781E0
2.944009375E0,-3.314956665E0,-8.472087860E0,-4.074976921E0
2.946534480E0,-3.077768087E0,-8.991928101E0,-4.340879440E0
2.949059636E0,-2.783151865E0,-9.495018959E0,-4.606781960E0
2.951584740E0,-2.490928411E0,-9.955039978E0,-4.815256596E0
2.954109896E0,-2.191227436E0,-1.035733318E1,-5.026124001E0
2.956635000E0,-1.877468467E0,-1.075753212E1,-5.184050083E0
2.959160157E0,-1.676471353E0,-1.104975605E1,-5.289633751E0
2.961685261E0,-1.463211060E0,-1.125344467E1,-5.193621635E0
2.964250105E0,-1.374377489E0,-1.148315620E1,-5.021338463E0
2.966775209E0,-1.314556956E0,-1.165813065E1,-4.834399223E0
2.969300365E0,-1.333699465E0,-1.175623703E1,-4.601995945E0
2.971825469E0,-1.352842093E0,-1.175862980E1,-4.395914078E0
2.974350573E0,-1.429711580E0,-1.172273731E1,-4.147060871E0
2.976875730E0,-1.496710539E0,-1.171316624E1,-3.948157310E0
2.979400834E0,-1.601994753E0,-1.166052341E1,-3.708575964E0
2.981925990E0,-1.705185294E0,-1.155763245E1,-3.531208038E0
2.984451094E0,-1.772184253E0,-1.143290615E1,-3.354139090E0
2.986976250E0,-1.865504384E0,-1.128933716E1,-3.179163933E0
2.989501355E0,-1.915753603E0,-1.124148083E1,-3.102593660E0
2.992026511E0,-1.927717686E0,-1.110000515E1,-2.980260611E0
2.994512344E0,-1.920539260E0,-1.100429249E1,-2.961117983E0
2.997037500E0,-1.820040703E0,-1.089631653E1,-2.891726255E0
2.999562605E0,-1.719542146E0,-1.085803127E1,-2.757428885E0
3.002087709E0,-1.604387641E0,-1.079821014E1,-2.774178743E0
3.004612865E0,-1.479960799E0,-1.075035381E1,-2.719143867E0
3.007137969E0,-1.439282775E0,-1.059930706E1,-2.767000198E0
3.009663125E0,-1.367199063E0,-1.042911720E1,-2.860619545E0
3.012188230E0,-1.321735382E0,-1.024965572E1,-2.896511793E0
3.014713386E0,-1.221236825E0,-1.009382343E1,-2.980260611E0
3.017238490E0,-1.154237866E0,-9.894919395E0,-2.987439156E0
3.019763646E0,-9.768698215E-1,-9.744172096E0,-2.970689297E0
3.022288750E0,-8.688937426E-1,-9.581160545E0,-3.018545866E0
3.024814115E0,-7.851449251E-1,-9.413662910E0,-3.133700371E0
3.027339271E0,-6.870391965E-1,-9.248259544E0,-3.198306561E0
3.029864375E0,-5.982056856E-1,-9.094820023E0,-3.152842999E0
3.032389480E0,-4.977070987E-1,-8.896215439E0,-3.205485106E0
3.034914636E0,-4.019941986E-1,-8.807381630E0,-3.174378395E0
3.037439740E0,-3.059822023E-1,-8.757132530E0,-3.157628536E0
3.039964896E0,-2.318046987E-1,-8.737990379E0,-3.124129057E0
3.042490000E0,-1.456630826E-1,-8.740383148E0,-3.037688255E0
3.045015157E0,-1.169492081E-1,-8.783453941E0,-2.949153900E0
3.047540261E0,-1.815554202E-1,-8.797810555E0,-3.001796007E0
3.050065417E0,-2.294118702E-1,-8.819346428E0,-2.989831924E0
3.052590521E0,-2.222333997E-1,-8.881858826E0,-2.827120066E0
3.055115886E0,-2.054836452E-1,-8.968000412E0,-2.616252422E0
3.057641042E0,-1.743769497E-1,-9.133403778E0,-2.350350142E0
3.060166146E0,-1.815554202E-1,-9.209974289E0,-2.168196440E0
3.062691250E0,-2.581257522E-1,-9.296115875E0,-2.012662888E0
3.065216407E0,-3.059822023E-1,-9.377771378E0,-1.904686809E0
3.067741511E0,-3.541377485E-1,-9.473484039E0,-1.806581140E0
3.070266667E0,-3.517449200E-1,-9.518947601E0,-1.777867198E0
3.072791771E0,-3.972085714E-1,-9.562018394E0,-1.703390598E0
3.075316927E0,-3.732803464E-1,-9.600303650E0,-1.645962834E0
3.077842032E0,-4.115654826E-1,-9.607481956E0,-1.583749533E0
3.080367188E0,-4.378865361E-1,-9.550054550E0,-1.483250976E0
3.082892292E0,-4.809573591E-1,-9.545269012E0,-1.432702541E0
3.085417657E0,-5.024927258E-1,-9.530911446E0,-1.418345571E0
3.087942813E0,-5.096712112E-1,-9.521340370E0,-1.413560033E0
3.090467917E0,-5.790630579E-1,-9.526125908E0,-1.430309772E0
3.092993021E0,-6.463612318E-1,-9.538089752E0,-1.509572029E0
3.095518177E0,-7.157530785E-1,-9.478269577E0,-1.629213095E0
3.098043282E0,-7.396813035E-1,-9.406484604E0,-1.708176255E0
3.100568438E0,-8.569296002E-1,-9.324830055E0,-1.770688772E0
3.103093542E0,-1.000798106E0,-9.214759827E0,-1.811366796E0
3.105618698E0,-1.108475089E0,-9.138189316E0,-1.842473388E0
3.108143802E0,-1.151844978E0,-9.042177200E0,-1.828116536E0
3.110668959E0,-1.187737346E0,-8.934500694E0,-1.816152334E0
3.113194063E0,-1.254736423E0,-8.855537415E0,-1.775474429E0
3.115719375E0,-1.316949725E0,-8.747561455E0,-1.782652855E0
3.118244532E0,-1.410568953E0,-8.627920151E0,-1.705783486E0
3.120769636E0,-1.525424480E0,-8.539086342E0,-1.655534148E0
3.123294740E0,-1.625923038E0,-8.450551987E0,-1.660319805E0
3.125819896E0,-1.731506228E0,-8.311768532E0,-1.626820326E0
3.128345000E0,-1.772184253E0,-8.273183823E0,-1.667498231E0
3.130870157E0,-1.836790442E0,-8.194221497E0,-1.610070586E0
3.133395261E0,-1.937289000E0,-8.148757935E0,-1.643570065E0
3.135920417E0,-2.026122570E0,-8.103293419E0,-1.665105462E0
3.138445521E0,-2.095514536E0,-8.112865448E0,-1.662712693E0
3.140970677E0,-2.155334949E0,-8.000102997E0,-1.744367719E0
3.143495782E0,-2.225025892E0,-7.978568077E0,-1.761117458E0
3.146021146E0,-2.280060768E0,-7.949853897E0,-1.787438512E0
3.148546302E0,-2.382952213E0,-7.894819260E0,-1.813759565E0
3.151071407E0,-2.426023006E0,-7.868498325E0,-1.868794441E0
3.153596511E0,-2.490928411E0,-7.782356739E0,-1.854437590E0
3.156121667E0,-2.550748825E0,-7.717451096E0,-1.856830359E0
3.158646771E0,-2.634497643E0,-7.688737392E0,-1.892722726E0
3.161171927E0,-2.720639229E0,-7.674380302E0,-1.926222205E0
3.163697032E0,-2.749652386E0,-7.660023689E0,-1.976471543E0
3.166222188E0,-2.852543592E0,-7.552346706E0,-2.058126688E0
3.168747292E0,-2.938685417E0,-7.530810833E0,-2.050948143E0
3.171272448E0,-3.046661377E0,-7.432406425E0,-2.115554333E0
3.173797552E0,-3.173480988E0,-7.363014221E0,-2.165803671E0
3.176362396E0,-3.298206806E0,-7.351050377E0,-2.239981174E0
3.178887657E0,-3.391526937E0,-7.262516022E0,-2.249552488E0
3.181412969E0,-3.484847069E0,-7.223931789E0,-2.307279348E0
3.183938282E0,-3.590430260E0,-7.173682213E0,-2.359921217E0
3.186463542E0,-3.693321705E0,-7.164111137E0,-2.359921217E0
3.188988855E0,-3.729214191E0,-7.130611420E0,-2.338385820E0
3.191514167E0,-3.789034605E0,-7.089933395E0,-2.350350142E0
3.194039480E0,-3.844368696E0,-7.058826923E0,-2.290529490E0
3.196564740E0,-3.911367655E0,-6.999006271E0,-2.213660002E0
3.199090052E0,-3.908974886E0,-6.953243732E0,-2.163410664E0
3.201615365E0,-3.916153431E0,-6.994220734E0,-2.144268274E0
3.204140625E0,-3.918546200E0,-7.018148899E0,-2.153839588E0
3.206624688E0,-3.853940010E0,-7.111468792E0,-2.113161564E0
3.209150000E0,-3.798605919E0,-7.094718933E0,-2.127518415E0
3.211675261E0,-3.717249870E0,-7.104290485E0,-2.139482498E0
3.214200573E0,-3.600001574E0,-7.188039303E0,-2.232802629E0
3.216725886E0,-3.499203920E0,-7.233801842E0,-2.283350945E0
3.219251198E0,-3.417848110E0,-7.298408031E0,-2.297708035E0
3.221776459E0,-3.317349434E0,-7.353443146E0,-2.371885538E0
3.224301771E0,-3.247658491E0,-7.425227642E0,-2.469991207E0
3.226827084E0,-3.173480988E0,-7.403692245E0,-2.534896374E0
3.229352344E0,-3.101696253E0,-7.473084450E0,-2.582752943E0
3.231877657E0,-3.051447153E0,-7.537989616E0,-2.635395050E0
3.234402969E0,-2.955435038E0,-7.597810268E0,-2.786142826E0
3.236926459E0,-2.878864765E0,-7.667201996E0,-2.848655462E0
3.239451771E0,-2.790330410E0,-7.736593723E0,-2.865405083E0
3.241977032E0,-2.737389088E0,-7.770392418E0,-2.985046148E0
3.244502344E0,-2.641676188E0,-7.787142277E0,-3.069094181E0
3.247027657E0,-2.550748825E0,-7.904390335E0,-3.145664454E0
3.249552969E0,-2.442772865E0,-8.002495766E0,-3.195913792E0
3.252078230E0,-2.332702875E0,-8.069794655E0,-3.267698526E0
3.254603542E0,-2.265703917E0,-8.105687141E0,-3.397209883E0
3.257128855E0,-2.152942181E0,-8.213363647E0,-3.445066452E0
3.259654115E0,-2.014158487E0,-8.395517349E0,-3.512065411E0
3.262179427E0,-1.908575177E0,-8.529515266E0,-3.550350666E0
3.264704740E0,-1.808076620E0,-8.697312355E0,-3.545564890E0
3.267267709E0,-1.688435435E0,-8.853144646E0,-3.600898981E0
3.269792969E0,-1.597209096E0,-9.044570923E0,-3.612863064E0
3.272318282E0,-1.508674622E0,-9.281759262E0,-3.595814228E0
3.274843594E0,-1.482353687E0,-9.475876808E0,-3.571886063E0
3.277368855E0,-1.451246977E0,-9.693922997E0,-3.524029493E0
3.279894167E0,-1.448854089E0,-9.959825516E0,-3.466601849E0
3.282419480E0,-1.436890006E0,-1.027597713E1,-3.409173965E0
3.284944792E0,-1.439282775E0,-1.059930706E1,-3.253341436E0
3.287470052E0,-1.388734460E0,-1.083410263E1,-3.131307602E0
3.289995365E0,-1.328913927E0,-1.104736328E1,-2.913261652E0
3.292520677E0,-1.302592874E0,-1.125344467E1,-2.700001240E0
3.295045938E0,-1.259521961E0,-1.142812061E1,-2.513062000E0
3.297530000E0,-1.156630635E0,-1.148794174E1,-2.335993052E0
3.300055313E0,-1.077368379E0,-1.149990559E1,-2.213660002E0
3.302580573E0,-1.036690354E0,-1.144726372E1,-1.966900229E0
3.305105886E0,-1.048654556E0,-1.134197903E1,-1.818545222E0
3.307631198E0,-1.024726272E0,-1.122203922E1,-1.665105462E0
3.310156511E0,-1.070189953E0,-1.106411266E1,-1.528714538E0
3.312681771E0,-1.170987606E0,-1.088913727E1,-1.401595831E0
3.315207084E0,-1.252343535E0,-1.071206856E1,-1.267597795E0
3.317732396E0,-1.304985642E0,-1.054905796E1,-1.071087241E0
3.320257657E0,-1.324128270E0,-1.045095158E1,-1.001695395E0
3.322782969E0,-1.400698543E0,-1.032622623E1,-9.275178909E-1
3.325308282E0,-1.350449324E0,-1.026640511E1,-8.913264275E-1
3.327831771E0,-1.304985642E0,-1.022094154E1,-9.634101987E-1
3.330357084E0,-1.281057477E0,-1.018983555E1,-9.346963167E-1
3.332882344E0,-1.233201027E0,-1.020897770E1,-1.004088163E0
3.335407657E0,-1.151844978E0,-1.031186962E1,-1.056730270E0
3.337932969E0,-1.159023523E0,-1.040997505E1,-1.109372377E0
3.340458282E0,-1.149452209E0,-1.041715336E1,-1.066301584E0
3.342983542E0,-1.163809061E0,-1.048923683E1,-1.066301584E0
3.345508855E0,-1.154237866E0,-1.062323570E1,-9.945169091E-1
3.348034167E0,-1.204487085E0,-1.074796104E1,-9.801599979E-1
3.350559427E0,-1.245165110E0,-1.082692432E1,-8.506484628E-1
3.353084740E0,-1.240379453E0,-1.093938732E1,-8.051848412E-1
3.355610052E0,-1.218844056E0,-1.105932713E1,-7.286145091E-1
3.358133542E0,-1.240379453E0,-1.116461182E1,-6.616154313E-1
3.360658855E0,-1.276271820E0,-1.129651546E1,-5.321039557E-1
3.363184115E0,-1.259521961E0,-1.142572784E1,-4.555336237E-1
3.365709427E0,-1.269093275E0,-1.157916832E1,-2.925225794E-1
3.368234740E0,-1.343270779E0,-1.172273731E1,-1.728814393E-1
3.370760052E0,-1.321735382E0,-1.188814068E1,-6.011966988E-2
3.373285313E0,-1.297807217E0,-1.209183025E1,1.193420291E-1
3.375810625E0,-1.266700506E0,-1.229761314E1,2.703889608E-1
3.378335938E0,-1.259521961E0,-1.245823097E1,3.613162339E-1
3.380861198E0,-1.259521961E0,-1.259013557E1,4.597210586E-1
3.383386511E0,-1.293021560E0,-1.281266785E1,4.932205677E-1
3.385911823E0,-1.271486163E0,-1.296132183E1,4.525425732E-1
3.388435313E0,-1.331306696E0,-1.311715508E1,4.190430641E-1
3.390960625E0,-1.484746456E0,-1.327986622E1,3.134597540E-1
3.393485886E0,-1.613958836E0,-1.338305664E1,2.129612118E-1
3.396011198E0,-1.808076620E0,-1.355773354E1,4.277170449E-2
3.398536511E0,-2.009372711E0,-1.371835136E1,-1.274178028E-1
3.401061823E0,-2.222633123E0,-1.392682552E1,-2.877369225E-1
3.403587084E0,-2.370988131E0,-1.412303734E1,-4.483551383E-1
3.406112396E0,-2.538784742E0,-1.430279827E1,-5.679962635E-1
3.408637709E0,-2.720639229E0,-1.449213028E1,-6.110670567E-1
3.411162969E0,-2.816651344E0,-1.471705532E1,-6.421737671E-1
3.413688282E0,-2.797508717E0,-1.484656715E1,-5.751747489E-1
3.416213594E0,-2.632104874E0,-1.509093380E1,-4.603192508E-1
3.418737084E0,-2.370988131E0,-1.532333755E1,-2.853440940E-1
3.421262396E0,-1.990230203E0,-1.556531143E1,-7.926224917E-2
3.423787657E0,-1.532602906E0,-1.583599949E1,2.727817893E-1
3.426312969E0,-9.960124493E-1,-1.617847252E1,5.961119533E-1
3.428838282E0,-4.522434771E-1,-1.650897980E1,8.333004713E-1
3.431363594E0,5.324030295E-2,-1.682034683E1,1.082453132E0
3.433888855E0,4.483551383E-1,-1.713679695E1,1.209272742E0
3.436414167E0,7.190431952E-1,-1.743619919E1,1.369890928E0
3.438939480E0,8.485547304E-1,-1.778345871E1,1.400997639E0
3.441464740E0,8.772686124E-1,-1.808525276E1,1.357926846E0
3.443990052E0,7.022934556E-1,-1.832722664E1,1.348355532E0
3.446515365E0,3.885345757E-1,-1.849980927E1,1.247856975E0
3.449038907E0,-8.344969153E-2,-1.863619995E1,1.206879973E0
3.451564219E0,-5.431707501E-1,-1.873939133E1,1.034596682E0
3.454089480E0,-1.036690354E0,-1.877289009E1,8.548358679E-1
3.456614792E0,-1.604387641E0,-1.869602013E1,6.104688644E-1
3.459140105E0,-2.191227436E0,-1.848545265E1,3.684946895E-1
3.461665417E0,-2.850150824E0,-1.821476364E1,1.073779166E-1
3.464190677E0,-3.515953779E0,-1.788874245E1,-1.776670814E-1
3.466715990E0,-4.122235298E0,-1.756062698E1,-4.818546474E-1
3.469241302E0,-4.764110088E0,-1.702882195E1,-7.166503668E-1
3.471766563E0,-5.219344616E0,-1.648266029E1,-8.985049129E-1
3.474291875E0,-5.561817169E0,-1.580967808E1,-1.224527001E0
3.476817188E0,-5.830112457E0,-1.503111362E1,-1.511964798E0
3.479340677E0,-5.935396671E0,-1.429322720E1,-1.717747569E0
3.481865990E0,-5.947360516E0,-1.357209015E1,-1.885544300E0
3.484391250E0,-5.822933674E0,-1.294457245E1,-1.935793519E0
3.486916563E0,-5.722435474E0,-1.223779202E1,-2.058126688E0
3.489441875E0,-5.602495193E0,-1.154327583E1,-2.067697763E0
3.491967188E0,-5.293521881E0,-1.108564854E1,-2.046162367E0
3.494492448E0,-5.080261707E0,-1.051316547E1,-2.072483540E0
3.497017761E0,-4.917549610E0,-9.907182693E0,-1.998306036E0
3.499543073E0,-4.630111694E0,-9.449555397E0,-1.940579176E0
3.502068334E0,-4.368995190E0,-9.008678436E0,-1.933400750E0
3.504593646E0,-4.210769653E0,-8.630312920E0,-1.914258122E0
3.507118959E0,-3.992723703E0,-8.239685059E0,-1.921436548E0
3.509642448E0,-3.873082638E0,-7.873283863E0,-2.041376829E0
3.512167761E0,-3.628715515E0,-7.664809227E0,-2.137089729E0
3.514693021E0,-3.496811152E0,-7.494918823E0,-2.158625126E0
3.517218334E0,-3.451347589E0,-7.346264839E0,-2.357528448E0
3.519743646E0,-3.393919706E0,-7.257730007E0,-2.460419893E0
3.522268959E0,-3.329313517E0,-7.317550659E0,-2.573181629E0
3.524794219E0,-3.343670607E0,-7.554739475E0,-2.709572554E0
3.527319532E0,-3.286242723E0,-7.911569118E0,-2.824727058E0
3.529844844E0,-3.173480988E0,-8.309375763E0,-2.918047190E0
3.532370105E0,-2.979363203E0,-8.838788033E0,-3.102593660E0
3.534895417E0,-2.581855536E0,-9.569196701E0,-3.243770123E0
3.537420730E0,-2.073979139E0,-1.031186962E1,-3.421138287E0
3.539944219E0,-1.661815286E0,-1.085324574E1,-3.516851187E0
3.542469532E0,-1.283450246E0,-1.126780224E1,-3.679862022E0
3.544994792E0,-9.074779749E-1,-1.161984539E1,-3.938585997E0
3.547520105E0,-5.240281820E-1,-1.187378407E1,-4.209274292E0
3.550045417E0,-1.624128371E-1,-1.215404320E1,-4.499104977E0
3.552570730E0,1.728814393E-1,-1.242951679E1,-4.803292274E0
3.555095990E0,5.252245665E-1,-1.272413349E1,-5.176871777E0
3.557621302E0,8.102695942E-1,-1.295175076E1,-5.610570908E0
3.560146615E0,1.119242787E0,-1.310249901E1,-6.025127411E0
3.562671875E0,1.337288737E0,-1.327986622E1,-6.410670757E0
3.565197188E0,1.497607827E0,-1.336600780E1,-6.796214581E0
3.567722500E0,1.631905079E0,-1.340219975E1,-7.184450150E0
3.570245990E0,1.737189293E0,-1.337797260E1,-7.581957817E0
3.572771302E0,1.739582062E0,-1.332772255E1,-7.951050758E0
3.575296563E0,1.753939033E0,-1.330140209E1,-8.271987915E0
3.577821875E0,1.720439434E0,-1.326072407E1,-8.521140099E0
3.580347188E0,1.732403636E0,-1.326550961E1,-8.739186287E0
3.582872500E0,1.761117458E0,-1.325833130E1,-8.954839706E0
3.585397761E0,1.799402595E0,-1.321286774E1,-9.045766830E0
3.587923073E0,1.876272082E0,-1.315543938E1,-9.098408699E0
3.590448386E0,1.969592094E0,-1.300199986E1,-9.057730675E0
3.592973646E0,2.041376829E0,-1.272891903E1,-8.988339424E0
3.595498959E0,2.055733681E0,-1.241276741E1,-8.875576973E0
3.598024271E0,2.043769598E0,-1.215165043E1,-8.813364029E0
3.600547813E0,1.988734722E0,-1.194078350E1,-8.789435387E0
3.603073125E0,1.883450508E0,-1.177059364E1,-8.846863747E0
3.605598386E0,1.713261008E0,-1.169880867E1,-9.002696037E0
3.608123698E0,1.557727575E0,-1.168445206E1,-8.875576973E0
3.610649011E0,1.406680584E0,-1.173230839E1,-8.540283203E0
3.613174323E0,1.250848055E0,-1.181157112E1,-8.049156189E0
3.615699584E0,1.157527924E0,-1.189292717E1,-7.275377274E0
3.618224896E0,1.030708313E0,-1.195514011E1,-6.151947021E0
3.620750209E0,1.033101201E0,-1.187856960E1,-4.156631947E0
3.623275469E0,8.748757839E-1,-1.169880867E1,-1.780260086E0
3.625800782E0,7.695915699E-1,-1.139701462E1,6.176473498E-1
3.628326094E0,7.528418303E-1,-1.105693436E1,2.768795013E0
3.630849584E0,8.198408484E-1,-1.073599720E1,4.579862595E0
3.633374896E0,1.107278705E0,-1.061366367E1,5.758327484E0
3.635900157E0,1.387538075E0,-1.053948689E1,6.285346985E0
3.638425469E0,1.519143224E0,-1.048205853E1,6.242276192E0
3.640950782E0,1.543370605E0,-1.066391277E1,5.717649937E0
3.643476094E0,1.409073472E0,-1.095852947E1,4.968098164E0
3.646001355E0,1.167099237E0,-1.128933716E1,4.158127785E0
3.648526667E0,8.485547304E-1,-1.167966652E1,3.506681681E0
3.651051980E0,5.084748268E-1,-1.194556904E1,3.171387196E0
3.653577240E0,1.178465188E-1,-1.218754292E1,3.157030344E0
3.656102552E0,-2.868396044E-1,-1.229761314E1,3.425325632E0
3.658627865E0,-6.224330068E-1,-1.239841080E1,3.865904093E0
3.661151407E0,-7.444669604E-1,-1.249412346E1,4.330709934E0
3.663676719E0,-9.337990284E-1,-1.256351566E1,5.025525570E0
3.666201980E0,-9.002995491E-1,-1.268106270E1,6.266204357E0
3.668727292E0,-9.290133715E-1,-1.276002598E1,8.319246292E0
3.671252605E0,-5.527420044E-1,-1.280309677E1,1.032921696E1
3.673777917E0,-3.421736360E-1,-1.269302654E1,1.116042423E1
3.676303177E0,-2.844468057E-1,-1.242951679E1,1.102373409E1
3.678828490E0,-3.948157430E-1,-1.207986641E1,1.055892849E1
3.681353802E0,-4.570291340E-1,-1.183789158E1,9.967302322E0
3.683879063E0,-7.875377536E-1,-1.140658569E1,9.231808662E0
3.686404375E0,-1.491924882E0,-1.089631653E1,8.414958954E0
3.688929688E0,-2.258525372E0,-1.040758228E1,7.588537693E0
3.691453177E0,-2.874078989E0,-1.002921677E1,6.668796539E0
3.693978177E0,-3.245265722E0,-9.760921478E0,5.696114540E0
3.696503230E0,-3.367598772E0,-9.518947601E0,4.699802876E0
3.699028230E0,-3.293421268E0,-9.346364975E0,3.928416491E0
3.701553282E0,-3.166302681E0,-9.195617676E0,3.394218922E0
3.704078282E0,-2.950649500E0,-9.066105843E0,3.032304525E0
3.706603334E0,-2.778366089E0,-8.879466057E0,2.735295296E0
3.709128334E0,-2.510071039E0,-8.764310837E0,2.457428932E0
3.711653386E0,-2.229811668E0,-8.635098457E0,2.064706802E0
3.714178386E0,-1.951945066E0,-8.572885513E0,1.547258973E0
3.716703386E0,-1.623530149E0,-8.558229446E0,9.699904919E-1
3.719228438E0,-1.410568953E0,-8.534300804E0,4.067798555E-1
3.721754948E0,-1.245165110E0,-8.467302322E0,-1.992024779E-1
3.724279948E0,-1.122832060E0,-8.347661018E0,-7.645068169E-1
3.726805000E0,-1.094118118E0,-8.225327492E0,-1.327418327E0
3.729330000E0,-1.091725349E0,-8.081758499E0,-1.890329838E0
3.731855052E0,-1.163809061E0,-7.995317936E0,-2.422134638E0
3.734380052E0,-1.202094316E0,-7.901997566E0,-2.906083107E0
3.736905105E0,-1.226022482E0,-7.758129120E0,-3.286840916E0
3.739430105E0,-1.328913927E0,-7.638488293E0,-3.593421459E0
3.741955157E0,-1.408176184E0,-7.511668682E0,-3.811467409E0
3.744480157E0,-1.609173179E0,-7.319943428E0,-4.046263218E0
3.747005157E0,-1.846361756E0,-7.111468792E0,-4.209274292E0
3.749530209E0,-1.983051777E0,-6.910172462E0,-4.444069862E0
3.752056771E0,-2.105085611E0,-6.680162430E0,-4.613960266E0
3.754581771E0,-2.184048891E0,-6.512664795E0,-4.618745804E0
3.757106823E0,-2.196012974E0,-6.443273067E0,-4.832006454E0
3.759631823E0,-2.131406784E0,-6.313761711E0,-5.112265587E0
3.762156875E0,-2.140978098E0,-6.277869225E0,-5.526822090E0
3.764681875E0,-2.119442701E0,-6.263512135E0,-6.123233318E0
3.767206927E0,-2.121835470E0,-6.282654762E0,-6.930511475E0
3.769731927E0,-2.109871387E0,-6.277869225E0,-7.658827305E0
3.772256980E0,-2.191227436E0,-6.313761711E0,-8.188239098E0
3.774781980E0,-2.157727718E0,-6.332904339E0,-8.475676537E0
3.777306980E0,-2.109871387E0,-6.342475414E0,-8.382058144E0
3.779832032E0,-1.954337835E0,-6.375975132E0,-7.910372734E0
3.782358594E0,-1.693221092E0,-6.356832504E0,-7.234699249E0
3.784883594E0,-1.477568030E0,-6.328118801E0,-6.377171516E0
3.787408646E0,-1.235593796E0,-6.253941059E0,-5.440381527E0
3.789933646E0,-9.768698215E-1,-6.172585011E0,-4.316951275E0
3.792458698E0,-7.396813035E-1,-6.119643688E0,-3.188735247E0
3.794983750E0,-6.176473498E-1,-5.980860233E0,-2.137089729E0
3.797508750E0,-5.359922647E-1,-5.913861275E0,-1.195813060E0
3.800033750E0,-4.689932466E-1,-5.769992828E0,-2.853440940E-1
3.802558802E0,-4.905286431E-1,-5.559125423E0,4.334000051E-1
3.805083802E0,-5.551348329E-1,-5.331508160E0,1.056132078E0
3.807608802E0,-6.343970895E-1,-5.089832783E0,1.549651742E0
3.810133855E0,-6.990033388E-1,-4.826323509E0,1.978266120E0
3.812660365E0,-7.707880139E-1,-4.514657974E0,2.217847586E0
3.815185365E0,-9.577272534E-1,-4.174578190E0,2.342573404E0
3.817710417E0,-1.065404296E0,-3.882354736E0,2.356930256E0
3.820235417E0,-1.166201949E0,-3.623630762E0,2.272882462E0
3.822760469E0,-1.190130115E0,-3.412763357E0,2.131705761E0
3.825285469E0,-1.147059321E0,-3.250051260E0,2.093420744E0
3.827810521E0,-1.118046403E0,-3.110968590E0,1.997408748E0
3.830335521E0,-1.132403374E0,-3.032005310E0,1.882553220E0
3.832860573E0,-1.113260746E0,-2.965006351E0,1.719542146E0
3.835385573E0,-1.034297585E0,-3.010469913E0,1.492223978E0
3.837910573E0,-9.816554785E-1,-3.029612541E0,1.293320656E0
3.840435625E0,-9.481559992E-1,-3.101397276E0,1.096810102E0
3.842962188E0,-9.266205430E-1,-3.166003466E0,8.668000102E-1
3.845487188E0,-9.433703423E-1,-3.252444267E0,5.554339290E-1
3.848012240E0,-9.290133715E-1,-3.376870871E0,3.254238665E-1
3.850537240E0,-9.194421172E-1,-3.506382465E0,1.603191197E-1
3.853062292E0,-9.792626500E-1,-3.690629721E0,6.669992954E-2
3.855587292E0,-1.031904817E0,-3.856033802E0,4.037888348E-2
3.858112344E0,-1.120439172E0,-4.059722900E0,-3.858426586E-2
3.860637344E0,-1.163809061E0,-4.205684662E0,-1.345962733E-1
3.863162396E0,-1.304985642E0,-4.344767570E0,-3.571287692E-1
3.865687396E0,-1.367199063E0,-4.478765965E0,-5.632106066E-1
3.868212396E0,-1.446461320E0,-4.540979385E0,-5.919244885E-1
3.870737448E0,-1.503889084E0,-4.636991024E0,-6.062814593E-1
3.873263959E0,-1.511067510E0,-4.727918625E0,-5.847460628E-1
3.875788959E0,-1.578066587E0,-4.804488659E0,-5.416752100E-1
3.878314011E0,-1.702792406E0,-4.840680122E0,-5.464608669E-1
3.880839011E0,-1.781755567E0,-4.852644444E0,-5.129613280E-1
3.883364063E0,-1.906182289E0,-4.804488659E0,-5.512465239E-1
3.885889063E0,-2.006979942E0,-4.787738800E0,-5.536393523E-1
3.888414115E0,-2.121835470E0,-4.720739841E0,-6.230311990E-1
3.890939115E0,-2.174477577E0,-4.670490742E0,-6.951149702E-1
3.893464167E0,-2.272882462E0,-4.593920231E0,-6.999006271E-1
3.895989167E0,-2.347059965E0,-4.521836758E0,-7.381857634E-1
3.898514167E0,-2.442772865E0,-4.418945312E0,-8.267202377E-1
3.901039219E0,-2.586641312E0,-4.263112545E0,-9.224331379E-1
3.903565782E0,-2.682354212E0,-4.117150307E0,-1.056730270E0
3.906090782E0,-2.847758055E0,-3.994817495E0,-1.222134113E0
3.908615834E0,-2.917150021E0,-3.908675671E0,-1.353739381E0
3.911140834E0,-2.919542789E0,-3.796213150E0,-1.461715579E0
3.913665886E0,-2.953042269E0,-3.726522207E0,-1.612463355E0
3.916190886E0,-2.950649500E0,-3.678665638E0,-1.780260086E0
3.918715938E0,-2.926721096E0,-3.614059448E0,-1.907079697E0
3.921240938E0,-2.902792931E0,-3.635594845E0,-2.053340912E0
3.923765990E0,-2.802294493E0,-3.772284985E0,-2.149053812E0
3.926290990E0,-2.734996319E0,-3.901497364E0,-2.273779631E0
3.928815990E0,-2.593819857E0,-4.098007679E0,-2.388635159E0
3.931341042E0,-2.392523527E0,-4.224827290E0,-2.422134638E0
3.933867552E0,-2.253739834E0,-4.236791611E0,-2.484348059E0
3.936392552E0,-2.052443504E0,-4.366302967E0,-2.640180588E0
3.938917605E0,-1.798505306E0,-4.605884552E0,-2.822334290E0
3.941442605E0,-1.546959877E0,-4.926821709E0,-2.975475073E0
3.943967657E0,-1.321735382E0,-5.185545921E0,-3.241377354E0
3.946492657E0,-1.024726272E0,-5.422734261E0,-3.452244759E0
3.949017709E0,-7.516453862E-1,-5.633601665E0,-3.727718592E0
3.951542709E0,-5.312066078E-1,-5.872884274E0,-3.957728624E0
3.954067761E0,-2.772683203E-1,-6.098108292E0,-4.221238136E0
3.956592761E0,-5.682953820E-2,-6.304190159E0,-4.546961308E0
3.959117761E0,1.680957973E-1,-6.548557281E0,-4.887041092E0
3.961642813E0,4.603192508E-1,-6.814459801E0,-5.203192711E0
3.964169375E0,6.544370055E-1,-7.094718933E0,-5.481358528E0
3.966694375E0,7.552346587E-1,-7.317550659E0,-5.912365437E0
3.969219427E0,8.916255236E-1,-7.626523972E0,-6.286244392E0
3.971744427E0,9.299107194E-1,-7.940282822E0,-6.719644070E0
3.974269480E0,9.059824944E-1,-8.222934723E0,-7.064509869E0
3.976794480E0,7.863413692E-1,-8.534300804E0,-7.483851910E0
3.979319532E0,6.879364848E-1,-8.917751312E0,-7.903193951E0
3.981844532E0,4.821537733E-1,-9.267401695E0,-8.327022552E0
3.984369584E0,1.800599098E-1,-9.602696419E0,-8.734400749E0
3.986894584E0,-1.360917836E-1,-9.909575462E0,-9.160622597E0
3.989419584E0,-4.642075896E-1,-1.015125084E1,-9.483952522E0
3.991944636E0,-8.473583460E-1,-1.035494041E1,-9.778867722E0
3.994471198E0,-1.295414329E0,-1.055862904E1,-9.996614456E0
3.996996198E0,-1.671386600E0,-1.067109203E1,-1.015005493E1
3.999521250E0,-1.987837434E0,-1.078863907E1,-1.018594646E1
4.002046250E0,-2.323131800E0,-1.087238789E1,-1.020987511E1
4.004571302E0,-2.617748022E0,-1.084367371E1,-1.020030403E1
4.007096302E0,-2.900400162E0,-1.069023418E1,-1.018116093E1
4.009621355E0,-3.149552822E0,-1.051077271E1,-1.015962601E1
4.012146355E0,-3.319742203E0,-1.034058285E1,-1.011894798E1
4.014671407E0,-3.393919706E0,-1.010100174E1,-1.003759193E1
4.017196407E0,-3.436990738E0,-9.878170013E0,-9.951150894E0
4.019721407E0,-3.470490217E0,-9.648459435E0,-9.814760208E0
4.022246459E0,-3.487239838E0,-9.389735222E0,-9.680462837E0
4.024773021E0,-3.456133127E0,-9.209974289E0,-9.532108307E0
4.027298021E0,-3.451347589E0,-8.996713638E0,-9.311669350E0
4.029823073E0,-3.413062334E0,-8.795417786E0,-9.151051521E0
4.032348073E0,-3.391526937E0,-8.625527382E0,-9.014659882E0
4.034873125E0,-3.420240879E0,-8.436195374E0,-8.904291153E0
4.037398125E0,-3.398705482E0,-8.333304405E0,-8.679066658E0
4.039923177E0,-3.341277838E0,-8.254041672E0,-8.367700577E0
4.042448177E0,-3.307778120E0,-8.167900085E0,-8.051548958E0
4.044973230E0,-3.137588739E0,-8.134400368E0,-7.749754429E0
4.047498230E0,-2.998505831E0,-8.021638870E0,-7.376174927E0
4.050023230E0,-2.823829889E0,-8.067401886E0,-6.966403961E0
4.052548282E0,-2.586641312E0,-8.105687141E0,-6.508776665E0
4.055074792E0,-2.342274189E0,-8.280363083E0,-6.099305153E0
4.057599792E0,-2.150549412E0,-8.592027664E0,-5.826223850E0
4.060124844E0,-1.947159410E0,-8.793025017E0,-5.586642742E0
4.062649844E0,-1.748256087E0,-8.994320869E0,-5.368596554E0
4.065174896E0,-1.628315806E0,-9.324830055E0,-5.303990364E0
4.067699896E0,-1.546959877E0,-9.655637741E0,-5.363811016E0
4.070224948E0,-1.609173179E0,-1.001246738E1,-5.464309692E0
4.072749948E0,-1.707578063E0,-1.029511929E1,-5.632106304E0
4.075275000E0,-1.798505306E0,-1.054905796E1,-5.866901875E0
4.077800000E0,-2.006979942E0,-1.075992489E1,-6.192625046E0
4.080325000E0,-2.265703917E0,-1.085324574E1,-6.600003242E0
4.082850052E0,-2.641676188E0,-1.096092224E1,-7.227520943E0
4.085376615E0,-2.881257534E0,-1.109043407E1,-8.013263702E0
4.087901615E0,-3.037090063E0,-1.122203922E1,-8.913862228E0
4.090426667E0,-3.123231649E0,-1.137069321E1,-9.881759644E0
4.092951667E0,-3.156731367E0,-1.159352493E1,-1.083769226E1
4.095476719E0,-3.084946632E0,-1.187378407E1,-1.152263737E1
4.098001719E0,-2.831008196E0,-1.225214958E1,-1.191326618E1
4.100526771E0,-2.366202593E0,-1.273849010E1,-1.194915771E1
4.103051771E0,-1.772184253E0,-1.320090389E1,-1.160877895E1
4.105576823E0,-1.168594718E0,-1.368245888E1,-1.064836025E1
4.108101823E0,-4.905286431E-1,-1.402971745E1,-9.287740707E0
4.110626823E0,5.802594870E-2,-1.415175152E1,-7.711469173E0
4.113151875E0,4.244269133E-1,-1.413500118E1,-5.926722527E0
4.115678438E0,6.137589812E-1,-1.390738392E1,-4.161417484E0
4.118203438E0,5.036891699E-1,-1.350987625E1,-2.517847538E0
4.120728490E0,1.992024779E-1,-1.291825104E1,-8.219345808E-1
4.123253490E0,-3.083750308E-1,-1.220189953E1,8.380861282E-1
4.125778542E0,-9.577272534E-1,-1.143051338E1,2.538784742E0
4.128303542E0,-1.743470430E0,-1.062323570E1,4.184747696E0
4.130828594E0,-2.589034081E0,-9.847063065E0,5.492425442E0
4.133353594E0,-3.566502094E0,-9.178867340E0,6.675975323E0
4.135878646E0,-4.574777603E0,-8.534300804E0,7.543074131E0
4.138403646E0,-5.619245052E0,-8.055437088E0,7.921738625E0
4.140928646E0,-6.694818497E0,-7.734200954E0,7.780262947E0
4.143453698E0,-7.739285946E0,-7.499704361E0,7.258029461E0
4.145980261E0,-8.814859390E0,-7.408477783E0,6.266204357E0
4.148505261E0,-9.897611618E0,-7.453941822E0,4.977669239E0
4.151030313E0,-1.094207859E1,-7.485048294E0,3.616751432E0
4.153555313E0,-1.202004528E1,-7.487441063E0,2.246561289E0
4.156080365E0,-1.313868999E1,-7.545167923E0,6.945167780E-1
4.158605365E0,-1.411855125E1,-7.526025295E0,-7.429714203E-1
4.161130417E0,-1.475803280E1,-7.451549053E0,-1.885544300E0
4.163655417E0,-1.481336689E1,-7.398906708E0,-2.700001240E0
4.166180469E0,-1.408505154E1,-7.499704361E0,-3.119343519E0
4.168705469E0,-1.244417286E1,-7.789535046E0,-3.342175007E0
4.171230469E0,-1.043420219E1,-8.117650986E0,-3.423531055E0
4.173755521E0,-8.462815285E0,-8.424231529E0,-3.504886866E0
4.176282032E0,-6.666104794E0,-8.778668404E0,-3.586242914E0
4.178807032E0,-5.075475693E0,-9.111868858E0,-3.595814228E0
4.181332084E0,-3.640679598E0,-9.389735222E0,-3.423531055E0
4.183857084E0,-2.452344179E0,-9.765707016E0,-3.109772205E0
4.186382136E0,-1.470389485E0,-1.008664513E1,-2.656930447E0
4.188907136E0,-6.104688644E-1,-1.037408257E1,-1.983649969E0
4.191432188E0,3.649054468E-2,-1.058016396E1,-1.296311617E0
4.193957188E0,5.276173949E-1,-1.073121166E1,-6.640082598E-1
4.196482240E0,8.557332158E-1,-1.092502975E1,-2.327020019E-1
4.199007240E0,1.135992527E0,-1.107129097E1,1.025922745E-1
4.201532240E0,1.303789258E0,-1.117896843E1,2.608176768E-1
4.204057292E0,1.406680584E0,-1.127737331E1,2.440679073E-1
4.206583907E0,1.526321769E0,-1.135155106E1,1.097707376E-1
4.209109011E0,1.629512191E0,-1.139940739E1,-1.896311939E-1
4.211634167E0,1.684547186E0,-1.139940739E1,-3.981058598E-1
4.214159271E0,1.739582062E0,-1.140897846E1,-6.182455420E-1
4.216684427E0,1.797009826E0,-1.141137123E1,-8.913264275E-1
4.219209532E0,1.936092615E0,-1.136112213E1,-1.157228827E0
4.221734636E0,2.108675003E0,-1.132044411E1,-1.353739381E0
4.224259792E0,2.309672117E0,-1.125583744E1,-1.435095429E0
4.226784896E0,2.532503605E0,-1.127019501E1,-1.358525038E0
4.229310052E0,2.812762976E0,-1.130130100E1,-1.317847013E0
4.231835157E0,3.042773008E0,-1.133001518E1,-1.222134113E0
4.234360261E0,3.287140131E0,-1.134676456E1,-1.126122117E0
4.236885677E0,3.536292791E0,-1.140897846E1,-9.825528264E-1
4.239410782E0,3.660719633E0,-1.142094231E1,-8.315058947E-1
4.241935938E0,3.783052683E0,-1.153131104E1,-6.664010882E-1
4.244461042E0,3.902693748E0,-1.156241798E1,-4.627120793E-1
4.246986198E0,3.919443607E0,-1.155045414E1,-3.164508045E-1
4.249511302E0,3.912265062E0,-1.151695442E1,-2.255235314E-1
4.252036407E0,3.842873096E0,-1.146640587E1,-1.031904742E-1
4.254561563E0,3.785445452E0,-1.137308598E1,-4.815555736E-2
4.257086667E0,3.636791229E0,-1.116939735E1,-7.477570791E-3
4.259611823E0,3.442972660E0,-1.101386356E1,-7.477570791E-3
4.262136927E0,3.246462107E0,-1.092263699E1,-1.393819153E-1
4.264662032E0,3.035594702E0,-1.072642612E1,-2.446661144E-1
4.267187500E0,2.769692183E0,-1.054666519E1,-3.092723191E-1
4.269712605E0,2.570788860E0,-1.045095158E1,-3.451646566E-1
4.272237761E0,2.367398977E0,-1.036451149E1,-4.244269133E-1
4.274762865E0,2.139781713E0,-1.025444126E1,-4.914259613E-1
4.277288021E0,1.902593136E0,-1.018983555E1,-5.656034350E-1
4.279813125E0,1.737189293E0,-1.013210869E1,-5.727819204E-1
4.282338230E0,1.550549030E0,-1.005553818E1,-3.810569942E-1
4.284863386E0,1.322931767E0,-9.957432747E0,-2.207378894E-1
4.287388490E0,1.049850941E0,-9.832706451E0,-1.920240223E-1
4.289913646E0,8.102695942E-1,-9.847063065E0,-2.207378894E-1
4.292438750E0,5.515456200E-1,-9.827920914E0,-2.757728100E-1
4.294963855E0,2.449652255E-1,-9.739386559E0,-3.427718580E-1
4.297489375E0,-5.443671346E-2,-9.624231339E0,-3.909274042E-1
4.300014480E0,-3.131606579E-1,-9.566803932E0,-4.268197417E-1
4.302539636E0,-4.977070987E-1,-9.557232857E0,-4.028915167E-1
4.305064740E0,-6.774678826E-1,-9.497411728E0,-5.153541565E-1
4.307589896E0,-8.811569214E-1,-9.506983757E0,-5.679962635E-1
4.310115000E0,-1.118046403E0,-9.370592117E0,-5.368895531E-1
4.312640105E0,-1.293021560E0,-9.281759262E0,-4.794618487E-1
4.315165261E0,-1.403091431E0,-9.305686951E0,-4.962115884E-1
4.317690365E0,-1.599601984E0,-9.241081238E0,-4.172484577E-1
4.320215521E0,-1.731506228E0,-9.178867340E0,-4.818546474E-1
4.322740625E0,-1.836790442E0,-9.157332420E0,-4.938187599E-1
4.325265730E0,-1.983051777E0,-9.090034485E0,-4.651049078E-1
4.327791198E0,-2.109871387E0,-9.097212791E0,-4.435695112E-1
4.330316302E0,-2.232204437E0,-9.099904060E0,-4.698905349E-1
4.332841459E0,-2.296810627E0,-9.138189316E0,-4.316053987E-1
4.335366563E0,-2.354238272E0,-9.169296265E0,-4.555336237E-1
4.337891719E0,-2.421237469E0,-9.229117393E0,-5.129613280E-1
4.340416823E0,-2.507678032E0,-9.231510162E0,-4.938187599E-1
4.342941927E0,-2.519642353E0,-9.288937569E0,-5.512465239E-1
4.345467084E0,-2.550748825E0,-9.346364975E0,-6.445665956E-1
4.347992188E0,-2.711068153E0,-9.370592117E0,-8.147560954E-1
4.350517344E0,-2.881257534E0,-9.454340935E0,-8.673982024E-1
4.353042448E0,-2.950649500E0,-9.518947601E0,-9.753743410E-1
4.355567552E0,-2.929114103E0,-9.595518112E0,-1.159621716E0
4.358093021E0,-3.056232691E0,-9.581160545E0,-1.329811215E0
4.360618125E0,-3.072982550E0,-9.550054550E0,-1.301097274E0
4.363143282E0,-3.013161898E0,-9.550054550E0,-1.382453322E0
4.365668386E0,-2.943470955E0,-9.518947601E0,-1.447059512E0
4.368193542E0,-2.859722137E0,-9.392127991E0,-1.444666624E0
4.370718646E0,-2.725425005E0,-9.310472488E0,-1.344168067E0
4.373243750E0,-2.648854733E0,-9.262616158E0,-1.377667665E0
4.375768907E0,-2.378166676E0,-9.310472488E0,-1.454237938E0
4.378294011E0,-2.289632082E0,-9.231510162E0,-1.574178219E0
4.380819167E0,-2.236989975E0,-9.166903496E0,-1.547857165E0
4.383344271E0,-2.205584288E0,-9.142974854E0,-1.586142302E0
4.385869375E0,-2.200798512E0,-9.097212791E0,-1.617249012E0
4.388394844E0,-2.133799553E0,-9.015856743E0,-1.552642822E0
4.390919948E0,-2.035693884E0,-8.984749794E0,-1.583749533E0
4.393445105E0,-1.922932148E0,-8.999106407E0,-1.607677698E0
4.395970209E0,-1.879861236E0,-9.025427818E0,-1.698604941E0
4.398495365E0,-1.832004786E0,-8.994320869E0,-1.665105462E0
4.401020469E0,-1.736291885E0,-8.979964256E0,-1.622034669E0
4.403545573E0,-1.604387641E0,-9.034998894E0,-1.566999674E0
4.406070730E0,-1.434497118E0,-9.114261627E0,-1.466501236E0
4.408595834E0,-1.326521039E0,-9.080462456E0,-1.363310695E0
4.411120990E0,-1.199701428E0,-9.150154114E0,-1.322632670E0
4.413646094E0,-1.051047325E0,-9.267401695E0,-1.348953724E0
4.416171198E0,-9.601200819E-1,-9.327222824E0,-1.346560955E0
4.418696667E0,-8.763712645E-1,-9.360722542E0,-1.370489120E0
4.421221771E0,-8.114659786E-1,-9.387342453E0,-1.423131227E0
4.423746927E0,-7.372884750E-1,-9.437591553E0,-1.420738459E0
4.426272032E0,-6.750751138E-1,-9.483055115E0,-1.451845169E0
4.428797188E0,-6.463612318E-1,-9.490233421E0,-1.490429401E0
4.431322292E0,-6.439684033E-1,-9.463912964E0,-1.480858088E0
4.433847396E0,-7.085745931E-1,-9.444769859E0,-1.490429401E0
4.436372552E0,-7.444669604E-1,-9.375378609E0,-1.449452281E0
4.438897657E0,-8.066803217E-1,-9.274580956E0,-1.447059512E0
4.441422813E0,-8.353942037E-1,-9.236295700E0,-1.435095429E0
4.443947917E0,-8.497511148E-1,-9.221938133E0,-1.459023595E0
4.446473021E0,-9.074779749E-1,-9.176474571E0,-1.540678620E0
4.448998490E0,-9.361918569E-1,-9.111868858E0,-1.566999674E0
4.451523594E0,-9.218349457E-1,-9.114261627E0,-1.566999674E0
4.454048750E0,-9.194421172E-1,-9.078069687E0,-1.511964798E0
4.456573855E0,-9.290133715E-1,-9.003892899E0,-1.473679662E0
4.459099011E0,-9.098708034E-1,-9.001500130E0,-1.476072431E0
4.461624115E0,-8.186444640E-1,-9.044570923E0,-1.454237938E0
4.464149219E0,-7.420741320E-1,-9.058927536E0,-1.351346612E0
4.466674375E0,-6.391827464E-1,-9.082855225E0,-1.267597795E0
4.469199480E0,-5.503492355E-1,-9.135796547E0,-1.205384374E0
4.471724636E0,-5.264210105E-1,-9.123832703E0,-1.090229869E0
4.474249740E0,-5.000999570E-1,-9.087641716E0,-9.346963167E-1
4.476774844E0,-4.761717021E-1,-9.121439934E0,-8.123632669E-1
4.479300313E0,-4.905286431E-1,-9.128618240E0,-6.927221417E-1
4.481825417E0,-5.431707501E-1,-9.114261627E0,-5.488536954E-1
4.484350573E0,-5.982056856E-1,-9.131011009E0,-3.523431420E-1
4.486875677E0,-6.176473498E-1,-9.193224907E0,-1.992024779E-1
4.489400834E0,-6.750751138E-1,-9.224330902E0,9.272187948E-3
4.491925938E0,-7.564310431E-1,-9.190832138E0,2.297109663E-1
4.494451042E0,-9.074779749E-1,-9.092427254E0,4.549354017E-1
4.496976198E0,-9.888339639E-1,-9.058927536E0,6.535396576E-1
4.499501302E0,-1.082154036E0,-9.068498611E0,8.596215248E-1
4.502026459E0,-1.170987606E0,-8.984749794E0,1.039382339E0
4.504551563E0,-1.350449324E0,-8.922536850E0,1.190130115E0
4.507076667E0,-1.439282775E0,-8.860322952E0,1.338784218E0
4.509602188E0,-1.599601984E0,-8.788239479E0,1.518545032E0
4.512127292E0,-1.803290963E0,-8.723632812E0,1.609472275E0
4.514652448E0,-1.903789520E0,-8.673383713E0,1.729113460E0
4.517177552E0,-2.018944025E0,-8.661419868E0,1.789233088E0
4.519702709E0,-2.124228239E0,-8.625527382E0,1.913659930E0
4.522227813E0,-2.176870346E0,-8.670990944E0,1.916052699E0
4.524752917E0,-2.241775751E0,-8.702097893E0,1.786840320E0
4.527278073E0,-2.294417858E0,-8.694919586E0,1.733899117E0
4.529803177E0,-2.366202593E0,-8.733204842E0,1.638186216E0
4.532328334E0,-2.378166676E0,-8.850751877E0,1.528116345E0
4.534853438E0,-2.382952213E0,-8.917751312E0,1.355534077E0
4.537378542E0,-2.368595362E0,-9.020642281E0,1.243071318E0
4.539904011E0,-2.397309303E0,-9.049356461E0,1.041775107E0
4.542429115E0,-2.385344982E0,-9.214759827E0,8.907282352E-1
4.544954271E0,-2.325524569E0,-9.310472488E0,7.040880919E-1
4.547479375E0,-2.315953255E0,-9.439984322E0,5.458626747E-1
4.550004532E0,-2.246561289E0,-9.511769295E0,3.254238665E-1
4.552529636E0,-2.140978098E0,-9.619445801E0,1.289133132E-1
4.555054740E0,-2.016551256E0,-9.808777809E0,-1.513460279E-1
4.557579896E0,-1.903789520E0,-9.880562782E0,-3.714857101E-1
4.560105000E0,-1.865504384E0,-9.926325798E0,-6.038886309E-1
4.562630157E0,-1.848754644E0,-1.005314541E1,-8.530412912E-1
4.565155261E0,-1.776969910E0,-1.008185863E1,-1.205384374E0
4.567680365E0,-1.810469389E0,-1.010818005E1,-1.633998752E0
4.570205834E0,-1.858325839E0,-1.016800117E1,-1.954936147E0
4.572730938E0,-1.954337835E0,-1.017547798E1,-2.189731836E0
4.575256094E0,-2.117049932E0,-1.019940662E1,-2.383849621E0
4.577781198E0,-2.287239313E0,-1.026879883E1,-2.556432009E0
4.580306355E0,-2.454736948E0,-1.032861900E1,-2.628216505E0
4.582831459E0,-2.620140791E0,-1.035254669E1,-2.539682150E0
4.585356563E0,-2.814258575E0,-1.035015392E1,-2.364706993E0
4.587881719E0,-2.957827806E0,-1.035254669E1,-2.096411705E0
4.590406823E0,-3.159124136E0,-1.038126087E1,-1.739582062E0
4.592931980E0,-3.300599813E0,-1.037886810E1,-1.322632670E0
4.595457084E0,-3.441776276E0,-1.038365364E1,-8.434699774E-1
4.597982188E0,-3.597608805E0,-1.044855881E1,-4.124628007E-1
4.600507657E0,-3.767499208E0,-1.049641609E1,4.486542661E-3
4.603032761E0,-3.913760424E0,-1.055145073E1,4.716851711E-1
4.605557917E0,-3.983152390E0,-1.058973598E1,8.739784956E-1
4.608083021E0,-4.026223183E0,-1.063280678E1,1.082453132E0
4.610608177E0,-4.033401489E0,-1.059691429E1,1.151844978E0
4.613133282E0,-4.009473324E0,-1.048205853E1,1.166201949E0
4.615658386E0,-3.964009762E0,-1.038843918E1,9.987043738E-1
4.618183542E0,-3.920938969E0,-1.027597713E1,7.328019142E-1
4.620708646E0,-3.832404613E0,-1.009143066E1,3.924229145E-1
4.623233802E0,-3.695714474E0,-1.000289631E1,-6.011966988E-2
4.625758907E0,-3.480061531E0,-9.909575462E0,-3.882354796E-1
4.628284011E0,-3.250051260E0,-9.870991707E0,-6.783652306E-1
4.630809532E0,-2.962613583E0,-9.911968231E0,-9.152546525E-1
4.633334636E0,-2.634497643E0,-1.001486015E1,-1.106979609E0
4.635859792E0,-2.289632082E0,-1.017308521E1,-1.188335538E0
4.638384896E0,-1.896611094E0,-1.036211872E1,-1.241276741E0
4.640910052E0,-1.467996716E0,-1.055862904E1,-1.315454245E0
4.643435157E0,-1.079761267E0,-1.083888817E1,-1.255633712E0
4.645960261E0,-6.918248534E-1,-1.111436176E1,-1.123729348E0
4.648485417E0,-3.732803464E-1,-1.139940739E1,-1.042373419E0
4.651010521E0,-8.584251255E-2,-1.178764248E1,-9.275178909E-1
4.653535677E0,2.353939265E-1,-1.208225918E1,-8.219345808E-1
4.656060782E0,4.507479668E-1,-1.240558910E1,-7.190431952E-1
4.658585886E0,6.975077987E-1,-1.274327564E1,-6.565307379E-1
4.661111355E0,9.059824944E-1,-1.309531975E1,-6.373881102E-1
4.663636459E0,1.143171072E0,-1.341894913E1,-6.278168559E-1
4.666161615E0,1.421037555E0,-1.384517097E1,-6.664010882E-1
4.668686719E0,1.639083505E0,-1.428844166E1,-7.142575383E-1
4.671211875E0,1.854736686E0,-1.473649693E1,-8.578268886E-1
4.673736980E0,2.120639086E0,-1.528744507E1,-1.035194874E0
4.676262084E0,2.398505688E0,-1.576630878E1,-1.305882931E0
4.678787240E0,2.724228621E0,-1.614497185E1,-1.581356645E0
4.681312344E0,3.083451033E0,-1.652094460E1,-1.871187329E0
4.683837500E0,3.450151205E0,-1.687328720E1,-2.189731836E0
4.686362605E0,3.885943890E0,-1.703839302E1,-2.491526604E0
4.688887709E0,4.314857483E0,-1.716790390E1,-2.803191662E0
4.691413177E0,4.693222523E0,-1.725165367E1,-3.059223652E0
4.693938282E0,5.091029167E0,-1.728754616E1,-3.246163130E0
4.696463438E0,5.423930645E0,-1.734736633E1,-3.418745279E0
4.698988542E0,5.749653816E0,-1.740509224E1,-3.483351469E0
4.701513698E0,6.032305717E0,-1.745055580E1,-3.452244759E0
4.704038802E0,6.224030972E0,-1.744098473E1,-3.337389469E0
4.706563907E0,6.410970211E0,-1.740987778E1,-3.229413271E0
4.709089063E0,6.535397053E0,-1.732343864E1,-3.056830883E0
4.711614167E0,6.585646152E0,-1.711496353E1,-2.846262455E0
4.714139323E0,6.626623154E0,-1.693550110E1,-2.637787819E0
4.716664427E0,6.626623154E0,-1.669352722E1,-2.371885538E0
4.719189532E0,6.523432732E0,-1.643001747E1,-2.177767754E0
4.721715052E0,6.360720634E0,-1.615693665E1,-1.981257200E0
4.724240209E0,6.075376511E0,-1.579771423E1,-1.746760488E0
4.726765365E0,5.687440395E0,-1.537837219E1,-1.483250976E0
4.729290521E0,5.311468124E0,-1.488963795E1,-1.188335538E0
4.731815625E0,4.889732838E0,-1.434108353E1,-9.346963167E-1
4.734340782E0,4.393820763E0,-1.365853119E1,-7.070791125E-1
4.736865938E0,3.914657831E0,-1.299960709E1,-5.847460628E-1
4.739391094E0,3.431008577E0,-1.235055447E1,-4.627120793E-1
4.741916250E0,2.942274570E0,-1.166530991E1,-3.643072546E-1
4.744441355E0,2.424826622E0,-1.104975605E1,-3.116651475E-1
4.746966511E0,1.873879194E0,-1.051316547E1,-2.805584669E-1
4.749491667E0,1.366002679E0,-1.003160954E1,-3.068794906E-1
4.752016875E0,8.318049908E-1,-9.612267494E0,-3.762713671E-1
4.754542032E0,2.282154560E-1,-9.241081238E0,-4.962115884E-1
4.757067188E0,-3.349951804E-1,-8.834002495E0,-6.158527136E-1
4.759592344E0,-8.688937426E-1,-8.507980347E0,-7.597211599E-1
4.762117448E0,-1.489532113E0,-8.165507317E0,-9.562317729E-1
4.764642605E0,-2.097907305E0,-7.839784145E0,-1.171585798E0
4.767167761E0,-2.641676188E0,-7.662416458E0,-1.334596872E0
4.769692917E0,-3.187838078E0,-7.432406425E0,-1.464108348E0
4.772218073E0,-3.714857101E0,-7.260122776E0,-1.552642822E0
4.774743177E0,-4.131806374E0,-7.209574699E0,-1.583749533E0
4.777268334E0,-4.522135735E0,-7.248158932E0,-1.545464277E0
4.779793490E0,-4.811966419E0,-7.305586815E0,-1.490429401E0
4.782318750E0,-5.063511848E0,-7.465905666E0,-1.420738459E0
4.784843907E0,-5.293521881E0,-7.657630444E0,-1.301097274E0
4.787369063E0,-5.303092957E0,-7.918747425E0,-1.238883972E0
4.789894219E0,-5.171487808E0,-8.246863365E0,-1.126122117E0
4.792419323E0,-4.972584724E0,-8.596813202E0,-1.073480010E0
4.794944480E0,-4.675575256E0,-9.025427818E0,-1.042373419E0
4.797469636E0,-4.426422596E0,-9.439984322E0,-1.020837903E0
4.799994792E0,-4.141377926E0,-9.866206169E0,-9.586246014E-1
4.802519948E0,-3.908974886E0,-1.028315544E1,-8.482556343E-1
4.805045052E0,-3.705285788E0,-1.072881889E1,-7.190431952E-1
4.807570209E0,-3.463311672E0,-1.117657566E1,-5.727819204E-1
4.810095365E0,-3.250051260E0,-1.167727375E1,-3.762713671E-1
4.812620573E0,-3.147160053E0,-1.208225918E1,-4.076771438E-1
4.815145730E0,-3.216551781E0,-1.226889896E1,-5.560321808E-1
4.817670886E0,-3.300599813E0,-1.247737408E1,-6.855437160E-1
4.820196042E0,-3.118446112E0,-1.273849010E1,-8.003991842E-1
4.822721146E0,-2.859722137E0,-1.302353573E1,-9.753743410E-1
4.825246302E0,-2.464308262E0,-1.342134190E1,-1.238883972E0
4.827771459E0,-2.011765718E0,-1.381645679E1,-1.464108348E0
4.830296615E0,-1.554138303E0,-1.423101330E1,-1.631605983E0
4.832821771E0,-9.864411354E-1,-1.459262848E1,-1.801795483E0
4.835346875E0,-3.828516304E-1,-1.491117382E1,-1.864008784E0
4.837872032E0,8.195417374E-2,-1.518664742E1,-1.883151412E0
4.840397188E0,5.563312769E-1,-1.545494270E1,-1.849651933E0
4.842922396E0,1.085743308E0,-1.575434399E1,-1.741974831E0
4.845447552E0,1.612762451E0,-1.605613899E1,-1.531107426E0
4.847972709E0,1.871486425E0,-1.630529213E1,-1.341775298E0
4.850497865E0,2.175673962E0,-1.640848160E1,-1.157228827E0
4.853022969E0,2.170888424E0,-1.637258911E1,-9.562317729E-1
4.855548125E0,2.113460541E0,-1.633909035E1,-6.517450809E-1
4.858073282E0,2.273779631E0,-1.644915962E1,-1.226321608E-2
4.860598438E0,2.324028969E0,-1.639412498E1,3.086741269E-1
4.863123594E0,1.962413669E0,-1.608515167E1,7.926225066E-1
4.865648698E0,1.943271041E0,-1.596999741E1,2.004587173E0
4.868173855E0,2.666800737E0,-1.595085526E1,2.368894339E0
4.870699011E0,2.915953398E0,-1.578066540E1,1.980658889E0
4.873224271E0,2.975774050E0,-1.548604870E1,1.765304923E0
4.875749427E0,3.128914595E0,-1.514596939E1,1.875374794E0
4.878274584E0,3.258426189E0,-1.477956772E1,2.062314034E0
4.880799740E0,3.356531858E0,-1.431476212E1,2.407179594E0
4.883324844E0,3.399602890E0,-1.383320713E1,2.797508717E0
4.885850000E0,3.474079370E0,-1.336600780E1,3.084946632E0
4.888375157E0,3.488436222E0,-1.301396370E1,3.314956665E0
4.890900313E0,3.406781197E0,-1.270259857E1,3.458825111E0
4.893425469E0,3.150749207E0,-1.239841080E1,3.652942896E0
4.895950573E0,2.793620348E0,-1.200778198E1,3.763012648E0
4.898475730E0,2.245065928E0,-1.153849030E1,3.770191193E0
4.901000886E0,1.816451430E0,-1.109043407E1,3.760619879E0
4.903526094E0,1.406680584E0,-1.066152000E1,3.710370541E0
4.906051250E0,1.092921734E0,-1.031426239E1,3.559323788E0
4.908576407E0,8.892326951E-1,-9.969396591E0,3.389433384E0
4.911101563E0,8.150551915E-1,-9.674779892E0,3.161816120E0
4.913626667E0,7.863413692E-1,-9.444769859E0,2.828914642E0
4.916151823E0,7.528418303E-1,-9.255437851E0,2.459821701E0
4.918676980E0,7.046862841E-1,-9.075676918E0,1.975873351E0
4.921202136E0,6.735795736E-1,-8.927322388E0,1.501795292E0
4.923727292E0,6.616154313E-1,-8.809774399E0,1.034596682E0
4.926252396E0,6.879364848E-1,-8.764310837E0,7.591229677E-1
4.928777552E0,7.357929349E-1,-8.761918068E0,5.841478109E-1
4.931302709E0,7.576274872E-1,-8.821739197E0,4.043870270E-1
4.933827969E0,8.533403873E-1,-8.855537415E0,2.368894368E-1
4.936353125E0,9.227322340E-1,-8.939286232E0,-2.691925503E-3
4.938878282E0,9.370891452E-1,-9.068498611E0,-1.465603858E-1
4.941403438E0,1.049850941E0,-9.135796547E0,-2.470589429E-1
4.943928542E0,1.078564763E0,-9.207581520E0,-3.020938635E-1
4.946453698E0,1.121635556E0,-9.317651749E0,-3.595215976E-1
4.948978855E0,1.078564763E0,-9.348757744E0,-4.459623098E-1
4.951504011E0,1.042672515E0,-9.399306297E0,-4.555336237E-1
4.954029167E0,9.753743410E-1,-9.463912964E0,-5.727819204E-1
4.956554271E0,8.413762450E-1,-9.442377090E0,-7.788637877E-1
4.959079427E0,7.214360237E-1,-9.420842171E0,-1.035194874E0
4.961604584E0,6.783652306E-1,-9.506983757E0,-1.222134113E0
4.964129792E0,6.065805554E-1,-9.523733139E0,-1.471286774E0
4.966654948E0,5.587241054E-1,-9.533304214E0,-1.612463355E0
4.969180105E0,4.893322289E-1,-9.550054550E0,-1.689033628E0
4.971705261E0,4.028915167E-1,-9.554840088E0,-1.837687731E0
4.974230365E0,3.454637825E-1,-9.499805450E0,-1.990828395E0
4.976755521E0,1.992024779E-1,-9.411270142E0,-2.115554333E0
4.979280677E0,5.563312769E-2,-9.308079720E0,-2.175374985E0
4.981805834E0,-8.584251255E-2,-9.159725189E0,-2.268994093E0
4.984330990E0,-1.456630826E-1,-9.001500130E0,-2.239981174E0
4.986856094E0,-2.772683203E-1,-8.814560890E0,-2.098804474E0
4.989381250E0,-4.713860750E-1,-8.560622215E0,-1.962114573E0
4.991906407E0,-6.870391965E-1,-8.285148621E0,-1.844866276E0
4.994471094E0,-8.641080856E-1,-8.031509399E0,-1.744367719E0
4.996996198E0,-1.086939692E0,-7.722237110E0,-1.555035591E0
4.999521355E0,-1.228415370E0,-7.410871029E0,-1.401595831E0
5.002046511E0,-1.415354609E0,-7.092326164E0,-1.212562919E0
5.004571667E0,-1.578066587E0,-6.814459801E0,-1.078265667E0
5.007096823E0,-1.736291885E0,-6.517450809E0,-9.921240807E-1
5.009621980E0,-1.901396751E0,-6.239583969E0,-8.626125455E-1
5.012147084E0,-2.054836512E0,-5.971288681E0,-7.501499057E-1
5.014672240E0,-2.188834429E0,-5.772385597E0,-6.903293133E-1
5.017197396E0,-2.229811668E0,-5.532804012E0,-5.632106066E-1
5.019722552E0,-2.373380899E0,-5.293222904E0,-4.411766827E-1
5.022247709E0,-2.469093800E0,-5.079962254E0,-3.188436031E-1
5.024733490E0,-2.517249346E0,-4.898108006E0,-2.207378894E-1
5.027258646E0,-2.574677229E0,-4.653740883E0,-1.127617657E-1
5.029783802E0,-2.629712105E0,-4.445266247E0,-4.815555736E-2
5.032308959E0,-2.672782898E0,-4.246362686E0,3.798605874E-2
5.034834063E0,-2.744866610E0,-4.086043835E0,4.277170449E-2
5.037359219E0,-2.768795013E0,-3.946960926E0,1.360917836E-1
5.039884375E0,-2.759223700E0,-3.777070522E0,2.033899277E-1
5.042409532E0,-2.785544634E0,-3.614059448E0,2.488535494E-1
5.044934688E0,-2.826222658E0,-3.407977581E0,2.368894368E-1
5.047459792E0,-2.847758055E0,-3.288336515E0,2.129612118E-1
5.049984948E0,-2.864507914E0,-3.166003466E0,2.105683982E-1
5.052510105E0,-2.881257534E0,-3.103790045E0,2.201396823E-1
5.055035313E0,-2.881257534E0,-3.039183855E0,2.225325108E-1
5.057560469E0,-2.876471996E0,-2.953042269E0,1.555334777E-1
5.060085625E0,-2.924328327E0,-2.926422119E0,1.674975902E-1
5.062610782E0,-2.921935558E0,-2.916850805E0,1.289133132E-1
5.065135886E0,-2.869293451E0,-2.974577665E0,9.302098304E-2
5.067661042E0,-2.840579510E0,-3.034398317E0,1.169492081E-1
5.070186198E0,-2.816651344E0,-3.132503986E0,9.062815458E-2
5.072711355E0,-2.847758055E0,-3.273979664E0,4.995017126E-2
5.075236511E0,-2.888436079E0,-3.412763357E0,-9.122636169E-2
5.077761615E0,-2.941078186E0,-3.606881142E0,-2.087737769E-1
5.080286771E0,-3.046661377E0,-3.896711588E0,-2.853440940E-1
5.082811927E0,-3.104089260E0,-4.129114628E0,-4.866403043E-1
5.085337188E0,-3.154338360E0,-4.361517429E0,-6.687939167E-1
5.087862344E0,-3.247658491E0,-4.639383793E0,-8.386843204E-1
5.090387500E0,-3.310171127E0,-4.931607246E0,-1.011266708E0
5.092912657E0,-3.410669565E0,-5.199902534E0,-1.224527001E0
5.095437761E0,-3.496811152E0,-5.539982796E0,-1.406381488E0
5.097962917E0,-3.561716557E0,-5.897111416E0,-1.588535190E0
5.100488073E0,-3.664607763E0,-6.218048573E0,-1.746760488E0
5.103013230E0,-3.762713671E0,-6.596413612E0,-1.938186288E0
5.105538386E0,-3.853940010E0,-6.960721016E0,-2.115554333E0
5.108063490E0,-4.014258862E0,-7.223931789E0,-2.175374985E0
5.110588646E0,-4.134199142E0,-7.430013180E0,-2.300100803E0
5.113113802E0,-4.249054909E0,-7.746165276E0,-2.417349100E0
5.115639011E0,-4.337589264E0,-8.151150703E0,-2.544467688E0
5.118164167E0,-4.328018188E0,-8.592027664E0,-2.702394009E0
5.120689323E0,-4.361816406E0,-9.034998894E0,-2.788535595E0
5.123214480E0,-4.400101662E0,-9.449555397E0,-2.963510752E0
5.125739584E0,-4.481457710E0,-9.727422714E0,-3.136093140E0
5.128264740E0,-4.455136776E0,-1.000289631E1,-3.186342478E0
5.130789896E0,-4.323232174E0,-1.021376324E1,-3.241377354E0
5.133315052E0,-4.172484398E0,-1.037647533E1,-3.576671600E0
5.135840209E0,-4.035794258E0,-1.047966576E1,-3.895515203E0
5.138365313E0,-3.885046721E0,-1.052034378E1,-4.252345085E0
5.140890469E0,-3.643072367E0,-1.058255768E1,-4.561318398E0
