"Time (s)","Gyroscope x (rad/s)","Gyroscope y (rad/s)","Gyroscope z (rad/s)"
6.626484400E-2,-4.739355087E0,-2.515281439E-1,9.089100957E-1
6.878536500E-2,-4.464524746E0,-2.476666868E-2,8.790835738E-1
7.130588600E-2,-4.296217918E0,3.382114694E-2,8.620398045E-1
7.382640700E-2,-4.113131046E0,1.318225861E-1,8.386046886E-1
7.634692700E-2,-3.894758224E0,2.426068187E-1,8.077129126E-1
7.886744800E-2,-3.655080795E0,3.725652397E-1,7.714950442E-1
8.140526100E-2,-3.418732166E0,5.226299763E-1,7.278204560E-1
8.389385500E-2,-3.182250500E0,6.909367442E-1,6.809502244E-1
8.637588600E-2,-2.940575838E0,8.645697236E-1,6.266233325E-1
8.898687500E-2,-2.709420204E0,1.052982807E0,5.616441369E-1
9.146921900E-2,-2.481460333E0,1.251116157E0,4.955996573E-1
9.395125000E-2,-2.268546820E0,1.443923354E0,4.295552075E-1
9.660520900E-2,-2.071478844E0,1.627010345E0,3.636439145E-1
9.904463600E-2,-1.887193441E0,1.799578071E0,3.018604219E-1
1.015697400E-1,-1.722215533E0,1.947645426E0,2.390116602E-1
1.040517710E-1,-1.585865617E0,2.064821005E0,1.846847683E-1
1.066352090E-1,-1.470820546E0,2.153235435E0,1.431406885E-1
1.092186460E-1,-1.377079964E0,2.199040413E0,1.111836955E-1
1.116702610E-1,-1.314231277E0,2.207562208E0,8.561810106E-2
1.141953650E-1,-1.285470009E0,2.178801060E0,6.218297780E-2
1.167205210E-1,-1.279078603E0,2.113821745E0,4.194355011E-2
1.192456250E-1,-1.301448464E0,2.016885519E0,2.383458801E-2
1.217707820E-1,-1.339796782E0,1.892253280E0,1.957365684E-2
1.242958860E-1,-1.396254182E0,1.749512076E0,2.703028731E-2
1.268210420E-1,-1.467624784E0,1.587729812E0,3.981308267E-2
1.293461980E-1,-1.553908706E0,1.394922614E0,6.218297780E-2
1.318712500E-1,-1.658301473E0,1.164832354E0,8.668334037E-2
1.343964070E-1,-1.773213506E0,9.018529058E-1,1.101184636E-1
1.369215630E-1,-1.905302405E0,6.153052449E-1,1.367492825E-1
1.394466670E-1,-2.038456440E0,3.150426745E-1,1.697715074E-1
1.419717710E-1,-2.174806356E0,8.255556226E-3,2.049241960E-1
1.444969270E-1,-2.305830002E0,-2.994636297E-1,2.496639937E-1
1.470220840E-1,-2.438851118E0,-6.051855087E-1,2.890776098E-1
1.495471360E-1,-2.564548492E0,-9.129046798E-1,3.284912407E-1
1.520722920E-1,-2.691311121E0,-1.211169958E0,3.753614724E-1
1.545973960E-1,-2.811682463E0,-1.491193056E0,4.274247587E-1
1.571225520E-1,-2.932053804E0,-1.760697007E0,4.785559475E-1
1.596477090E-1,-3.053357363E0,-2.025939941E0,5.296871066E-1
1.621728130E-1,-3.168402433E0,-2.284658432E0,5.808182955E-1
1.646979170E-1,-3.287708521E0,-2.554162502E0,6.266233325E-1
1.672230730E-1,-3.411275625E0,-2.813946247E0,6.660369635E-1
1.697481770E-1,-3.546560287E0,-3.053623676E0,7.022548914E-1
1.722733340E-1,-3.689168215E0,-3.264406681E0,7.363423109E-1
1.747984380E-1,-3.832974672E0,-3.439104795E0,7.661688328E-1
1.773235420E-1,-3.969324589E0,-3.557345629E0,7.906692028E-1
1.798486980E-1,-4.091826439E0,-3.620194435E0,8.236914277E-1
1.823738020E-1,-4.174914360E0,-3.662803650E0,8.471265435E-1
1.848989590E-1,-4.193955421E0,-3.699021578E0,8.567136526E-1
1.874240630E-1,-4.157870770E0,-3.700086832E0,8.652355075E-1
1.899492190E-1,-4.080108643E0,-3.642564297E0,8.673660159E-1
1.924743230E-1,-3.974650621E0,-3.504084110E0,8.684312105E-1
1.949994270E-1,-3.857475042E0,-3.282515526E0,8.684312105E-1
1.975245840E-1,-3.731777668E0,-2.982253075E0,8.641703129E-1
2.000496880E-1,-3.603949547E0,-2.636185408E0,8.620398045E-1
2.025748440E-1,-3.483711481E0,-2.259093046E0,8.503222466E-1
2.050999480E-1,-3.366535902E0,-1.894916415E0,8.449960947E-1
2.076251050E-1,-3.250425339E0,-1.582803130E0,8.428656459E-1
2.101502090E-1,-3.143902063E0,-1.329410791E0,8.418003917E-1
2.126753130E-1,-3.059748650E0,-1.129147053E0,8.449960947E-1
2.152004690E-1,-2.984117270E0,-9.842753410E-1,8.503222466E-1
2.177255730E-1,-2.919270992E0,-8.830781579E-1,8.513875008E-1
2.202507300E-1,-2.867074728E0,-8.244903684E-1,8.567136526E-1
2.227758340E-1,-2.817008734E0,-7.990579009E-1,8.599093556E-1
2.253009900E-1,-2.768007994E0,-7.979927063E-1,8.620398045E-1
2.278260940E-1,-2.725398779E0,-8.171668649E-1,8.631050587E-1
2.303512500E-1,-2.680658817E0,-8.575125933E-1,8.663007617E-1
2.328763550E-1,-2.636984348E0,-9.203613400E-1,8.663007617E-1
2.354014590E-1,-2.591179371E0,-1.000253797E0,8.684312105E-1
2.379266150E-1,-2.554961443E0,-1.100385666E0,8.737573624E-1
2.404517190E-1,-2.526200056E0,-1.219691753E0,8.758878708E-1
2.429768750E-1,-2.496373653E0,-1.333671689E0,8.790835738E-1
2.455019800E-1,-2.467612267E0,-1.409303308E0,8.865401745E-1
2.480271360E-1,-2.436720610E0,-1.442192316E0,8.961272836E-1
2.505522400E-1,-2.403698206E0,-1.456040382E0,9.089100957E-1
2.530773960E-1,-2.371741295E0,-1.458170891E0,9.227581024E-1
2.556025000E-1,-2.345243692E0,-1.443257570E0,9.366061091E-1
2.581276050E-1,-2.310091019E0,-1.408238053E0,9.515193701E-1
2.606527610E-1,-2.274938345E0,-1.350715518E0,9.643021822E-1
2.631778650E-1,-2.233394146E0,-1.291062474E0,9.760197401E-1
2.657029690E-1,-2.190784931E0,-1.243126988E0,9.930635095E-1
2.682281250E-1,-2.139653683E0,-1.182408690E0,1.013169765E0
2.707532300E-1,-2.082131147E0,-1.116364241E0,1.030213475E0
2.732783860E-1,-2.029934645E0,-1.051385045E0,1.055779099E0
2.758034900E-1,-1.969216347E0,-9.853405356E-1,1.080279469E0
2.783286460E-1,-1.905302405E0,-9.267527461E-1,1.097323179E0
2.808537500E-1,-1.843518853E0,-8.756215572E-1,1.114366889E0
2.833788550E-1,-1.785996318E0,-8.203625679E-1,1.120758295E0
2.859040110E-1,-1.728606939E0,-7.702966332E-1,1.121823549E0
2.884291670E-1,-1.674280047E0,-7.191654444E-1,1.114366889E0
2.909542710E-1,-1.622083545E0,-6.637732983E-1,1.106910229E0
2.934794270E-1,-1.568821907E0,-6.073159575E-1,1.095192671E0
2.960045320E-1,-1.516625524E0,-5.519238710E-1,1.077083707E0
2.985296360E-1,-1.464429140E0,-4.954665005E-1,1.058974743E0
3.010547920E-1,-1.411167502E0,-4.358134568E-1,1.041931033E0
3.035798960E-1,-1.355775356E0,-3.868127465E-1,1.017430663E0
3.061050520E-1,-1.303578854E0,-3.367467821E-1,9.898678064E-1
3.086301570E-1,-1.251382470E0,-2.856155932E-1,9.611064792E-1
3.111552610E-1,-1.199186087E0,-2.515281439E-1,9.291495085E-1
3.136804170E-1,-1.143793941E0,-2.227668613E-1,8.950620294E-1
3.162055210E-1,-1.086404562E0,-2.037258148E-1,8.588441014E-1
3.187306770E-1,-1.028881907E0,-1.930734813E-1,8.247566819E-1
3.212557820E-1,-9.756202698E-1,-1.898777932E-1,7.906692028E-1
3.237808860E-1,-9.180977345E-1,-1.941387206E-1,7.555165291E-1
3.263060420E-1,-8.616403341E-1,-1.962691844E-1,7.214290500E-1
3.288311460E-1,-8.083786964E-1,-1.962691844E-1,6.873416305E-1
3.313563020E-1,-7.487256527E-1,-1.898777932E-1,6.543194056E-1
3.338814070E-1,-6.943987608E-1,-1.749645174E-1,6.127753258E-1
3.364065630E-1,-6.379414201E-1,-1.536598653E-1,5.754921436E-1
3.389316670E-1,-5.793536305E-1,-1.185071766E-1,5.446003675E-1
3.414567710E-1,-5.251598954E-1,-6.844121963E-2,5.062519908E-1
3.439819270E-1,-4.665720761E-1,-9.853405878E-3,4.742949903E-1
3.465070840E-1,-4.122451842E-1,5.193011090E-2,4.497946501E-1
3.491485420E-1,-3.589835167E-1,1.126483902E-1,4.220985770E-1
3.516736460E-1,-3.089175820E-1,1.691057384E-1,3.945356905E-1
3.541988020E-1,-2.588516176E-1,2.213021666E-1,3.689700961E-1
3.567239070E-1,-2.130466104E-1,2.713681161E-1,3.402087986E-1
3.592490630E-1,-1.640458852E-1,3.193036020E-1,3.157084286E-1
3.617741670E-1,-1.193061024E-1,3.608476818E-1,2.912080884E-1
3.642993230E-1,-7.669677585E-2,3.938699067E-1,2.635120153E-1
3.668244270E-1,-3.089175746E-2,4.363460839E-1,2.411421239E-1
3.693495320E-1,1.278279629E-2,4.693683088E-1,2.187722325E-1
3.718746880E-1,5.858781561E-2,5.045210123E-1,1.932066381E-1
3.744385940E-1,1.085206121E-1,5.396736860E-1,1.676410437E-1
3.769248960E-1,1.575213373E-1,5.748263597E-1,1.399449855E-1
3.794500520E-1,2.022611201E-1,6.121095419E-1,1.111836955E-1
3.819751570E-1,2.480661422E-1,6.525883675E-1,7.709623873E-2
3.845003130E-1,2.928059399E-1,6.856105924E-1,3.768261895E-2
3.870254170E-1,3.396761715E-1,7.218285203E-1,-2.796236658E-3
3.895505730E-1,3.854812086E-1,7.537854910E-1,-4.647079110E-2
3.920756770E-1,4.355471432E-1,7.836120725E-1,-9.440627694E-2
3.946008340E-1,4.877435565E-1,7.995905280E-1,-1.391460598E-1
3.971259380E-1,5.356790423E-1,8.123733401E-1,-1.881467849E-1
3.996510940E-1,5.846797824E-1,8.240908980E-1,-2.338186502E-1
4.021761980E-1,6.358109713E-1,8.294170499E-1,-2.828193605E-1
4.047013020E-1,6.762897968E-1,8.240908980E-1,-3.339505494E-1
4.072264590E-1,7.166355252E-1,8.134385943E-1,-3.850817382E-1
4.097515630E-1,7.507229447E-1,8.070471883E-1,-4.383433759E-1
4.122767190E-1,7.773538232E-1,7.963948250E-1,-4.937354922E-1
4.148018230E-1,8.061150908E-1,7.889382243E-1,-5.491276383E-1
4.173269800E-1,8.316806555E-1,7.772206664E-1,-6.055849791E-1
4.198520840E-1,8.529853225E-1,7.601768970E-1,-6.631075740E-1
4.223771880E-1,8.785509467E-1,7.388722301E-1,-7.216953635E-1
4.249023440E-1,9.019860625E-1,7.218285203E-1,-7.717612982E-1
4.274274480E-1,9.286168814E-1,6.983934045E-1,-8.248898387E-1
4.299526050E-1,9.584434032E-1,6.738930345E-1,-8.738905191E-1
4.325165110E-1,9.872047305E-1,6.408708096E-1,-9.186303020E-1
4.350028130E-1,1.012770295E0,6.046528816E-1,-9.633701444E-1
4.375279690E-1,1.038335919E0,5.673697591E-1,-1.003849030E0
4.400919270E-1,1.059640527E0,5.268908739E-1,-1.040066838E0
4.425782300E-1,1.070292830E0,4.917382002E-1,-1.077350020E0
4.451033340E-1,1.070292830E0,4.661726058E-1,-1.107176542E0
4.476284900E-1,1.055379629E0,4.619116783E-1,-1.128481269E0
4.501535940E-1,1.015965939E0,4.800206423E-1,-1.146590233E0
4.527175520E-1,9.499215484E-1,5.194342732E-1,-1.157242537E0
4.552038550E-1,8.423330188E-1,5.929353237E-1,-1.157242537E0
4.577289590E-1,6.900047064E-1,7.005238533E-1,-1.144459724E0
4.602541150E-1,4.877435565E-1,8.390041590E-1,-1.115698457E0
4.628180210E-1,2.427399755E-1,9.817453623E-1,-1.067762971E0
4.653043750E-1,-1.491326280E-2,1.132875323E0,-1.007044673E0
4.678294800E-1,-2.503297627E-1,1.247920513E0,-9.346088171E-1
4.703546360E-1,-4.090494812E-1,1.280942678E0,-8.451292515E-1
4.729185420E-1,-4.537892640E-1,1.223420143E0,-7.451304793E-1
4.754048960E-1,-3.696358502E-1,1.061504722E0,-6.364767551E-1
4.779300000E-1,-1.768286824E-1,8.070471883E-1,-5.448666811E-1
4.804551570E-1,8.828118443E-2,4.821510911E-1,-4.777570069E-1
4.829802610E-1,3.641765416E-1,1.051917598E-1,-4.500609636E-1
4.855053650E-1,5.921363831E-1,-2.845503688E-1,-4.532566369E-1
4.880305210E-1,7.549839020E-1,-6.147726178E-1,-4.756265581E-1
4.905556250E-1,8.348763585E-1,-8.223599195E-1,-5.022573471E-1
4.930807820E-1,8.412677646E-1,-8.905348182E-1,-5.246272683E-1
4.956058860E-1,8.114412427E-1,-8.447297812E-1,-5.619103909E-1
4.981310420E-1,7.784190178E-1,-7.298177481E-1,-6.173025370E-1
5.006561460E-1,7.698971629E-1,-5.860112906E-1,-6.812165380E-1
5.031812500E-1,7.869408727E-1,-4.219654202E-1,-7.419347763E-1
5.057064070E-1,8.210283518E-1,-2.430062890E-1,-8.026530743E-1
5.082315110E-1,8.551158309E-1,-5.246272683E-2,-8.579120636E-1
5.107566670E-1,8.753552437E-1,1.350182891E-1,-9.069127440E-1
5.132817710E-1,8.923989534E-1,2.937380075E-1,-9.410002232E-1
5.158068750E-1,9.350082874E-1,3.990629315E-1,-9.644353390E-1
5.183320320E-1,1.010639787E0,4.544550478E-1,-9.772181511E-1
5.208571360E-1,1.127815485E0,4.661726058E-1,-9.772181511E-1
5.233822920E-1,1.275882840E0,4.512593448E-1,-9.697614908E-1
5.259074480E-1,1.444056511E0,4.267589748E-1,-9.655005932E-1
5.284325520E-1,1.614493847E0,4.139761925E-1,-9.665657878E-1
5.309576570E-1,1.764691710E0,4.139761925E-1,-9.718919992E-1
5.334828130E-1,1.888258696E0,4.278241992E-1,-9.836095572E-1
5.360079170E-1,1.983996511E0,4.672378302E-1,-1.005979419E0
5.385330730E-1,2.055367231E0,5.300865769E-1,-1.025153637E0
5.410581770E-1,2.101172209E0,6.131747365E-1,-1.042197347E0
5.435833340E-1,2.128868103E0,7.143719196E-1,-1.065632463E0
5.461084380E-1,2.146977186E0,8.251561522E-1,-1.094393730E0
5.486335940E-1,2.158694744E0,9.263532758E-1,-1.129546523E0
5.511586980E-1,2.165086031E0,1.010373473E0,-1.167894840E0
5.536838550E-1,2.162955761E0,1.081744194E0,-1.204112768E0
5.562089590E-1,2.157629490E0,1.131810069E0,-1.232874036E0
5.587341150E-1,2.146977186E0,1.148853779E0,-1.256309152E0
5.612592190E-1,2.127802849E0,1.140331984E0,-1.269091964E0
5.637843230E-1,2.107563496E0,1.105179310E0,-1.271222472E0
5.663094800E-1,2.083063126E0,1.049787164E0,-1.260570168E0
5.688345840E-1,2.048975706E0,9.721583128E-1,-1.239265442E0
5.713597400E-1,2.011692524E0,8.880048990E-1,-1.212634683E0
5.739236980E-1,1.978670359E0,7.995905280E-1,-1.182808161E0
5.764100000E-1,1.944582939E0,7.037195563E-1,-1.146590233E0
5.789351050E-1,1.915821552E0,6.163704395E-1,-1.110372305E0
5.814602610E-1,1.893584847E0,5.279561281E-1,-1.069893360E0
5.839853650E-1,1.880802035E0,4.342156053E-1,-1.021957874E0
5.865105210E-1,1.866953969E0,3.416734934E-1,-9.750877023E-1
5.890356250E-1,1.852040768E0,2.553896308E-1,-9.260869622E-1
5.915607820E-1,1.831801295E0,1.872147024E-1,-8.802819252E-1
5.940858860E-1,1.807300925E0,1.350182891E-1,-8.376725912E-1
5.966498440E-1,1.775344014E0,1.073222235E-1,-7.983921766E-1
5.991323440E-1,1.739126086E0,1.030612960E-1,-7.643046975E-1
6.016493230E-1,1.705038667E0,1.094526947E-1,-7.398043275E-1
6.041663020E-1,1.672016382E0,1.233007237E-1,-7.216953635E-1
6.066832820E-1,1.645385504E0,1.424749196E-1,-7.067821026E-1
6.092002610E-1,1.619819999E0,1.680405140E-1,-6.961297989E-1
6.117172400E-1,1.607037187E0,1.968017966E-1,-6.908035874E-1
6.142342190E-1,1.598515272E0,2.287587970E-1,-6.950645447E-1
6.167511980E-1,1.603841424E0,2.639114857E-1,-6.961297989E-1
6.192681770E-1,1.617689490E0,3.054555655E-1,-7.003906965E-1
6.217851570E-1,1.637928963E0,3.491301239E-1,-7.078473568E-1
6.243021360E-1,1.667755485E0,3.917394578E-1,-7.110430598E-1
6.268191150E-1,1.700777650E0,4.416722357E-1,-7.131735086E-1
6.294339070E-1,1.735930324E0,4.906729758E-1,-7.174344659E-1
6.319508860E-1,1.777474403E0,5.428693891E-1,-7.184996605E-1
6.344678650E-1,1.814757586E0,5.971962810E-1,-7.184996605E-1
6.369848440E-1,1.857366920E0,6.536536217E-1,-7.227606177E-1
6.395018230E-1,1.895715356E0,7.111762166E-1,-7.195649147E-1
6.420188020E-1,1.932865381E0,7.655031085E-1,-7.163692117E-1
6.445357820E-1,1.963757038E0,8.198299408E-1,-7.099778056E-1
6.470527610E-1,1.995714068E0,8.688306808E-1,-7.025212049E-1
6.495697400E-1,2.019149303E0,9.039833546E-1,-6.929340959E-1
6.520867190E-1,2.031931877E0,9.295489788E-1,-6.780208349E-1
6.546036980E-1,2.041519165E0,9.508536458E-1,-6.609770656E-1
6.571206770E-1,2.043649673E0,9.636363983E-1,-6.428681016E-1
6.597354690E-1,2.041519165E0,9.721583128E-1,-6.183677912E-1
6.622524480E-1,2.035127640E0,9.764192104E-1,-5.906717181E-1
6.647694270E-1,2.025540590E0,9.774844646E-1,-5.619103909E-1
6.672864070E-1,2.011692524E0,9.753540158E-1,-5.342143774E-1
6.698033860E-1,1.995714068E0,9.785496593E-1,-5.001268983E-1
6.723203650E-1,1.980800867E0,9.806801677E-1,-4.713656008E-1
6.748373440E-1,1.960561395E0,9.817453623E-1,-4.394086301E-1
6.773543230E-1,1.942452431E0,9.828106165E-1,-4.117125571E-1
6.798713020E-1,1.921147704E0,9.817453623E-1,-3.882774413E-1
6.823882820E-1,1.895715356E0,9.774844646E-1,-3.691032529E-1
6.849052610E-1,1.877606392E0,9.710930586E-1,-3.531247377E-1
6.874222400E-1,1.860562682E0,9.668321013E-1,-3.392767310E-1
6.900370320E-1,1.842453718E0,9.497883916E-1,-3.328853250E-1
6.925540110E-1,1.823279500E0,9.263532758E-1,-3.296896219E-1
6.950709900E-1,1.810496688E0,9.018529058E-1,-3.286243975E-1
6.975879690E-1,1.801974773E0,8.645697236E-1,-3.307548463E-1
7.001049480E-1,1.793452978E0,8.230256438E-1,-3.296896219E-1
7.026219270E-1,1.789191961E0,7.761554122E-1,-3.296896219E-1
7.051389070E-1,1.788126826E0,7.314156294E-1,-3.286243975E-1
7.076558860E-1,1.787061572E0,6.866758466E-1,-3.318201005E-1
7.101728650E-1,1.789191961E0,6.472622156E-1,-3.318201005E-1
7.126898440E-1,1.793452978E0,6.099790335E-1,-3.264939189E-1
7.152068230E-1,1.795583367E0,5.780220628E-1,-3.211677670E-1
7.177238020E-1,1.804105282E0,5.492607951E-1,-3.115806580E-1
7.203385940E-1,1.814757586E0,5.268908739E-1,-3.009283245E-1
7.228555730E-1,1.824344754E0,5.087819099E-1,-2.860150635E-1
7.253725520E-1,1.833931804E0,4.906729758E-1,-2.700365782E-1
7.278895320E-1,1.839257956E0,4.768249393E-1,-2.561885417E-1
7.304065110E-1,1.844584107E0,4.640421271E-1,-2.444709837E-1
7.329234900E-1,1.858432174E0,4.555202723E-1,-2.306229472E-1
7.354404690E-1,1.864823580E0,4.491288662E-1,-2.221010923E-1
7.379574480E-1,1.869084477E0,4.459331632E-1,-2.157096863E-1
7.404744270E-1,1.869084477E0,4.544550478E-1,-2.135792226E-1
7.429914070E-1,1.864823580E0,4.640421271E-1,-2.094514370E-1
7.455083860E-1,1.863758326E0,4.693683088E-1,-2.126471400E-1
7.480253650E-1,1.858432174E0,4.651073813E-1,-2.189053893E-1
7.506401570E-1,1.846714616E0,4.544550478E-1,-2.263620198E-1
7.531571360E-1,1.832866549E0,4.416722357E-1,-2.348838747E-1
7.556741150E-1,1.815822840E0,4.310199022E-1,-2.466014475E-1
7.581910940E-1,1.794518232E0,4.235632718E-1,-2.529928386E-1
7.607080730E-1,1.771082997E0,4.235632718E-1,-2.561885417E-1
7.632250520E-1,1.747647882E0,4.203675687E-1,-2.593842447E-1
7.657420320E-1,1.718886614E0,4.193023443E-1,-2.561885417E-1
7.682590110E-1,1.692255855E0,4.214328229E-1,-2.551233172E-1
7.707759900E-1,1.665624976E0,4.182371199E-1,-2.497971505E-1
7.732929690E-1,1.638994217E0,4.161066413E-1,-2.423405200E-1
7.758099480E-1,1.615558982E0,4.097152650E-1,-2.359491140E-1
7.783269270E-1,1.596384883E0,3.979976773E-1,-2.338186502E-1
7.809417190E-1,1.579341054E0,3.832175732E-1,-2.284924835E-1
7.834586980E-1,1.565493107E0,3.619129062E-1,-2.252967805E-1
7.859756770E-1,1.553775549E0,3.374125659E-1,-2.221010923E-1
7.884926570E-1,1.543123245E0,3.086512685E-1,-2.210358530E-1
7.910096360E-1,1.536731839E0,2.788247466E-1,-2.221010923E-1
7.935266150E-1,1.532470822E0,2.404763550E-1,-2.210358530E-1
7.960435940E-1,1.533536077E0,2.053236663E-1,-2.242315561E-1
7.985605730E-1,1.536731839E0,1.754971445E-1,-2.284924835E-1
8.010775520E-1,1.537796974E0,1.520620137E-1,-2.274272442E-1
8.035945320E-1,1.534601331E0,1.392792165E-1,-2.295577228E-1
8.061115110E-1,1.527144670E0,1.264964193E-1,-2.306229472E-1
8.086284900E-1,1.523949027E0,1.169093251E-1,-2.306229472E-1
8.112433340E-1,1.515427113E0,1.073222235E-1,-2.284924835E-1
8.137603130E-1,1.502644300E0,9.880036116E-2,-2.316881865E-1
8.162772920E-1,1.494122505E0,8.601756394E-2,-2.306229472E-1
8.187942710E-1,1.482404947E0,7.003907114E-2,-2.380795777E-1
8.213112500E-1,1.468556881E0,5.086487532E-2,-2.455362082E-1
8.238282300E-1,1.454708815E0,2.210358530E-2,-2.476666719E-1
8.263452090E-1,1.438730359E0,-7.722939365E-3,-2.497971505E-1
8.288621880E-1,1.424882293E0,-3.967992961E-2,-2.508623898E-1
8.313791670E-1,1.407838583E0,-7.909355313E-2,-2.497971505E-1
8.338961460E-1,1.391860127E0,-1.163767055E-1,-2.519276142E-1
8.364131250E-1,1.373751163E0,-1.515294015E-1,-2.455362082E-1
8.389301050E-1,1.351381302E0,-1.866820902E-1,-2.359491140E-1
8.415448960E-1,1.327946067E0,-2.195711583E-1,-2.263620198E-1
8.440618750E-1,1.305576205E0,-2.472672164E-1,-2.189053893E-1
8.465788550E-1,1.276948094E0,-2.696371078E-1,-2.083862126E-1
8.490958340E-1,1.249252081E0,-2.909417748E-1,-1.924077123E-1
8.516128130E-1,1.223686457E0,-3.047898114E-1,-1.742987484E-1
8.541297920E-1,1.195990324E0,-3.154421151E-1,-1.604507267E-1
8.566467710E-1,1.170424819E0,-3.218335211E-1,-1.412765235E-1
8.591637500E-1,1.141663551E0,-3.271597028E-1,-1.210371032E-1
8.616807300E-1,1.108641267E0,-3.399424851E-1,-9.760197252E-2
8.641977090E-1,1.076684237E0,-3.484643400E-1,-7.629731297E-2
8.667146880E-1,1.048988223E0,-3.537905216E-1,-4.966649041E-2
8.692316670E-1,1.011705041E0,-3.644428551E-1,-1.877473295E-2
8.718465110E-1,9.765523672E-1,-3.793561161E-1,5.725627299E-3
8.743634900E-1,9.467258453E-1,-4.027912319E-1,3.022598661E-2
8.768804690E-1,9.137036204E-1,-4.304873049E-1,5.579157919E-2
8.793974480E-1,8.774856925E-1,-4.645747542E-1,8.135717362E-2
8.819144270E-1,8.455287218E-1,-4.997274280E-1,1.026618332E-1
8.844314070E-1,8.071803451E-1,-5.370106101E-1,1.218360290E-1
8.869483860E-1,7.709624171E-1,-5.700328350E-1,1.356840581E-1
8.894653650E-1,7.347444892E-1,-6.019898057E-1,1.484668553E-1
8.919823440E-1,6.985265613E-1,-6.254249215E-1,1.537930220E-1
8.944993230E-1,6.730940938E-1,-6.339467764E-1,1.569887102E-1
8.970163020E-1,6.475285292E-1,-6.286206245E-1,1.601844132E-1
8.995332820E-1,6.230281591E-1,-6.051855087E-1,1.548582464E-1
9.021480730E-1,5.995930433E-1,-5.625761747E-1,1.505973190E-1
9.046650520E-1,5.857450366E-1,-4.997274280E-1,1.484668553E-1
9.071820320E-1,5.750926733E-1,-4.209001958E-1,1.399449855E-1
9.096990110E-1,5.718969703E-1,-3.346163332E-1,1.335535944E-1
9.122159900E-1,5.750926733E-1,-2.430062890E-1,1.282274276E-1
9.147329690E-1,5.836145282E-1,-1.515294015E-1,1.218360290E-1
9.172499480E-1,5.953320861E-1,-5.991935730E-2,1.175750941E-1
9.197669270E-1,6.113106012E-1,2.742975019E-2,1.154446304E-1
9.222839070E-1,6.294195652E-1,1.073222235E-1,1.090532318E-1
9.248008860E-1,6.453980803E-1,1.754971445E-1,1.101184636E-1
9.273178650E-1,6.624417901E-1,2.340849638E-1,1.143793985E-1
9.298348440E-1,6.762897968E-1,2.788247466E-1,1.229012609E-1
9.324890110E-1,6.857437491E-1,3.118469715E-1,1.314231306E-1
9.350059900E-1,6.942656040E-1,3.310211599E-1,1.442059278E-1
9.375229690E-1,7.038527131E-1,3.320863843E-1,1.569887102E-1
9.400399480E-1,7.113093734E-1,3.256950080E-1,1.729672104E-1
9.425569270E-1,7.091788650E-1,3.107817471E-1,1.910761744E-1
9.450739070E-1,7.145050764E-1,2.916075289E-1,2.102503628E-1
9.475908860E-1,7.134398222E-1,2.724333405E-1,2.219679356E-1
9.501078650E-1,7.102441192E-1,2.500634491E-1,2.368811965E-1
9.526248440E-1,7.091788650E-1,2.266283184E-1,2.454030514E-1
9.551418230E-1,7.059831619E-1,2.138455361E-1,2.507292330E-1
9.576588020E-1,7.059831619E-1,2.106498331E-1,2.528596818E-1
9.601757820E-1,7.113093734E-1,2.213021666E-1,2.507292330E-1
9.627512500E-1,7.155702710E-1,2.415415943E-1,2.464682907E-1
9.652682300E-1,7.251573801E-1,2.734985650E-1,2.379464209E-1
9.677852090E-1,7.400706410E-1,3.171731234E-1,2.315550297E-1
9.703021880E-1,7.592448592E-1,3.672390878E-1,2.166417688E-1
9.728191670E-1,7.858756781E-1,4.224980474E-1,1.964023411E-1
9.753361460E-1,8.157021999E-1,4.810858667E-1,1.793586165E-1
9.778531250E-1,8.508548737E-1,5.343475342E-1,1.612496525E-1
9.803701050E-1,8.881380558E-1,5.822830200E-1,1.388797611E-1
9.828870840E-1,9.275516272E-1,6.206313968E-1,1.154446304E-1
9.854040630E-1,9.690957665E-1,6.430012584E-1,9.520520270E-2
9.879210420E-1,1.010639787E0,6.557840705E-1,7.603100687E-2
9.904380210E-1,1.050053477E0,6.483274698E-1,5.685681105E-2
9.930528650E-1,1.085206151E0,6.259575486E-1,3.555215150E-2
9.955698440E-1,1.116097927E0,5.812177658E-1,1.424749196E-2
9.980868230E-1,1.142728686E0,5.173037648E-1,-9.187635034E-3
1.000603802E0,1.170424819E0,4.363460839E-1,-2.410089783E-2
1.003120782E0,1.188533783E0,3.384777904E-1,-3.581846133E-2
1.005637761E0,1.203446984E0,2.266283184E-1,-4.220985994E-2
1.008154740E0,1.214099288E0,1.041265279E-1,-4.327509180E-2
1.010671719E0,1.220490694E0,-2.263620123E-2,-4.327509180E-2
1.013188698E0,1.219425559E0,-1.504641622E-1,-3.262276202E-2
1.015705677E0,1.215164542E0,-2.760285139E-1,-2.303566411E-2
1.018222657E0,1.214099288E0,-3.910736740E-1,-1.983996481E-2
1.020739636E0,1.206642747E0,-4.975969791E-1,-1.238333434E-2
1.023354480E0,1.193859935E0,-5.945332050E-1,-6.657706108E-4
1.025871459E0,1.180011868E0,-6.776213646E-1,2.529928461E-3
1.028388438E0,1.159772396E0,-7.436658144E-1,4.660394508E-3
1.030905417E0,1.148054838E0,-7.905360460E-1,3.595161485E-3
1.033422396E0,1.135272145E0,-8.139711618E-1,2.529928461E-3
1.035939375E0,1.123554587E0,-8.171668649E-1,-3.861469682E-3
1.038456355E0,1.116097927E0,-7.926664948E-1,-1.131810062E-2
1.040973334E0,1.110771775E0,-7.372744083E-1,-1.451379992E-2
1.043490313E0,1.107576013E0,-6.531209946E-1,-1.770949923E-2
1.046007292E0,1.111836910E0,-5.497934222E-1,-1.557903271E-2
1.048524271E0,1.111836910E0,-4.251611233E-1,-1.131810062E-2
1.051041250E0,1.110771775E0,-2.866808474E-1,-1.131810062E-2
1.053656042E0,1.109706521E0,-1.376813650E-1,-1.238333434E-2
1.056173021E0,1.103315115E0,1.571218669E-2,-1.451379992E-2
1.058690000E0,1.097988963E0,1.669752747E-1,-1.664426550E-2
1.061206980E0,1.093728065E0,3.171731234E-1,-1.770949923E-2
1.063723959E0,1.083075643E0,4.661726058E-1,-2.516612969E-2
1.066240938E0,1.069227695E0,6.067833900E-1,-3.581846133E-2
1.068757917E0,1.052183867E0,7.356765866E-1,-4.540555924E-2
1.071274896E0,1.033009768E0,8.592435718E-1,-6.351451576E-2
1.073791875E0,1.008509398E0,9.689626098E-1,-8.375394344E-2
1.076308855E0,9.818785191E-1,1.066830873E0,-1.082543060E-1
1.078825834E0,9.509868026E-1,1.156310439E0,-1.391460598E-1
1.081342813E0,9.105079174E-1,1.229811549E0,-1.732335240E-1
1.083957657E0,8.700290918E-1,1.289464593E0,-2.062557489E-1
1.086474636E0,8.316806555E-1,1.337400079E0,-2.359491140E-1
1.088991615E0,7.943975329E-1,1.367226601E0,-2.625799477E-1
1.091508594E0,7.592448592E-1,1.383205056E0,-2.817541361E-1
1.094025573E0,7.315487862E-1,1.380009413E0,-2.913412452E-1
1.096542552E0,7.145050764E-1,1.352313280E0,-2.977326214E-1
1.099059532E0,7.134398222E-1,1.297986388E0,-2.987978756E-1
1.101576511E0,7.155702710E-1,1.215963483E0,-2.956021726E-1
1.104093490E0,7.326140404E-1,1.115831614E0,-2.828193605E-1
1.106610469E0,7.560491562E-1,1.000919580E0,-2.732322812E-1
1.109127448E0,7.826799750E-1,8.752220869E-1,-2.551233172E-1
1.111644427E0,8.167673945E-1,7.495245934E-1,-2.263620198E-1
1.114258542E0,8.465939164E-1,6.280879974E-1,-1.977338791E-1
1.116782032E0,8.710942864E-1,5.130428672E-1,-1.593854874E-1
1.119305521E0,8.881380558E-1,4.075847864E-1,-1.082543060E-1
1.121829011E0,8.945294023E-1,3.139774203E-1,-6.031882018E-2
1.124352552E0,8.860075474E-1,2.351501882E-1,-9.187635034E-3
1.126876042E0,8.615072370E-1,1.691057384E-1,4.833494872E-2
1.129399532E0,8.231588006E-1,1.115831584E-1,1.037270650E-1
1.131923021E0,7.720276117E-1,7.003907114E-2,1.601844132E-1
1.134446511E0,7.081136703E-1,4.553871229E-2,2.187722325E-1
1.136970052E0,6.294195652E-1,3.595161438E-2,2.773600519E-1
1.139493542E0,5.442008972E-1,3.382114694E-2,3.455349505E-1
1.142017032E0,4.525908828E-1,4.021254554E-2,4.210333526E-1
1.144560157E0,3.513937294E-1,5.725627393E-2,4.977301359E-1
1.147083646E0,2.459356785E-1,8.175663650E-2,5.776225924E-1
1.149607136E0,1.340862066E-1,1.201050207E-1,6.639064550E-1
1.152130625E0,1.810896210E-2,1.648448110E-1,7.555165291E-1
1.154654167E0,-1.011971384E-1,2.202369273E-1,8.471265435E-1
1.157177657E0,-2.279598713E-1,2.766942680E-1,9.312799573E-1
1.159701146E0,-3.557878435E-1,3.352820873E-1,1.018495917E0
1.162224636E0,-4.814853370E-1,3.874785006E-1,1.100518823E0
1.164748125E0,-6.134410501E-1,4.267589748E-1,1.175085187E0
1.167271667E0,-7.412690520E-1,4.651073813E-1,1.240064383E0
1.169795157E0,-8.712274432E-1,4.928034246E-1,1.296521783E0
1.172318646E0,-9.947944880E-1,5.013253093E-1,1.352979064E0
1.174861771E0,-1.113035321E0,4.959991276E-1,1.396653652E0
1.177385261E0,-1.234338760E0,4.725640118E-1,1.430741072E0
1.179908750E0,-1.355775356E0,4.278241992E-1,1.453111053E0
1.182432240E0,-1.482538104E0,3.608476818E-1,1.459502339E0
1.184955782E0,-1.601844192E0,2.734985650E-1,1.459502339E0
1.187479271E0,-1.719019771E0,1.669752747E-1,1.457371950E0
1.190002761E0,-1.837127447E0,4.766917601E-2,1.454176188E0
1.192526250E0,-1.947911739E0,-8.122401685E-2,1.442458630E0
1.195049740E0,-2.060826540E0,-2.153102309E-1,1.435002089E0
1.197573282E0,-2.166284561E0,-3.527252972E-1,1.432871580E0
1.200096771E0,-2.265351295E0,-4.922707975E-1,1.429675817E0
1.202620261E0,-2.363219500E0,-6.296858788E-1,1.429675817E0
1.205163386E0,-2.461220980E0,-7.585790753E-1,1.436067224E0
1.207686875E0,-2.558157206E0,-8.798824549E-1,1.444589138E0
1.210210365E0,-2.659354210E0,-9.906666875E-1,1.449915290E0
1.212733855E0,-2.760551453E0,-1.085472465E0,1.458437204E0
1.215257396E0,-2.866009474E0,-1.161103964E0,1.464828610E0
1.217780886E0,-2.974529982E0,-1.216496110E0,1.469089508E0
1.220304375E0,-3.087444782E0,-1.247387886E0,1.468024254E0
1.222827865E0,-3.199294329E0,-1.250583529E0,1.465893745E0
1.225351355E0,-3.315404654E0,-1.223952770E0,1.463763356E0
1.227874896E0,-3.427254200E0,-1.163234472E0,1.454176188E0
1.230398386E0,-3.541234016E0,-1.074820161E0,1.440328240E0
1.232921875E0,-3.649754763E0,-9.672315717E-1,1.420088768E0
1.235465000E0,-3.750951767E0,-8.340774775E-1,1.393458009E0
1.237988490E0,-3.845757484E0,-6.861432195E-1,1.359370470E0
1.240511980E0,-3.934171915E0,-5.306192040E-1,1.318891644E0
1.243035469E0,-4.016194820E0,-3.804213405E-1,1.272021413E0
1.245559011E0,-4.088630676E0,-2.355496585E-1,1.217694521E0
1.248082500E0,-4.151479244E0,-1.025286764E-1,1.156976223E0
1.250605990E0,-4.210999489E0,1.464695390E-2,1.097323179E0
1.253129480E0,-4.260000229E0,1.254311949E-1,1.038735390E0
1.255652969E0,-4.301544189E0,2.308892608E-1,9.866721034E-1
1.258176511E0,-4.328175068E0,3.384777904E-1,9.376713634E-1
1.260700000E0,-4.338827133E0,4.395417869E-1,8.961272836E-1
1.263223490E0,-4.329240322E0,5.407389402E-1,8.577789068E-1
1.265766615E0,-4.300478935E0,6.387403607E-1,8.194305301E-1
1.268290105E0,-4.248282433E0,7.335460782E-1,7.768211961E-1
1.270813594E0,-4.169588566E0,8.294170499E-1,7.331466079E-1
1.273337084E0,-4.067326069E0,9.103747606E-1,6.937330365E-1
1.275860625E0,-3.949085236E0,9.923977256E-1,6.553846002E-1
1.278384115E0,-3.823387623E0,1.079613686E0,6.149057746E-1
1.280907605E0,-3.682776928E0,1.170158505E0,5.786878467E-1
1.283431094E0,-3.542299271E0,1.268159866E0,5.446003675E-1
1.285954584E0,-3.395297050E0,1.385335565E0,5.169043541E-1
1.288478125E0,-3.252555847E0,1.503576398E0,4.860125780E-1
1.291001615E0,-3.115140915E0,1.597316861E0,4.572512805E-1
1.293525105E0,-2.974529982E0,1.663228154E0,4.306204617E-1
1.296068230E0,-2.842574358E0,1.690924287E0,3.954677582E-1
1.298591719E0,-2.715811491E0,1.667489171E0,3.604482114E-1
1.301115209E0,-2.597570658E0,1.597316861E0,3.252955377E-1
1.303638698E0,-2.493177891E0,1.485467434E0,2.944037914E-1
1.306162240E0,-2.398372173E0,1.336334825E0,2.677729428E-1
1.308685730E0,-2.314351797E0,1.162701845E0,2.464682907E-1
1.311209219E0,-2.245111704E0,9.753540158E-1,2.230331600E-1
1.313732709E0,-2.189719677E0,7.868077159E-1,1.985328048E-1
1.316256198E0,-2.147110224E0,5.961310267E-1,1.761629134E-1
1.318779740E0,-2.121544838E0,4.107804894E-1,1.569887102E-1
1.321303230E0,-2.116218567E0,2.266283184E-1,1.420754492E-1
1.323826719E0,-2.129001379E0,4.979964346E-2,1.282274276E-1
1.326369844E0,-2.157762527E0,-1.131810099E-1,1.197055578E-1
1.328893334E0,-2.193980455E0,-2.749632597E-1,1.165098622E-1
1.331416823E0,-2.231263638E0,-4.326177537E-1,1.197055578E-1
1.333940313E0,-2.285590649E0,-5.806851387E-1,1.346188188E-1
1.336463855E0,-2.342047930E0,-7.266221046E-1,1.516625583E-1
1.338987344E0,-2.411154985E0,-8.809477091E-1,1.708367467E-1
1.341510834E0,-2.487851620E0,-1.038602233E0,2.017285079E-1
1.344034323E0,-2.578396559E0,-1.202648044E0,2.304897904E-1
1.346557813E0,-2.685985088E0,-1.363498211E0,2.592510879E-1
1.349081355E0,-2.796769381E0,-1.516758680E0,2.922733128E-1
1.351604844E0,-2.920336246E0,-1.657369375E0,3.146432042E-1
1.354128334E0,-3.039509296E0,-1.777740717E0,3.402087986E-1
1.356671459E0,-3.144967318E0,-1.877872705E0,3.668396175E-1
1.359194948E0,-3.238707781E0,-1.963091254E0,3.902747631E-1
1.361718438E0,-3.314339399E0,-2.046046257E0,4.167724252E-1
1.364241927E0,-3.375057697E0,-2.123808384E0,4.434032440E-1
1.366765469E0,-3.415536642E0,-2.187722206E0,4.710993171E-1
1.369288959E0,-3.447493553E0,-2.231396914E0,4.966649115E-1
1.371812448E0,-3.464537144E0,-2.254832029E0,5.115781426E-1
1.374335938E0,-3.471993923E0,-2.250571012E0,5.307523608E-1
1.376859427E0,-3.465602398E0,-2.226070642E0,5.488613248E-1
1.379382969E0,-3.447493553E0,-2.173874378E0,5.563179255E-1
1.381906459E0,-3.418732166E0,-2.100373268E0,5.637745857E-1
1.384429948E0,-3.391036272E0,-2.015287638E0,5.680354834E-1
1.386973073E0,-3.354818344E0,-1.913025379E0,5.691007376E-1
1.389496563E0,-3.311143637E0,-1.803306341E0,5.722964406E-1
1.392020052E0,-3.266403913E0,-1.688261151E0,5.754921436E-1
1.394543542E0,-3.213142157E0,-1.568955064E0,5.765573978E-1
1.397067084E0,-3.158815384E0,-1.450714231E0,5.818835497E-1
1.399590573E0,-3.097031832E0,-1.333671689E0,5.829487443E-1
1.402114063E0,-3.032052755E0,-1.226083159E0,5.850792527E-1
1.404637552E0,-2.969203949E0,-1.122755647E0,5.904054046E-1
1.407161042E0,-2.904357910E0,-1.030080318E0,5.999925137E-1
1.409684584E0,-2.841509104E0,-9.448617101E-1,6.117100716E-1
1.412208073E0,-2.780790806E0,-8.745563030E-1,6.244928837E-1
1.414731563E0,-2.726464033E0,-8.075798154E-1,6.383408904E-1
1.417274688E0,-2.678528547E0,-7.564486265E-1,6.500584483E-1
1.419798177E0,-2.631658077E0,-7.127740383E-1,6.617760062E-1
1.422321667E0,-2.590114117E0,-6.722952127E-1,6.756240726E-1
1.424845157E0,-2.553896189E0,-6.403381824E-1,6.884068251E-1
1.427368698E0,-2.520874023E0,-6.137073636E-1,7.022548914E-1
1.429892188E0,-2.493177891E0,-5.924026966E-1,7.129071951E-1
1.432415677E0,-2.471873283E0,-5.796199441E-1,7.171681523E-1
1.434939167E0,-2.449503422E0,-5.742937326E-1,7.182333469E-1
1.437462657E0,-2.432459593E0,-5.753589869E-1,7.203638554E-1
1.439986198E0,-2.419676781E0,-5.934679508E-1,7.224943042E-1
1.442509688E0,-2.412220240E0,-6.264901757E-1,7.235595584E-1
1.445033177E0,-2.406893969E0,-6.616428494E-1,7.299509048E-1
1.447576355E0,-2.399437428E0,-6.946650743E-1,7.363423109E-1
1.450099844E0,-2.385589361E0,-7.202306986E-1,7.384728193E-1
1.452623334E0,-2.371741295E0,-7.351439595E-1,7.416685224E-1
1.455146823E0,-2.354830742E0,-7.404701114E-1,7.395380139E-1
1.457670365E0,-2.333526134E0,-7.426005602E-1,7.374075651E-1
1.460193855E0,-2.313286781E0,-7.404701114E-1,7.363423109E-1
1.462717344E0,-2.286655903E0,-7.351439595E-1,7.288857102E-1
1.465240834E0,-2.263220787E0,-7.287525535E-1,7.203638554E-1
1.467764323E0,-2.238720417E0,-7.159697413E-1,7.086462975E-1
1.470287865E0,-2.207828522E0,-6.978607774E-1,7.033200860E-1
1.472811355E0,-2.178002119E0,-6.786866188E-1,7.011896372E-1
1.475334844E0,-2.140718937E0,-6.509905457E-1,6.969286799E-1
1.477877969E0,-2.101305246E0,-6.307511330E-1,6.947982311E-1
1.480401459E0,-2.068283081E0,-6.147726178E-1,6.979939342E-1
1.482924948E0,-2.026738882E0,-5.945332050E-1,6.969286799E-1
1.485448438E0,-1.987325311E0,-5.828156471E-1,6.916025281E-1
1.487971980E0,-1.947911739E0,-5.774894357E-1,6.894720793E-1
1.490495469E0,-1.899976254E0,-5.710980296E-1,6.905373335E-1
1.493018959E0,-1.856301665E0,-5.700328350E-1,6.926677823E-1
1.495542448E0,-1.814757586E0,-5.647066832E-1,6.947982311E-1
1.498065938E0,-1.768952608E0,-5.593804717E-1,6.979939342E-1
1.500589480E0,-1.725411177E0,-5.561847687E-1,7.011896372E-1
1.503112969E0,-1.677475691E0,-5.487281680E-1,7.033200860E-1
1.505636459E0,-1.628474951E0,-5.380758047E-1,7.075810432E-1
1.508179584E0,-1.579474211E0,-5.210320950E-1,7.118419409E-1
1.510703073E0,-1.530473590E0,-4.975969791E-1,7.129071951E-1
1.513226563E0,-1.476146698E0,-4.762923121E-1,7.107767463E-1
1.515750052E0,-1.421819806E0,-4.613790512E-1,7.097114921E-1
1.518273594E0,-1.360036254E0,-4.475310147E-1,7.043853402E-1
1.520797084E0,-1.303578854E0,-4.368786812E-1,6.926677823E-1
1.523320573E0,-1.244991064E0,-4.304873049E-1,6.788197160E-1
1.525844063E0,-1.181077123E0,-4.209001958E-1,6.553846002E-1
1.528367552E0,-1.119426727E0,-3.942693770E-1,6.255580783E-1
1.530891094E0,-1.060838938E0,-3.729647100E-1,5.957315564E-1
1.533414584E0,-1.000120640E0,-3.559209704E-1,5.563179255E-1
1.535938073E0,-9.436632991E-1,-3.324858546E-1,5.158390999E-1
1.538481198E0,-8.872059584E-1,-2.994636297E-1,4.774906933E-1
1.541004688E0,-8.318138123E-1,-2.579195499E-1,4.391423166E-1
1.543528177E0,-7.732260227E-1,-1.994648874E-1,4.039896131E-1
1.546051667E0,-7.167686820E-1,-1.302247345E-1,3.711005449E-1
1.548575209E0,-6.624417901E-1,-5.991935730E-2,3.391435742E-1
1.551098698E0,-6.070496440E-1,1.251648832E-2,3.071865737E-1
1.553622188E0,-5.484618545E-1,8.601756394E-2,2.677729428E-1
1.556145677E0,-4.900071919E-1,1.563229412E-1,2.294245660E-1
1.558669167E0,-4.292888939E-1,2.244978547E-1,1.942718774E-1
1.561192709E0,-3.802881837E-1,2.948032320E-1,1.591191888E-1
1.563716198E0,-3.280917704E-1,3.597824574E-1,1.197055578E-1
1.566239688E0,-2.801562846E-1,4.224980474E-1,8.455286920E-2
1.568782865E0,-2.322207987E-1,4.789553881E-1,5.259587988E-2
1.571306355E0,-1.842853129E-1,5.268908739E-1,1.318225823E-2
1.573829844E0,-1.363498271E-1,5.620435476E-1,-2.623136342E-2
1.576353334E0,-8.308817446E-2,5.918700695E-1,-6.564498693E-2
1.578876875E0,-2.982652560E-2,6.195661426E-1,-1.071890742E-1
1.581400365E0,2.343512699E-2,6.461969614E-1,-1.487331539E-1
1.583923855E0,7.975932211E-2,6.706973314E-1,-1.881467849E-1
1.586447344E0,1.362166703E-1,6.994586587E-1,-2.295577228E-1
1.588970834E0,1.916087866E-1,7.271546721E-1,-2.711018026E-1
1.591494375E0,2.438052148E-1,7.516550422E-1,-3.115806580E-1
1.594017865E0,2.960016131E-1,7.750901580E-1,-3.563204408E-1
1.596541355E0,3.524589837E-1,7.921339273E-1,-3.989297748E-1
1.599084480E0,4.057206213E-1,8.145037889E-1,-4.415390790E-1
1.601607969E0,4.600475132E-1,8.294170499E-1,-4.841484129E-1
1.604131459E0,5.175700784E-1,8.400694132E-1,-5.363448262E-1
1.606654948E0,5.793536305E-1,8.453955650E-1,-5.896064639E-1
1.609178490E0,6.358109713E-1,8.453955650E-1,-6.449986100E-1
1.611701980E0,6.846785545E-1,8.443303108E-1,-7.014559507E-1
1.614225469E0,7.315487862E-1,8.379389048E-1,-7.547175884E-1
1.616748959E0,7.741581202E-1,8.347432017E-1,-8.079792261E-1
1.619272448E0,8.114412427E-1,8.208951950E-1,-8.653686643E-1
1.621795990E0,8.433982730E-1,7.953296304E-1,-9.196955562E-1
1.624319480E0,8.700290918E-1,7.601768970E-1,-9.676310420E-1
1.626842969E0,8.902685046E-1,7.143719196E-1,-1.010240316E0
1.629385938E0,9.030513167E-1,6.696321368E-1,-1.045393109E0
1.631910730E0,9.094427228E-1,6.206313968E-1,-1.078415275E0
1.634435573E0,9.083774686E-1,5.684349537E-1,-1.110372305E0
1.636960365E0,8.966599107E-1,5.077167153E-1,-1.133807421E0
1.639485157E0,8.806813955E-1,4.384765327E-1,-1.144459724E0
1.642010000E0,8.476591706E-1,3.789566457E-1,-1.145524979E0
1.644534792E0,8.018541336E-1,3.352820873E-1,-1.137003064E0
1.647059584E0,7.485924959E-1,3.022598624E-1,-1.126350760E0
1.649584427E0,6.942656040E-1,2.830856740E-1,-1.112502694E0
1.652109219E0,6.368761659E-1,2.830856740E-1,-1.096524239E0
1.654634011E0,5.591141582E-1,3.075860441E-1,-1.079480529E0
1.657158802E0,4.579170346E-1,3.715000153E-1,-1.059241056E0
1.659687605E0,3.428718746E-1,4.757596850E-1,-1.035805941E0
1.662212396E0,2.235657871E-1,6.110442877E-1,-1.016631722E0
1.664737240E0,1.074553803E-1,7.623074055E-1,-9.921314120E-1
1.667262032E0,2.450035885E-2,9.029181600E-1,-9.591091871E-1
1.669786823E0,-9.587096982E-3,1.009308338E0,-9.111737013E-1
1.672311667E0,2.236989327E-2,1.042330503E0,-8.461945057E-1
1.674836459E0,1.213034093E-1,9.892020226E-1,-7.632394433E-1
1.677361250E0,2.853493094E-1,8.475260139E-1,-6.748251319E-1
1.679886094E0,4.792217016E-1,6.227618456E-1,-5.853455663E-1
1.682410886E0,6.688331962E-1,3.533910513E-1,-4.894745648E-1
1.684935677E0,8.295502067E-1,8.814803511E-2,-4.127778113E-1
1.687460469E0,9.360735416E-1,-1.153114736E-1,-3.477985859E-1
1.689989219E0,9.765523672E-1,-2.270277888E-1,-3.083849549E-1
1.692514011E0,9.680305123E-1,-2.419410497E-1,-2.998631001E-1
1.695038855E0,9.307473302E-1,-1.952039450E-1,-3.254286945E-1
1.697563646E0,8.902685046E-1,-1.227681041E-1,-3.669727743E-1
1.700088438E0,8.551158309E-1,-6.204982474E-2,-4.276910722E-1
1.702613282E0,8.231588006E-1,-2.370143496E-2,-4.884093404E-1
1.705138073E0,7.848104239E-1,-7.722939365E-3,-5.374100804E-1
1.707662865E0,7.528534532E-1,-2.663082560E-4,-5.704323053E-1
1.710187709E0,7.475273013E-1,1.864157850E-3,-5.874760151E-1
1.712712500E0,7.816147208E-1,7.989247679E-4,-5.991935730E-1
1.715237292E0,8.774856925E-1,8.255556226E-3,-6.109111309E-1
1.717762084E0,1.022357345E0,2.103835158E-2,-6.311505437E-1
1.720290834E0,1.190664172E0,5.725627393E-2,-6.641727686E-1
1.722815625E0,1.359903097E0,1.328878254E-1,-7.035863996E-1
1.725340469E0,1.516492367E0,2.436720580E-1,-7.557828426E-1
1.727865261E0,1.646450758E0,3.821523488E-1,-8.122401834E-1
1.730390052E0,1.747647882E0,5.300865769E-1,-8.738905191E-1
1.732914896E0,1.825409889E0,6.877411008E-1,-9.324783683E-1
1.735439688E0,1.883997798E0,8.443303108E-1,-9.846747518E-1
1.737964480E0,1.936061025E0,9.955934286E-1,-1.041132092E0
1.740489323E0,1.986127019E0,1.115831614E0,-1.090132833E0
1.743014115E0,2.038323402E0,1.196789265E0,-1.139133573E0
1.745538907E0,2.091585159E0,1.233007193E0,-1.186003804E0
1.748063698E0,2.142716169E0,1.229811549E0,-1.229678392E0
1.750592500E0,2.172542810E0,1.189332724E0,-1.270157218E0
1.753117292E0,2.189586401E0,1.132875323E0,-1.305309892E0
1.755642136E0,2.190651655E0,1.062569976E0,-1.330875516E0
1.758166927E0,2.174673319E0,9.849410653E-1,-1.350049734E0
1.760691719E0,2.158694744E0,9.018529058E-1,-1.363897681E0
1.763216563E0,2.139520645E0,8.145037889E-1,-1.372419596E0
1.765741355E0,2.120346308E0,7.250242233E-1,-1.374550104E0
1.768266146E0,2.108628750E0,6.312837005E-1,-1.374550104E0
1.770790990E0,2.105432987E0,5.386084318E-1,-1.369223952E0
1.773315782E0,2.103302717E0,4.480636418E-1,-1.363897681E0
1.775840573E0,2.100106955E0,3.640433848E-1,-1.351114988E0
1.778365365E0,2.101172209E0,2.905423045E-1,-1.333006024E0
1.780894167E0,2.090519905E0,2.170412242E-1,-1.310636044E0
1.783418959E0,2.076671839E0,1.659100503E-1,-1.284005284E0
1.785943802E0,2.060693264E0,1.264964193E-1,-1.256309152E0
1.788468594E0,2.042584419E0,9.666989744E-2,-1.221156478E0
1.790993386E0,2.025540590E0,8.495233208E-2,-1.188134313E0
1.793518230E0,2.011692524E0,8.282186836E-2,-1.148720622E0
1.796043021E0,2.007431746E0,8.388710022E-2,-1.111437559E0
1.798567813E0,2.005301237E0,9.027849883E-2,-1.069893360E0
1.801092657E0,2.011692524E0,1.019960642E-1,-1.025153637E0
1.803617448E0,2.018084049E0,1.254311949E-1,-9.868052602E-1
1.806142240E0,2.019149303E0,1.616491079E-1,-9.463263750E-1
1.808667032E0,2.018084049E0,2.191716880E-1,-9.037170410E-1
1.811195834E0,2.006366491E0,2.766942680E-1,-8.611077666E-1
1.813720625E0,1.999974966E0,3.395430148E-1,-8.207620382E-1
1.816245469E0,1.992518425E0,3.969324529E-1,-7.856093645E-1
1.818770261E0,1.983996511E0,4.501941204E-1,-7.536523938E-1
1.821295052E0,1.975474596E0,5.002600551E-1,-7.227606177E-1
1.823819896E0,1.973344207E0,5.407389402E-1,-7.003906965E-1
1.826344688E0,1.972278953E0,5.716306567E-1,-6.822817326E-1
1.828869480E0,1.970148444E0,6.025224328E-1,-6.652380228E-1
1.831394323E0,1.969083190E0,6.312837005E-1,-6.471290588E-1
1.833919115E0,1.971213698E0,6.579145193E-1,-6.343462467E-1
1.836443907E0,1.970148444E0,6.802844405E-1,-6.204982400E-1
1.838968698E0,1.974409461E0,7.026543617E-1,-6.087806821E-1
1.841497500E0,1.979735613E0,7.228937745E-1,-6.034545302E-1
1.844022292E0,1.991453171E0,7.388722301E-1,-5.959978700E-1
1.846547136E0,2.005301237E0,7.569811940E-1,-5.928021669E-1
1.849071927E0,2.013823032E0,7.740249634E-1,-5.864107609E-1
1.851596719E0,2.025540590E0,7.868077159E-1,-5.864107609E-1
1.854121563E0,2.036192894E0,7.889382243E-1,-5.853455663E-1
1.856646355E0,2.048975706E0,7.889382243E-1,-5.896064639E-1
1.859171146E0,2.061758518E0,7.846772671E-1,-5.885412693E-1
1.861695990E0,2.076671839E0,7.761554122E-1,-5.874760151E-1
1.864220782E0,2.093715429E0,7.644378543E-1,-5.896064639E-1
1.866745573E0,2.109694004E0,7.473941445E-1,-5.874760151E-1
1.869270365E0,2.124607325E0,7.335460782E-1,-5.842803121E-1
1.871799167E0,2.144846678E0,7.207632661E-1,-5.800193548E-1
1.874323959E0,2.157629490E0,7.111762166E-1,-5.768237114E-1
1.876848802E0,2.167216539E0,6.983934045E-1,-5.757584572E-1
1.879373594E0,2.184260368E0,6.824148893E-1,-5.661713481E-1
1.881898386E0,2.197043180E0,6.685668826E-1,-5.587147474E-1
1.884423230E0,2.203434467E0,6.547188759E-1,-5.523233414E-1
1.886948021E0,2.213021517E0,6.334142089E-1,-5.438014865E-1
1.889472813E0,2.220478296E0,6.121095419E-1,-5.352795720E-1
1.891997657E0,2.221543550E0,5.918700695E-1,-5.256925225E-1
1.894522448E0,2.222608805E0,5.705654621E-1,-5.182358623E-1
1.897047240E0,2.222608805E0,5.471302867E-1,-5.107792616E-1
1.899572032E0,2.221543550E0,5.311518312E-1,-5.065183043E-1
1.902100834E0,2.217282534E0,5.173037648E-1,-4.958659708E-1
1.904625625E0,2.205564976E0,5.013253093E-1,-4.884093404E-1
1.907150469E0,2.198108435E0,4.842815697E-1,-4.841484129E-1
1.909675261E0,2.187456131E0,4.714987576E-1,-4.809527099E-1
1.912200052E0,2.173608065E0,4.608464241E-1,-4.724308550E-1
1.914724896E0,2.156564236E0,4.427374899E-1,-4.617785215E-1
1.917249688E0,2.140585661E0,4.256937504E-1,-4.521914124E-1
1.919774480E0,2.125672579E0,4.118457139E-1,-4.436695576E-1
1.922299323E0,2.110759258E0,3.958672285E-1,-4.340824485E-1
1.924824115E0,2.094780684E0,3.800218701E-1,-4.181039631E-1
1.927348907E0,2.076671839E0,3.736304939E-1,-4.031907022E-1
1.929873698E0,2.066019535E0,3.576519787E-1,-3.925383687E-1
1.932402500E0,2.054301977E0,3.427387178E-1,-3.797555864E-1
1.934927292E0,2.045779943E0,3.267602324E-1,-3.680379987E-1
1.937452136E0,2.039388657E0,3.161078990E-1,-3.605813682E-1
1.939976927E0,2.031931877E0,3.118469715E-1,-3.477985859E-1
1.942501719E0,2.024475336E0,3.182383776E-1,-3.350157738E-1
1.945026563E0,2.012757778E0,3.320863843E-1,-3.254286945E-1
1.947551355E0,2.002105474E0,3.501953483E-1,-3.222329915E-1
1.950076146E0,1.992518425E0,3.661738634E-1,-3.222329915E-1
1.952600990E0,1.988257408E0,3.715000153E-1,-3.275591433E-1
1.955125782E0,1.980800867E0,3.757609427E-1,-3.328853250E-1
1.957650573E0,1.971213698E0,3.715000153E-1,-3.456681073E-1
1.960175365E0,1.965887547E0,3.640433848E-1,-3.584509194E-1
1.962743594E0,1.959496140E0,3.480648994E-1,-3.754946291E-1
1.965268438E0,1.956300497E0,3.224993050E-1,-3.914731443E-1
1.967793230E0,1.949909091E0,2.830856740E-1,-4.074516296E-1
1.970318021E0,1.944582939E0,2.351501882E-1,-4.223648906E-1
1.972842865E0,1.934995770E0,1.872147024E-1,-4.362129271E-1
1.975367657E0,1.923278213E0,1.478010863E-1,-4.479304850E-1
1.977892448E0,1.910495400E0,1.169093251E-1,-4.596480429E-1
1.980417292E0,1.894650102E0,9.666989744E-2,-4.671046734E-1
1.982942084E0,1.878671646E0,7.643046975E-2,-4.734960794E-1
1.985466875E0,1.862693071E0,6.258244067E-2,-4.798874855E-1
1.987991719E0,1.847779870E0,5.193011090E-2,-4.884093404E-1
1.990516511E0,1.834997058E0,4.447348043E-2,-4.905398190E-1
1.993005886E0,1.822214246E0,3.914731368E-2,-4.937354922E-1
1.995530677E0,1.807300925E0,3.062544949E-2,-4.905398190E-1
1.998055521E0,1.790257215E0,2.529928461E-2,-4.862788618E-1
2.000580313E0,1.777474403E0,2.210358530E-2,-4.788222313E-1
2.003105105E0,1.761495948E0,2.316881903E-2,-4.692351520E-1
2.005629948E0,1.738060832E0,2.529928461E-2,-4.575175941E-1
2.008154740E0,1.711429954E0,2.636451647E-2,-4.394086301E-1
2.010679532E0,1.686929703E0,1.890788600E-2,-4.170387387E-1
2.013204375E0,1.659233570E0,6.125089712E-3,-3.904078901E-1
2.015729167E0,1.632602811E0,-9.853405878E-3,-3.605813682E-1
2.018253959E0,1.608102441E0,-3.328853101E-2,-3.339505494E-1
2.020778750E0,1.577210665E0,-6.737598777E-2,-3.062545061E-1
2.023307552E0,1.546318889E0,-1.025286764E-1,-2.753627300E-1
2.025832344E0,1.516492367E0,-1.408770680E-1,-2.508623898E-1
2.028357188E0,1.483470082E0,-1.802906841E-1,-2.199706137E-1
2.030881980E0,1.451513171E0,-2.163754553E-1,-1.924077123E-1
2.033406771E0,1.420621395E0,-2.430062890E-1,-1.647116542E-1
2.035931615E0,1.385468721E0,-2.653761804E-1,-1.391460598E-1
2.038456407E0,1.351381302E0,-2.802894413E-1,-1.146457046E-1
2.040981198E0,1.317293763E0,-2.909417748E-1,-9.653674066E-2
2.043506042E0,1.283339500E0,-2.941374779E-1,-7.523208112E-2
2.046030834E0,1.249252081E0,-2.877460718E-1,-5.818835273E-2
2.048555625E0,1.213034153E0,-2.845503688E-1,-4.220985994E-2
2.051080417E0,1.182142377E0,-2.792242169E-1,-2.516612969E-2
2.053609219E0,1.151250601E0,-2.696371078E-1,-7.057168987E-3
2.056134011E0,1.118228316E0,-2.536586225E-1,4.660394508E-3
2.058658855E0,1.090532303E0,-2.366148829E-1,2.276935615E-2
2.061183646E0,1.061771035E0,-2.206363827E-1,4.194355011E-2
2.063708438E0,1.033009768E0,-2.058562785E-1,6.324820966E-2
2.066233282E0,1.005313635E0,-1.930734813E-1,8.029194176E-2
2.068758073E0,9.765523672E-1,-1.813559234E-1,9.520520270E-2
2.071282865E0,9.477910995E-1,-1.707035899E-1,1.122489274E-1
2.073807709E0,9.168993235E-1,-1.643121988E-1,1.335535944E-1
2.076332500E0,8.785509467E-1,-1.675078869E-1,1.505973190E-1
2.078857292E0,8.380720615E-1,-1.749645174E-1,1.719019860E-1
2.081382084E0,7.954627872E-1,-1.888125539E-1,1.900109351E-1
2.083910938E0,7.517881989E-1,-2.015953511E-1,2.059894353E-1
2.086435730E0,7.123745680E-1,-2.248973250E-1,2.240983993E-1
2.088960573E0,6.677679420E-1,-2.451367527E-1,2.390116602E-1
2.091485365E0,6.219629049E-1,-2.728328109E-1,2.549901605E-1
2.094010157E0,5.804188251E-1,-3.026593328E-1,2.667077184E-1
2.096535000E0,5.399399996E-1,-3.186378181E-1,2.805557549E-1
2.099059792E0,5.047873259E-1,-3.399424851E-1,2.912080884E-1
2.101584584E0,4.728302956E-1,-3.537905216E-1,2.944037914E-1
2.104109427E0,4.430037737E-1,-3.623123765E-1,2.975994647E-1
2.106634219E0,4.195686579E-1,-3.665733039E-1,3.018604219E-1
2.109159011E0,3.982639909E-1,-3.623123765E-1,3.007951677E-1
2.111683802E0,3.833507299E-1,-3.537905216E-1,2.965342402E-1
2.114212605E0,3.812202811E-1,-3.356815577E-1,2.858819067E-1
2.116737396E0,3.769593239E-1,-3.143768907E-1,2.762948275E-1
2.119262240E0,3.822855055E-1,-2.856155932E-1,2.624467909E-1
2.121787032E0,3.918725848E-1,-2.515281439E-1,2.400768995E-1
2.124311823E0,4.035901725E-1,-2.153102309E-1,2.187722325E-1
2.126836667E0,4.185034335E-1,-1.707035899E-1,1.953371018E-1
2.129361459E0,4.302209914E-1,-1.217028722E-1,1.729672104E-1
2.131886250E0,4.451342523E-1,-7.163692266E-2,1.505973190E-1
2.134411094E0,4.632432163E-1,-1.624480449E-2,1.314231306E-1
2.136935886E0,4.824174047E-1,4.127778113E-2,1.154446304E-1
2.139460677E0,5.069177747E-1,1.041265279E-1,1.005313694E-1
2.141985469E0,5.346138477E-1,1.659100503E-1,9.200949967E-2
2.144514271E0,5.676360726E-1,2.319544852E-1,8.774857223E-2
2.147039323E0,5.974625945E-1,2.926727831E-1,8.774857223E-2
2.149564427E0,6.315500140E-1,3.459344208E-1,8.881380409E-2
2.152089480E0,6.677679420E-1,3.990629315E-1,9.733566642E-2
2.154614584E0,7.027874589E-1,4.438027143E-1,1.037270650E-1
2.157139636E0,7.326140404E-1,4.832163453E-1,1.101184636E-1
2.159664688E0,7.517881989E-1,5.109124184E-1,1.186403260E-1
2.162189792E0,7.720276117E-1,5.258256793E-1,1.260969639E-1
2.164714844E0,7.784190178E-1,5.322170258E-1,1.292926520E-1
2.167239948E0,7.762885690E-1,5.290213227E-1,1.367492825E-1
2.169765000E0,7.645710111E-1,5.173037648E-1,1.356840581E-1
2.172290052E0,7.443315983E-1,5.034557581E-1,1.346188188E-1
2.174815990E0,7.208964229E-1,4.853467941E-1,1.292926520E-1
2.177341042E0,6.985265613E-1,4.629769027E-1,1.154446304E-1
2.179866146E0,6.837464571E-1,4.384765327E-1,1.015966013E-1
2.182391198E0,6.762897968E-1,4.107804894E-1,8.455286920E-2
2.184916302E0,6.773550510E-1,3.789566457E-1,6.431344151E-2
2.187441355E0,6.857437491E-1,3.406082690E-1,3.661738336E-2
2.189966407E0,7.123745680E-1,3.011946380E-1,9.986559860E-3
2.192491511E0,7.464620471E-1,2.575200796E-1,-2.303566411E-2
2.195016563E0,7.954627872E-1,2.149107605E-1,-5.712312087E-2
2.197541667E0,8.540505767E-1,1.754971445E-1,-9.014534205E-2
2.200066719E0,9.179645777E-1,1.414096802E-1,-1.221023351E-1
2.202591771E0,9.914656281E-1,1.083874628E-1,-1.519288570E-1
2.205117657E0,1.064966679E0,8.069140464E-2,-1.711030602E-1
2.207642709E0,1.141663551E0,5.299534276E-2,-1.881467849E-1
2.210167813E0,1.218360305E0,3.062544949E-2,-1.977338791E-1
2.212692865E0,1.289730906E0,1.145125460E-2,-1.966686398E-1
2.215217969E0,1.353511691E0,-1.411433797E-2,-1.924077123E-1
2.217743021E0,1.408903837E0,-4.181039706E-2,-1.828206182E-1
2.220268073E0,1.458969831E0,-7.376738638E-2,-1.732335240E-1
2.222793177E0,1.493057251E0,-1.110505462E-1,-1.583202630E-1
2.225318230E0,1.513296723E0,-1.483336985E-1,-1.412765235E-1
2.227843334E0,1.522883773E0,-1.952039450E-1,-1.199718714E-1
2.230368386E0,1.509035707E0,-2.462019771E-1,-9.653674066E-2
2.232893438E0,1.481339693E0,-3.005288541E-1,-7.416684926E-2
2.235419375E0,1.437665105E0,-3.580514491E-1,-4.966649041E-2
2.237944427E0,1.382272959E0,-4.198349714E-1,-2.836182900E-2
2.240469532E0,1.310902357E0,-4.816184938E-1,-7.057168987E-3
2.242994584E0,1.232208252E0,-5.391410589E-1,1.531272475E-2
2.245519688E0,1.154446244E0,-5.870765448E-1,3.768261895E-2
2.248044740E0,1.077749491E0,-6.264901757E-1,5.685681105E-2
2.250569792E0,1.009574652E0,-6.552514434E-1,7.390054315E-2
2.253094896E0,9.541825056E-1,-6.712299585E-1,8.561810106E-2
2.255619948E0,9.126383662E-1,-6.754909158E-1,9.200949967E-2
2.258145052E0,8.828118443E-1,-6.659038067E-1,9.307473898E-2
2.260670105E0,8.636376858E-1,-6.414034367E-1,8.668334037E-2
2.263195157E0,8.572462797E-1,-6.051855087E-1,7.390054315E-2
2.265760573E0,8.561810255E-1,-5.476629138E-1,5.898727849E-2
2.268285625E0,8.583115339E-1,-4.741618633E-1,3.448691964E-2
2.270810677E0,8.636376858E-1,-3.825518191E-1,1.105179265E-2
2.273335782E0,8.678985834E-1,-2.738980353E-1,-1.664426550E-2
2.275860834E0,8.689638376E-1,-1.398118287E-1,-4.753602296E-2
2.278385938E0,8.657681346E-1,1.358172111E-2,-7.416684926E-2
2.280910990E0,8.476591706E-1,1.936061084E-1,-1.007976755E-1
2.283436042E0,8.252893090E-1,3.896089792E-1,-1.284937263E-1
2.285961146E0,7.965279818E-1,6.014571786E-1,-1.508636326E-1
2.288486198E0,7.581796050E-1,8.134385943E-1,-1.742987484E-1
2.291011302E0,7.113093734E-1,1.018895388E0,-1.977338791E-1
2.293536355E0,6.592460871E-1,1.209572077E0,-2.178401500E-1
2.296022761E0,6.038539410E-1,1.385335565E0,-2.359491140E-1
2.298547813E0,5.548532605E-1,1.530207276E0,-2.572537661E-1
2.301072917E0,5.079829693E-1,1.640858293E0,-2.732322812E-1
2.303597969E0,4.621779919E-1,1.723946452E0,-2.860150635E-1
2.306123073E0,4.259600639E-1,1.770816803E0,-2.945369184E-1
2.308648125E0,3.897421360E-1,1.779338598E0,-2.956021726E-1
2.311173177E0,3.588503897E-1,1.756968737E0,-2.870802879E-1
2.313698282E0,3.268933892E-1,1.699446082E0,-2.689713240E-1
2.316223334E0,2.906754613E-1,1.610099673E0,-2.370143533E-1
2.318748438E0,2.608489394E-1,1.489728332E0,-1.870815456E-1
2.321273490E0,2.235657871E-1,1.352313280E0,-1.338198930E-1
2.323798542E0,1.873478591E-1,1.192528367E0,-7.203638554E-2
2.326324480E0,1.436733007E-1,1.026352048E0,3.595161485E-3
2.328849532E0,9.680305421E-2,8.528521657E-1,8.668334037E-2
2.331374636E0,4.154408723E-2,6.781539917E-1,1.676410437E-1
2.333899688E0,-2.556559257E-2,5.119776130E-1,2.517944574E-1
2.336424792E0,-9.267527610E-2,3.640433848E-1,3.338173926E-1
2.338949844E0,-1.683068126E-1,2.372806519E-1,4.146419466E-1
2.341474896E0,-2.556559145E-1,1.275616586E-1,4.934692085E-1
2.344000000E0,-3.419398069E-1,3.275591508E-2,5.722964406E-1
2.346525052E0,-4.314193726E-1,-4.287562892E-2,6.479279995E-1
2.349050157E0,-5.208989382E-1,-1.046591476E-1,7.182333469E-1
2.351575209E0,-6.219629049E-1,-1.589860320E-1,7.842777967E-1
2.354100261E0,-7.210295796E-1,-2.069215178E-1,8.439308405E-1
2.356626198E0,-8.275529146E-1,-2.547238469E-1,8.950620294E-1
2.359151250E0,-9.319457412E-1,-3.026593328E-1,9.344756603E-1
2.361676355E0,-1.038469076E0,-3.559209704E-1,9.664326906E-1
2.364201407E0,-1.144859195E0,-4.187697470E-1,9.909330010E-1
2.366726511E0,-1.250317216E0,-4.826837182E-1,1.004647851E0
2.369251563E0,-1.356840611E0,-5.487281680E-1,1.012104511E0
2.371776615E0,-1.466559529E0,-6.158378124E-1,1.012104511E0
2.374301719E0,-1.570952415E0,-6.818822622E-1,1.004647851E0
2.376826771E0,-1.673214793E0,-7.479267120E-1,9.973244071E-1
2.379351875E0,-1.782800674E0,-8.054493070E-1,9.919982553E-1
2.381876927E0,-1.891454339E0,-8.628387451E-1,9.856068492E-1
2.384401980E0,-1.997977734E0,-9.150351882E-1,9.824111462E-1
2.386927917E0,-2.106631517E0,-9.608401656E-1,9.781502485E-1
2.389452969E0,-2.213154793E0,-9.949276447E-1,9.802806973E-1
2.391978073E0,-2.323939085E0,-1.023688912E0,9.856068492E-1
2.394503125E0,-2.437785864E0,-1.048189282E0,9.877372980E-1
2.397028230E0,-2.549635172E0,-1.067363501E0,9.941287041E-1
2.399553282E0,-2.660419464E0,-1.079081059E0,9.951939583E-1
2.402078334E0,-2.778660297E0,-1.083341956E0,9.962592125E-1
2.404603438E0,-2.895835876E0,-1.080146313E0,9.973244071E-1
2.407128490E0,-3.009682655E0,-1.068428755E0,9.994548559E-1
2.409653594E0,-3.127923727E0,-1.042863131E0,9.994548559E-1
2.412178646E0,-3.250425339E0,-1.002384305E0,1.000520110E0
2.414703698E0,-3.371861935E0,-9.427312016E-1,1.003715873E0
2.417229636E0,-3.491168022E0,-8.660344481E-1,1.011039257E0
2.419754688E0,-3.611406326E0,-7.671009302E-1,1.027017832E0
2.422279792E0,-3.730712414E0,-6.584471464E-1,1.048322439E0
2.424804844E0,-3.847887993E0,-5.423367620E-1,1.080279469E0
2.427329948E0,-3.957607031E0,-4.209001958E-1,1.119693041E0
2.429855000E0,-4.059869289E0,-3.037245572E-1,1.169759035E0
2.432380052E0,-4.151479244E0,-2.005301118E-1,1.219824910E0
2.434905157E0,-4.222716808E0,-1.110505462E-1,1.274151802E0
2.437430209E0,-4.284500599E0,-5.033225939E-2,1.325283051E0
2.439955313E0,-4.323914051E0,-2.157096937E-2,1.374283791E0
2.442480365E0,-4.345218658E0,-1.944050193E-2,1.416893125E0
2.445005417E0,-4.348414421E0,-4.500609636E-2,1.449915290E0
2.447531355E0,-4.328175068E0,-1.003982127E-1,1.472285151E0
2.450056407E0,-4.282370090E0,-1.760297567E-1,1.481872320E0
2.452581511E0,-4.218455791E0,-2.675066292E-1,1.480807066E0
2.455106563E0,-4.126978874E0,-3.740299344E-1,1.465893745E0
2.457631667E0,-4.020455837E0,-4.901403487E-1,1.433936834E0
2.460156719E0,-3.899019241E0,-5.924026966E-1,1.379609942E0
2.462681771E0,-3.767995596E0,-6.722952127E-1,1.310369730E0
2.465206875E0,-3.629515171E0,-7.181001902E-1,1.236868739E0
2.467731927E0,-3.492233276E0,-7.276872993E-1,1.164432883E0
2.470257032E0,-3.352687836E0,-6.946650743E-1,1.074953318E0
2.472782084E0,-3.216337919E0,-6.350120306E-1,9.792154431E-1
2.475307136E0,-3.077857733E0,-5.497934222E-1,8.833444715E-1
2.477833073E0,-2.940575838E0,-4.496614933E-1,7.832126021E-1
2.480358125E0,-2.806356430E0,-3.292901516E-1,6.852111220E-1
2.482883230E0,-2.676398039E0,-1.941387206E-1,5.893401504E-1
2.485408282E0,-2.561352730E0,-4.394086078E-2,4.924039543E-1
2.487933386E0,-2.454829454E0,1.275616586E-1,3.997286856E-1
2.490458438E0,-2.364284754E0,3.097164929E-1,3.103822768E-1
2.492983490E0,-2.289851427E0,4.981296062E-1,2.294245660E-1
2.495508594E0,-2.220611334E0,6.930672526E-1,1.484668553E-1
2.498033646E0,-2.170545340E0,8.837439418E-1,6.963960826E-2
2.500558750E0,-2.131131887E0,1.058308959E0,-6.657706108E-4
2.503083802E0,-2.099174738E0,1.214898229E0,-6.777545065E-2
2.505608855E0,-2.080000639E0,1.352313280E0,-1.210371032E-1
2.508134792E0,-2.076804876E0,1.462032318E0,-1.604507267E-1
2.510659844E0,-2.083196402E0,1.546185732E0,-1.902772486E-1
2.513184948E0,-2.100239992E0,1.598382115E0,-2.094514370E-1
2.515710000E0,-2.133262396E0,1.625945091E0,-2.178401500E-1
2.518235105E0,-2.171610594E0,1.629140735E0,-2.157096863E-1
2.520760157E0,-2.212089539E0,1.609034538E0,-2.041252851E-1
2.523285209E0,-2.253633499E0,1.556838036E0,-1.870815456E-1
2.525810313E0,-2.303699493E0,1.467358470E0,-1.657768935E-1
2.528335365E0,-2.358026505E0,1.334204316E0,-1.391460598E-1
2.530860469E0,-2.405828714E0,1.164832354E0,-1.114500016E-1
2.533385521E0,-2.452698946E0,9.657669067E-1,-8.375394344E-2
2.535910573E0,-2.495308399E0,7.346113324E-1,-5.392742157E-2
2.538436511E0,-2.534722090E0,4.704335332E-1,-2.197043039E-2
2.540961563E0,-2.567744255E0,1.733666807E-1,9.986559860E-3
2.543486667E0,-2.599701166E0,-1.504641622E-1,4.620448127E-2
2.546011719E0,-2.629527807E0,-4.858794212E-1,8.774857223E-2
2.548536823E0,-2.661484718E0,-8.372731805E-1,1.388797611E-1
2.551061875E0,-2.696637392E0,-1.193060994E0,1.974675655E-1
2.553586927E0,-2.728594303E0,-1.558302760E0,2.613815665E-1
2.556112032E0,-2.762681961E0,-1.920482039E0,3.284912407E-1
2.558637084E0,-2.806356430E0,-2.263353825E0,3.965329826E-1
2.561162188E0,-2.856422424E0,-2.578662872E0,4.625774324E-1
2.563687240E0,-2.918205976E0,-2.851229429E0,5.275566578E-1
2.566212292E0,-2.993704319E0,-3.074928284E0,5.893401504E-1
2.568738177E0,-3.073596716E0,-3.241104603E0,6.436670423E-1
2.571263230E0,-3.150293589E0,-3.354951382E0,6.947982311E-1
2.573788334E0,-3.229120731E0,-3.410343409E0,7.480598688E-1
2.576313386E0,-3.302621841E0,-3.413539171E0,7.959953547E-1
2.578838490E0,-3.367601156E0,-3.362407923E0,8.396699429E-1
2.581363542E0,-3.420862675E0,-3.263341427E0,8.790835738E-1
2.583888594E0,-3.458145857E0,-3.114341974E0,9.131709933E-1
2.586413698E0,-3.476254702E0,-2.916208506E0,9.440627694E-1
2.588938750E0,-3.476254702E0,-2.668009281E0,9.696283340E-1
2.591463855E0,-3.454950094E0,-2.380529404E0,9.888025522E-1
2.593988907E0,-3.413406134E0,-2.063090086E0,9.994548559E-1
2.596513959E0,-3.350557327E0,-1.728740096E0,9.994548559E-1
2.599039948E0,-3.274925709E0,-1.392259598E0,9.856068492E-1
2.601565000E0,-3.189707041E0,-1.072689652E0,9.696283340E-1
2.604090105E0,-3.098097086E0,-7.916013002E-1,9.461932182E-1
2.606615157E0,-3.005421877E0,-5.583152771E-1,9.195623994E-1
2.609140261E0,-2.915010214E0,-3.697690070E-1,8.865401745E-1
2.611665313E0,-2.820204496E0,-2.291582525E-1,8.513875008E-1
2.614190365E0,-2.728594303E0,-1.398118287E-1,8.141043186E-1
2.616715469E0,-2.639114857E0,-9.400681406E-2,7.757559419E-1
2.619240521E0,-2.549635172E0,-8.655018359E-2,7.437989712E-1
2.621765625E0,-2.468677521E0,-1.099853069E-1,7.161028981E-1
2.624290677E0,-2.394111156E0,-1.643121988E-1,6.830806732E-1
2.626815730E0,-2.326069355E0,-2.430062890E-1,6.617760062E-1
2.629341615E0,-2.265351295E0,-3.367467821E-1,6.447322965E-1
2.631866667E0,-2.211024284E0,-4.454005659E-1,6.276885867E-1
2.634391771E0,-2.167349815E0,-5.668371320E-1,6.170362234E-1
2.636916823E0,-2.132197142E0,-6.957303286E-1,6.138405204E-1
2.639441927E0,-2.103435755E0,-8.192973733E-1,6.138405204E-1
2.641966980E0,-2.074674368E0,-9.384703040E-1,6.159709692E-1
2.644492032E0,-2.051239252E0,-1.042863131E0,6.223623753E-1
2.647017136E0,-2.033130407E0,-1.123820782E0,6.330147386E-1
2.649542188E0,-2.013956070E0,-1.176017284E0,6.489931941E-1
2.652067292E0,-1.983064413E0,-1.219691753E0,6.628412604E-1
2.654592344E0,-1.957498789E0,-1.242061734E0,6.788197160E-1
2.657117396E0,-1.926607132E0,-1.249518394E0,6.969286799E-1
2.659643386E0,-1.894650102E0,-1.247387886E0,7.171681523E-1
2.662168542E0,-1.861627817E0,-1.231409431E0,7.310161591E-1
2.664693646E0,-1.822214246E0,-1.204778552E0,7.427337170E-1
2.667218750E0,-1.780670166E0,-1.165364981E0,7.555165291E-1
2.669743907E0,-1.731802583E0,-1.109972835E0,7.651036382E-1
2.672269011E0,-1.680671453E0,-1.048189282E0,7.693645358E-1
2.674794167E0,-1.634866357E0,-9.821448326E-1,7.682993412E-1
2.677319271E0,-1.582669973E0,-9.203613400E-1,7.661688328E-1
2.679844427E0,-1.529408336E0,-8.596430421E-1,7.597774267E-1
2.682369532E0,-1.479342341E0,-8.065145612E-1,7.565817833E-1
2.684894688E0,-1.428211212E0,-7.553833723E-1,7.448641658E-1
2.687419792E0,-1.373884320E0,-7.074478865E-1,7.310161591E-1
2.689945052E0,-1.322753072E0,-6.701647043E-1,7.075810432E-1
2.692470209E0,-1.270556688E0,-6.435338855E-1,6.788197160E-1
2.694995313E0,-1.215164542E0,-6.147726178E-1,6.415365934E-1
2.697520417E0,-1.159772396E0,-5.892069936E-1,6.031882167E-1
2.700045573E0,-1.099187374E0,-5.561847687E-1,5.648398399E-1
2.702570677E0,-1.037403822E0,-5.210320950E-1,5.232957006E-1
2.705095834E0,-9.766855240E-1,-4.890751243E-1,4.679036140E-1
2.707620938E0,-9.117063284E-1,-4.528571963E-1,4.125114977E-1
2.710146094E0,-8.435314298E-1,-4.198349714E-1,3.529915810E-1
2.712671198E0,-7.764217257E-1,-3.910736740E-1,2.901428342E-1
2.715196355E0,-7.071815729E-1,-3.548557460E-1,2.209026963E-1
2.717721459E0,-6.347457170E-1,-3.154421151E-1,1.559234858E-1
2.720246771E0,-5.601794124E-1,-2.685718834E-1,9.094426781E-2
2.722771927E0,-4.857462645E-1,-2.131797522E-1,2.703028731E-2
2.725297032E0,-4.069190025E-1,-1.600512564E-1,-3.368799388E-2
2.727822136E0,-3.302222490E-1,-1.014634445E-1,-9.121058136E-2
2.730347292E0,-2.567211688E-1,-3.861469775E-2,-1.519288570E-1
2.732872396E0,-1.746982187E-1,2.849498391E-2,-2.030600458E-1
2.735397552E0,-9.054480493E-2,9.453943372E-2,-2.529928386E-1
2.737922657E0,-1.491326280E-2,1.584534049E-1,-3.019935489E-1
2.740447813E0,6.391397864E-2,2.223673910E-1,-3.435376585E-1
2.742972917E0,1.458037645E-1,2.894770801E-1,-3.754946291E-1
2.745498073E0,2.225005478E-1,3.501953483E-1,-4.095821083E-1
2.748023177E0,2.970668674E-1,4.075847864E-1,-4.383433759E-1
2.750548490E0,3.641765416E-1,4.651073813E-1,-4.639089704E-1
2.753073646E0,4.334166944E-1,5.183690190E-1,-4.969311953E-1
2.755598750E0,4.962654412E-1,5.716306567E-1,-5.299534202E-1
2.758123855E0,5.580489635E-1,6.227618456E-1,-5.672366023E-1
2.760649011E0,6.198324561E-1,6.653711796E-1,-6.098458767E-1
2.763174115E0,6.762897968E-1,7.037195563E-1,-6.503247619E-1
2.765699271E0,7.294183373E-1,7.346113324E-1,-6.918688416E-1
2.768224375E0,7.805495262E-1,7.601768970E-1,-7.344781756E-1
2.770749532E0,8.252893090E-1,7.761554122E-1,-7.781527042E-1
2.773274636E0,8.668333888E-1,7.782858610E-1,-8.270202875E-1
2.775799792E0,8.998556137E-1,7.708292603E-1,-8.760210276E-1
2.778324896E0,9.243559837E-1,7.623074055E-1,-9.260869622E-1
2.780850209E0,9.445953965E-1,7.484593391E-1,-9.804138541E-1
2.783375365E0,9.595086575E-1,7.271546721E-1,-1.034740686E0
2.785900469E0,9.680305123E-1,7.058500051E-1,-1.091198087E0
2.788425573E0,9.712262154E-1,6.856105924E-1,-1.148720622E0
2.790950730E0,9.722914696E-1,6.760234833E-1,-1.199851871E0
2.793475834E0,9.690957665E-1,6.760234833E-1,-1.245656848E0
2.796000990E0,9.595086575E-1,6.920019984E-1,-1.285070539E0
2.798526094E0,9.350082874E-1,7.143719196E-1,-1.328745008E0
2.801051250E0,8.987903595E-1,7.378070354E-1,-1.368158698E0
2.803576355E0,8.487244248E-1,7.559159994E-1,-1.402246118E0
2.806101511E0,7.762885690E-1,7.580464482E-1,-1.428876996E0
2.808626615E0,6.921351552E-1,7.527202964E-1,-1.438330889E0
2.811151980E0,5.995930433E-1,7.346113324E-1,-1.437265635E0
2.813677136E0,5.197005868E-1,6.973281503E-1,-1.419289827E0
2.816202240E0,4.888088107E-1,6.408708096E-1,-1.395854712E0
2.818727344E0,5.410051942E-1,5.503259897E-1,-1.369223952E0
2.821252500E0,6.942656040E-1,3.969324529E-1,-1.342593074E0
2.823777605E0,9.232907295E-1,1.829537749E-1,-1.328745008E0
2.826302761E0,1.171490073E0,-5.352795869E-2,-1.328745008E0
2.828827865E0,1.375881553E0,-2.312887162E-1,-1.337266922E0
2.831353021E0,1.500513911E0,-2.994636297E-1,-1.345788717E0
2.833878125E0,1.527144670E0,-2.366148829E-1,-1.357506275E0
2.836403282E0,1.444056511E0,-3.861469775E-2,-1.363897681E0
2.838928386E0,1.254578233E0,2.809551954E-1,-1.352180123E0
2.841453646E0,9.797480702E-1,6.589797735E-1,-1.323418856E0
2.843978802E0,6.635070443E-1,1.022091031E0,-1.286135674E0
2.846503907E0,3.663070202E-1,1.296921253E0,-1.244591594E0
2.849029011E0,1.553908736E-1,1.443923354E0,-1.209438920E0
2.851554167E0,8.082455397E-2,1.468423724E0,-1.181742907E0
2.854079271E0,1.553908736E-1,1.373618007E0,-1.163633943E0
2.856604427E0,3.620460629E-1,1.189332724E0,-1.156177282E0
2.859129532E0,6.709636450E-1,9.625712037E-1,-1.144459724E0
2.861654688E0,1.008509398E0,7.388722301E-1,-1.139133573E0
2.864179792E0,1.315163374E0,5.215647221E-1,-1.148720622E0
2.866704948E0,1.548449397E0,3.065207899E-1,-1.170025349E0
2.869230052E0,1.710364819E0,1.211702600E-1,-1.189199567E0
2.871755417E0,1.809431434E0,-7.722939365E-3,-1.204112768E0
2.874280573E0,1.868019223E0,-7.163692266E-2,-1.220091224E0
2.876805677E0,1.906234503E0,-7.802832127E-2,-1.233939290E0
2.879330782E0,1.937126279E0,-5.246272683E-2,-1.243526459E0
2.881855938E0,1.949909091E0,-6.657706574E-3,-1.262700558E0
2.884381042E0,1.952039480E0,5.406057462E-2,-1.278679132E0
2.886906198E0,1.939256668E0,1.137136221E-1,-1.292527080E0
2.889431302E0,1.903038740E0,1.723014414E-1,-1.304244637E0
2.891956459E0,1.852040768E0,2.362154275E-1,-1.310636044E0
2.894481563E0,1.791322470E0,3.054555655E-1,-1.318092704E0
2.897006719E0,1.723147511E0,3.778914213E-1,-1.317027450E0
2.899531823E0,1.659233570E0,4.480636418E-1,-1.318092704E0
2.902057136E0,1.600645781E0,5.066514611E-1,-1.321288466E0
2.904582292E0,1.562297344E0,5.439345837E-1,-1.324484110E0
2.907107396E0,1.542057991E0,5.609783530E-1,-1.327679753E0
2.909632500E0,1.542057991E0,5.503259897E-1,-1.321288466E0
2.912157657E0,1.563362598E0,5.119776130E-1,-1.310636044E0
2.914682761E0,1.597450018E0,4.523245692E-1,-1.298918486E0
2.917207917E0,1.653907418E0,3.757609427E-1,-1.279744267E0
2.919733021E0,1.710364819E0,2.798899710E-1,-1.249917746E0
2.922258177E0,1.762561202E0,1.712362021E-1,-1.209438920E0
2.924783282E0,1.805170536E0,6.364767253E-2,-1.158307791E0
2.927308438E0,1.841388464E0,-3.754946589E-2,-1.095458984E0
2.929833542E0,1.869084477E0,-1.344856620E-1,-1.027284145E0
2.932358855E0,1.883997798E0,-2.185059190E-1,-9.537830353E-1
2.934884011E0,1.891454339E0,-2.962679267E-1,-8.696296215E-1
2.937409115E0,1.883997798E0,-3.516600430E-1,-7.813484073E-1
2.939934219E0,1.868019223E0,-4.006607831E-1,-6.939992905E-1
2.942459375E0,1.850975513E0,-4.326177537E-1,-6.045197248E-1
2.944984480E0,1.826475143E0,-4.379439354E-1,-5.224968195E-1
2.947509636E0,1.804105282E0,-4.177044928E-1,-4.543218911E-1
2.950034740E0,1.784931064E0,-3.612471521E-1,-3.946688473E-1
2.952559896E0,1.768952608E0,-2.866808474E-1,-3.456681073E-1
2.955085000E0,1.752974153E0,-1.930734813E-1,-3.083849549E-1
2.957610157E0,1.739126086E0,-8.548495173E-2,-2.838846147E-1
2.960135261E0,1.729538918E0,2.636451647E-2,-2.679060996E-1
2.962700105E0,1.729538918E0,1.307573467E-1,-2.615146935E-1
2.965225209E0,1.727408528E0,2.234326303E-1,-2.572537661E-1
2.967750365E0,1.739126086E0,3.097164929E-1,-2.572537661E-1
2.970275469E0,1.756169796E0,3.853480518E-1,-2.572537661E-1
2.972800573E0,1.774278760E0,4.459331632E-1,-2.604494691E-1
2.975325730E0,1.796648622E0,4.938686490E-1,-2.593842447E-1
2.977850834E0,1.819018483E0,5.279561281E-1,-2.572537661E-1
2.980375990E0,1.842453718E0,5.471302867E-1,-2.572537661E-1
2.982901094E0,1.869084477E0,5.620435476E-1,-2.529928386E-1
2.985426250E0,1.893584847E0,5.726959109E-1,-2.487319112E-1
2.987951355E0,1.922212958E0,5.748263597E-1,-2.412752807E-1
2.990476511E0,1.946713328E0,5.769568086E-1,-2.370143533E-1
2.992962344E0,1.971213698E0,5.737611651E-1,-2.316881865E-1
2.995487500E0,1.991453171E0,5.695002079E-1,-2.263620198E-1
2.998012605E0,2.013823032E0,5.620435476E-1,-2.274272442E-1
3.000537709E0,2.038323402E0,5.471302867E-1,-2.327534109E-1
3.003062865E0,2.058562756E0,5.354127288E-1,-2.466014475E-1
3.005587969E0,2.079867363E0,5.204994678E-1,-2.689713240E-1
3.008113125E0,2.100106955E0,5.130428672E-1,-2.913412452E-1
3.010638230E0,2.118215799E0,5.013253093E-1,-3.179720640E-1
3.013163386E0,2.130998611E0,4.853467941E-1,-3.456681073E-1
3.015688490E0,2.140585661E0,4.683030546E-1,-3.744294047E-1
3.018213646E0,2.151238203E0,4.438027143E-1,-4.074516296E-1
3.020738750E0,2.157629490E0,4.107804894E-1,-4.415390790E-1
3.023264115E0,2.159759998E0,3.800218701E-1,-4.766917825E-1
3.025789271E0,2.165086031E0,3.459344208E-1,-5.107792616E-1
3.028314375E0,2.164020777E0,3.097164929E-1,-5.395405293E-1
3.030839480E0,2.159759998E0,2.820204496E-1,-5.651060939E-1
3.033364636E0,2.153368473E0,2.553896308E-1,-5.928021669E-1
3.035889740E0,2.146977186E0,2.330197245E-1,-6.183677912E-1
3.038414896E0,2.133129120E0,2.117150575E-1,-6.418029070E-1
3.040940000E0,2.121411562E0,2.010627389E-1,-6.620423198E-1
3.043465157E0,2.108628750E0,1.936061084E-1,-6.833469868E-1
3.045990261E0,2.093715429E0,1.872147024E-1,-7.003906965E-1
3.048515417E0,2.080932617E0,1.968017966E-1,-7.153039575E-1
3.051040521E0,2.064954281E0,2.159759998E-1,-7.291520238E-1
3.053565886E0,2.053236723E0,2.372806519E-1,-7.376738787E-1
3.056091042E0,2.045779943E0,2.500634491E-1,-7.547175884E-1
3.058616146E0,2.037258148E0,2.564548552E-1,-7.706961036E-1
3.061141250E0,2.034062386E0,2.532591522E-1,-7.856093645E-1
3.063666407E0,2.028736353E0,2.458025217E-1,-7.920007706E-1
3.066191511E0,2.025540590E0,2.362154275E-1,-8.037183285E-1
3.068716667E0,2.019149303E0,2.234326303E-1,-8.165011406E-1
3.071241771E0,2.011692524E0,2.117150575E-1,-8.270202875E-1
3.073766927E0,2.001040220E0,1.957365721E-1,-8.355421424E-1
3.076292032E0,1.993583560E0,1.754971445E-1,-8.451292515E-1
3.078817188E0,1.981866002E0,1.414096802E-1,-8.589772582E-1
3.081342292E0,1.971213698E0,1.009308323E-1,-8.653686643E-1
3.083867657E0,1.949909091E0,5.193011090E-2,-8.717600703E-1
3.086392813E0,1.932865381E0,3.994623665E-3,-8.781514764E-1
3.088917917E0,1.919017315E0,-4.713656008E-2,-8.813471794E-1
3.091443021E0,1.896780610E0,-1.003982127E-1,-8.877385855E-1
3.093968177E0,1.871214986E0,-1.462032348E-1,-8.909342885E-1
3.096493282E0,1.849910259E0,-1.834863871E-1,-8.919994831E-1
3.099018438E0,1.824344754E0,-2.174406946E-1,-8.909342885E-1
3.101543542E0,1.797713876E0,-2.515281439E-1,-8.909342885E-1
3.104068698E0,1.773213506E0,-2.845503688E-1,-8.909342885E-1
3.106593802E0,1.743386984E0,-3.197030723E-1,-8.866733313E-1
3.109118959E0,1.715690970E0,-3.537905216E-1,-8.856080770E-1
3.111644063E0,1.690125346E0,-3.963998258E-1,-8.813471794E-1
3.114169375E0,1.664559722E0,-4.368786812E-1,-8.749557734E-1
3.116694532E0,1.641124606E0,-4.816184938E-1,-8.728253245E-1
3.119219636E0,1.616624236E0,-5.252930522E-1,-8.643034697E-1
3.121744740E0,1.598515272E0,-5.700328350E-1,-8.568468094E-1
3.124269896E0,1.581471562E0,-6.115769148E-1,-8.483249545E-1
3.126795000E0,1.568688750E0,-6.531209946E-1,-8.355421424E-1
3.129320157E0,1.552710295E0,-6.893389225E-1,-8.312812448E-1
3.131845261E0,1.533536077E0,-7.223611474E-1,-8.227593303E-1
3.134370417E0,1.517557621E0,-7.532529235E-1,-8.133054376E-1
3.136895521E0,1.503709555E0,-7.798837423E-1,-8.047835231E-1
3.139420677E0,1.489861488E0,-8.001231551E-1,-8.005226254E-1
3.141945782E0,1.474948287E0,-8.129059672E-1,-7.888050675E-1
3.144471146E0,1.457904577E0,-8.255556226E-1,-7.781527042E-1
3.146996302E0,1.445121765E0,-8.266208172E-1,-7.685656548E-1
3.149521407E0,1.429143310E0,-8.214278221E-1,-7.589785457E-1
3.152046511E0,1.416360497E0,-8.118407130E-1,-7.493914366E-1
3.154571667E0,1.401447177E0,-7.990579009E-1,-7.387390733E-1
3.157096771E0,1.382272959E0,-7.788184881E-1,-7.259563208E-1
3.159621927E0,1.371620655E0,-7.575138211E-1,-7.131735086E-1
3.162147032E0,1.357772589E0,-7.298177481E-1,-7.014559507E-1
3.164672188E0,1.340728879E0,-7.010564804E-1,-6.844122410E-1
3.167197292E0,1.320489526E0,-6.701647043E-1,-6.663032770E-1
3.169722448E0,1.299184799E0,-6.435338855E-1,-6.492595077E-1
3.172247552E0,1.276948094E0,-6.179683208E-1,-6.279548407E-1
3.174812396E0,1.249252081E0,-5.934679508E-1,-6.013240218E-1
3.177337657E0,1.221555948E0,-5.742937326E-1,-5.736280084E-1
3.179862969E0,1.192794681E0,-5.540543199E-1,-5.469971299E-1
3.182388282E0,1.160837650E0,-5.327496529E-1,-5.139749050E-1
3.184913542E0,1.127815485E0,-5.146406889E-1,-4.809527099E-1
3.187438855E0,1.093728065E0,-5.061188340E-1,-4.479304850E-1
3.189964167E0,1.062836289E0,-4.954665005E-1,-4.159734845E-1
3.192489480E0,1.033009768E0,-4.890751243E-1,-3.797555864E-1
3.195014740E0,1.003183246E0,-4.858794212E-1,-3.414071798E-1
3.197540052E0,9.797480702E-1,-4.826837182E-1,-3.083849549E-1
3.200065365E0,9.627043605E-1,-4.848141670E-1,-2.721670270E-1
3.202590625E0,9.424648881E-1,-4.890751243E-1,-2.370143533E-1
3.205074688E0,9.275516272E-1,-4.933360517E-1,-2.051905096E-1
3.207600000E0,9.147688746E-1,-4.954665005E-1,-1.721682847E-1
3.210125261E0,9.062470198E-1,-5.039883852E-1,-1.434070021E-1
3.212650573E0,8.977251053E-1,-5.018579364E-1,-1.125152409E-1
3.215175886E0,8.902685046E-1,-4.933360517E-1,-8.694964647E-2
3.217701198E0,8.849423528E-1,-4.794880152E-1,-5.712312087E-2
3.220226459E0,8.796161413E-1,-4.549876451E-1,-3.155753016E-2
3.222751771E0,8.732247949E-1,-4.294220507E-1,-4.926702939E-3
3.225277084E0,8.721595407E-1,-3.985303044E-1,2.489982173E-2
3.227802344E0,8.700290918E-1,-3.569862247E-1,5.366111174E-2
3.230327657E0,8.710942864E-1,-3.111811876E-1,8.029194176E-2
3.232852969E0,8.710942864E-1,-2.632457018E-1,1.047922969E-1
3.235376459E0,8.657681346E-1,-2.101172209E-1,1.324883550E-1
3.237901771E0,8.604419827E-1,-1.568555683E-1,1.644453406E-1
3.240427032E0,8.540505767E-1,-1.025286764E-1,1.910761744E-1
3.242952344E0,8.455287218E-1,-5.246272683E-2,2.187722325E-1
3.245477657E0,8.348763585E-1,-3.462007269E-3,2.475335300E-1
3.248002969E0,8.178326488E-1,4.340824485E-2,2.752295732E-1
3.250528230E0,7.965279818E-1,8.495233208E-2,3.007951677E-1
3.253053542E0,7.741581202E-1,1.147788614E-1,3.242303133E-1
3.255578855E0,7.464620471E-1,1.435401440E-1,3.466002047E-1
3.258104115E0,7.123745680E-1,1.659100503E-1,3.668396175E-1
3.260629427E0,6.762897968E-1,1.840189993E-1,3.881442845E-1
3.263154740E0,6.358109713E-1,1.957365721E-1,4.050548673E-1
3.265717709E0,5.995930433E-1,2.053236663E-1,4.220985770E-1
3.268242969E0,5.580489635E-1,2.106498331E-1,4.338161349E-1
3.270768282E0,5.175700784E-1,2.127802968E-1,4.391423166E-1
3.273293594E0,4.749607742E-1,2.085193694E-1,4.444684684E-1
3.275818855E0,4.344819188E-1,2.021279633E-1,4.465989470E-1
3.278344167E0,3.993292153E-1,1.872147024E-1,4.455337226E-1
3.280869480E0,3.652417660E-1,1.659100503E-1,4.434032440E-1
3.283394792E0,3.375457227E-1,1.403444558E-1,4.402075410E-1
3.285920052E0,3.162410557E-1,1.147788614E-1,4.306204617E-1
3.288445365E0,2.991973162E-1,8.921326697E-2,4.199681282E-1
3.290970677E0,2.906754613E-1,5.832150951E-2,4.050548673E-1
3.293495938E0,2.906754613E-1,3.169068322E-2,3.902747631E-1
3.295980000E0,2.949363887E-1,1.864157850E-3,3.711005449E-1
3.298505313E0,3.130453527E-1,-2.476666868E-2,3.508611321E-1
3.301030573E0,3.354152441E-1,-4.607132822E-2,3.252955377E-1
3.303555886E0,3.663070202E-1,-6.098458916E-2,3.039908707E-1
3.306081198E0,4.089163244E-1,-7.483261824E-2,2.805557549E-1
3.308606511E0,4.483299553E-1,-7.909355313E-2,2.592510879E-1
3.311131771E0,4.962654412E-1,-7.909355313E-2,2.443378270E-1
3.313657084E0,5.473966002E-1,-7.270215452E-2,2.262288630E-1
3.316182396E0,6.006582975E-1,-6.418029219E-2,2.134460658E-1
3.318707657E0,6.613765359E-1,-5.246272683E-2,2.049241960E-1
3.321232969E0,7.155702710E-1,-4.607132822E-2,2.006632686E-1
3.323758282E0,7.656362653E-1,-4.607132822E-2,1.974675655E-1
3.326281771E0,8.146369457E-1,-4.394086078E-2,1.900109351E-1
3.328807084E0,8.476591706E-1,-5.565842614E-2,1.889457107E-1
3.331332344E0,8.742899895E-1,-7.163692266E-2,1.878804713E-1
3.333857657E0,8.934642076E-1,-8.655018359E-2,1.814890802E-1
3.336382969E0,9.083774686E-1,-1.025286764E-1,1.740324497E-1
3.338908282E0,9.137036204E-1,-1.185071766E-1,1.676410437E-1
3.341433542E0,9.137036204E-1,-1.227681041E-1,1.580539495E-1
3.343958855E0,9.147688746E-1,-1.185071766E-1,1.505973190E-1
3.346484167E0,9.115731716E-1,-1.110505462E-1,1.378145218E-1
3.349009427E0,9.158340693E-1,-8.974587917E-2,1.271621883E-1
3.351534740E0,9.147688746E-1,-6.204982474E-2,1.111836955E-1
3.354060052E0,9.190297723E-1,-2.583190054E-2,9.733566642E-2
3.356583542E0,9.264864326E-1,1.890788600E-2,7.816147059E-2
3.359108855E0,9.403344393E-1,6.684337556E-2,5.472634733E-2
3.361634115E0,9.605738521E-1,1.137136221E-1,2.916075476E-2
3.364159427E0,9.808133245E-1,1.595186442E-1,5.725627299E-3
3.366684740E0,1.009574652E0,1.999974996E-1,-2.090519853E-2
3.369210052E0,1.045792580E0,2.340849638E-1,-5.286218971E-2
3.371735313E0,1.089467049E0,2.617810071E-1,-8.481918275E-2
3.374260625E0,1.135272145E0,2.756290436E-1,-1.178414002E-1
3.376785938E0,1.184272766E0,2.788247466E-1,-1.508636326E-1
3.379311198E0,1.237534523E0,2.745638192E-1,-1.849510819E-1
3.381836511E0,1.294923902E0,2.564548552E-1,-2.199706137E-1
3.384361823E0,1.349250793E0,2.330197245E-1,-2.551233172E-1
3.386885313E0,1.402512431E0,2.127802968E-1,-2.934716940E-1
3.389410625E0,1.454708815E0,1.893451661E-1,-3.318201005E-1
3.391935886E0,1.496252894E0,1.669752747E-1,-3.701684773E-1
3.394461198E0,1.528209925E0,1.509967744E-1,-4.031907022E-1
3.396986511E0,1.556971192E0,1.403444558E-1,-4.362129271E-1
3.399511823E0,1.575080156E0,1.435401440E-1,-4.681699276E-1
3.402037084E0,1.580406308E0,1.467358470E-1,-4.958659708E-1
3.404562396E0,1.577210665E0,1.488663107E-1,-5.246272683E-1
3.407087709E0,1.564427853E0,1.563229412E-1,-5.480623841E-1
3.409612969E0,1.538862228E0,1.648448110E-1,-5.672366023E-1
3.412138282E0,1.507970452E0,1.637795717E-1,-5.800193548E-1
3.414663594E0,1.471752524E0,1.509967744E-1,-5.885412693E-1
3.417187084E0,1.428078055E0,1.169093251E-1,-5.949326158E-1
3.419712396E0,1.383338213E0,5.832150951E-2,-5.959978700E-1
3.422237657E0,1.335402727E0,-2.157096937E-2,-5.885412693E-1
3.424762969E0,1.289730906E0,-1.238333359E-1,-5.768237114E-1
3.427288282E0,1.249252081E0,-2.440715134E-1,-5.672366023E-1
3.429813594E0,1.206642747E0,-3.708342612E-1,-5.544537902E-1
3.432338855E0,1.168294311E0,-4.975969791E-1,-5.438014865E-1
3.434864167E0,1.127815485E0,-6.137073636E-1,-5.384752750E-1
3.437389480E0,1.096923709E0,-7.085131407E-1,-5.384752750E-1
3.439914740E0,1.072423339E0,-7.681661844E-1,-5.448666811E-1
3.442440052E0,1.055379629E0,-7.990579009E-1,-5.597799420E-1
3.444965365E0,1.046857715E0,-8.033188581E-1,-5.736280084E-1
3.447488907E0,1.053249121E0,-7.766880393E-1,-5.917369723E-1
3.450014219E0,1.068162441E0,-7.298177481E-1,-5.981283188E-1
3.452539480E0,1.088401794E0,-6.637732983E-1,-6.077154279E-1
3.455064792E0,1.121424079E0,-5.828156471E-1,-6.130415797E-1
3.457590105E0,1.153381109E0,-4.869446456E-1,-6.130415797E-1
3.460115417E0,1.190664172E0,-3.750951886E-1,-6.098458767E-1
3.462640677E0,1.225816846E0,-2.568543255E-1,-5.991935730E-1
3.465165990E0,1.255643368E0,-1.323551983E-1,-5.821498632E-1
3.467691302E0,1.282274246E0,-7.722939365E-3,-5.555190444E-1
3.470216563E0,1.299184799E0,1.137136221E-1,-5.203663111E-1
3.472741875E0,1.306641459E0,2.213021666E-1,-4.809527099E-1
3.475267188E0,1.306641459E0,3.075860441E-1,-4.308867455E-1
3.477790677E0,1.290796161E0,3.842828274E-1,-3.691032529E-1
3.480315990E0,1.268426180E0,4.438027143E-1,-2.998631001E-1
3.482841250E0,1.230077863E0,4.906729758E-1,-2.274272442E-1
3.485366563E0,1.186403275E0,5.290213227E-1,-1.572550237E-1
3.487891875E0,1.137402534E0,5.631088018E-1,-8.162347972E-2
3.490417188E0,1.079879999E0,5.918700695E-1,3.994623839E-4
3.492942448E0,1.028748751E0,6.163704395E-1,7.816147059E-2
3.495467761E0,9.669652581E-1,6.302185059E-1,1.537930220E-1
3.497993073E0,9.009208083E-1,6.323489547E-1,2.400768995E-1
3.500518334E0,8.348763585E-1,6.248922944E-1,3.242303133E-1
3.503043646E0,7.677667141E-1,5.982614756E-1,3.997286856E-1
3.505568959E0,6.985265613E-1,5.652392507E-1,4.753602445E-1
3.508092448E0,6.262238622E-1,5.183690190E-1,5.531222224E-1
3.510617761E0,5.473966002E-1,4.693683088E-1,6.255580783E-1
3.513143021E0,4.675041437E-1,4.054543078E-1,6.894720793E-1
3.515668334E0,3.854812086E-1,3.310211599E-1,7.565817833E-1
3.518193646E0,2.981320918E-1,2.532591522E-1,8.204957247E-1
3.520718959E0,2.086525112E-1,1.691057384E-1,8.812140226E-1
3.523244219E0,1.213034093E-1,7.430000603E-2,9.440627694E-1
3.525769532E0,2.769605815E-2,-3.222329915E-2,1.001585364E0
3.528294844E0,-6.497921795E-2,-1.504641622E-1,1.055779099E0
3.530820105E0,-1.619154215E-1,-2.856155932E-1,1.109040737E0
3.533345417E0,-2.588516176E-1,-4.262263775E-1,1.156976223E0
3.535870730E0,-3.579182923E-1,-5.849460959E-1,1.186802745E0
3.538394219E0,-4.633763731E-1,-7.511224151E-1,1.207042217E0
3.540919532E0,-5.718969703E-1,-9.278179407E-1,1.220890164E0
3.543444792E0,-6.805507541E-1,-1.098255277E0,1.228346825E0
3.545970105E0,-7.902697325E-1,-1.259105444E0,1.233672976E0
3.548495417E0,-9.031844735E-1,-1.409303308E0,1.238999128E0
3.551020730E0,-1.015033960E0,-1.546585202E0,1.241129637E0
3.553545990E0,-1.132209539E0,-1.661630392E0,1.235803485E0
3.556071302E0,-1.258839130E0,-1.758566618E0,1.227281570E0
3.558596615E0,-1.386667132E0,-1.832067609E0,1.215564013E0
3.561121875E0,-1.516625524E0,-1.883198857E0,1.197455049E0
3.563647188E0,-1.659366727E0,-1.915155768E0,1.174019933E0
3.566172500E0,-1.804105282E0,-1.935395241E0,1.148454309E0
3.568695990E0,-1.953237891E0,-1.947112799E0,1.122888803E0
3.571221302E0,-2.110892296E0,-1.954569459E0,1.095192671E0
3.573746563E0,-2.279199123E0,-1.966287017E0,1.070692301E0
3.576271875E0,-2.447372913E0,-1.984395981E0,1.049387693E0
3.578797188E0,-2.628462553E0,-2.009961605E0,1.024887323E0
3.581322500E0,-2.819139242E0,-2.044981003E0,1.004647851E0
3.583847761E0,-3.015008926E0,-2.091851234E0,9.834764004E-1
3.586373073E0,-3.218468428E0,-2.149374008E0,9.589760303E-1
3.588898386E0,-3.419797421E0,-2.216483593E0,9.302147627E-1
3.591423646E0,-3.619928122E0,-2.293180466E0,8.939968348E-1
3.593948959E0,-3.816996336E0,-2.381594658E0,8.481917977E-1
3.596474271E0,-4.006607533E0,-2.467878580E0,7.949301600E-1
3.598997813E0,-4.190759659E0,-2.549901485E0,7.342118621E-1
3.601523125E0,-4.366523266E0,-2.623402596E0,6.649717093E-1
3.604048386E0,-4.532699585E0,-2.669074535E0,5.946663618E-1
3.606573698E0,-4.686093330E0,-2.678661585E0,5.254262090E-1
3.609099011E0,-4.815918446E0,-2.642576933E0,4.593817294E-1
3.611624323E0,-4.913919926E0,-2.550966740E0,4.018591642E-1
3.614149584E0,-4.965051174E0,-2.395442724E0,3.540568352E-1
3.616674896E0,-4.963985920E0,-2.167482853E0,3.114475012E-1
3.619200209E0,-4.888354301E0,-1.868285537E0,2.773600519E-1
3.621725469E0,-4.711658955E0,-1.480540752E0,2.528596818E-1
3.624250782E0,-4.431502342E0,-9.949276447E-1,2.347507328E-1
3.626776094E0,-4.064130306E0,-4.102478623E-1,2.187722325E-1
3.629299584E0,-3.629515171E0,2.479329854E-1,2.102503628E-1
3.631824896E0,-3.156684875E0,9.465926886E-1,1.974675655E-1
3.634350157E0,-2.681724072E0,1.653641105E0,1.719019860E-1
3.636875469E0,-2.228068113E0,2.337387562E0,1.388797611E-1
3.639400782E0,-1.821148992E0,2.970002890E0,9.520520270E-2
3.641926094E0,-1.477211952E0,3.525921345E0,4.833494872E-2
3.644451355E0,-1.207707882E0,3.990362883E0,-3.861469682E-3
3.646976667E0,-1.011838198E0,4.358800411E0,-5.605788901E-2
3.649501980E0,-8.776188493E-1,4.638956547E0,-1.039933711E-1
3.652027240E0,-7.966611385E-1,4.844413280E0,-1.529940963E-1
3.654552552E0,-7.497909069E-1,4.988219738E0,-2.051905096E-1
3.657077865E0,-7.188991308E-1,5.076634407E0,-2.604494691E-1
3.659601407E0,-7.029206157E-1,5.113917351E0,-3.179720640E-1
3.662126719E0,-6.986597180E-1,5.095808506E0,-3.850817382E-1
3.664651980E0,-7.061163187E-1,4.996741772E0,-4.660394490E-1
3.667177292E0,-7.018554211E-1,4.785825729E0,-5.608451962E-1
3.669702605E0,-6.816160083E-1,4.414192677E0,-6.673684716E-1
3.672227917E0,-6.443328261E-1,3.873187304E0,-7.781527042E-1
3.674753177E0,-6.240934134E-1,3.223528385E0,-8.951951861E-1
3.677278490E0,-6.304848194E-1,2.497172594E0,-9.974575639E-1
3.679803802E0,-6.688331962E-1,1.712228894E0,-1.077350020E0
3.682329063E0,-7.402037978E-1,8.986572027E-1,-1.140198827E0
3.684854375E0,-8.403357267E-1,7.749570161E-2,-1.174286246E0
3.687379688E0,-9.628375173E-1,-7.063826323E-1,-1.176416755E0
3.689903177E0,-1.090665460E0,-1.429542661E0,-1.148720622E0
3.692428177E0,-1.224751711E0,-2.058829069E0,-1.100785136E0
3.694953230E0,-1.367492914E0,-2.598902225E0,-1.047523499E0
3.697478230E0,-1.513429761E0,-3.037645102E0,-9.910661578E-1
3.700003282E0,-1.663627625E0,-3.377321243E0,-9.399349689E-1
3.702528282E0,-1.800909638E0,-3.637238264E0,-8.930647373E-1
3.705053334E0,-1.923411369E0,-3.835371494E0,-8.461945057E-1
3.707578334E0,-2.030999899E0,-3.993957996E0,-8.037183285E-1
3.710103386E0,-2.134327412E0,-4.130307674E0,-7.632394433E-1
3.712628386E0,-2.232328892E0,-4.238961697E0,-7.227606177E-1
3.715153386E0,-2.327134609E0,-4.339093685E0,-6.908035874E-1
3.717678438E0,-2.428198576E0,-4.443486214E0,-6.609770656E-1
3.720204948E0,-2.536852360E0,-4.542419910E0,-6.268896461E-1
3.722729948E0,-2.650832415E0,-4.641486645E0,-5.928021669E-1
3.725255000E0,-2.768007994E0,-4.739488125E0,-5.576494932E-1
3.727780000E0,-2.887314081E0,-4.835359097E0,-5.193011165E-1
3.730305052E0,-3.007552385E0,-4.930164814E0,-4.734960794E-1
3.732830052E0,-3.133249760E0,-5.017513752E0,-4.255605936E-1
3.735355105E0,-3.265338659E0,-5.105794907E0,-3.712337017E-1
3.737880105E0,-3.384644747E0,-5.194209576E0,-3.094501793E-1
3.740405157E0,-3.489037514E0,-5.276232243E0,-2.497971505E-1
3.742930157E0,-3.582644939E0,-5.333755016E0,-1.892120093E-1
3.745455157E0,-3.656146049E0,-5.364646435E0,-1.252980381E-1
3.747980209E0,-3.698755264E0,-5.367842197E0,-5.499265343E-2
3.750506771E0,-3.713668585E0,-5.329493999E0,1.105179265E-2
3.753031771E0,-3.692363977E0,-5.259188652E0,7.070484012E-2
3.755556823E0,-3.631645679E0,-5.161187172E0,1.175750941E-1
3.758081823E0,-3.530581713E0,-5.021774769E0,1.548582464E-1
3.760606875E0,-3.380383730E0,-4.839620113E0,1.719019860E-1
3.763131875E0,-3.198229074E0,-4.594616413E0,1.761629134E-1
3.765656927E0,-2.993704319E0,-4.285831928E0,1.644453406E-1
3.768181927E0,-2.788247347E0,-3.892760992E0,1.431406885E-1
3.770706980E0,-2.592244625E0,-3.418865442E0,1.239664927E-1
3.773231980E0,-2.412220240E0,-2.875729799E0,1.090532318E-1
3.775756980E0,-2.254698753E0,-2.291049957E0,9.200949967E-2
3.778282032E0,-2.123675108E0,-1.699978709E0,7.816147059E-2
3.780808594E0,-2.022478104E0,-1.142995000E0,6.644391268E-2
3.783333594E0,-1.939389825E0,-6.467295885E-1,5.153064802E-2
3.785858646E0,-1.860562682E0,-2.259625494E-1,3.661738336E-2
3.788383646E0,-1.796648622E0,1.115831584E-1,1.105179265E-2
3.790908698E0,-1.738193989E0,3.576519787E-1,-1.664426550E-2
3.793433750E0,-1.679606199E0,5.236951709E-1,-4.753602296E-2
3.795958750E0,-1.619953156E0,6.142399907E-1,-8.055824786E-2
3.798483750E0,-1.562430501E0,6.430012584E-1,-1.114500016E-1
3.801008802E0,-1.511299372E0,6.216966510E-1,-1.391460598E-1
3.803533802E0,-1.463363886E0,5.577826500E-1,-1.615159512E-1
3.806058802E0,-1.422885060E0,4.576507509E-1,-1.774944514E-1
3.808583855E0,-1.397319436E0,3.256950080E-1,-1.945381761E-1
3.811110365E0,-1.385601878E0,1.754971445E-1,-2.073209733E-1
3.813635365E0,-1.377079964E0,7.190322969E-3,-2.062557489E-1
3.816160417E0,-1.377079964E0,-1.685731262E-1,-1.987991184E-1
3.818685417E0,-1.396254182E0,-3.388772607E-1,-1.838858575E-1
3.821210469E0,-1.419689298E0,-5.039883852E-1,-1.636464298E-1
3.823735469E0,-1.451646328E0,-6.605776548E-1,-1.434070021E-1
3.826260521E0,-1.488929510E0,-8.086450100E-1,-1.199718714E-1
3.828785521E0,-1.533669233E0,-9.533835649E-1,-9.547150880E-2
3.831310573E0,-1.576278567E0,-1.092929125E0,-7.097115368E-2
3.833835573E0,-1.621018410E0,-1.215430856E0,-4.647079110E-2
3.836360573E0,-1.662562490E0,-1.320888996E0,-2.303566411E-2
3.838885625E0,-1.703041315E0,-1.409303308E0,-8.122402243E-3
3.841412188E0,-1.736063480E0,-1.479475498E0,6.790860556E-3
3.843937188E0,-1.758300304E0,-1.534867644E0,1.744319126E-2
3.846462240E0,-1.776409268E0,-1.566824675E0,2.596505545E-2
3.848987240E0,-1.791322470E0,-1.580672622E0,2.489982173E-2
3.851512292E0,-1.793452978E0,-1.583868384E0,1.957365684E-2
3.854037292E0,-1.791322470E0,-1.578542233E0,9.986559860E-3
3.856562344E0,-1.783865809E0,-1.570020318E0,-8.122402243E-3
3.859087344E0,-1.774278760E0,-1.558302760E0,-3.049229458E-2
3.861612396E0,-1.755104542E0,-1.534867644E0,-5.818835273E-2
3.864137396E0,-1.733933091E0,-1.494388819E0,-8.375394344E-2
3.866662396E0,-1.712628365E0,-1.449648976E0,-1.125152409E-1
3.869187448E0,-1.683867097E0,-1.396520495E0,-1.444722265E-1
3.871713959E0,-1.649779677E0,-1.340063095E0,-1.742987484E-1
3.874238959E0,-1.610365987E0,-1.289997220E0,-2.094514370E-1
3.876764011E0,-1.566691518E0,-1.245257378E0,-2.455362082E-1
3.879289011E0,-1.515560269E0,-1.207974195E0,-2.796236575E-1
3.881814063E0,-1.460168123E0,-1.180278182E0,-3.137111366E-1
3.884339063E0,-1.403710842E0,-1.152582169E0,-3.414071798E-1
3.886864115E0,-1.337666392E0,-1.130212188E0,-3.659075499E-1
3.889389115E0,-1.268426180E0,-1.117429495E0,-3.914731443E-1
3.891914167E0,-1.201316595E0,-1.106777072E0,-4.127778113E-1
3.894439167E0,-1.130079031E0,-1.098255277E0,-4.362129271E-1
3.896964167E0,-1.046990871E0,-1.091863871E0,-4.564523399E-1
3.899489219E0,-9.649679661E-1,-1.093994260E0,-4.745613039E-1
3.902015782E0,-8.861407042E-1,-1.091863871E0,-4.937354922E-1
3.904540782E0,-7.998568416E-1,-1.088668108E0,-5.075835586E-1
3.907065834E0,-7.157034278E-1,-1.082276702E0,-5.161054134E-1
3.909590834E0,-6.326152682E-1,-1.076950550E0,-5.182358623E-1
3.912115886E0,-5.527228117E-1,-1.074820161E0,-5.235620141E-1
3.914640886E0,-4.676373005E-1,-1.066298246E0,-5.224968195E-1
3.917165938E0,-3.888100684E-1,-1.053515434E0,-5.203663111E-1
3.919690938E0,-3.153089881E-1,-1.046058774E0,-5.150401592E-1
3.922215990E0,-2.471340597E-1,-1.041797876E0,-5.043878555E-1
3.924740990E0,-1.885462403E-1,-1.036471725E0,-4.958659708E-1
3.927265990E0,-1.310236603E-1,-1.036471725E0,-4.830831885E-1
3.929791042E0,-7.669677585E-2,-1.036471725E0,-4.745613039E-1
3.932317552E0,-3.089175746E-2,-1.041797876E0,-4.596480429E-1
3.934842552E0,1.384802908E-2,-1.044993639E0,-4.394086301E-1
3.937367605E0,5.326165259E-2,-1.043928385E0,-4.181039631E-1
3.939892605E0,9.360735118E-2,-1.034341216E0,-4.053211510E-1
3.942417657E0,1.362166703E-1,-1.016232252E0,-3.925383687E-1
3.944942657E0,1.809564531E-1,-9.938623905E-1,-3.850817382E-1
3.947467709E0,2.182396203E-1,-9.661663771E-1,-3.818860352E-1
3.949992709E0,2.544575334E-1,-9.331441522E-1,-3.850817382E-1
3.952517761E0,2.885449827E-1,-8.894695640E-1,-3.893426657E-1
3.955042761E0,3.194367588E-1,-8.425993323E-1,-3.914731443E-1
3.957567761E0,3.492632806E-1,-7.873403430E-1,-3.989297748E-1
3.960092813E0,3.780245781E-1,-7.266221046E-1,-4.074516296E-1
3.962619375E0,4.035901725E-1,-6.563166976E-1,-4.212996662E-1
3.965144375E0,4.302209914E-1,-5.828156471E-1,-4.372781515E-1
3.967669427E0,4.472647011E-1,-5.007926822E-1,-4.575175941E-1
3.970194427E0,4.643084407E-1,-4.081174135E-1,-4.862788618E-1
3.972719480E0,4.749607742E-1,-3.154421151E-1,-5.161054134E-1
3.975244480E0,4.898740351E-1,-2.174406946E-1,-5.533885360E-1
3.977769532E0,4.962654412E-1,-1.153114736E-1,-5.928021669E-1
3.980294532E0,5.005263686E-1,-1.731003635E-2,-6.386072040E-1
3.982819584E0,5.037220716E-1,7.643046975E-2,-6.854774356E-1
3.985344584E0,5.069177747E-1,1.669752747E-1,-7.366086245E-1
3.987869584E0,5.090482235E-1,2.521939278E-1,-7.877398133E-1
3.990394636E0,5.101134777E-1,3.161078990E-1,-8.440639973E-1
3.992921198E0,5.133091807E-1,3.672390878E-1,-8.994561434E-1
3.995446198E0,5.165048838E-1,3.969324529E-1,-9.548482299E-1
3.997971250E0,5.207657814E-1,3.990629315E-1,-1.010240316E0
4.000496250E0,5.282224417E-1,3.757609427E-1,-1.059241056E0
4.003021302E0,5.346138477E-1,3.256950080E-1,-1.107176542E0
4.005546302E0,5.378095508E-1,2.447372824E-1,-1.154046774E0
4.008071355E0,5.410051942E-1,1.478010863E-1,-1.191329956E0
4.010596355E0,5.378095508E-1,2.956021577E-2,-1.212634683E0
4.013121407E0,5.324833393E-1,-9.294158220E-2,-1.229678392E0
4.015646407E0,5.186353326E-1,-2.206363827E-1,-1.242461205E0
4.018171407E0,4.952002168E-1,-3.484643400E-1,-1.248852611E0
4.020696459E0,4.685693681E-1,-4.784227908E-1,-1.256309152E0
4.023223021E0,4.366123974E-1,-6.137073636E-1,-1.254178762E0
4.025748021E0,3.950682878E-1,-7.468615174E-1,-1.245656848E0
4.028273073E0,3.471328020E-1,-8.777520061E-1,-1.238200188E0
4.030798073E0,2.928059399E-1,-1.005579948E0,-1.225417495E0
4.033323125E0,2.320876420E-1,-1.128081799E0,-1.207308531E0
4.035848125E0,1.607170254E-1,-1.244192123E0,-1.180677652E0
4.038373177E0,8.402025700E-2,-1.348585010E0,-1.150851130E0
4.040898177E0,1.065233024E-3,-1.449648976E0,-1.122089863E0
4.043423230E0,-8.521863818E-2,-1.550846100E0,-1.086937189E0
4.045948230E0,-1.704372764E-1,-1.646717072E0,-1.050719261E0
4.048473230E0,-2.599168718E-1,-1.751109958E0,-1.009175181E0
4.050998282E0,-3.451355100E-1,-1.867220283E0,-9.676310420E-1
4.053524792E0,-4.271584451E-1,-1.993983030E0,-9.250217080E-1
4.056049792E0,-5.038552284E-1,-2.127004147E0,-8.866733313E-1
4.058574844E0,-5.708317757E-1,-2.256962538E0,-8.461945057E-1
4.061099844E0,-6.240934134E-1,-2.378399134E0,-8.154358864E-1
4.063624896E0,-6.603113413E-1,-2.480661392E0,-7.813484073E-1
4.066149896E0,-6.837464571E-1,-2.564814806E0,-7.536523938E-1
4.068674948E0,-6.933335662E-1,-2.619141579E0,-7.366086245E-1
4.071199948E0,-6.848116517E-1,-2.638315916E0,-7.206301689E-1
4.073725000E0,-6.645722389E-1,-2.625533104E0,-7.003906965E-1
4.076250000E0,-6.347457170E-1,-2.588249922E0,-6.897383928E-1
4.078775000E0,-5.910711884E-1,-2.537118673E0,-6.737598777E-1
4.081300052E0,-5.452661514E-1,-2.479596138E0,-6.503247619E-1
4.083826615E0,-5.027899742E-1,-2.428464890E0,-6.215634942E-1
4.086351615E0,-4.740287066E-1,-2.397573233E0,-5.874760151E-1
4.088876667E0,-4.676373005E-1,-2.385855675E0,-5.512580872E-1
4.091401667E0,-4.814853370E-1,-2.382659912E0,-5.150401592E-1
4.093926719E0,-5.208989382E-1,-2.380529404E0,-4.756265581E-1
4.096451719E0,-5.782883763E-1,-2.372007608E0,-4.426043332E-1
4.098976771E0,-6.475285292E-1,-2.335789680E0,-4.255605936E-1
4.101501771E0,-7.167686820E-1,-2.236722946E0,-4.170387387E-1
4.104026823E0,-7.774869800E-1,-2.054568291E0,-4.244953692E-1
4.106551823E0,-8.094439507E-1,-1.794784546E0,-4.532566369E-1
4.109076823E0,-8.147701025E-1,-1.465627432E0,-4.916050434E-1
4.111601875E0,-7.934654355E-1,-1.091863871E0,-5.427362323E-1
4.114128438E0,-7.359428406E-1,-6.967955232E-1,-5.991935730E-1
4.116653438E0,-6.539199352E-1,-3.047898114E-1,-6.535204649E-1
4.119178490E0,-5.569837093E-1,6.577813625E-2,-7.003906965E-1
4.121703490E0,-4.420717061E-1,3.938699067E-1,-7.430000305E-1
4.124228542E0,-3.142437339E-1,6.685668826E-1,-7.813484073E-1
4.126753542E0,-1.629806459E-1,8.773525357E-1,-8.133054376E-1
4.129278594E0,1.171756350E-2,1.025286794E0,-8.334116936E-1
4.131803594E0,1.990654171E-1,1.126483917E0,-8.472597003E-1
4.134328646E0,4.014596939E-1,1.173354149E0,-8.493902087E-1
4.136853646E0,6.091801524E-1,1.162701845E0,-8.355421424E-1
4.139378646E0,8.125064969E-1,1.090265989E0,-8.079792261E-1
4.141903698E0,9.935960770E-1,9.540493488E-1,-7.632394433E-1
4.144430261E0,1.138467789E0,7.580464482E-1,-6.993255019E-1
4.146955261E0,1.249252081E0,5.066514611E-1,-6.151720881E-1
4.149480313E0,1.311967611E0,2.181064636E-1,-5.107792616E-1
4.152005313E0,1.325815678E0,-1.078548431E-1,-3.872122169E-1
4.154530365E0,1.299184799E0,-4.624442756E-1,-2.444709837E-1
4.157055365E0,1.232208252E0,-8.330122232E-1,-7.523208112E-2
4.159580417E0,1.126750231E0,-1.191995740E0,1.186403260E-1
4.162105417E0,9.989222884E-1,-1.527410984E0,3.210346103E-1
4.164630469E0,8.678985834E-1,-1.811828256E0,5.190348029E-1
4.167155469E0,7.528534532E-1,-2.012092113E0,6.937330365E-1
4.169680469E0,6.624417901E-1,-2.114221334E0,8.247566819E-1
4.172205521E0,5.974625945E-1,-2.133395433E0,9.003882408E-1
4.174732032E0,5.569837093E-1,-2.086525202E0,9.344756603E-1
4.177257032E0,5.367442966E-1,-1.984395981E0,9.355409145E-1
4.179782084E0,5.399399996E-1,-1.823545814E0,9.195623994E-1
4.182307084E0,5.644403696E-1,-1.610499144E0,8.812140226E-1
4.184832136E0,6.198324561E-1,-1.341128349E0,8.343437910E-1
4.187357136E0,7.027874589E-1,-1.021558523E0,7.810820937E-1
4.189882188E0,8.188979030E-1,-6.659038067E-1,7.267552018E-1
4.192407188E0,9.605738521E-1,-2.888112962E-1,6.713631153E-1
4.194932240E0,1.115032673E0,9.027849883E-2,6.170362234E-1
4.197457240E0,1.276948094E0,4.661726058E-1,5.680354834E-1
4.199982240E0,1.444056511E0,8.294170499E-1,5.232957006E-1
4.202507292E0,1.600645781E0,1.165897489E0,4.785559475E-1
4.205033907E0,1.736995578E0,1.468423724E0,4.444684684E-1
4.207559011E0,1.854171276E0,1.732468367E0,4.146419466E-1
4.210084167E0,1.939256668E0,1.944449782E0,3.870790601E-1
4.212609271E0,1.997844577E0,2.091451883E0,3.583177626E-1
4.215134427E0,2.031931877E0,2.177735806E0,3.348826170E-1
4.217659532E0,2.038323402E0,2.204366684E0,2.986647189E-1
4.220184636E0,2.025540590E0,2.163887739E0,2.699034214E-1
4.222709792E0,1.997844577E0,2.068016768E0,2.379464209E-1
4.225234896E0,1.957365632E0,1.923145056E0,1.964023411E-1
4.227760052E0,1.910495400E0,1.734598875E0,1.527277827E-1
4.230285157E0,1.859497428E0,1.518489718E0,1.133141592E-1
4.232810261E0,1.812627196E0,1.295855999E0,6.431344151E-2
4.235335677E0,1.768952608E0,1.074287534E0,9.986559860E-3
4.237860782E0,1.734865189E0,8.635045290E-1,-4.007939249E-2
4.240385938E0,1.705038667E0,6.675016284E-1,-8.801487833E-2
4.242911042E0,1.683733940E0,4.938686490E-1,-1.359503716E-1
4.245436198E0,1.673081636E0,3.267602324E-1,-1.828206182E-1
4.247961302E0,1.663494468E0,1.723014414E-1,-2.274272442E-1
4.250486407E0,1.661364079E0,3.488638252E-2,-2.647103965E-1
4.253011563E0,1.665624976E0,-8.974587917E-2,-3.073197305E-1
4.255536667E0,1.667755485E0,-2.111824453E-1,-3.488638103E-1
4.258061823E0,1.674146891E0,-3.260944486E-1,-3.818860352E-1
4.260586927E0,1.679473042E0,-4.304873049E-1,-4.138430357E-1
4.263112032E0,1.679473042E0,-5.306192040E-1,-4.447347820E-1
4.265637500E0,1.680538297E0,-6.222292185E-1,-4.756265581E-1
4.268162605E0,1.678407788E0,-7.095783353E-1,-4.948007464E-1
4.270687761E0,1.675212026E0,-7.905360460E-1,-5.171706080E-1
4.273212865E0,1.668820739E0,-8.617734909E-1,-5.406057835E-1
4.275738021E0,1.664559722E0,-9.203613400E-1,-5.629756451E-1
4.278263125E0,1.660298824E0,-9.704272747E-1,-5.789541602E-1
4.280788230E0,1.658168316E0,-1.006645203E0,-5.949326158E-1
4.283313386E0,1.660298824E0,-1.034341216E0,-6.087806821E-1
4.285838490E0,1.662429333E0,-1.050319791E0,-6.173025370E-1
4.288363646E0,1.661364079E0,-1.064167738E0,-6.194329858E-1
4.290888750E0,1.662429333E0,-1.058841586E0,-6.215634942E-1
4.293413855E0,1.662429333E0,-1.042863131E0,-6.204982400E-1
4.295939375E0,1.652842164E0,-1.013036609E0,-6.077154279E-1
4.298464480E0,1.651776910E0,-9.757534266E-1,-5.938674212E-1
4.300989636E0,1.646450758E0,-9.395354986E-1,-5.778889060E-1
4.303514740E0,1.642189860E0,-8.905348182E-1,-5.640408993E-1
4.306039896E0,1.642189860E0,-8.351426721E-1,-5.480623841E-1
4.308565000E0,1.636863708E0,-7.702966332E-1,-5.363448262E-1
4.311090105E0,1.632602811E0,-7.063826323E-1,-5.214315653E-1
4.313615261E0,1.633667946E0,-6.467295885E-1,-5.118444562E-1
4.316140365E0,1.642189860E0,-5.934679508E-1,-5.086487532E-1
4.318665521E0,1.645385504E0,-5.487281680E-1,-5.033226013E-1
4.321190625E0,1.652842164E0,-5.061188340E-1,-5.033226013E-1
4.323715730E0,1.664559722E0,-4.762923121E-1,-5.022573471E-1
4.326241198E0,1.675212026E0,-4.624442756E-1,-5.022573471E-1
4.328766302E0,1.683733940E0,-4.688356817E-1,-4.990616739E-1
4.331291459E0,1.691190600E0,-4.890751243E-1,-4.979964495E-1
4.333816563E0,1.700777650E0,-5.263582468E-1,-4.979964495E-1
4.336341719E0,1.706103802E0,-5.732285380E-1,-4.958659708E-1
4.338866823E0,1.703973413E0,-6.286206245E-1,-4.948007464E-1
4.341391927E0,1.699712396E0,-6.904041767E-1,-4.894745648E-1
4.343917084E0,1.694386244E0,-7.564486265E-1,-4.852136374E-1
4.346442188E0,1.690125346E0,-8.182321191E-1,-4.841484129E-1
4.348967344E0,1.679473042E0,-8.724258542E-1,-4.788222313E-1
4.351492448E0,1.667755485E0,-9.150351882E-1,-4.724308550E-1
4.354017552E0,1.659233570E0,-9.374050498E-1,-4.628437459E-1
4.356543021E0,1.647516012E0,-9.448617101E-1,-4.585828185E-1
4.359068125E0,1.638994217E0,-9.395354986E-1,-4.479304850E-1
4.361593282E0,1.631537557E0,-9.203613400E-1,-4.394086301E-1
4.364118386E0,1.626211405E0,-8.979914188E-1,-4.266258180E-1
4.366643542E0,1.619819999E0,-8.692301512E-1,-4.149082601E-1
4.369168646E0,1.612363338E0,-8.404688835E-1,-4.021254778E-1
4.371693750E0,1.604906678E0,-8.150364161E-1,-3.872122169E-1
4.374218907E0,1.593189120E0,-7.937317491E-1,-3.744294047E-1
4.376744011E0,1.574014902E0,-7.745575905E-1,-3.595161438E-1
4.379269167E0,1.551645041E0,-7.585790753E-1,-3.499290347E-1
4.381794271E0,1.528209925E0,-7.511224151E-1,-3.328853250E-1
4.384319375E0,1.498383403E0,-7.468615174E-1,-3.158415854E-1
4.386844844E0,1.467491627E0,-7.500572205E-1,-2.934716940E-1
4.389369948E0,1.436599851E0,-7.649704814E-1,-2.732322812E-1
4.391895105E0,1.405708075E0,-7.841446400E-1,-2.540580630E-1
4.394420209E0,1.372685909E0,-8.065145612E-1,-2.316881865E-1
4.396945365E0,1.339663625E0,-8.319469690E-1,-2.135792226E-1
4.399470469E0,1.309837103E0,-8.575125933E-1,-1.934729517E-1
4.401995573E0,1.281208992E0,-8.852086663E-1,-1.764292270E-1
4.404520730E0,1.255643368E0,-9.139699340E-1,-1.657768935E-1
4.407045834E0,1.233273506E0,-9.459269047E-1,-1.561897993E-1
4.409570990E0,1.214099288E0,-9.778839350E-1,-1.508636326E-1
4.412096094E0,1.198120832E0,-1.007710457E0,-1.497983932E-1
4.414621198E0,1.186403275E0,-1.037536979E0,-1.466026902E-1
4.417146667E0,1.180011868E0,-1.055645943E0,-1.508636326E-1
4.419671771E0,1.173620462E0,-1.067363501E0,-1.572550237E-1
4.422196927E0,1.164033413E0,-1.075885296E0,-1.636464298E-1
4.424722032E0,1.153381109E0,-1.076950550E0,-1.742987484E-1
4.427247188E0,1.149120092E0,-1.069494009E0,-1.838858575E-1
4.429772292E0,1.142728686E0,-1.058841586E0,-1.956034154E-1
4.432297396E0,1.134206891E0,-1.042863131E0,-2.115819156E-1
4.434822552E0,1.127815485E0,-1.022623658E0,-2.274272442E-1
4.437347657E0,1.124619722E0,-1.006645203E0,-2.338186502E-1
4.439872813E0,1.119293571E0,-9.927971959E-1,-2.391448170E-1
4.442397917E0,1.115032673E0,-9.746882319E-1,-2.444709837E-1
4.444923021E0,1.107576013E0,-9.576444626E-1,-2.508623898E-1
4.447448490E0,1.104380369E0,-9.331441522E-1,-2.508623898E-1
4.449973594E0,1.100119352E0,-9.075785279E-1,-2.508623898E-1
4.452498750E0,1.090532303E0,-8.756215572E-1,-2.519276142E-1
4.455023855E0,1.091597557E0,-8.404688835E-1,-2.476666719E-1
4.457549011E0,1.089467049E0,-8.011884093E-1,-2.402100414E-1
4.460074115E0,1.085206151E0,-7.649704814E-1,-2.348838747E-1
4.462599219E0,1.078814745E0,-7.266221046E-1,-2.306229472E-1
4.465124375E0,1.072423339E0,-6.818822622E-1,-2.263620198E-1
4.467649480E0,1.067097187E0,-6.424686909E-1,-2.210358530E-1
4.470174636E0,1.060705781E0,-5.987941027E-1,-2.210358530E-1
4.472699740E0,1.047922969E0,-5.519238710E-1,-2.221010923E-1
4.475224844E0,1.033009768E0,-5.082492828E-1,-2.199706137E-1
4.477750313E0,1.021292210E0,-4.688356817E-1,-2.210358530E-1
4.480275417E0,1.008509398E0,-4.304873049E-1,-2.252967805E-1
4.482800573E0,9.967917800E-1,-3.900084496E-1,-2.242315561E-1
4.485325677E0,9.808133245E-1,-3.633776009E-1,-2.231663167E-1
4.487850834E0,9.690957665E-1,-3.431381881E-1,-2.263620198E-1
4.490375938E0,9.605738521E-1,-3.250292242E-1,-2.295577228E-1
4.492901042E0,9.552477002E-1,-3.154421151E-1,-2.338186502E-1
4.495426198E0,9.477910995E-1,-3.154421151E-1,-2.316881865E-1
4.497951302E0,9.467258453E-1,-3.143768907E-1,-2.263620198E-1
4.500476459E0,9.488562942E-1,-3.175725937E-1,-2.263620198E-1
4.503001563E0,9.541825056E-1,-3.314206302E-1,-2.221010923E-1
4.505526667E0,9.648348093E-1,-3.548557460E-1,-2.178401500E-1
4.508052188E0,9.722914696E-1,-3.825518191E-1,-2.157096863E-1
4.510577292E0,9.861394763E-1,-4.123783410E-1,-2.083862126E-1
4.513102448E0,9.967917800E-1,-4.475310147E-1,-2.009295821E-1
4.515627552E0,1.013835549E0,-4.858794212E-1,-1.924077123E-1
4.518152709E0,1.031944513E0,-5.284887552E-1,-1.870815456E-1
4.520677813E0,1.048988223E0,-5.742937326E-1,-1.828206182E-1
4.523202917E0,1.066031933E0,-6.179683208E-1,-1.828206182E-1
4.525728073E0,1.085206151E0,-6.584471464E-1,-1.817553788E-1
4.528253177E0,1.102249861E0,-6.946650743E-1,-1.817553788E-1
4.530778334E0,1.115032673E0,-7.266221046E-1,-1.796249151E-1
4.533303438E0,1.122489333E0,-7.607095242E-1,-1.796249151E-1
4.535828542E0,1.134206891E0,-7.873403430E-1,-1.785596907E-1
4.538354011E0,1.142728686E0,-8.075798154E-1,-1.806901544E-1
4.540879115E0,1.151250601E0,-8.182321191E-1,-1.806901544E-1
4.543404271E0,1.156576753E0,-8.244903684E-1,-1.838858575E-1
4.545929375E0,1.161902905E0,-8.266208172E-1,-1.881467849E-1
4.548454532E0,1.170424819E0,-8.276860714E-1,-1.913424879E-1
4.550979636E0,1.175750971E0,-8.223599195E-1,-1.956034154E-1
4.553504740E0,1.185338020E0,-8.118407130E-1,-1.966686398E-1
4.556029896E0,1.191729426E0,-7.884055972E-1,-2.073209733E-1
4.558555000E0,1.198120832E0,-7.575138211E-1,-2.146444470E-1
4.561080157E0,1.209838390E0,-7.149044871E-1,-2.178401500E-1
4.563605261E0,1.216229796E0,-6.659038067E-1,-2.189053893E-1
4.566130365E0,1.231143117E0,-6.009245515E-1,-2.167749256E-1
4.568655834E0,1.238599658E0,-5.231625438E-1,-2.126471400E-1
4.571180938E0,1.237534523E0,-4.304873049E-1,-2.105166763E-1
4.573706094E0,1.240730166E0,-3.218335211E-1,-1.987991184E-1
4.576231198E0,1.231143117E0,-2.069215178E-1,-1.849510819E-1
4.578756355E0,1.211968899E0,-7.802832127E-2,-1.679073572E-1
4.581281459E0,1.192794681E0,5.512581021E-2,-1.487331539E-1
4.583806563E0,1.170424819E0,1.829537749E-1,-1.252980381E-1
4.586331719E0,1.142728686E0,3.065207899E-1,-1.018629074E-1
4.588856823E0,1.110771775E0,4.150414169E-1,-7.416684926E-2
4.591381980E0,1.082010388E0,5.045210123E-1,-4.114462435E-2
4.593907084E0,1.053249121E0,5.758916140E-1,-7.057168987E-3
4.596432188E0,1.018096447E0,6.216966510E-1,2.596505545E-2
4.598957657E0,9.840090275E-1,6.344794035E-1,6.005251035E-2
4.601482761E0,9.573782086E-1,6.195661426E-1,9.733566642E-2
4.604007917E0,9.296821356E-1,5.780220628E-1,1.356840581E-1
4.606533021E0,9.009208083E-1,5.066514611E-1,1.740324497E-1
4.609058177E0,8.689638376E-1,4.086500108E-1,2.155765295E-1
4.611583282E0,8.423330188E-1,2.979989350E-1,2.560553849E-1
4.614108386E0,8.071803451E-1,1.754971445E-1,2.954690158E-1
4.616633542E0,7.656362653E-1,4.660394415E-2,3.359478712E-1
4.619158646E0,7.198312283E-1,-7.376738638E-2,3.764267266E-1
4.621683802E0,6.709636450E-1,-1.760297567E-1,4.199681282E-1
4.624208907E0,6.177020073E-1,-2.589847744E-1,4.625774324E-1
4.626734011E0,5.644403696E-1,-3.165073693E-1,5.073172450E-1
4.629259532E0,5.133091807E-1,-3.527252972E-1,5.477960706E-1
4.631784636E0,4.653736651E-1,-3.591166735E-1,5.872097015E-1
4.634309792E0,4.216991365E-1,-3.484643400E-1,6.244928837E-1
4.636834896E0,3.801550269E-1,-3.218335211E-1,6.564498544E-1
4.639360052E0,3.481980562E-1,-2.770937383E-1,6.830806732E-1
4.641885157E0,3.236976862E-1,-2.174406946E-1,7.022548914E-1
4.644410261E0,3.034582436E-1,-1.547250897E-1,7.129071951E-1
4.646935417E0,2.864145339E-1,-8.655018359E-2,7.161028981E-1
4.649460521E0,2.715012729E-1,-2.157096937E-2,7.139724493E-1
4.651985677E0,2.565880120E-1,3.808208182E-2,7.075810432E-1
4.654510782E0,2.363485843E-1,8.175663650E-2,7.001243830E-1
4.657035886E0,2.097177505E-1,1.041265279E-1,6.894720793E-1
4.659561355E0,1.745650619E-1,1.083874628E-1,6.809502244E-1
4.662086459E0,1.362166703E-1,9.134373069E-2,6.745588183E-1
4.664611615E0,8.721595258E-2,5.406057462E-2,6.671021581E-1
4.667136719E0,3.728315607E-2,-2.396774245E-3,6.607108116E-1
4.669661875E0,-1.384802908E-2,-6.737598777E-2,6.564498544E-1
4.672186980E0,-6.817491353E-2,-1.355509013E-1,6.500584483E-1
4.674712084E0,-1.203713343E-1,-2.058562785E-1,6.426018476E-1
4.677237240E0,-1.715025157E-1,-2.696371078E-1,6.340799332E-1
4.679762344E0,-2.183727771E-1,-3.324858546E-1,6.181014776E-1
4.682287500E0,-2.673735023E-1,-3.889431953E-1,5.999925137E-1
4.684812605E0,-3.185046613E-1,-4.326177537E-1,5.786878467E-1
4.687337709E0,-3.749620318E-1,-4.699009061E-1,5.563179255E-1
4.689863177E0,-4.378107786E-1,-4.986622036E-1,5.286219120E-1
4.692388282E0,-5.059856772E-1,-5.167711973E-1,4.955996573E-1
4.694913438E0,-5.740274191E-1,-5.199668407E-1,4.583165050E-1
4.697438542E0,-6.485937834E-1,-5.114449859E-1,4.082505703E-1
4.699963698E0,-7.231600881E-1,-4.933360517E-1,3.604482114E-1
4.702488802E0,-7.998568416E-1,-4.667052329E-1,3.029256463E-1
4.705013907E0,-8.754884005E-1,-4.368786812E-1,2.379464209E-1
4.707539063E0,-9.468590021E-1,-4.049217105E-1,1.697715074E-1
4.710064167E0,-1.024621010E0,-3.761604130E-1,9.840089828E-2
4.712589323E0,-1.110904932E0,-3.665733039E-1,2.809552103E-2
4.715114427E0,-1.198120832E0,-3.633776009E-1,-3.901416063E-2
4.717639532E0,-1.289730906E0,-3.772256374E-1,-1.082543060E-1
4.720165052E0,-1.389862776E0,-4.027912319E-1,-1.721682847E-1
4.722690209E0,-1.491059899E0,-4.464657903E-1,-2.316881865E-1
4.725215365E0,-1.592257023E0,-4.965317547E-1,-2.774932086E-1
4.727740521E0,-1.695584655E0,-5.529890656E-1,-3.158415854E-1
4.730265625E0,-1.799844384E0,-6.147726178E-1,-3.446028829E-1
4.732790782E0,-1.904237151E0,-6.829475164E-1,-3.605813682E-1
4.735315938E0,-2.005434275E0,-7.511224151E-1,-3.637770712E-1
4.737841094E0,-2.108762026E0,-8.255556226E-1,-3.552552164E-1
4.740366250E0,-2.211024284E0,-9.065132737E-1,-3.339505494E-1
4.742891355E0,-2.312221527E0,-9.864057899E-1,-3.030588031E-1
4.745416511E0,-2.412220240E0,-1.070559144E0,-2.647103965E-1
4.747941667E0,-2.513417244E0,-1.164299726E0,-2.221010923E-1
4.750466875E0,-2.618875504E0,-1.259105444E0,-1.700378209E-1
4.752992032E0,-2.719007254E0,-1.348585010E0,-1.125152409E-1
4.755517188E0,-2.814878225E0,-1.438996673E0,-4.966649041E-2
4.758042344E0,-2.918205976E0,-1.523150086E0,1.531272475E-2
4.760567448E0,-3.019269943E0,-1.609433889E0,8.987903595E-2
4.763092605E0,-3.126858473E0,-1.694652557E0,1.708367467E-1
4.765617761E0,-3.240838289E0,-1.779871225E0,2.560553849E-1
4.768142917E0,-3.349492073E0,-1.865089893E0,3.497959077E-1
4.770668073E0,-3.458145857E0,-1.948178053E0,4.434032440E-1
4.773193177E0,-3.567864895E0,-2.029135704E0,5.456656218E-1
4.775718334E0,-3.678515911E0,-2.105699301E0,6.447322965E-1
4.778243490E0,-3.783973932E0,-2.180265665E0,7.469946742E-1
4.780768750E0,-3.883040667E0,-2.242049217E0,8.513875008E-1
4.783293907E0,-3.975715876E0,-2.293180466E0,9.472584724E-1
4.785819063E0,-4.053477764E0,-2.325137377E0,1.044061542E0
4.788344219E0,-4.125913620E0,-2.345376730E0,1.133541107E0
4.790869323E0,-4.185433865E0,-2.350703001E0,1.210237861E0
4.793394480E0,-4.229108334E0,-2.332593918E0,1.265630007E0
4.795919636E0,-4.262130260E0,-2.291049957E0,1.306108832E0
4.798444792E0,-4.281304836E0,-2.231396914E0,1.330609202E0
4.800969948E0,-4.286630630E0,-2.149374008E0,1.337000608E0
4.803495052E0,-4.277043819E0,-2.055633545E0,1.328478694E0
4.806020209E0,-4.255739212E0,-1.949243307E0,1.307174087E0
4.808545365E0,-4.212064743E0,-1.833132863E0,1.272021413E0
4.811070573E0,-4.153609753E0,-1.722348690E0,1.229412079E0
4.813595730E0,-4.091826439E0,-1.606238246E0,1.184672236E0
4.816120886E0,-4.018325329E0,-1.476279855E0,1.156976223E0
4.818646042E0,-3.942693710E0,-1.335802197E0,1.131410599E0
4.821171146E0,-3.864931822E0,-1.186669588E0,1.116497397E0
4.823696302E0,-3.782908678E0,-1.038602233E0,1.099453688E0
4.826221459E0,-3.708342552E0,-8.809477091E-1,1.079214215E0
4.828746615E0,-3.626319408E0,-7.244915962E-1,1.052583337E0
4.831271771E0,-3.542299271E0,-5.636414289E-1,1.022756815E0
4.833796875E0,-3.460276365E0,-3.942693770E-1,9.834764004E-1
4.836322032E0,-3.375057697E0,-2.163754553E-1,9.376713634E-1
4.838847188E0,-3.289839029E0,-4.074516147E-2,8.822792768E-1
4.841372396E0,-3.198229074E0,1.254311949E-1,8.215609789E-1
4.843897552E0,-3.110879898E0,2.788247466E-1,7.480598688E-1
4.846422709E0,-3.025661230E0,4.043890834E-1,6.671021581E-1
4.848947865E0,-2.938445330E0,5.087819099E-1,5.850792527E-1
4.851472969E0,-2.853226662E0,5.940005779E-1,4.945344329E-1
4.853998125E0,-2.772269011E0,6.675016284E-1,4.071853161E-1
4.856523282E0,-2.695572138E0,7.133066654E-1,3.284912407E-1
4.859048438E0,-2.621005774E0,7.239589691E-1,2.400768995E-1
4.861573594E0,-2.554961443E0,7.101109624E-1,1.601844132E-1
4.864098698E0,-2.494243145E0,6.536536217E-1,9.733566642E-2
4.866623855E0,-2.434590101E0,5.247604251E-1,3.235645220E-2
4.869149011E0,-2.395176411E0,3.565867543E-1,-5.392742157E-2
4.871674271E0,-2.388785124E0,1.989322603E-1,-1.476679295E-1
4.874199427E0,-2.403698206E0,4.127778113E-2,-2.434057444E-1
4.876724584E0,-2.427133560E0,-1.227681041E-1,-3.339505494E-1
4.879249740E0,-2.461220980E0,-3.047898114E-1,-4.223648906E-1
4.881774844E0,-2.497438908E0,-5.103797913E-1,-5.118444562E-1
4.884300000E0,-2.533656836E0,-7.308830023E-1,-5.991935730E-1
4.886825157E0,-2.563483238E0,-9.736229777E-1,-6.886731386E-1
4.889350313E0,-2.586918354E0,-1.222887516E0,-7.781527042E-1
4.891875469E0,-2.610353470E0,-1.477345109E0,-8.664339185E-1
4.894400573E0,-2.628462553E0,-1.738327146E0,-9.420654774E-1
4.896925730E0,-2.652962923E0,-2.008896351E0,-1.004914165E0
4.899450886E0,-2.675332785E0,-2.275071383E0,-1.051784515E0
4.901976094E0,-2.706224442E0,-2.523270607E0,-1.082676172E0
4.904501250E0,-2.737116337E0,-2.756423712E0,-1.098654747E0
4.907026407E0,-2.768007994E0,-2.966274500E0,-1.107176542E0
4.909551563E0,-2.797834635E0,-3.150559902E0,-1.105046153E0
4.912076667E0,-2.825530529E0,-3.311276913E0,-1.103980899E0
4.914601823E0,-2.850030899E0,-3.446561337E0,-1.099720001E0
4.917126980E0,-2.872400761E0,-3.547758579E0,-1.095458984E0
4.919652136E0,-2.894770861E0,-3.622324944E0,-1.093328595E0
4.922177292E0,-2.918205976E0,-3.660673380E0,-1.085871935E0
4.924702396E0,-2.940575838E0,-3.676651716E0,-1.081611037E0
4.927227552E0,-2.955488920E0,-3.677716970E0,-1.075219631E0
4.929752709E0,-2.970269203E0,-3.668129921E0,-1.070958614E0
4.932277969E0,-2.981986761E0,-3.650020838E0,-1.066697717E0
4.934803125E0,-2.988378048E0,-3.630846739E0,-1.065632463E0
4.937328282E0,-2.988378048E0,-3.596759319E0,-1.063502073E0
4.939853438E0,-2.988378048E0,-3.559476137E0,-1.063502073E0
4.942378542E0,-2.981986761E0,-3.526453972E0,-1.067762971E0
4.944903698E0,-2.968138695E0,-3.495562077E0,-1.070958614E0
4.947428855E0,-2.952293396E0,-3.465735674E0,-1.078415275E0
4.949954011E0,-2.926727772E0,-3.439104795E0,-1.089067578E0
4.952479167E0,-2.895835876E0,-3.419930696E0,-1.102915645E0
4.955004271E0,-2.860683203E0,-3.395430326E0,-1.115698457E0
4.957529427E0,-2.825530529E0,-3.367734194E0,-1.128481269E0
4.960054584E0,-2.779725552E0,-3.332581520E0,-1.140198827E0
4.962579792E0,-2.729659557E0,-3.293167830E0,-1.154046774E0
4.965104948E0,-2.675332785E0,-3.252822161E0,-1.171090603E0
4.967630105E0,-2.613549232E0,-3.212343454E0,-1.189199567E0
4.970155261E0,-2.546439648E0,-3.175060272E0,-1.214765072E0
4.972680365E0,-2.474003792E0,-3.134581327E0,-1.239265442E0
4.975205521E0,-2.401567936E0,-3.090906858E0,-1.262700558E0
4.977730677E0,-2.326069355E0,-3.040840864E0,-1.288266182E0
4.980255834E0,-2.249372721E0,-2.979057312E0,-1.315962195E0
4.982780990E0,-2.170545340E0,-2.917273760E0,-1.346853971E0
4.985306094E0,-2.093848705E0,-2.853359699E0,-1.375615239E0
4.987831250E0,-2.018217087E0,-2.796902418E0,-1.404376626E0
4.990356407E0,-1.943650842E0,-2.746836424E0,-1.429942131E0
4.992921094E0,-1.872280240E0,-2.701031446E0,-1.458570361E0
4.995446198E0,-1.801974773E0,-2.654161215E0,-1.474548817E0
4.997971355E0,-1.732867837E0,-2.620206833E0,-1.492657781E0
5.000496511E0,-1.666823387E0,-2.588249922E0,-1.505440593E0
5.003021667E0,-1.601844192E0,-2.563749552E0,-1.516092896E0
5.005546823E0,-1.538995385E0,-2.541379690E0,-1.525679946E0
5.008071980E0,-1.476146698E0,-2.515814066E0,-1.533136606E0
5.010597084E0,-1.421819806E0,-2.495574713E0,-1.533136606E0
5.013122240E0,-1.366427660E0,-2.472139597E0,-1.533136606E0
5.015647396E0,-1.312100768E0,-2.454030514E0,-1.532071352E0
5.018172552E0,-1.264165282E0,-2.433791161E0,-1.526745200E0
5.020697709E0,-1.219425559E0,-2.413551807E0,-1.520353794E0
5.023183490E0,-1.169359565E0,-2.395442724E0,-1.509701490E0
5.025708646E0,-1.127948642E0,-2.379464149E0,-1.496918678E0
5.028233802E0,-1.086404562E0,-2.361355305E0,-1.480940223E0
5.030758959E0,-1.045925617E0,-2.338985443E0,-1.462831259E0
5.033284063E0,-1.006512046E0,-2.314485073E0,-1.440461397E0
5.035809219E0,-9.713593721E-1,-2.286788940E0,-1.418224573E0
5.038334375E0,-9.394024014E-1,-2.253766775E0,-1.397985220E0
5.040859532E0,-9.010539651E-1,-2.220744610E0,-1.371354342E0
5.043384688E0,-8.648360372E-1,-2.183461428E0,-1.342593074E0
5.045909792E0,-8.371400237E-1,-2.147243500E0,-1.312766552E0
5.048434948E0,-8.041177988E-1,-2.102503777E0,-1.281874776E0
5.050960105E0,-7.732260227E-1,-2.051372528E0,-1.256309152E0
5.053485313E0,-7.444647551E-1,-2.000374556E0,-1.226482630E0
5.056010469E0,-7.231600881E-1,-1.948178053E0,-1.194525719E0
5.058535625E0,-6.975944638E-1,-1.889590263E0,-1.164699197E0
5.061060782E0,-6.730940938E-1,-1.829937220E0,-1.137003064E0
5.063585886E0,-6.475285292E-1,-1.767088413E0,-1.110372305E0
5.066111042E0,-6.177020073E-1,-1.702109218E0,-1.084806681E0
5.068636198E0,-5.921363831E-1,-1.634999514E0,-1.068828225E0
5.071161355E0,-5.612446666E-1,-1.574281216E0,-1.052849650E0
5.073686511E0,-5.272903442E-1,-1.513562918E0,-1.044327855E0
5.076211615E0,-4.932028949E-1,-1.451779485E0,-1.040066838E0
5.078736771E0,-4.676373005E-1,-1.390129089E0,-1.035805941E0
5.081261927E0,-4.335498512E-1,-1.327280402E0,-1.040066838E0
5.083787188E0,-4.037233293E-1,-1.269757748E0,-1.045393109E0
5.086312344E0,-3.738967776E-1,-1.209039450E0,-1.051784515E0
5.088837500E0,-3.462007344E-1,-1.140864611E0,-1.058175802E0
5.091362657E0,-3.217003644E-1,-1.078015804E0,-1.068828225E0
5.093887761E0,-2.897433937E-1,-1.010906100E0,-1.081611037E0
5.096412917E0,-2.609820962E-1,-9.384703040E-1,-1.094393730E0
5.098938073E0,-2.268946320E-1,-8.745563030E-1,-1.110372305E0
5.101463230E0,-1.874810159E-1,-8.086450100E-1,-1.125285506E0
5.103988386E0,-1.491326243E-1,-7.436658144E-1,-1.142329216E0
5.106513490E0,-1.054580659E-1,-6.829475164E-1,-1.162568688E0
5.109038646E0,-6.178351492E-2,-6.360772848E-1,-1.173220992E0
5.111563802E0,-2.236989327E-2,-6.009245515E-1,-1.171090603E0
5.114089011E0,1.491326280E-2,-5.849460959E-1,-1.162568688E0
5.116614167E0,4.793548584E-2,-5.796199441E-1,-1.155112028E0
5.119139323E0,8.082455397E-2,-5.838808417E-1,-1.149785876E0
5.121664480E0,1.170424819E-1,-5.998593569E-1,-1.141264081E0
5.124189584E0,1.500647068E-1,-6.307511330E-1,-1.129546523E0
5.126714740E0,1.788259894E-1,-6.712299585E-1,-1.106111288E0
5.129239896E0,2.097177505E-1,-7.308830023E-1,-1.078415275E0
5.131765052E0,2.374138087E-1,-8.011884093E-1,-1.041132092E0
5.134290209E0,2.565880120E-1,-8.830781579E-1,-1.002783775E0
5.136815313E0,2.725664973E-1,-9.736229777E-1,-9.591091871E-1
5.139340469E0,2.810883522E-1,-1.065232992E0,-9.143694043E-1
5.141865625E0,2.906754613E-1,-1.152582169E0,-8.728253245E-1
