"Time (s)","Linear Acceleration x (m/s^2)","Linear Acceleration y (m/s^2)","Linear Acceleration z (m/s^2)"
6.753536500E-2,0.000000000E0,0.000000000E0,0.000000000E0
7.257640700E-2,3.109679222E-1,-2.674865723E-1,8.658773899E-1
7.761744800E-2,5.876729488E-1,-2.440977097E-1,1.647928476E0
8.264385500E-2,1.023412466E0,-4.171562195E-2,1.904920340E0
8.773687500E-2,1.397379994E0,2.794733047E-1,2.061327219E0
9.270125000E-2,1.646984458E0,6.631641388E-1,2.236570120E0
9.779463600E-2,1.600368977E0,1.034525871E0,2.426517010E0
1.028017710E-1,1.391573429E0,1.408041954E0,2.737741947E0
1.079686460E-1,8.877801299E-1,1.806608200E0,3.067475080E0
1.129453650E-1,3.157458305E-1,2.119804382E0,3.528219223E0
1.179956250E-1,-7.174551487E-2,2.153491020E0,3.992879868E0
1.230458860E-1,-2.249256372E-1,2.228183746E0,4.523095608E0
1.280961980E-1,-3.181988001E-1,2.587556839E0,4.936504841E0
1.331464070E-1,-1.966204643E-1,2.879777908E0,5.384002686E0
1.381966670E-1,-4.978239536E-2,2.987743378E0,5.896567345E0
1.432469270E-1,-1.899826527E-2,3.046092987E0,6.058784008E0
1.482971360E-1,1.122713089E-1,2.983602524E0,5.821880341E0
1.533473960E-1,2.267316580E-1,3.023359299E0,5.068226814E0
1.583977090E-1,7.080614567E-2,3.215167046E0,3.821146488E0
1.634479170E-1,-1.402705908E-1,3.244259834E0,2.313382387E0
1.684981770E-1,-1.174132824E-1,3.172206879E0,4.214094877E-1
1.735484380E-1,1.984798908E-2,2.863509178E0,-2.298377275E0
1.785986980E-1,8.728158474E-2,2.449395180E0,-4.916877270E0
1.836489590E-1,2.079201937E-1,2.144392014E0,-6.821378231E0
1.886992190E-1,2.779412270E-1,2.057908058E0,-7.236765862E0
1.937494270E-1,1.496554613E-1,1.891431808E0,-7.811533451E0
1.987996880E-1,3.347432613E-2,1.708305359E0,-8.374321938E0
2.038499480E-1,9.305620193E-2,1.657434464E0,-7.991179466E0
2.089002090E-1,-1.388088465E-1,1.653345108E0,-6.394134045E0
2.139504690E-1,-4.215648174E-1,1.612372398E0,-4.229324341E0
2.190007300E-1,-6.190704107E-1,1.672382355E0,-2.112764835E0
2.240509900E-1,-8.597446680E-1,1.961246490E0,-7.980108261E-2
2.291012500E-1,-9.631353617E-1,2.373617172E0,1.605221391E0
2.341514590E-1,-1.044153929E0,2.984094620E0,2.918699741E0
2.392017190E-1,-1.252557039E0,3.671935081E0,3.777728081E0
2.442519800E-1,-1.516449451E0,4.376705170E0,4.148650169E0
2.493022400E-1,-1.271049738E0,4.941579342E0,3.507652521E0
2.543525000E-1,-7.773103714E-1,5.228339672E0,2.817571402E0
2.594027610E-1,-2.635314465E-1,5.616512775E0,2.252173185E0
2.644529690E-1,1.670684814E-1,6.088852882E0,1.788937449E0
2.695032300E-1,2.824807167E-1,6.447525978E0,1.621648550E0
2.745534900E-1,2.961583138E-1,6.729445457E0,1.367695332E0
2.796037500E-1,3.377342224E-1,6.812837124E0,1.278677464E0
2.846540110E-1,3.180449009E-1,6.623940468E0,1.179140091E0
2.897042710E-1,3.030753136E-1,6.195671558E0,1.070983529E0
2.947545320E-1,2.032256126E-2,5.879679680E0,1.004095554E0
2.998047920E-1,-2.086250782E-1,5.442393303E0,8.840923309E-1
3.048550520E-1,-6.139116287E-1,5.138224602E0,8.926262856E-1
3.099052610E-1,-9.119966030E-1,4.760095119E0,8.947222233E-1
3.149555210E-1,-1.035618544E0,4.257723808E0,1.043767452E0
3.200057820E-1,-9.618296623E-1,3.906818151E0,1.206290364E0
3.250560420E-1,-8.864958286E-1,3.711264372E0,1.329094768E0
3.301063020E-1,-6.873106956E-1,3.486989021E0,1.260509253E0
3.351565630E-1,-4.351963997E-1,3.309762239E0,1.010423422E0
3.402067710E-1,-2.582600117E-1,3.266692877E0,6.121110916E-1
3.452570840E-1,-2.684166431E-1,3.377583981E0,1.064465046E-1
3.504236460E-1,-3.642501831E-1,3.460369587E0,-2.983932495E-1
3.554739070E-1,-3.879904747E-1,3.574847698E0,-5.413124561E-1
3.605241670E-1,-3.603804111E-1,3.438755035E0,-6.849694252E-1
3.655744270E-1,-2.289361954E-1,3.269259691E0,-6.911044121E-1
3.706246880E-1,-8.696413040E-2,2.911245823E0,-7.092809677E-1
3.756748960E-1,1.053979397E-1,2.462053299E0,-8.502948284E-1
3.807251570E-1,3.424689770E-1,2.010152340E0,-1.080194950E0
3.857754170E-1,5.878906250E-1,1.661728859E0,-1.394205809E0
3.908256770E-1,6.834123135E-1,1.353926659E0,-1.686443329E0
3.958759380E-1,6.564142704E-1,1.109770298E0,-1.864847898E0
4.009261980E-1,4.688160419E-1,9.989576340E-1,-2.116652489E0
4.059764590E-1,2.400181293E-1,9.450197220E-1,-2.482318878E0
4.110267190E-1,1.038897038E-1,8.843126297E-1,-2.991853952E0
4.160769800E-1,-2.373242378E-2,8.037776947E-1,-3.506137848E0
4.211271880E-1,-5.787682533E-2,7.638020515E-1,-4.051302910E0
4.261774480E-1,-6.685948372E-2,7.767014503E-1,-4.582418442E0
4.312665110E-1,-3.669929504E-2,8.207426071E-1,-5.209112167E0
4.362779690E-1,-3.970003128E-2,9.040060043E-1,-5.976119995E0
4.413282300E-1,-6.048607826E-2,9.991631508E-1,-6.928050041E0
4.463784900E-1,-1.412224770E-1,1.049313545E0,-8.066894531E0
4.514675520E-1,-2.941586971E-1,1.065350533E0,-9.634452820E0
4.564789590E-1,-4.524929523E-1,1.044943333E0,-1.168369102E1
4.615680210E-1,-1.423959732E0,7.742481232E-1,-1.455149078E1
4.665794800E-1,-2.911371708E0,4.164743423E-2,-1.689497948E1
4.716685420E-1,-4.723752022E0,-1.117074013E0,-1.520174408E1
4.766800000E-1,-6.558871269E0,-2.464820862E0,-6.770676613E0
4.817302610E-1,-6.762999535E0,-3.912973404E0,2.937159061E0
4.867805210E-1,-4.924217224E0,-5.249608040E0,6.323653221E0
4.918307820E-1,-3.641076803E0,-6.297044277E0,2.116493940E0
4.968810420E-1,-2.980341673E0,-7.211242676E0,-3.563333511E0
5.019312500E-1,-1.850390673E0,-7.734281063E0,-5.365293980E0
5.069815110E-1,-1.231375933E0,-7.340845108E0,-4.193599224E0
5.120317710E-1,-1.580024719E0,-6.410236835E0,-4.285112858E0
5.170820320E-1,-2.550323248E0,-5.201347828E0,-4.455732822E0
5.221322920E-1,-3.461888552E0,-3.485605717E0,-1.825122356E0
5.271825520E-1,-3.591928482E0,-1.345490932E0,2.332067728E0
5.322328130E-1,-3.209708691E0,6.854882240E-1,4.044417381E0
5.372830730E-1,-2.667920351E0,2.047133446E0,2.828654289E0
5.423333340E-1,-2.331441402E0,2.928180695E0,8.472595215E-1
5.473835940E-1,-1.834594965E0,3.303312540E0,-7.304129601E-1
5.524338550E-1,-1.209348202E0,3.195339680E0,-1.134583473E0
5.574841150E-1,-6.491165161E-1,2.719845295E0,-1.124630451E0
5.625343230E-1,-3.108696938E-1,1.770344257E0,-8.372178078E-1
5.675845840E-1,-3.192379475E-1,5.317883492E-1,-5.556426048E-1
5.726736980E-1,-4.722168446E-1,-7.611284256E-1,-5.625262260E-1
5.776851050E-1,-4.033439159E-1,-1.815274715E0,-4.365386963E-1
5.827353650E-1,-3.090865612E-1,-2.995696545E0,9.895324707E-2
5.877856250E-1,-3.833382130E-1,-3.989665508E0,7.932736874E-1
5.928358860E-1,-5.591487885E-1,-4.665257931E0,7.468338013E-1
5.978823440E-1,-6.217288971E-1,-5.060203075E0,1.737852097E-1
6.029163020E-1,-5.363774300E-1,-4.959767342E0,-3.752083778E-1
6.079502610E-1,-4.493680000E-1,-4.449687004E0,-6.586174965E-1
6.129842190E-1,-2.893755436E-1,-3.652705193E0,-7.603206635E-1
6.180181770E-1,-1.420297623E-1,-2.710488796E0,-6.867742538E-1
6.230521360E-1,-1.535918713E-1,-1.688833237E0,-5.653102398E-1
6.281839070E-1,-1.748514175E-1,-7.297124863E-1,-4.125866890E-1
6.332178650E-1,-2.339377403E-1,7.955789566E-2,-3.479168415E-1
6.382518230E-1,-2.742676735E-1,7.589225769E-1,-4.014353752E-1
6.432857820E-1,-3.227622509E-1,1.266546249E0,-4.388475418E-1
6.483197400E-1,-3.098287582E-1,1.628575325E0,-5.288543701E-1
6.533536980E-1,-2.870213985E-1,1.794605255E0,-6.120593548E-1
6.584854690E-1,-2.471947670E-1,1.830698013E0,-6.548287868E-1
6.635194270E-1,-1.262288094E-1,1.613756180E0,-6.066167355E-1
6.685533860E-1,3.558099270E-2,1.220010281E0,-5.462865829E-1
6.735873440E-1,2.427268028E-1,6.804890633E-1,-4.831352234E-1
6.786213020E-1,6.063234806E-1,1.416015625E-2,-3.587749004E-1
6.836552610E-1,9.594680667E-1,-6.460561752E-1,-2.780811787E-1
6.887870320E-1,1.341707706E0,-1.259069443E0,-2.947959900E-1
6.938209900E-1,1.670322180E0,-1.817887306E0,-3.131334782E-1
6.988549480E-1,1.984435678E0,-2.239002228E0,-2.449593544E-1
7.038889070E-1,2.215563297E0,-2.474724770E0,-1.616353989E-1
7.089228650E-1,2.355812788E0,-2.404000282E0,-6.832551956E-2
7.139568230E-1,2.421590805E0,-2.238391876E0,-4.604434967E-2
7.190885940E-1,2.407340288E0,-1.899717331E0,-3.402996063E-2
7.241225520E-1,2.353870153E0,-1.438921928E0,-5.436301231E-2
7.291565110E-1,2.221744537E0,-9.896373749E-1,-1.672244072E-1
7.341904690E-1,2.027899742E0,-6.170091629E-1,-2.995823622E-1
7.392244270E-1,1.759010315E0,-2.158422470E-1,-4.482462406E-1
7.442583860E-1,1.375852585E0,9.713649750E-2,-6.813679934E-1
7.493901570E-1,9.819484949E-1,2.504997253E-1,-6.857966185E-1
7.544241150E-1,5.468134284E-1,2.814950943E-1,-6.997617483E-1
7.594580730E-1,-4.602217674E-2,2.840175629E-1,-8.833498955E-1
7.644920320E-1,-6.203093529E-1,2.879199982E-1,-1.152876377E0
7.695259900E-1,-1.134285569E0,2.337179184E-1,-1.341008902E0
7.745599480E-1,-1.489330053E0,2.027196884E-1,-1.450862408E0
7.796917190E-1,-1.603724122E0,1.024093628E-1,-1.482534885E0
7.847256770E-1,-1.589186311E0,5.063247681E-2,-1.364410281E0
7.897596360E-1,-1.468427777E0,8.546257019E-2,-1.153989553E0
7.947935940E-1,-1.112590909E0,1.124353409E-1,-8.584855795E-1
7.998275520E-1,-7.079237700E-1,1.864023209E-1,-6.251759529E-1
8.048615110E-1,-3.927640915E-1,1.808528900E-1,-5.612105131E-1
8.099933340E-1,-1.487950087E-1,1.868715286E-1,-5.415295362E-1
8.150272920E-1,1.520863771E-1,2.325382233E-1,-4.271777272E-1
8.200612500E-1,4.114049673E-1,2.595462799E-1,-3.045310974E-1
8.250952090E-1,6.094676256E-1,2.858266830E-1,-1.461325288E-1
8.301291670E-1,6.410515904E-1,4.053640366E-1,1.448333263E-2
8.351631250E-1,6.692069769E-1,5.366287231E-1,1.155534387E-1
8.402948960E-1,6.158773899E-1,7.045536041E-1,1.210777164E-1
8.453288550E-1,4.533125758E-1,8.444528580E-1,-6.102144718E-3
8.503628130E-1,3.038947582E-1,1.030376911E0,-1.671523452E-1
8.553967710E-1,3.188562393E-2,1.171646118E0,-4.118056595E-1
8.604307300E-1,-2.996907234E-1,1.243554115E0,-7.202606797E-1
8.654646880E-1,-6.462328434E-1,1.277507305E0,-1.066976309E0
8.705965110E-1,-1.061969042E0,1.224962234E0,-1.369060755E0
8.756304690E-1,-1.363478899E0,1.119804382E0,-1.593252897E0
8.806644270E-1,-1.556246042E0,9.374198914E-1,-1.792060375E0
8.856983860E-1,-1.567691684E0,6.533689499E-1,-2.029829025E0
8.907323440E-1,-1.476953268E0,3.576488495E-1,-2.253915310E0
8.957663020E-1,-1.211534739E0,6.592273712E-2,-2.442253351E0
9.008980730E-1,-9.515485764E-1,-1.765098572E-1,-2.719404459E0
9.059320320E-1,-7.128720284E-1,-4.246597290E-1,-3.007776260E0
9.109659900E-1,-5.906976461E-1,-4.831895828E-1,-3.157437801E0
9.159999480E-1,-6.247088909E-1,-4.960861206E-1,-3.214186907E0
9.210339070E-1,-7.614116669E-1,-3.790931702E-1,-3.230479717E0
9.260678650E-1,-9.641240835E-1,-2.532777786E-1,-3.315243483E0
9.312390110E-1,-1.153035045E0,-9.855556488E-2,-3.397411346E0
9.362729690E-1,-1.295958996E0,5.985927582E-2,-3.452794313E0
9.413069270E-1,-1.336667061E0,3.015327454E-2,-3.528773546E0
9.463408860E-1,-1.270851970E0,-2.705001831E-2,-3.666743755E0
9.513748440E-1,-1.010192394E0,-2.961425781E-1,-3.812471390E0
9.564088020E-1,-6.100100279E-1,-6.829462051E-1,-3.936060905E0
9.615012500E-1,-1.477918625E-1,-1.108129501E0,-3.965522766E0
9.665352090E-1,3.527792692E-1,-1.496350288E0,-3.883034229E0
9.715691670E-1,7.933393717E-1,-1.901346207E0,-3.605657339E0
9.766031250E-1,1.119114637E0,-2.269392967E0,-3.144816637E0
9.816370840E-1,1.368598223E0,-2.543512344E0,-2.621379852E0
9.866710420E-1,1.505401969E0,-2.670680046E0,-1.994649529E0
9.918028650E-1,1.507676363E0,-2.722067833E0,-1.449698091E0
9.968368230E-1,1.327029347E0,-2.848203659E0,-9.210923910E-1
1.001870782E0,9.887390733E-1,-3.039302826E0,-6.370952129E-1
1.006904740E0,4.967786670E-1,-3.097444534E0,-4.946133196E-1
1.011938698E0,3.129100800E-2,-3.055645943E0,-5.566100478E-1
1.016972657E0,-3.205181360E-1,-2.993145943E0,-8.247995377E-1
1.022104480E0,-6.380741596E-1,-2.862395287E0,-1.295005202E0
1.027138438E0,-8.741075993E-1,-2.711256981E0,-1.962901354E0
1.032172396E0,-8.364503384E-1,-2.677965164E0,-2.561297178E0
1.037206355E0,-6.733641624E-1,-2.790413857E0,-3.096197844E0
1.042240313E0,-6.424899101E-1,-2.948965073E0,-3.481872320E0
1.047274271E0,-7.459133863E-1,-3.139183998E0,-3.764296532E0
1.052406042E0,-8.469132185E-1,-3.332345009E0,-3.863316536E0
1.057440000E0,-8.680715561E-1,-3.677206993E0,-3.842837572E0
1.062473959E0,-8.729929924E-1,-3.892991066E0,-3.597108364E0
1.067507917E0,-8.385158777E-1,-4.207814217E0,-3.217254639E0
1.072541875E0,-8.060415983E-1,-4.637730598E0,-2.788239717E0
1.077575834E0,-7.681022882E-1,-5.215367317E0,-2.361202240E0
1.082707657E0,-9.735853672E-1,-5.812316895E0,-1.931328058E0
1.087741615E0,-1.424623847E0,-6.337882042E0,-1.399997354E0
1.092775573E0,-2.016835690E0,-6.880846977E0,-7.119712830E-1
1.097809532E0,-2.690306664E0,-7.309154510E0,1.571686864E-1
1.102843490E0,-3.106789589E0,-7.574837685E0,1.078787327E0
1.107877448E0,-3.354099751E0,-7.549053192E0,1.750163317E0
1.113008542E0,-3.511917114E0,-7.288386345E0,1.939659119E0
1.118055521E0,-3.550558090E0,-6.950208664E0,1.640869617E0
1.123102552E0,-3.530394554E0,-6.451477051E0,9.565303326E-1
1.128149532E0,-3.155314445E0,-6.069286346E0,-2.616322041E-2
1.133196511E0,-2.915371895E0,-5.550054550E0,-9.762442708E-1
1.138243542E0,-2.611311436E0,-4.943030357E0,-1.777747989E0
1.143310157E0,-2.586410999E0,-4.085304260E0,-2.412965536E0
1.148357136E0,-2.709931135E0,-3.112664223E0,-2.802217484E0
1.153404167E0,-2.965677738E0,-2.191486359E0,-3.108740091E0
1.158451146E0,-3.272234917E0,-1.474120140E0,-3.348468542E0
1.163498125E0,-3.479800701E0,-9.895439148E-1,-3.482145786E0
1.168545157E0,-3.597774506E0,-7.175979614E-1,-3.583033323E0
1.173611771E0,-3.531197786E0,-6.539278030E-1,-3.619867802E0
1.178658750E0,-3.190641880E0,-7.951183319E-1,-3.657557249E0
1.183705782E0,-2.509367704E0,-1.051829338E0,-3.722793341E0
1.188752761E0,-1.754727840E0,-1.360456467E0,-3.836040497E0
1.193799740E0,-1.250696421E0,-1.474113464E0,-3.904042482E0
1.198846771E0,-9.882767200E-1,-1.456109047E0,-4.116540909E0
1.203913386E0,-9.594016075E-1,-1.402923584E0,-4.529439926E0
1.208960365E0,-1.058833122E0,-1.440318108E0,-5.098436356E0
1.214007396E0,-1.156609297E0,-1.593386650E0,-5.792996883E0
1.219054375E0,-1.189634562E0,-1.835774422E0,-6.640934467E0
1.224101355E0,-1.095414162E0,-2.116236687E0,-7.388322353E0
1.229148386E0,-9.123346806E-1,-2.389717102E0,-7.899182796E0
1.234215000E0,-5.800545216E-1,-2.687672615E0,-8.039410591E0
1.239261980E0,-7.548546791E-2,-3.002690315E0,-7.866794586E0
1.244309011E0,5.680477619E-1,-3.290680885E0,-7.303168774E0
1.249355990E0,9.799537659E-1,-3.577829361E0,-6.543037415E0
1.254402969E0,1.124154091E0,-3.989496231E0,-5.719186306E0
1.259450000E0,1.057121038E0,-4.507354736E0,-4.797226906E0
1.264516615E0,8.781208992E-1,-4.932826996E0,-3.453383684E0
1.269563594E0,7.203869820E-1,-5.092837334E0,-1.817996979E0
1.274610625E0,3.860249519E-1,-4.871384621E0,5.264258385E-2
1.279657605E0,8.432197571E-2,-4.415308952E0,1.793848157E0
1.284704584E0,-2.553074360E-1,-3.737633705E0,3.301646233E0
1.289751615E0,-3.669397831E-1,-3.182096481E0,4.805285931E0
1.294818230E0,-8.864402771E-4,-2.834903717E0,6.392642021E0
1.299865209E0,6.356897354E-1,-2.793330193E0,7.854171753E0
1.304912240E0,1.173093081E0,-2.771511078E0,8.973026276E0
1.309959219E0,1.627993941E0,-2.699578285E0,9.752006531E0
1.315006198E0,2.128146887E0,-2.530659676E0,1.001198483E1
1.320053230E0,2.390114784E0,-2.229228973E0,9.722165108E0
1.325119844E0,2.455818176E0,-1.883319855E0,8.991349220E0
1.330166823E0,2.283597469E0,-1.439058304E0,8.078222275E0
1.335213855E0,1.943534136E0,-9.219989777E-1,7.094069481E0
1.340260834E0,1.468390465E0,-4.563627243E-1,5.981912136E0
1.345307813E0,1.005435228E0,-2.019462585E-1,4.766377449E0
1.350354844E0,6.749680042E-1,-1.110649109E-2,3.524818897E0
1.355421459E0,4.084765911E-1,-3.693675995E-2,2.400583267E0
1.360468438E0,1.564996243E-1,-4.199028015E-3,1.616415977E0
1.365515469E0,-7.387995720E-2,1.508722305E-1,1.142414093E0
1.370562448E0,-1.626207829E-1,2.667398453E-1,6.738641262E-1
1.375609427E0,-6.381845474E-2,2.289762497E-1,1.732039452E-1
1.380656459E0,5.548858643E-2,2.435426712E-1,-2.022128105E-1
1.385723073E0,3.936784267E-1,2.391209602E-1,-4.401044846E-1
1.390770052E0,7.332298756E-1,2.875809669E-1,-5.213603973E-1
1.395817084E0,1.128643274E0,4.653148651E-1,-3.067059517E-1
1.400864063E0,1.480550528E0,7.151961327E-1,7.331991196E-2
1.405911042E0,1.714621305E0,1.075366497E0,6.152210236E-1
1.410958073E0,1.783546448E0,1.466575623E0,1.323954582E0
1.416024688E0,1.810773373E0,1.855851650E0,2.047742128E0
1.421071667E0,1.843457699E0,2.186324596E0,2.777530193E0
1.426118698E0,1.815537214E0,2.451536179E0,3.442333460E0
1.431165677E0,1.800354719E0,2.641934872E0,4.009243011E0
1.436212657E0,1.813588619E0,2.705334663E0,4.595492840E0
1.441259688E0,1.881437302E0,2.719402313E0,5.021667480E0
1.446326355E0,1.843913555E0,2.823204041E0,5.422010422E0
1.451373334E0,1.873466015E0,2.919654369E0,5.615857601E0
1.456420365E0,1.952017546E0,2.945731163E0,5.574826717E0
1.461467344E0,2.054878712E0,2.954613686E0,5.410850048E0
1.466514323E0,2.308925629E0,2.916982174E0,5.234322548E0
1.471561355E0,2.293182850E0,2.974014282E0,4.923749447E0
1.476627969E0,2.194749832E0,3.028718948E0,4.628931999E0
1.481674948E0,1.985526085E0,3.261838675E0,4.384994507E0
1.486721980E0,1.730575085E0,3.320789337E0,4.264387608E0
1.491768959E0,1.435510635E0,3.520240784E0,4.134849072E0
1.496815938E0,1.085087299E0,3.702026367E0,3.920183420E0
1.501862969E0,8.740301132E-1,3.816226721E0,3.681538343E0
1.506929584E0,5.903673172E-1,3.950169563E0,3.414552450E0
1.511976563E0,4.469513893E-1,3.949384928E0,3.172038794E0
1.517023594E0,4.065389633E-1,3.833743334E0,3.138592243E0
1.522070573E0,5.211887360E-1,3.603017330E0,3.347826958E0
1.527117552E0,9.411499500E-1,3.253681660E0,3.498162270E0
1.532164584E0,1.351641655E0,3.026446819E0,3.485423326E0
1.537231198E0,1.758240223E0,2.934130192E0,3.566051960E0
1.542278177E0,1.864927053E0,3.050461292E0,3.400506973E0
1.547325209E0,1.971278191E0,3.294419765E0,3.107885838E0
1.552372188E0,2.161722660E0,3.599936962E0,2.870412350E0
1.557419167E0,2.341587543E0,3.911110878E0,2.573102951E0
1.562466198E0,2.415645599E0,4.244177818E0,2.257000446E0
1.567532865E0,2.539850712E0,4.408964157E0,1.971052647E0
1.572579844E0,2.528721094E0,4.363168716E0,1.715536594E0
1.577626875E0,2.545893192E0,4.081545830E0,1.492997646E0
1.582673855E0,2.408840179E0,3.591301918E0,1.219431877E0
1.587720834E0,2.147844791E0,3.137956381E0,9.175992012E-1
1.592767865E0,1.696554184E0,2.782075405E0,6.663951874E-1
1.597834480E0,1.362482071E0,2.395808220E0,4.605445862E-1
1.602881459E0,9.391298294E-1,2.074650764E0,3.031449318E-1
1.607928490E0,6.703577042E-1,1.752239227E0,8.255004883E-3
1.612975469E0,3.971982002E-1,1.482948542E0,-5.716481209E-1
1.618022448E0,1.378517151E-1,1.265993595E0,-1.409225464E0
1.623069480E0,-4.572153091E-2,1.193582058E0,-2.434725761E0
1.628135938E0,-2.621335983E-1,1.187731743E0,-3.564179420E0
1.633185573E0,-4.325361252E-1,1.309871674E0,-4.916083813E0
1.638235157E0,-5.475773811E-1,1.407838345E0,-6.145514488E0
1.643284792E0,-7.914977074E-1,1.491395950E0,-7.299247265E0
1.648334427E0,-8.138008118E-1,1.625751019E0,-8.633160591E0
1.653384011E0,-7.304153442E-1,1.732331753E0,-9.139358521E0
1.658437605E0,-9.071388245E-1,1.893517256E0,-9.929706573E0
1.663487240E0,-1.337726593E0,1.816483736E0,-1.126338005E1
1.668536823E0,-2.232336521E0,1.211301327E0,-1.089854336E1
1.673586459E0,-3.821174383E0,1.081910133E-1,-7.066100597E0
1.678636094E0,-5.472470284E0,-1.443510532E0,-6.107926369E-1
1.683685677E0,-6.212243080E0,-3.131359577E0,3.954121828E0
1.688739219E0,-6.088324547E0,-4.825377464E0,2.871911526E0
1.693788855E0,-4.986275196E0,-6.379993439E0,-2.247334480E0
1.698838438E0,-3.304437637E0,-7.391019821E0,-5.992265224E0
1.703888073E0,-2.138899803E0,-7.699219704E0,-6.459045887E0
1.708937709E0,-2.215494633E0,-7.389656067E0,-6.334069729E0
1.713987292E0,-2.364604950E0,-6.617213249E0,-4.793526649E0
1.719040834E0,-1.732567072E0,-5.170160294E0,-7.104892731E-1
1.724090469E0,-4.997191429E-1,-3.062644005E0,2.463924885E0
1.729140052E0,2.789981365E-1,-1.117753029E0,2.928871632E0
1.734189688E0,3.361680508E-1,2.640328407E-1,2.044387341E0
1.739239323E0,-1.328289509E-1,1.096859455E0,1.157648563E0
1.744288907E0,-6.695027351E-1,1.698423862E0,1.443428993E0
1.749342500E0,-1.149012804E0,2.041336536E0,2.294680595E0
1.754392136E0,-1.670328856E0,2.054649353E0,2.164599895E0
1.759441719E0,-1.990023375E0,1.805238247E0,1.552886963E0
1.764491355E0,-2.037033319E0,1.269234180E0,1.132385254E0
1.769540990E0,-1.823272228E0,6.458382607E-1,1.198179245E0
1.774590573E0,-1.352918863E0,2.396869659E-2,1.613508701E0
1.779644167E0,-8.740708828E-1,-7.005920410E-1,1.898967266E0
1.784693802E0,-4.327898026E-1,-1.504632473E0,1.662516594E0
1.789743386E0,-6.079912186E-3,-2.400176525E0,1.167138100E0
1.794793021E0,2.033267021E-1,-3.205227375E0,9.633588791E-1
1.799842657E0,2.436501980E-1,-3.812013626E0,1.132195473E0
1.804892240E0,1.371829510E-1,-4.081033230E0,1.150769711E0
1.809945834E0,-6.318759918E-2,-3.998133183E0,8.955101967E-1
1.814995469E0,-2.178351879E-1,-3.541849613E0,5.160017014E-1
1.820045052E0,-3.795390129E-1,-2.899245739E0,3.479723930E-1
1.825094688E0,-4.335556030E-1,-2.155094624E0,3.040833473E-1
1.830144323E0,-4.338042736E-1,-1.457484722E0,3.596749306E-1
1.835193907E0,-3.839921951E-1,-8.586182594E-1,4.508881569E-1
1.840247500E0,-2.664101124E-1,-4.021210670E-1,6.357674599E-1
1.845297136E0,-5.981731415E-2,-6.212043762E-2,8.477530479E-1
1.850346719E0,2.426261902E-1,2.191076279E-1,9.887313843E-1
1.855396355E0,6.886397600E-1,3.355555534E-1,1.171976566E0
1.860445990E0,1.114614844E0,3.713259697E-1,1.330104828E0
1.865495573E0,1.559188128E0,2.849178314E-1,1.494987965E0
1.870549167E0,1.947405219E0,1.530246735E-1,1.680796623E0
1.875598802E0,2.242298365E0,7.466030121E-2,1.834149837E0
1.880648386E0,2.492350101E0,-6.746768951E-2,1.882113934E0
1.885698021E0,2.664297581E0,-2.256689072E-1,1.873189926E0
1.890747657E0,2.770634413E0,-3.116683960E-1,1.841077566E0
1.895797240E0,2.816249371E0,-4.393520355E-1,1.776780128E0
1.900850834E0,2.835622787E0,-6.946325302E-1,1.700950384E0
1.905900469E0,2.722555637E0,-8.422012329E-1,1.510527134E0
1.910950052E0,2.561853647E0,-1.030406952E0,1.295588732E0
1.915999688E0,2.373270750E0,-1.225948334E0,1.068589687E0
1.921049323E0,2.221264839E0,-1.312847137E0,9.740850925E-1
1.926098907E0,2.109696627E0,-1.355990410E0,8.757112026E-1
1.931152500E0,2.022722244E0,-1.333769798E0,8.340682983E-1
1.936202136E0,2.089219570E0,-1.237872124E0,9.610867500E-1
1.941251719E0,2.045663834E0,-1.057654381E0,9.147179127E-1
1.946301355E0,1.813999891E0,-8.160476685E-1,6.231827736E-1
1.951350990E0,1.605325699E0,-5.523710251E-1,5.743770599E-1
1.956400573E0,1.315382600E0,-3.489189148E-1,6.060724258E-1
1.961493594E0,1.000032425E0,-2.135009766E-1,5.773129463E-1
1.966543230E0,5.810753107E-1,-1.254367828E-2,6.135029793E-1
1.971592865E0,2.622119188E-1,1.536178589E-1,7.255370617E-1
1.976642448E0,-8.463799953E-2,4.282655716E-1,5.649889708E-1
1.981692084E0,-4.105061293E-1,6.807823181E-1,2.264221907E-1
1.986741719E0,-6.414853334E-1,9.482669830E-1,5.337786674E-2
1.991755886E0,-7.918968201E-1,1.166052818E0,-1.737666130E-2
1.996805521E0,-9.848093987E-1,1.458745003E0,-1.113477945E-1
2.001855105E0,-1.120390058E0,1.662277699E0,-1.931686401E-1
2.006904740E0,-1.284359932E0,1.812536716E0,-2.763975859E-1
2.011954375E0,-1.405112743E0,1.959686279E0,-3.070596457E-1
2.017003959E0,-1.446200013E0,2.032025814E0,-2.208703756E-1
2.022057552E0,-1.382530212E0,2.028586388E0,-1.292270422E-1
2.027107188E0,-1.248989463E0,1.912557602E0,-4.867684841E-2
2.032156771E0,-1.089987159E0,1.853921890E0,-9.854805470E-2
2.037206407E0,-9.645978212E-1,1.764208794E0,-2.996201515E-1
2.042256042E0,-7.814191580E-1,1.647228718E0,-5.234586000E-1
2.047305625E0,-7.202225924E-1,1.515101433E0,-7.040361166E-1
2.052359219E0,-6.720753908E-1,1.459968090E0,-8.763347864E-1
2.057408855E0,-7.411756516E-1,1.384949684E0,-9.697549343E-1
2.062458438E0,-8.132979870E-1,1.402414322E0,-1.013439178E0
2.067508073E0,-9.017026424E-1,1.372416496E0,-1.056563497E0
2.072557709E0,-1.012276173E0,1.462368965E0,-1.115802526E0
2.077607292E0,-1.162609220E0,1.473575592E0,-1.249116182E0
2.082660938E0,-1.255799890E0,1.500623226E0,-1.375965595E0
2.087710573E0,-1.307622552E0,1.439596176E0,-1.558619618E0
2.092760157E0,-1.317130685E0,1.367222786E0,-1.759796739E0
2.097809792E0,-1.318140507E0,1.198809624E0,-1.967900276E0
2.102859427E0,-1.268418789E0,1.041136742E0,-2.227700472E0
2.107909011E0,-1.170797110E0,8.895158768E-1,-2.463148117E0
2.112962605E0,-1.008283854E0,8.027153015E-1,-2.629746675E0
2.118012240E0,-6.932874918E-1,7.580776215E-1,-2.750041962E0
2.123061823E0,-3.991444111E-1,7.772550583E-1,-2.783118010E0
2.128111459E0,-1.273133755E-1,8.040189743E-1,-2.924148321E0
2.133161094E0,1.055930853E-1,9.004793167E-1,-3.095214605E0
2.138210677E0,2.260296345E-1,9.899463654E-1,-3.153227329E0
2.143264271E0,2.612431049E-1,1.093864441E0,-3.142154217E0
2.148314427E0,1.752114296E-1,1.050756454E0,-3.062498808E0
2.153364584E0,1.063735485E-1,8.799781799E-1,-2.904197216E0
2.158414688E0,-4.788124561E-2,4.670419693E-1,-2.737520695E0
2.163464844E0,-1.342693567E-1,-1.230421066E-1,-2.776833534E0
2.168515000E0,-2.641775608E-1,-7.369956970E-1,-2.895946503E0
2.173565990E0,-2.002556324E-1,-1.490648270E0,-3.016865492E0
2.178616146E0,-4.778981209E-2,-2.369159698E0,-2.849187613E0
2.183666302E0,1.662461758E-1,-3.271684647E0,-2.351983070E0
2.188716407E0,4.839612246E-1,-4.017499924E0,-1.570948362E0
2.193766563E0,8.448009491E-1,-4.449047089E0,-6.286797523E-1
2.198816719E0,1.191143990E0,-4.458269119E0,2.406529933E-1
2.203867657E0,1.338254452E0,-3.911269188E0,9.810861349E-1
2.208917813E0,1.329505920E0,-2.887347221E0,1.451582551E0
2.213967969E0,1.112856030E0,-1.681988716E0,1.570888996E0
2.219018073E0,7.446019650E-1,-7.786922455E-1,1.332747340E0
2.224068230E0,3.236069679E-1,-2.666082382E-1,8.140007257E-1
2.229118386E0,-1.338914633E-1,-1.378421783E-1,-1.324826851E-2
2.234169375E0,-5.858278275E-1,-3.007164001E-1,-1.041205049E0
2.239219532E0,-1.062265515E0,-8.715419769E-1,-2.174814701E0
2.244269688E0,-1.548866749E0,-1.750044823E0,-3.219479561E0
2.249319792E0,-1.866621971E0,-2.855282784E0,-3.950649738E0
2.254369948E0,-1.728622556E0,-3.920060158E0,-4.224754333E0
2.259420105E0,-1.067592025E0,-4.723213196E0,-4.233576775E0
2.264510573E0,-2.558100224E-2,-5.070398331E0,-4.130219936E0
2.269560677E0,9.977630377E-1,-5.233738899E0,-3.936065197E0
2.274610834E0,1.641272783E0,-5.354588509E0,-3.783826828E0
2.279660990E0,1.824787498E0,-5.740118980E0,-3.693229914E0
2.284711146E0,1.482850790E0,-6.325138092E0,-3.658236504E0
2.289761302E0,7.987185717E-1,-7.079270363E0,-3.349618196E0
2.294772761E0,-1.178349257E-1,-7.925609589E0,-2.824283123E0
2.299822917E0,-1.071726084E0,-8.436118126E0,-1.970450878E0
2.304873073E0,-2.033833981E0,-8.566282272E0,-8.991546035E-1
2.309923177E0,-3.063113213E0,-8.307634354E0,1.901438832E-2
2.314973334E0,-4.100494385E0,-7.881278992E0,7.185605168E-1
2.320023490E0,-4.957202911E0,-7.327481270E0,1.069985986E0
2.325074480E0,-5.454139233E0,-6.910890579E0,9.472590089E-1
2.330124636E0,-5.653814793E0,-6.300433159E0,5.218216181E-1
2.335174792E0,-5.450265884E0,-5.661454201E0,-2.733018994E-1
2.340224896E0,-5.020074844E0,-4.851765633E0,-1.235942960E0
2.345275052E0,-4.546655178E0,-3.994830132E0,-2.238638639E0
2.350325209E0,-3.937430382E0,-3.216207504E0,-3.154833794E0
2.355376198E0,-3.291704655E0,-2.458272934E0,-3.865322113E0
2.360426355E0,-2.479872227E0,-1.958616257E0,-4.473026276E0
2.365476511E0,-1.758450031E0,-1.497833252E0,-4.851712227E0
2.370526615E0,-1.202859163E0,-1.141440392E0,-5.164534569E0
2.375576771E0,-9.285895824E-1,-9.166507721E-1,-5.444187164E0
2.380626927E0,-1.036522627E0,-9.106502533E-1,-5.819531441E0
2.385677917E0,-1.339052200E0,-1.026484489E0,-6.131308079E0
2.390728073E0,-1.664202213E0,-1.163949013E0,-6.429548264E0
2.395778230E0,-1.860976696E0,-1.202730179E0,-6.571424961E0
2.400828334E0,-1.852070808E0,-1.188843727E0,-6.640702724E0
2.405878490E0,-1.881851912E0,-1.153925896E0,-6.687088013E0
2.410928646E0,-1.890650988E0,-1.160682678E0,-6.579730988E0
2.415979636E0,-1.882133484E0,-1.155903816E0,-6.549748898E0
2.421029792E0,-1.972930908E0,-1.168025017E0,-6.486307144E0
2.426079948E0,-2.129606247E0,-1.165830612E0,-6.254316330E0
2.431130052E0,-2.236204624E0,-1.366669655E0,-5.758795261E0
2.436180209E0,-2.244607925E0,-1.855352402E0,-4.927302837E0
2.441230365E0,-2.055676222E0,-2.629829407E0,-3.675759792E0
2.446281355E0,-1.606946468E0,-3.650243759E0,-2.194457769E0
2.451331511E0,-9.967634678E-1,-4.642921448E0,-6.045057774E-1
2.456381667E0,-1.598927975E-1,-5.413167953E0,9.967494011E-1
2.461431771E0,1.086515665E0,-6.008931160E0,2.319680691E0
2.466481927E0,2.344211578E0,-6.313891411E0,2.811878920E0
2.471532084E0,3.235758305E0,-6.225708008E0,2.772797823E0
2.476583073E0,4.206415176E0,-5.985624313E0,2.609681845E0
2.481633230E0,4.731127739E0,-5.556351662E0,2.526607037E0
2.486683386E0,4.849237442E0,-4.930078506E0,2.459397554E0
2.491733490E0,4.849069595E0,-4.287276268E0,2.431810856E0
2.496783646E0,4.819295406E0,-3.667138100E0,2.678266764E0
2.501833802E0,4.783755302E0,-3.214142799E0,3.222493887E0
2.506884792E0,4.287387371E0,-2.763196945E0,3.958010912E0
2.511934948E0,3.527409077E0,-2.273000717E0,4.720948696E0
2.516985105E0,2.668338537E0,-1.834947586E0,5.272391319E0
2.522035209E0,1.679332256E0,-1.520540237E0,5.714758396E0
2.527085365E0,5.644853115E-1,-1.196440697E0,6.296684742E0
2.532135521E0,-4.066274166E-1,-9.143199921E-1,7.167370319E0
2.537186511E0,-1.184350014E0,-7.910633087E-1,7.977157593E0
2.542236667E0,-1.797754288E0,-6.682500839E-1,8.478406906E0
2.547286823E0,-2.429267883E0,-2.555179596E-1,8.506334305E0
2.552336927E0,-3.004416466E0,4.244575500E-1,7.795773983E0
2.557387084E0,-3.269944906E0,1.044411659E0,6.772090435E0
2.562437240E0,-3.135184050E0,1.534326553E0,5.202330589E0
2.567488177E0,-2.671242237E0,1.904154301E0,3.367516041E0
2.572538334E0,-2.066339016E0,2.078633785E0,1.767477989E0
2.577588490E0,-1.333606720E0,2.157466412E0,5.827417374E-1
2.582638594E0,-4.863545895E-1,2.205257893E0,-3.039493561E-1
2.587688750E0,5.470089912E-1,1.982417583E0,-1.182367325E0
2.592738907E0,1.524921417E0,1.784687996E0,-1.978691578E0
2.597789948E0,2.602157354E0,1.459440708E0,-2.344403267E0
2.602840105E0,3.605458021E0,1.050876141E0,-1.983147621E0
2.607890261E0,4.148406982E0,7.574481964E-1,-7.393312454E-1
2.612940365E0,4.584097862E0,5.067076683E-1,8.151812553E-1
2.617990521E0,4.758759975E0,4.338703156E-1,2.342950821E0
2.623040677E0,4.739587307E0,6.600689888E-1,3.700870037E0
2.628091615E0,4.647786140E0,1.180303574E0,4.749509335E0
2.633141771E0,4.397558212E0,1.807761192E0,5.590827942E0
2.638191927E0,4.060469151E0,2.607804298E0,6.167130947E0
2.643242032E0,3.753836632E0,3.370222807E0,6.379407406E0
2.648292188E0,3.412594318E0,4.090755463E0,6.370262146E0
2.653342344E0,2.955795527E0,4.913220406E0,6.104264259E0
2.658393386E0,2.650891066E0,5.466904640E0,5.872393608E0
2.663443646E0,2.458797693E0,5.895048618E0,5.552269936E0
2.668493907E0,2.369165897E0,6.275077343E0,5.222469330E0
2.673544167E0,2.348930359E0,6.298230171E0,4.825156212E0
2.678594427E0,2.059108257E0,6.182036877E0,4.541118145E0
2.683644688E0,1.736012936E0,5.942512035E0,4.426107407E0
2.688695052E0,1.330652475E0,5.513546467E0,4.263086319E0
2.693745313E0,1.247457027E0,4.868724823E0,4.243985176E0
2.698795573E0,1.063460827E0,4.300869942E0,4.287069321E0
2.703845834E0,8.618869781E-1,3.749505758E0,4.193920612E0
2.708896094E0,8.261904716E-1,3.180801868E0,4.164400578E0
2.713946355E0,8.650126457E-1,2.590615511E0,4.114513397E0
2.718996771E0,8.090162277E-1,2.175467014E0,3.946565390E0
2.724047032E0,5.466222763E-1,1.996102810E0,3.646927118E0
2.729097292E0,2.765798569E-1,1.919224739E0,3.393066168E0
2.734147552E0,1.550817490E-2,2.072508335E0,3.088231087E0
2.739197813E0,-1.070909500E-1,2.328376770E0,2.876008511E0
2.744248073E0,-1.266732216E-1,2.647822857E0,2.588760138E0
2.749298490E0,-3.316831589E-2,2.890139103E0,2.264882565E0
2.754348750E0,3.251676559E-1,3.068295479E0,1.808877945E0
2.759399011E0,7.493028641E-1,3.110636234E0,1.185089111E0
2.764449271E0,1.044750214E0,3.186989784E0,4.161477089E-1
2.769499532E0,1.151476383E0,3.155796051E0,-4.501872063E-1
2.774549792E0,1.223847389E0,3.100502968E0,-1.288735867E0
2.779600209E0,1.266065121E0,3.023913383E0,-2.345643044E0
2.784650469E0,1.376535892E0,2.876480103E0,-3.259313583E0
2.789700730E0,1.487965345E0,2.682740688E0,-3.938471317E0
2.794750990E0,1.432301998E0,2.607946634E0,-3.951841831E0
2.799801250E0,1.569888592E0,2.600180387E0,-4.512081146E0
2.804851511E0,1.706279039E0,2.653559685E0,-5.614321232E0
2.809901980E0,9.726238251E-1,2.846352339E0,-6.610973358E0
2.814952240E0,-2.995605469E-1,2.880284786E0,-6.770111084E0
2.820002500E0,-1.515438557E0,2.451136112E0,-3.604827881E0
2.825052761E0,-2.009316921E0,1.155223846E0,4.082909107E0
2.830103021E0,-1.507832527E0,-1.291033745E0,6.632196426E0
2.835153282E0,-1.015934706E0,-3.924181938E0,1.173996925E-1
2.840203646E0,-1.285519123E0,-6.214439869E0,-1.027760887E1
2.845253907E0,-2.512064695E0,-8.684367180E0,-1.841772461E1
2.850304167E0,-3.538101673E0,-1.158926010E1,-1.769803238E1
2.855354427E0,-4.042324066E0,-1.416648102E1,-8.095450401E0
2.860404688E0,-3.982278109E0,-1.476948643E1,3.660583496E0
2.865454948E0,-3.093308687E0,-1.255094910E1,1.117753029E1
2.870505417E0,-1.254671335E0,-7.992784977E0,1.176276875E1
2.875555677E0,-3.674888611E-1,-3.523170948E0,8.611530304E0
2.880605938E0,-3.084743023E-1,-6.100091934E-1,4.988125324E0
2.885656198E0,-3.418176174E-1,1.379291058E0,2.786731243E0
2.890706459E0,-4.347980022E-1,2.740720749E0,1.315178871E0
2.895756719E0,-5.370547771E-1,3.503695488E0,-6.766843796E-2
2.900807136E0,-4.927072525E-1,3.881895542E0,-1.154863358E0
2.905857396E0,-3.362662792E-1,3.890699625E0,-1.241917133E0
2.910907657E0,-1.722199917E-1,3.761066437E0,-5.646228790E-2
2.915957917E0,5.049562454E-2,3.351467133E0,1.912027836E0
2.921008177E0,-2.251863480E-3,2.855335236E0,3.444917917E0
2.926058438E0,-2.189764977E-1,2.236777782E0,3.607385874E0
2.931108855E0,-4.565198421E-1,1.618952274E0,2.992961407E0
2.936159115E0,-6.539070606E-1,9.070992470E-1,2.293984175E0
2.941209375E0,-7.356650829E-1,2.042989731E-1,1.597863436E0
2.946259636E0,-5.408048630E-1,-4.740133286E-1,9.949221611E-1
2.951309896E0,-5.152416229E-2,-1.361386299E0,3.788657188E-1
2.956360157E0,5.284132957E-1,-2.223412037E0,-1.393837929E-1
2.961450105E0,1.078059673E0,-2.920066357E0,-5.235667229E-1
2.966500365E0,1.417020679E0,-3.334320068E0,-4.596567154E-1
2.971550573E0,1.488837004E0,-3.622151375E0,-1.360406876E-1
2.976600834E0,1.397022724E0,-3.604246140E0,2.435045242E-1
2.981651094E0,1.213751912E0,-3.498713493E0,6.169118881E-1
2.986701355E0,9.998373985E-1,-3.255546570E0,9.298338890E-1
2.991712344E0,8.240926266E-1,-2.974673271E0,1.156421661E0
2.996762605E0,7.675324678E-1,-2.710622787E0,1.247990847E0
3.001812865E0,8.989411592E-1,-2.484992027E0,1.312650204E0
3.006863125E0,1.102017403E0,-2.330982208E0,1.306366444E0
3.011913386E0,1.214685678E0,-2.020156860E0,1.153023720E0
3.016963646E0,1.318321228E0,-1.627145767E0,9.405350685E-1
3.022014115E0,1.494249582E0,-1.225130081E0,8.101537228E-1
3.027064375E0,1.700640202E0,-8.537950516E-1,6.220762730E-1
3.032114636E0,1.851638317E0,-4.800586700E-1,4.309420586E-1
3.037164896E0,2.009327173E0,-1.136951447E-1,3.246121407E-1
3.042215157E0,2.153311253E0,3.579998016E-2,2.820966244E-1
3.047265417E0,2.252482414E0,6.552124023E-2,3.383531570E-1
3.052315886E0,2.138067722E0,6.165122986E-2,2.462215424E-1
3.057366146E0,2.087821722E0,-1.258659363E-2,4.310770035E-1
3.062416407E0,2.080745220E0,-2.179765701E-1,8.032846451E-1
3.067466667E0,1.933071852E0,-3.427057266E-1,1.013159275E0
3.072516927E0,1.818491220E0,-4.623508453E-1,1.088740110E0
3.077567188E0,1.741999984E0,-5.088100433E-1,1.115091562E0
3.082617657E0,1.658751845E0,-4.692020416E-1,1.165272236E0
3.087667917E0,1.548818588E0,-3.928356171E-1,1.182091236E0
3.092718177E0,1.454128742E0,-3.444204330E-1,1.095428348E0
3.097768438E0,1.276557803E0,-2.964935303E-1,8.593587875E-1
3.102818698E0,1.119025469E0,-1.235208511E-1,6.024556160E-1
3.107868959E0,8.238198757E-1,9.415340424E-2,4.302262068E-1
3.112919375E0,6.712043285E-1,3.087100983E-1,3.518725634E-1
3.117969636E0,5.187441111E-1,5.202455521E-1,3.132538795E-1
3.123019896E0,3.021136522E-1,7.611551285E-1,3.306405544E-1
3.128070157E0,5.851030350E-2,9.848709106E-1,2.876077890E-1
3.133120417E0,-9.878277779E-2,1.151985168E0,2.133907080E-1
3.138170677E0,-3.063986301E-1,1.278240204E0,1.198527813E-1
3.143221146E0,-4.794080257E-1,1.364895821E0,-5.837082863E-3
3.148271407E0,-6.347947121E-1,1.473047256E0,-1.514929533E-1
3.153321667E0,-8.146187067E-1,1.570430756E0,-2.918237448E-1
3.158371927E0,-9.577403069E-1,1.715630531E0,-3.774809837E-1
3.163422188E0,-1.140719414E0,1.796226501E0,-5.007135868E-1
3.168472448E0,-1.288933873E0,1.882775307E0,-6.752113104E-1
3.173562396E0,-1.503797054E0,2.017168999E0,-8.054451942E-1
3.178612969E0,-1.767415166E0,2.150025368E0,-9.857761860E-1
3.183663542E0,-1.987371683E0,2.270658493E0,-1.118252993E0
3.188714167E0,-2.205323458E0,2.350428581E0,-1.253156304E0
3.193764740E0,-2.333618164E0,2.413378716E0,-1.287992477E0
3.198815365E0,-2.459679127E0,2.497936249E0,-1.243962049E0
3.203824688E0,-2.498524189E0,2.555093765E0,-1.191942453E0
3.208875261E0,-2.473423004E0,2.465539932E0,-1.217018604E0
3.213925886E0,-2.344056129E0,2.431645393E0,-1.261583924E0
3.218976459E0,-2.132359505E0,2.320634842E0,-1.429676533E0
3.224027084E0,-1.945021749E0,2.205603600E0,-1.548840165E0
3.229077657E0,-1.780756593E0,2.116465569E0,-1.758036852E0
3.234126459E0,-1.637422323E0,2.024517059E0,-1.905105829E0
3.239177032E0,-1.466781020E0,1.896196842E0,-2.152297974E0
3.244227657E0,-1.300089717E0,1.773427010E0,-2.297088146E0
3.249278230E0,-1.116971254E0,1.678879261E0,-2.513520479E0
3.254328855E0,-8.913924694E-1,1.485774994E0,-2.669462442E0
3.259379427E0,-6.941608191E-1,1.359301567E0,-2.886199474E0
3.264467709E0,-4.260511398E-1,1.053034782E0,-3.019979477E0
3.269518282E0,-1.921043396E-1,7.372083664E-1,-3.081230402E0
3.274568855E0,2.399659157E-2,3.461723328E-1,-3.127665043E0
3.279619480E0,1.309581995E-1,-7.797241211E-2,-3.083465576E0
3.284670052E0,1.752495766E-1,-6.127891541E-1,-2.983248234E0
3.289720677E0,2.232817411E-1,-1.212490082E0,-2.746955395E0
3.294730000E0,3.390485048E-1,-1.645994186E0,-2.371370077E0
3.299780573E0,4.624236822E-1,-1.952904701E0,-2.002019882E0
3.304831198E0,6.265319586E-1,-1.967074394E0,-1.684401393E0
3.309881771E0,6.581133604E-1,-1.773880959E0,-1.357091665E0
3.314932396E0,5.840462446E-1,-1.466985703E0,-1.106840134E0
3.319982969E0,4.350914955E-1,-1.119660378E0,-8.431772590E-1
3.325031771E0,3.600623608E-1,-8.768119812E-1,-6.756467819E-1
3.330082344E0,4.033086300E-1,-7.312307358E-1,-6.793810725E-1
3.335132969E0,4.818774462E-1,-6.863822937E-1,-7.642326355E-1
3.340183542E0,5.907084942E-1,-8.473625183E-1,-9.215573072E-1
3.345234167E0,5.956020355E-1,-9.387750626E-1,-9.482186437E-1
3.350284740E0,5.777194500E-1,-1.169954300E0,-9.124184251E-1
3.355333542E0,5.176614523E-1,-1.366018295E0,-7.962559462E-1
3.360384115E0,5.320348740E-1,-1.592674255E0,-7.071031928E-1
3.365434740E0,4.926222563E-1,-1.839098930E0,-5.512846708E-1
3.370485313E0,4.504004717E-1,-2.125535965E0,-3.387982845E-1
3.375535938E0,4.398604631E-1,-2.460331917E0,-1.296332479E-1
3.380586511E0,4.763536453E-1,-2.843489647E0,9.787416458E-2
3.385635313E0,4.495668411E-1,-3.161407471E0,1.937916577E-1
3.390685886E0,4.071651697E-1,-3.493184090E0,8.339121938E-2
3.395736511E0,1.390678883E-1,-3.779129028E0,-1.619649231E-1
3.400787084E0,-2.428058386E-1,-4.079175949E0,-5.414606929E-1
3.405837709E0,-6.553657055E-1,-4.459080696E0,-9.403895736E-1
3.410888282E0,-1.014016032E0,-4.824258804E0,-1.232362747E0
3.415937084E0,-1.217588663E0,-5.201064110E0,-1.318534136E0
3.420987657E0,-9.393396378E-1,-5.618190765E0,-1.146482587E0
3.426038282E0,-2.272437811E-1,-6.103174210E0,-7.387658358E-1
3.431088855E0,7.803143263E-1,-6.737225533E0,-1.813393235E-1
3.436139480E0,1.723477840E0,-7.362142563E0,1.906266212E-1
3.441190052E0,2.222428560E0,-7.982629776E0,3.721855879E-1
3.446238907E0,2.192665577E0,-8.567639351E0,2.827157974E-1
3.451289480E0,1.519981384E0,-8.917815208E0,9.943830967E-2
3.456340105E0,5.435451269E-1,-9.094774246E0,-2.419493198E-1
3.461390677E0,-5.949168205E-1,-8.919617653E0,-7.570174336E-1
3.466441302E0,-1.905494690E0,-8.372675896E0,-1.342061877E0
3.471491875E0,-3.184133530E0,-7.610015869E0,-1.965895176E0
3.476540677E0,-4.142524719E0,-6.458441734E0,-2.485843658E0
3.481591250E0,-4.637404442E0,-4.974586487E0,-3.092794895E0
3.486641875E0,-4.634641171E0,-3.573624611E0,-3.436955929E0
3.491692448E0,-4.398718834E0,-2.211034775E0,-3.631437540E0
3.496743073E0,-3.902772903E0,-1.126986504E0,-3.664035797E0
3.501793646E0,-3.461771011E0,-1.480674744E-2,-3.604034901E0
3.506842448E0,-2.943966150E0,8.337945938E-1,-3.581935883E0
3.511893021E0,-2.547571659E0,1.585630417E0,-3.655785561E0
3.516943646E0,-2.133479595E0,2.050828934E0,-3.831232071E0
3.521994219E0,-1.945092916E0,2.317221165E0,-4.093492031E0
3.527044844E0,-1.807038426E0,2.172256470E0,-4.319339752E0
3.532095417E0,-1.646086097E0,1.488631248E0,-4.535292625E0
3.537144219E0,-1.142865062E0,3.882246017E-1,-4.815660000E0
3.542194792E0,-1.789551973E-1,-9.940690994E-1,-5.082304001E0
3.547245417E0,6.417511702E-1,-1.856421471E0,-5.385207176E0
3.552295990E0,1.439195514E0,-2.425607681E0,-5.883953094E0
3.557346615E0,2.173836708E0,-2.985304832E0,-6.462924480E0
3.562397188E0,2.828984976E0,-3.430185318E0,-7.220923424E0
3.567445990E0,3.318574190E0,-3.718507767E0,-7.922654629E0
3.572496563E0,3.620359898E0,-3.776506424E0,-8.602520943E0
3.577547188E0,3.715880871E0,-3.691010475E0,-9.213957787E0
3.582597761E0,3.727595568E0,-3.628918648E0,-9.597738266E0
3.587648386E0,3.812087536E0,-3.590795517E0,-9.814475060E0
3.592698959E0,3.982662439E0,-3.424178123E0,-9.721407890E0
3.597747813E0,4.132733822E0,-2.908661842E0,-9.388311386E0
3.602798386E0,4.120405197E0,-2.379186630E0,-9.055693626E0
3.607849011E0,3.918802023E0,-2.066421509E0,-8.962747574E0
3.612899584E0,3.616732597E0,-2.042949677E0,-8.519291878E0
3.617950209E0,3.351441145E0,-2.194147110E0,-7.244832993E0
3.623000782E0,3.189517260E0,-2.270296097E0,-4.520955563E0
3.628049584E0,2.986320496E0,-1.915105820E0,2.380356789E-1
3.633100157E0,2.949188232E0,-1.276947021E0,4.643206596E0
3.638150782E0,3.397256851E0,-9.675893784E-1,7.107990742E0
3.643201355E0,3.655340195E0,-9.705715179E-1,7.161700726E0
3.648251980E0,3.375591755E0,-1.524385452E0,5.830257416E0
3.653302552E0,2.720834255E0,-2.213224411E0,4.688369274E0
3.658351407E0,1.905334949E0,-2.641552925E0,4.720187187E0
3.663401980E0,1.246576905E0,-2.842185020E0,5.603652000E0
3.668452605E0,9.460296631E-1,-3.013543129E0,7.218679428E0
3.673503177E0,1.051269650E0,-3.165832520E0,1.094522572E1
3.678553802E0,1.409022331E0,-2.937538147E0,1.274556732E1
3.683604375E0,1.234351397E0,-2.328625679E0,1.194267368E1
3.688653177E0,4.724987745E-1,-1.518440247E0,1.052942848E1
3.693703230E0,-9.845559597E-1,-5.872364044E-1,8.866569519E0
3.698753282E0,-1.740713835E0,-1.518821716E-2,6.977883339E0
3.703803334E0,-1.669829965E0,3.430700302E-1,5.494557858E0
3.708853386E0,-1.302407384E0,6.269655228E-1,4.779646873E0
3.713903386E0,-7.989796400E-1,8.821525574E-1,4.227479935E0
3.718954948E0,-2.021498680E-1,9.948673248E-1,3.304628849E0
3.724005000E0,2.792193890E-1,1.034121513E0,2.239751816E0
3.729055052E0,5.277214050E-1,1.218353271E0,1.190006256E0
3.734105105E0,5.472730398E-1,1.430624962E0,1.904144287E-1
3.739155157E0,5.105915070E-1,1.597470760E0,-6.298713684E-1
3.744205157E0,4.163490534E-1,1.805275917E0,-1.109880686E0
3.749256771E0,1.275613308E-1,2.112178326E0,-1.407145739E0
3.754306823E0,-1.108796597E-1,2.476844788E0,-1.683879614E0
3.759356875E0,-1.768887043E-1,2.738239765E0,-1.765663385E0
3.764406927E0,-4.755091667E-2,2.867571354E0,-2.258930206E0
3.769456980E0,3.142356873E-2,2.842863083E0,-3.376604319E0
3.774506980E0,4.761695862E-2,2.777636051E0,-4.687975883E0
3.779558594E0,9.104752541E-2,2.696950912E0,-5.107520103E0
3.784608646E0,4.100902081E-1,2.631879330E0,-4.163851738E0
3.789658698E0,8.717941046E-1,2.672953606E0,-2.414078712E0
3.794708750E0,1.355159521E0,2.785374641E0,-1.769435406E-1
3.799758802E0,1.617257833E0,2.953549862E0,1.983110428E0
3.804808802E0,1.694934368E0,3.206902027E0,3.788702488E0
3.809860365E0,1.564113855E0,3.631805420E0,5.075763702E0
3.814910417E0,1.414599895E0,4.142159462E0,5.923619747E0
3.819960469E0,1.136882067E0,4.752233982E0,6.224765778E0
3.825010521E0,9.777405262E-1,5.227892399E0,6.126318932E0
3.830060573E0,1.038623452E0,5.528104782E0,6.018715858E0
3.835110573E0,1.070881367E0,5.669760704E0,5.824653625E0
3.840162188E0,1.213788748E0,5.605495453E0,5.467927933E0
3.845212240E0,1.315792799E0,5.447540760E0,5.109561920E0
3.850262292E0,1.349372387E0,5.221821785E0,4.621375084E0
3.855312344E0,1.367887497E0,4.893411636E0,4.347182274E0
3.860362396E0,1.270630360E0,4.490642071E0,4.286178112E0
3.865412396E0,1.138901114E0,4.131380558E0,4.089813232E0
3.870463959E0,9.885139465E-1,3.856687546E0,3.807130337E0
3.875514011E0,9.053430557E-1,3.646756649E0,3.835668087E0
3.880564063E0,7.857615948E-1,3.472173214E0,3.929842234E0
3.885614115E0,5.924837589E-1,3.434865952E0,3.979861736E0
3.890664167E0,3.802862167E-1,3.481229782E0,3.956093073E0
3.895714167E0,2.273671627E-1,3.579129219E0,3.873663902E0
3.900765782E0,6.125402451E-2,3.720493793E0,3.808412790E0
3.905815834E0,-1.740057468E-1,3.984274864E0,3.614294529E0
3.910865886E0,-4.178357124E-1,4.209773064E0,3.322766781E0
3.915915938E0,-4.679124355E-1,4.390972137E0,3.074043512E0
3.920965990E0,-4.663724899E-1,4.499868393E0,2.762353897E0
3.926015990E0,-3.756873608E-1,4.438967705E0,2.495195627E0
3.931067552E0,-1.825196743E-1,4.142310143E0,2.251485109E0
3.936117605E0,1.651220322E-1,3.912192345E0,2.112071753E0
3.941167657E0,5.692138672E-1,3.659964085E0,1.814196110E0
3.946217709E0,1.065565348E0,3.095214844E0,1.414482117E0
3.951267761E0,1.614454269E0,2.630960941E0,9.091024399E-1
3.956317761E0,2.097792149E0,2.183159828E0,3.850479126E-1
3.961369375E0,2.552888632E0,1.754158020E0,-2.671055794E-1
3.966419427E0,3.044444084E0,1.239811897E0,-9.161119461E-1
3.971469480E0,3.293389559E0,7.381763458E-1,-1.694885254E0
3.976519532E0,3.363571644E0,1.463909149E-1,-2.507090569E0
3.981569584E0,3.150454521E0,-4.781589508E-1,-3.324623108E0
3.986619584E0,2.704536438E0,-1.165323257E0,-4.175121307E0
3.991671198E0,2.026744127E0,-1.736776352E0,-4.977773666E0
3.996721250E0,1.203919053E0,-2.137649536E0,-5.553097248E0
4.001771302E0,3.920052052E-1,-2.383768082E0,-5.844241142E0
4.006821355E0,-3.021802902E-1,-2.483998299E0,-5.894402981E0
4.011871407E0,-9.066107273E-1,-2.198837280E0,-5.875146389E0
4.016921407E0,-1.283519745E0,-1.792718887E0,-5.800046444E0
4.021973021E0,-1.420474052E0,-1.310741425E0,-5.622581959E0
4.027023073E0,-1.472215414E0,-8.255596161E-1,-5.363183022E0
4.032073125E0,-1.460141778E0,-4.036035538E-1,-5.003845215E0
4.037123177E0,-1.454367518E0,-2.410984039E-2,-4.744005203E0
4.042173230E0,-1.432208419E0,2.227067947E-1,-4.315450668E0
4.047223230E0,-1.291491747E0,3.702564240E-1,-3.695256710E0
4.052274792E0,-9.785805941E-1,4.772806168E-1,-2.964274883E0
4.057324844E0,-5.218682289E-1,3.254051208E-1,-2.092771053E0
4.062374896E0,-8.877897263E-2,-1.796302795E-1,-1.489524841E0
4.067424948E0,2.945744991E-1,-6.531820297E-1,-1.114226341E0
4.072475000E0,4.298512936E-1,-1.333065033E0,-1.188131332E0
4.077525000E0,2.800658941E-1,-1.924861908E0,-1.521430016E0
4.082576615E0,-7.800483704E-2,-2.311051369E0,-2.168357849E0
4.087626667E0,-6.757633686E-1,-2.531151772E0,-3.393022060E0
4.092676719E0,-9.635789394E-1,-2.803765297E0,-5.167768478E0
4.097726771E0,-9.714093208E-1,-3.245299339E0,-6.940392017E0
4.102776823E0,-4.207105637E-1,-4.013458252E0,-7.673214912E0
4.107826823E0,7.215588093E-1,-4.965743065E0,-6.845391750E0
4.112878438E0,1.968101978E0,-5.618161201E0,-4.188265324E0
4.117928490E0,2.673823595E0,-5.547540665E0,-7.072939873E-1
4.122978542E0,2.458780289E0,-4.734419823E0,2.685299635E0
4.128028594E0,1.416225433E0,-3.325501442E0,6.049443245E0
4.133078646E0,-1.784076691E-1,-1.727046013E0,9.186859131E0
4.138128646E0,-2.140196085E0,-3.243293762E-1,1.142404556E1
4.143180261E0,-4.271487236E0,6.668004990E-1,1.211250401E1
4.148230313E0,-6.415623665E0,1.138854980E0,1.095798302E1
4.153280365E0,-8.555436134E0,1.152420998E0,8.422740936E0
4.158330417E0,-1.067974281E1,1.128482819E0,5.528120041E0
4.163380469E0,-1.247073174E1,1.169474602E0,2.682974815E0
4.168430469E0,-1.239142609E1,1.213986397E0,1.034440279E0
4.173482032E0,-9.287920952E0,7.105484009E-1,5.130598545E-1
4.178532084E0,-5.328702450E0,6.275653839E-2,3.051755428E-1
4.183582136E0,-2.053675652E0,-5.840740204E-1,2.979216576E-1
4.188632188E0,3.916807175E-1,-1.252362251E0,8.800148964E-1
4.193682240E0,2.093640804E0,-1.789198875E0,2.074016571E0
4.198732240E0,3.080262661E0,-2.118732452E0,3.209823132E0
4.203783907E0,3.600163460E0,-2.387762070E0,3.777473688E0
4.208834167E0,3.826738834E0,-2.544483185E0,3.706244469E0
4.213884427E0,3.989867687E0,-2.594801903E0,3.167488337E0
4.218934636E0,4.071005344E0,-2.570511818E0,2.638132095E0
4.223984896E0,4.295391083E0,-2.466904640E0,2.069524527E0
4.229035157E0,4.667317390E0,-2.356279373E0,1.859830618E0
4.234085677E0,5.149888992E0,-2.377271652E0,1.917102575E0
4.239135938E0,5.611661911E0,-2.408439636E0,2.060920715E0
4.244186198E0,5.900872231E0,-2.475687027E0,2.291879177E0
4.249236407E0,6.069732666E0,-2.524858475E0,2.573441267E0
4.254286667E0,6.015888691E0,-2.428957939E0,2.717445850E0
4.259336927E0,5.829286575E0,-2.177498817E0,2.769586086E0
4.264387500E0,5.442809582E0,-1.843869209E0,2.637344837E0
4.269437761E0,4.981352806E0,-1.482297897E0,2.345484734E0
4.274488021E0,4.528154373E0,-1.224509239E0,2.148507833E0
4.279538230E0,4.060280323E0,-1.010651588E0,1.915075541E0
4.284588490E0,3.662476063E0,-8.549995422E-1,1.876140952E0
4.289638750E0,3.184336662E0,-6.297063828E-1,2.055832386E0
4.294689375E0,2.658301353E0,-5.467891693E-1,1.923500657E0
4.299739636E0,2.052803993E0,-3.670701981E-1,1.715777040E0
4.304789896E0,1.532928705E0,-2.246246338E-1,1.580050230E0
4.309840105E0,1.140119433E0,-1.432838440E-1,1.367006540E0
4.314890365E0,6.945585012E-1,5.308341980E-2,1.315413237E0
4.319940625E0,3.791230917E-1,1.252737045E-1,1.282079101E0
4.324991198E0,7.651722431E-2,2.494201660E-1,1.165695548E0
4.330041459E0,-2.053697109E-1,3.416433334E-1,1.113028169E0
4.335091719E0,-4.422793388E-1,3.337812424E-1,1.029002666E0
4.340141927E0,-5.836532116E-1,2.700424194E-1,9.069793820E-1
4.345192188E0,-7.263545990E-1,2.245845795E-1,7.795447111E-1
4.350242448E0,-8.597853184E-1,1.410980225E-1,4.834710360E-1
4.355293021E0,-1.159962654E0,2.677249908E-2,2.038127780E-1
4.360343282E0,-1.251303196E0,-6.210803986E-2,-2.061510086E-1
4.365393542E0,-1.315773964E0,-1.191902161E-2,-3.885514736E-1
4.370443750E0,-1.188166261E0,9.341335297E-2,-5.767544508E-1
4.375494011E0,-9.869631529E-1,2.717380524E-1,-5.741601586E-1
4.380544271E0,-6.464622021E-1,2.956628799E-1,-8.072876930E-1
4.385594844E0,-5.453951359E-1,4.189109802E-1,-9.368526340E-1
4.390645105E0,-5.013079643E-1,5.229501724E-1,-1.028803825E0
4.395695365E0,-3.214870691E-1,5.923175812E-1,-1.110700488E0
4.400745573E0,-2.048356533E-1,5.781183243E-1,-1.265356302E0
4.405795834E0,-2.515256405E-2,5.835275650E-1,-1.244372249E0
4.410846094E0,2.586848736E-1,4.962520599E-1,-1.129958391E0
4.415896667E0,5.072953701E-1,3.871116638E-1,-1.115496397E0
4.420946927E0,7.068615556E-1,2.538757324E-1,-1.202215672E0
4.425997188E0,8.415310383E-1,1.875562668E-1,-1.328628659E0
4.431047396E0,9.445934892E-1,1.151618958E-1,-1.439684987E0
4.436097657E0,9.166889191E-1,1.491765976E-1,-1.514975667E0
4.441147917E0,8.042374849E-1,2.797822952E-1,-1.537990928E0
4.446198490E0,7.235118151E-1,3.764533997E-1,-1.595962405E0
4.451248750E0,6.306678057E-1,4.619073868E-1,-1.760519266E0
4.456299011E0,6.182758212E-1,5.097837448E-1,-1.803203940E0
4.461349219E0,6.063183546E-1,6.026544571E-1,-1.794542074E0
4.466399480E0,7.323230505E-1,5.526905060E-1,-1.777427197E0
4.471449740E0,9.049242735E-1,4.941253662E-1,-1.664373636E0
4.476500313E0,9.733348489E-1,4.964008331E-1,-1.492030978E0
4.481550573E0,9.900912046E-1,4.757633209E-1,-1.282202482E0
4.486600834E0,8.896527886E-1,4.764986038E-1,-1.028969407E0
4.491651042E0,8.009839058E-1,3.885602951E-1,-7.211217880E-1
4.496701302E0,6.024414301E-1,4.536228180E-1,-3.317298889E-1
4.501751563E0,3.863278627E-1,5.290775299E-1,3.420203924E-2
4.506802188E0,1.490669250E-1,6.363687515E-1,3.423420191E-1
4.511852448E0,-1.211370230E-1,7.622280121E-1,6.043352485E-1
4.516902709E0,-4.660884142E-1,8.838243484E-1,7.910119891E-1
4.521952917E0,-6.947811842E-1,9.341888428E-1,9.165976644E-1
4.527003177E0,-8.435469866E-1,8.858957291E-1,8.579500318E-1
4.532053438E0,-9.758201838E-1,8.527336121E-1,6.326928139E-1
4.537104011E0,-1.037865758E0,6.767978668E-1,3.275206089E-1
4.542154271E0,-1.052489877E0,5.197896957E-1,-3.311681747E-2
4.547204532E0,-1.037832499E0,2.860221863E-1,-4.393017888E-1
4.552254740E0,-9.770325422E-1,6.647777557E-2,-8.622587919E-1
4.557305000E0,-7.889765501E-1,-1.782913208E-1,-1.369929075E0
4.562355261E0,-6.095390320E-1,-3.741712570E-1,-1.907111645E0
4.567405834E0,-5.514283180E-1,-5.452528000E-1,-2.508360863E0
4.572456094E0,-5.849548578E-1,-6.232938766E-1,-3.331500769E0
4.577506355E0,-7.947747707E-1,-6.801090240E-1,-3.878488541E0
4.582556563E0,-1.134318352E0,-7.993087769E-1,-4.234576702E0
4.587606823E0,-1.479789257E0,-8.598785400E-1,-4.141034126E0
4.592657084E0,-1.815351963E0,-8.834285736E-1,-3.650040865E0
4.597707657E0,-2.117687941E0,-9.058074951E-1,-2.855604649E0
4.602757917E0,-2.415084839E0,-1.004864693E0,-2.015257835E0
4.607808177E0,-2.664112568E0,-1.111125946E0,-1.176380873E0
4.612858386E0,-2.726751804E0,-1.163566589E0,-7.688927650E-1
4.617908646E0,-2.663444281E0,-9.921636581E-1,-8.381072283E-1
4.622958907E0,-2.531177044E0,-7.489700317E-1,-1.388369322E0
4.628009532E0,-2.217938662E0,-5.296955109E-1,-2.200494766E0
4.633059792E0,-1.709028006E0,-4.731082916E-1,-2.793098927E0
4.638110052E0,-1.034534812E0,-6.831359863E-1,-3.159534454E0
4.643160261E0,-2.228049040E-1,-1.056681633E0,-3.302208424E0
4.648210521E0,6.063294411E-1,-1.579127312E0,-3.223185062E0
4.653260782E0,1.295083761E0,-2.201115608E0,-3.025818348E0
4.658311355E0,1.898821115E0,-2.855238914E0,-2.816181898E0
4.663361615E0,2.387120247E0,-3.532831192E0,-2.694163084E0
4.668411875E0,2.894645691E0,-4.245624542E0,-2.691630363E0
4.673462084E0,3.384007931E0,-5.123895645E0,-2.823970079E0
4.678512344E0,3.918328047E0,-6.133928299E0,-3.197715998E0
4.683562605E0,4.580743790E0,-6.933319092E0,-3.738367558E0
4.688613177E0,5.359051228E0,-7.547213554E0,-4.332229137E0
4.693663438E0,6.204794407E0,-7.790078163E0,-4.895383835E0
4.698713698E0,6.962802887E0,-7.884567261E0,-5.261742115E0
4.703763907E0,7.595427990E0,-7.979023933E0,-5.354371071E0
4.708814167E0,8.014515877E0,-7.958539963E0,-5.119819164E0
4.713864427E0,8.243741989E0,-7.732247353E0,-4.730021477E0
4.718915052E0,8.289077759E0,-7.305249214E0,-4.217047215E0
4.723965365E0,8.078281403E0,-6.760579109E0,-3.717038631E0
4.729015625E0,7.487739086E0,-6.030741692E0,-3.168924809E0
4.734065938E0,6.675487518E0,-5.034047127E0,-2.523736000E0
4.739116250E0,5.699260235E0,-3.724864006E0,-2.007827282E0
4.744166511E0,4.705012321E0,-2.382952690E0,-1.666662931E0
4.749216875E0,3.646348238E0,-1.138045311E0,-1.431876063E0
4.754267188E0,2.581188440E0,-1.628313065E-1,-1.351326227E0
4.759317448E0,1.422285676E0,6.346473694E-1,-1.430708885E0
4.764367761E0,2.994134426E-1,1.344972610E0,-1.587891817E0
4.769418073E0,-8.769438267E-1,1.936512947E0,-1.828646779E0
4.774468334E0,-1.932126760E0,2.342947960E0,-1.919757366E0
4.779518750E0,-2.768749237E0,2.457365513E0,-1.803350329E0
4.784569063E0,-3.328487635E0,2.292674541E0,-1.514550328E0
4.789619323E0,-3.626830578E0,1.877495766E0,-1.143858433E0
4.794669636E0,-3.331007957E0,1.226573944E0,-7.855907679E-1
4.799719948E0,-2.737126350E0,3.944005966E-1,-5.277612209E-1
4.804770209E0,-2.138613224E0,-4.722156525E-1,-2.108607888E-1
4.809820573E0,-1.628201485E0,-1.377158165E0,2.316843271E-1
4.814870886E0,-1.177003860E0,-2.332870483E0,6.650846601E-1
4.819921146E0,-1.174052954E0,-2.856979370E0,6.103716493E-1
4.824971459E0,-8.448863029E-1,-3.397092819E0,5.120686293E-1
4.830021771E0,-3.944253922E-2,-4.167895317E0,2.125531435E-1
4.835072032E0,9.753837585E-1,-4.993702888E0,6.598472595E-3
4.840122396E0,2.132640362E0,-5.663062096E0,4.161596298E-3
4.845172709E0,3.130183935E0,-6.249458313E0,2.308437824E-1
4.850222969E0,4.065765858E0,-6.854002953E0,7.322607040E-1
4.855273282E0,4.500809669E0,-7.089945793E0,1.247042775E0
4.860323594E0,4.516322136E0,-7.117942810E0,2.098829269E0
4.865373855E0,4.456063271E0,-6.986466408E0,3.099852562E0
4.870424271E0,4.603657246E0,-6.729288101E0,4.844756126E0
4.875474584E0,5.225050926E0,-6.424030304E0,4.637099743E0
4.880524844E0,5.450296402E0,-5.776011467E0,4.837319374E0
4.885575157E0,5.610505581E0,-4.911448479E0,5.572331429E0
4.890625469E0,5.689038754E0,-4.052875519E0,6.267056465E0
4.895675730E0,5.464456558E0,-3.439738274E0,6.715221405E0
4.900726094E0,4.689089775E0,-2.690882683E0,7.014425755E0
4.905776407E0,3.773616314E0,-1.825221062E0,7.069134712E0
4.910826667E0,3.154018402E0,-1.125522614E0,6.892354488E0
4.915876980E0,2.971173048E0,-5.807275772E-1,6.496840954E0
4.920927292E0,2.911606550E0,-2.264699936E-1,5.803684235E0
4.925977552E0,2.865807533E0,2.840423584E-2,4.939753056E0
4.931027969E0,2.927256823E0,8.972930908E-2,4.430321217E0
4.936078282E0,3.038844824E0,-3.114891052E-2,4.166808605E0
4.941128542E0,3.181795120E0,-2.427358627E-1,3.858994484E0
4.946178855E0,3.334290504E0,-4.570531845E-1,3.745131016E0
4.951229167E0,3.388266087E0,-6.650400162E-1,3.700608492E0
4.956279427E0,3.314904213E0,-8.087425232E-1,3.669488430E0
4.961329792E0,3.104302406E0,-8.530235291E-1,3.353319645E0
4.966380105E0,2.980812311E0,-9.791479111E-1,2.986206293E0
4.971430365E0,2.875468254E0,-1.045024872E0,2.749103546E0
4.976480677E0,2.736350060E0,-1.067035675E0,2.547096729E0
4.981530990E0,2.496591091E0,-9.323883057E-1,2.371944666E0
4.986581250E0,2.256417274E0,-6.829910278E-1,2.313550949E0
4.991671094E0,1.997249842E0,-3.168830872E-1,2.582810640E0
4.996721355E0,1.593112111E0,1.886825562E-1,2.858217478E0
5.001771667E0,1.206692696E0,7.589254379E-1,3.208416700E0
5.006821980E0,8.624776602E-1,1.352916718E0,3.570075512E0
5.011872240E0,5.346934795E-1,1.910390854E0,3.812160492E0
5.016922552E0,2.260596752E-1,2.401277542E0,4.039181709E0
5.021933490E0,4.105401039E-2,2.845708847E0,4.273050785E0
5.026983802E0,-1.551842690E-1,3.256483078E0,4.517896175E0
5.032034063E0,-2.679164410E-1,3.683721542E0,4.716501713E0
5.037084375E0,-3.774888515E-1,4.055335045E0,4.844375610E0
5.042134688E0,-4.348747730E-1,4.348642349E0,4.978239536E0
5.047184948E0,-4.783232212E-1,4.689017296E0,5.054014206E0
5.052235313E0,-5.300970078E-1,4.962804794E0,5.024201393E0
5.057285625E0,-5.566632748E-1,5.108690262E0,5.034329414E0
5.062335886E0,-5.777728558E-1,5.231018543E0,4.974389553E0
5.067386198E0,-5.761091709E-1,5.216409683E0,4.923326015E0
5.072436511E0,-5.140726566E-1,5.071356773E0,4.914356709E0
5.077486771E0,-5.611109734E-1,4.805867672E0,4.787001133E0
5.082537188E0,-6.973869801E-1,4.393890381E0,4.557059288E0
5.087587500E0,-8.465719223E-1,3.898999214E0,4.222423553E0
5.092637761E0,-1.013937712E0,3.359543324E0,3.870815277E0
5.097688073E0,-1.210701227E0,2.778203011E0,3.475717068E0
5.102738386E0,-1.396159410E0,2.096764565E0,3.117865562E0
5.107788646E0,-1.621556997E0,1.384946823E0,2.751211166E0
5.112839011E0,-1.918899775E0,8.480119705E-1,2.530896187E0
5.117889323E0,-2.168996572E0,2.400746346E-1,2.275960445E0
5.122939584E0,-2.249919176E0,-6.086454391E-1,1.996676922E0
5.127989896E0,-2.371313334E0,-1.365757942E0,1.674927711E0
5.133040209E0,-2.339310169E0,-1.866741180E0,1.489952087E0
5.138090469E0,-2.066526890E0,-2.167604446E0,9.445049763E-1
5.143140886E0,-1.731790304E0,-2.272449493E0,2.489910126E-1
5.148191198E0,-1.267485857E0,-2.217453003E0,-4.400691986E-1
5.153241459E0,-9.185471535E-1,-1.870028496E0,-1.160124302E0
5.158291771E0,-6.023745537E-1,-1.290211678E0,-1.778044701E0
5.163342084E0,-5.178179741E-1,-6.607856750E-1,-2.167998314E0
5.168392344E0,-4.435718060E-1,6.630802155E-2,-2.599820137E0
5.173442709E0,-1.801657677E-1,8.002300262E-1,-3.098844051E0
5.178493021E0,7.765221596E-2,1.322624207E0,-3.859059334E0
5.183543282E0,4.747132063E-1,1.597093582E0,-4.792601585E0
5.188593594E0,7.818129063E-1,1.366909981E0,-5.656558514E0
5.193643907E0,1.258287907E0,8.127889633E-1,-6.398296356E0
5.198694167E0,1.722334981E0,1.895723343E-1,-6.866003990E0
5.203744532E0,2.286170244E0,-3.281507492E-1,-7.118164539E0
5.208794844E0,2.787131786E0,-6.997280121E-1,-7.118805885E0
5.213845105E0,3.249031544E0,-9.992828369E-1,-6.890691280E0
5.218895417E0,3.568702221E0,-1.217033386E0,-6.396841049E0
5.223945730E0,3.772597790E0,-1.255540848E0,-5.711205482E0
5.228995990E0,3.819490433E0,-1.151552200E0,-4.819259644E0
5.234046407E0,3.815873623E0,-1.074330330E0,-3.948840618E0
5.239096719E0,3.639687061E0,-7.898988724E-1,-3.045576572E0
5.244147032E0,3.365712643E0,-4.630231857E-1,-2.545090199E0
5.249197344E0,2.962075949E0,-3.218469620E-1,-2.343747139E0
5.254247605E0,2.497278214E0,-3.312816620E-1,-2.124593258E0
5.259297917E0,1.941848040E0,-5.519962311E-1,-1.834327221E0
5.264387761E0,1.558437347E0,-1.189887047E0,-1.278601646E0
5.269438021E0,1.377882361E0,-2.355787277E0,-6.421093941E-1
5.274488334E0,1.163888454E0,-3.897395134E0,-9.552001953E-3
5.279538646E0,8.121807575E-1,-5.536711693E0,5.296134949E-1
5.284588959E0,5.167523623E-1,-7.134684563E0,4.614963531E-1
5.289639271E0,4.176102877E-1,-8.486189842E0,-1.419506073E-1
5.294650105E0,9.085820913E-1,-9.237942696E0,-8.571753502E-1
5.299700417E0,2.120315313E0,-9.072227478E0,-1.290271759E0
5.304750730E0,3.173963308E0,-8.079509735E0,-1.470362186E0
5.309801042E0,3.143986702E0,-6.720849037E0,-1.487823963E0
5.314851302E0,2.490191460E0,-5.356280327E0,-2.573232651E-1
5.319901615E0,1.254393339E0,-3.908576965E0,3.235803127E0
5.324951980E0,-1.263990402E-1,-2.544498444E0,9.573883057E0
5.330002292E0,-2.356866837E0,-1.517775536E0,1.594473457E1
5.335052605E0,-5.261036396E0,-1.382812500E0,1.731158447E1
5.340102917E0,-8.452879906E0,-1.900074959E0,1.499617958E1
5.345153177E0,-1.281919479E1,-2.411154747E0,9.257704735E0
5.350203490E0,-1.895098495E1,-2.099250793E0,8.104310036E-1
5.355253802E0,-2.050097847E1,-6.924285889E-1,2.422525883E-1
5.360304115E0,-1.601859474E1,6.399736404E-1,1.135254860E0
5.365354427E0,-1.054654980E1,1.693008900E0,2.862074375E0
5.370404740E0,-6.437232971E0,2.430648804E0,3.952797651E0
5.375455000E0,-3.204932213E0,2.772528648E0,4.367694378E0
5.380505313E0,-7.174103260E-1,3.006395340E0,4.381228924E0
5.385555677E0,1.114468336E0,2.961972713E0,3.506996393E0
5.390605990E0,2.395112753E0,2.541173935E0,2.180105209E0
5.395656302E0,3.328193426E0,1.875928879E0,1.542961597E0
5.400706615E0,4.215406418E0,1.081518650E0,1.803771734E0
5.405756875E0,5.238703728E0,1.083278656E-1,2.588799238E0
5.410807188E0,6.306485176E0,-1.010143280E0,3.689655066E0
5.415857552E0,7.422590256E0,-2.230510712E0,5.108074188E0
5.420907865E0,8.492785454E0,-3.481720924E0,6.986922264E0
5.425958177E0,9.378643036E0,-4.562554359E0,8.803468704E0
5.431008490E0,9.965560913E0,-5.416443825E0,9.788015366E0
5.436058750E0,9.835803986E0,-5.916992188E0,9.549798965E0
5.441109063E0,8.680706024E0,-5.879979134E0,8.006530762E0
5.446159375E0,6.915155888E0,-5.210369110E0,5.651908875E0
5.451209688E0,5.127544880E0,-4.250604630E0,3.991033077E0
5.456260000E0,3.855483055E0,-3.327186584E0,3.601060152E0
5.461310313E0,2.977411270E0,-2.507424355E0,3.955306768E0
5.466360573E0,2.186318159E0,-1.743171692E0,4.031751156E0
5.471410886E0,1.508808136E0,-1.173739433E0,3.774370670E0
5.476461250E0,8.075031042E-1,-6.924791336E-1,3.316264153E0
5.481511563E0,9.672808647E-2,-2.316951752E-1,2.556022406E0
5.486561875E0,-4.078613520E-1,1.886358261E-1,1.887293816E0
5.491612188E0,-8.881440163E-1,4.840278625E-1,1.142364025E0
5.496662448E0,-1.259680390E0,6.610689163E-1,5.076894760E-1
5.501712761E0,-1.595939636E0,8.437786102E-1,2.424979210E-2
5.506763125E0,-1.859322667E0,1.041361809E0,-3.773455620E-1
5.511813438E0,-2.055571318E0,1.113736153E0,-6.068320274E-1
5.516863750E0,-2.148739338E0,1.083877563E0,-6.058257818E-1
5.521914063E0,-2.258541822E0,9.533128738E-1,-4.565669298E-1
5.527035365E0,-2.629849911E0,8.672752380E-1,-4.469664097E-1
5.532085677E0,-2.856702089E0,8.478412628E-1,-3.841778040E-1
5.537135938E0,-2.939172745E0,8.916549683E-1,-5.938521624E-1
5.542186250E0,-2.920467854E0,9.329233170E-1,-7.312885523E-1
5.547236563E0,-2.812413692E0,9.333763123E-1,-8.874363899E-1
5.552215886E0,-2.717831612E0,9.276418686E-1,-1.173681617E0
5.557266198E0,-2.490415096E0,7.726230621E-1,-1.457797408E0
5.562316511E0,-2.113736629E0,6.287298203E-1,-1.737609506E0
5.567366823E0,-1.624351144E0,5.462255478E-1,-2.057916164E0
5.572417084E0,-1.064458489E0,3.623561859E-1,-2.272053719E0
5.577467396E0,-5.352828503E-1,1.061220169E-1,-2.355072498E0
5.582517761E0,-1.441884041E-2,-2.952537537E-1,-2.242484093E0
5.587568073E0,5.247778893E-1,-6.763257980E-1,-2.050652027E0
5.592618386E0,1.003896236E0,-9.891071320E-1,-1.832679033E0
5.597668698E0,1.351980448E0,-1.245537758E0,-1.631815910E0
5.602718959E0,1.490273952E0,-1.321247101E0,-1.366836309E0
5.607769271E0,1.512675047E0,-1.230772018E0,-1.035236120E0
5.612819584E0,1.357739091E0,-9.839181900E-1,-6.677252054E-1
5.617869896E0,1.026256561E0,-6.849784851E-1,-3.371092677E-1
5.622920209E0,5.590170026E-1,-3.173904419E-1,-1.897658408E-1
5.627970521E0,1.022287607E-1,1.943683624E-2,-2.121787369E-1
5.633020782E0,-2.688745260E-1,3.410816193E-1,-3.797867000E-1
5.638071094E0,-6.094089746E-1,5.937166214E-1,-7.542871237E-1
5.643121459E0,-9.758336544E-1,8.420352936E-1,-1.288169980E0
5.648171771E0,-1.192550302E0,1.047798157E0,-1.834814668E0
5.653222084E0,-1.381420135E0,1.223005295E0,-2.396578074E0
5.658272396E0,-1.489508748E0,1.386820793E0,-2.811759472E0
5.663322657E0,-1.532230616E0,1.529689789E0,-3.182130098E0
5.668372969E0,-1.485413790E0,1.699486732E0,-3.439222813E0
5.673423334E0,-1.456321716E0,1.848305702E0,-3.577167988E0
5.678473646E0,-1.238841057E0,1.890048027E0,-3.616390228E0
5.683523959E0,-1.004462600E0,1.719616890E0,-3.434170246E0
5.688574271E0,-6.764781475E-1,1.437759399E0,-3.258593559E0
5.693624532E0,-3.107823133E-1,1.015998840E0,-3.070234299E0
5.698674844E0,1.862163544E-1,6.089191437E-1,-2.914531946E0
5.703725157E0,4.976062775E-1,2.524929047E-1,-2.793693542E0
5.708775469E0,7.292540073E-1,-1.011180878E-1,-2.657673836E0
5.713825782E0,9.054673910E-1,-3.370418549E-1,-2.330502987E0
5.718876094E0,9.877997637E-1,-5.081510544E-1,-1.834670782E0
5.723926355E0,1.059941053E0,-5.333185196E-1,-1.315837383E0
5.728976667E0,9.795892239E-1,-3.302850723E-1,-1.047062397E0
5.734027032E0,7.991976738E-1,8.739948273E-2,-1.085879922E0
5.739077344E0,5.441045761E-1,6.070308685E-1,-1.386279941E0
5.744127657E0,2.304370999E-1,1.155585289E0,-1.776513100E0
5.749177969E0,-1.866149306E-1,1.724740982E0,-2.066616297E0
5.754228230E0,-5.574114919E-1,2.084917068E0,-2.048404217E0
5.759278542E0,-7.260103822E-1,2.243635178E0,-1.777122974E0
5.764328855E0,-8.077533841E-1,2.208356857E0,-1.320805550E0
5.769379167E0,-6.600799561E-1,1.955425262E0,-7.344899178E-1
5.774429480E0,-4.767606854E-1,1.592723846E0,-1.215196848E-1
5.779479792E0,-2.631936669E-1,1.056956291E0,3.497486115E-1
5.784530052E0,-5.222529173E-2,4.440212250E-1,5.676263571E-1
5.789580365E0,9.099537134E-2,-9.521007538E-2,5.707744360E-1
5.794630730E0,2.180903554E-1,-6.457881927E-1,4.226293564E-1
5.799681042E0,2.632387877E-1,-1.040276527E0,2.831456661E-1
5.804731355E0,3.388378322E-1,-1.353037834E0,2.072151899E-1
5.809781667E0,4.169414937E-1,-1.766106606E0,3.982793093E-1
5.814831927E0,3.968040347E-1,-2.299733162E0,7.132980824E-1
5.819882240E0,1.931447387E-1,-3.319848061E0,1.083582759E0
5.824932605E0,-1.546042562E-1,-4.427507401E0,1.394123435E0
5.829982917E0,-5.647993684E-1,-5.286446571E0,1.529231071E0
5.835033230E0,-9.269057512E-1,-5.658875465E0,1.281609654E0
5.840083542E0,-1.016767502E0,-5.692420959E0,7.258452177E-1
5.845133802E0,-9.513416886E-1,-5.687581062E0,-3.689205647E-2
5.850184115E0,-7.494528294E-1,-5.943300247E0,-6.367070675E-1
5.855234427E0,-4.042619467E-1,-6.715135574E0,-1.026645422E0
5.860284740E0,1.233739257E-1,-7.703252792E0,-1.321244478E0
5.865335052E0,7.394710779E-1,-8.671515465E0,-1.510067225E0
5.870385365E0,1.354974270E0,-9.391184807E0,-1.586984873E0
5.875435625E0,1.854918242E0,-9.869405746E0,-1.601554036E0
5.880485938E0,2.190872192E0,-1.016717052E1,-1.719540000E0
5.885536302E0,2.374003887E0,-1.025214291E1,-2.114695549E0
5.890586615E0,2.357987404E0,-1.007536888E1,-2.769276857E0
5.895636927E0,2.396351576E0,-9.869248390E0,-3.418793201E0
5.900687240E0,2.288863420E0,-9.547841072E0,-3.894042969E0
5.905737500E0,2.116550684E0,-8.990915298E0,-4.146824360E0
5.910787813E0,1.745848417E0,-7.976889610E0,-3.969419003E0
5.915838177E0,1.086328745E0,-6.588460922E0,-3.337063313E0
5.920888490E0,2.196007967E-1,-4.944035530E0,-2.429673910E0
5.925938802E0,-6.431889534E-1,-3.314795494E0,-1.496460915E0
5.930989115E0,-1.538222313E0,-1.989404678E0,-9.073550105E-1
5.936039375E0,-2.282377720E0,-9.701719284E-1,-7.505252361E-1
5.941089688E0,-2.851031065E0,-9.793472290E-2,-9.101612568E-1
5.946140000E0,-3.489400864E0,3.984241486E-1,-1.459082365E0
5.951190313E0,-4.410203934E0,5.028324127E-1,-2.241815329E0
5.956240625E0,-5.330333710E0,1.989583969E-1,-2.729421139E0
5.961290938E0,-5.823419571E0,-2.902965546E-1,-2.748979568E0
5.966341198E0,-5.827866077E0,-8.364934921E-1,-2.496860981E0
5.971391511E0,-5.365555763E0,-1.392363548E0,-2.168857336E0
5.976441823E0,-4.760161877E0,-2.181878090E0,-1.908416033E0
5.981492136E0,-4.135725975E0,-3.130500793E0,-1.715003252E0
5.986542448E0,-3.383273125E0,-4.205190659E0,-1.579466224E0
5.991592761E0,-2.496585369E0,-5.282751083E0,-1.488345742E0
5.996643021E0,-1.480790496E0,-6.196544647E0,-1.339641571E0
6.001693334E0,-3.454085588E-1,-6.962769508E0,-1.028313160E0
6.006743698E0,7.834188938E-1,-7.495787621E0,-3.089942932E-1
6.011794011E0,1.897283077E0,-7.816747665E0,4.989204407E-1
6.016844323E0,2.686315536E0,-7.946146011E0,1.468858719E0
6.021894636E0,3.551463127E0,-8.246941566E0,2.885968208E0
6.026944896E0,4.735571861E0,-8.400312424E0,4.679960728E0
6.031995209E0,5.277656078E0,-8.400860786E0,6.032786369E0
6.037045625E0,5.365538597E0,-8.291676521E0,7.151022434E0
6.042095365E0,5.418947697E0,-8.106597900E0,7.493108749E0
6.047145105E0,5.420972347E0,-7.824870110E0,7.039433956E0
6.052194896E0,4.879115105E0,-7.308740616E0,6.360174179E0
6.057244636E0,4.429750443E0,-6.713528633E0,5.843036175E0
6.062294375E0,4.097479820E0,-6.031419754E0,4.959575653E0
6.067347448E0,3.762357712E0,-5.346550941E0,3.955701828E0
6.072397188E0,3.453102589E0,-4.671852112E0,2.861908197E0
6.077446927E0,2.846399784E0,-3.849753380E0,1.927484512E0
6.082496719E0,2.094079018E0,-2.979755402E0,1.643947601E0
6.087546459E0,1.758211732E0,-2.247649193E0,1.754655838E0
6.092596198E0,1.642758489E0,-1.634754181E0,2.184641838E0
6.097649323E0,1.320206761E0,-1.072422028E0,2.427751780E0
6.102699063E0,8.428001404E-1,-7.190818787E-1,2.101414680E0
6.107748802E0,3.483052254E-1,-5.617637634E-1,1.577382088E0
6.112798594E0,-2.549510002E-1,-4.976201057E-1,7.879643440E-1
6.117848334E0,-9.660301208E-1,-4.379487038E-1,4.517455101E-1
6.122898073E0,-1.391132355E0,-5.784835815E-1,8.996577263E-1
6.127951146E0,-1.559136152E0,-1.023209572E0,1.855427742E0
6.133000886E0,-1.325820923E0,-1.601448059E0,3.034824371E0
6.138050625E0,-1.014545202E0,-2.043811798E0,4.010738373E0
6.143100417E0,-8.536906242E-1,-2.320580959E0,4.626327515E0
6.148150157E0,-5.412821770E-1,-2.504978657E0,5.001742840E0
6.153199896E0,-1.540203094E-1,-2.600763321E0,5.134432316E0
6.158252969E0,4.429748058E-1,-2.582955837E0,5.265963554E0
6.163302709E0,1.113080502E0,-2.537214756E0,5.477738380E0
6.168352448E0,1.600689173E0,-2.324421883E0,5.793714523E0
6.173402240E0,2.241805553E0,-2.146173000E0,6.097932816E0
6.178451980E0,2.806724548E0,-1.885709286E0,6.311587334E0
6.183501719E0,3.269669056E0,-1.521834850E0,6.665454388E0
6.188554844E0,3.650394917E0,-1.112695694E0,6.965734005E0
6.193604584E0,3.876971006E0,-5.229544640E-1,7.216381073E0
6.198654323E0,3.756921530E0,4.759130478E-1,7.457486153E0
6.203704115E0,3.552871943E0,1.620458603E0,7.558974266E0
6.208753855E0,3.308027506E0,2.705164433E0,7.467964649E0
6.213803594E0,3.130677700E0,3.560872555E0,7.388309956E0
6.218856667E0,2.842924595E0,4.306083679E0,7.370248795E0
6.223906407E0,2.636737108E0,4.799440861E0,7.293235302E0
6.228956146E0,2.527150869E0,5.349489689E0,7.344218731E0
6.234005938E0,2.538882256E0,5.507080555E0,7.303864956E0
6.239055677E0,2.484360456E0,5.544082165E0,7.252274513E0
6.244105417E0,2.366127014E0,5.480323792E0,7.188026905E0
6.249158490E0,2.143512964E0,5.379265308E0,7.132947922E0
6.254208230E0,1.997236490E0,5.271284103E0,7.084533691E0
6.259257969E0,1.956025124E0,5.177638054E0,7.078140259E0
6.264307761E0,1.937873125E0,4.946930408E0,6.961898804E0
6.269357500E0,1.799605370E0,4.707706451E0,6.747092724E0
6.274407240E0,1.593705177E0,4.539073944E0,6.478352547E0
6.279460365E0,1.426794291E0,4.383132458E0,6.129788399E0
6.284510105E0,1.307775974E0,4.144787788E0,5.836819649E0
6.289559844E0,1.233994961E0,4.040379524E0,5.488512993E0
6.294609636E0,1.177724838E0,3.912760258E0,5.145085335E0
6.299659375E0,1.147914886E0,3.808187485E0,4.729470253E0
6.304709115E0,1.281589031E0,3.613930225E0,4.391822815E0
6.309762188E0,1.366226912E0,3.477961540E0,3.990409136E0
6.314811927E0,1.412320137E0,3.390381098E0,3.605881691E0
6.319861667E0,1.375566483E0,3.168484688E0,3.177838802E0
6.324911459E0,1.332023621E0,2.924601316E0,2.829387665E0
6.329961198E0,1.449937344E0,2.632340670E0,2.573171139E0
6.335010938E0,1.635487080E0,2.368575096E0,2.230871201E0
6.340064011E0,1.883307457E0,2.173150063E0,1.849293709E0
6.345113750E0,2.109038830E0,2.102793217E0,1.353856564E0
6.350163490E0,2.335658550E0,2.011868477E0,8.024206161E-1
6.355213282E0,2.421155930E0,2.011885405E0,3.257966042E-1
6.360263021E0,2.411842823E0,1.979925632E0,-1.455202103E-1
6.365312761E0,2.245877743E0,1.980180740E0,-5.026535988E-1
6.370405261E0,1.925446749E0,1.909713745E0,-9.090876579E-1
6.375455052E0,1.563317537E0,1.793452740E0,-1.271418571E0
6.380504792E0,1.207158089E0,1.596253872E0,-1.774311543E0
6.385554532E0,8.391995430E-1,1.251407146E0,-2.216875076E0
6.390604271E0,5.398378372E-1,9.655103683E-1,-2.525601864E0
6.395654063E0,2.006092072E-1,7.278604507E-1,-2.612443924E0
6.400667709E0,-1.314363480E-1,3.379211426E-1,-2.940137386E0
6.405717448E0,-5.155911446E-1,6.203413010E-2,-3.198796272E0
6.410767188E0,-8.513178825E-1,-8.752965927E-2,-3.779555798E0
6.415816980E0,-1.468351364E0,-2.241816521E-1,-4.553347111E0
6.420866719E0,-2.115325451E0,-4.514069557E-1,-5.448162079E0
6.425916459E0,-2.548987865E0,-9.922752380E-1,-5.220261574E0
6.430969532E0,-2.825697422E0,-2.120561600E0,-2.501087666E0
6.436019271E0,-3.168647766E0,-3.653961658E0,1.306662560E0
6.441069011E0,-3.258970261E0,-5.322841167E0,3.223759413E0
6.446118802E0,-3.266726971E0,-6.669105530E0,2.610183239E0
6.451168542E0,-3.435649872E0,-7.689906120E0,8.249068260E-1
6.456218282E0,-3.292036057E0,-8.303455353E0,-9.985260963E-1
6.461271355E0,-3.115493298E0,-8.266897202E0,-1.734616756E0
6.466321094E0,-3.422965050E0,-7.288413525E0,-1.689713955E0
6.471370834E0,-4.121237755E0,-5.688929081E0,-2.516792297E0
6.476420625E0,-4.350252628E0,-3.900632381E0,-3.013605118E0
6.481470365E0,-3.723507881E0,-2.027178288E0,-2.037895203E0
6.486520105E0,-2.382568836E0,-6.394882202E-1,-1.760334969E-1
6.491573177E0,-8.683376312E-1,1.542344093E-1,4.930725098E-1
6.496622917E0,3.197903633E-1,5.426316261E-1,8.310852051E-1
6.501672657E0,1.210047245E0,6.585326195E-1,2.011480808E0
6.506722448E0,1.632666588E0,7.725305557E-1,3.068034649E0
6.511772188E0,1.351506710E0,9.704089165E-1,3.262123108E0
6.516821927E0,6.924860477E-1,1.008787632E0,2.528038740E0
6.521875052E0,-5.088567734E-2,8.701295853E-1,1.385756016E0
6.526924792E0,-5.951232910E-1,4.807991982E-1,8.345685005E-1
6.531974532E0,-9.439396858E-1,6.900596619E-2,1.123418808E0
6.537024323E0,-1.176736593E0,-3.870363235E-1,1.381922245E0
6.542074063E0,-1.224467039E0,-8.107671738E-1,1.454883099E0
6.547123802E0,-1.193882942E0,-1.326767921E0,1.427209854E0
6.552176823E0,-1.035689354E0,-1.856801033E0,1.377637386E0
6.557227032E0,-8.549973965E-1,-2.431822777E0,1.077115059E0
6.562277240E0,-7.985074520E-1,-3.063449860E0,9.241428375E-1
6.567327396E0,-7.812163830E-1,-3.601005554E0,1.042252541E0
6.572377605E0,-8.131442070E-1,-4.092605114E0,1.066433430E0
6.577427813E0,-7.247507572E-1,-4.426503658E0,7.472543716E-1
6.582478698E0,-3.754866123E-1,-4.522612572E0,6.007785797E-1
6.587528907E0,1.656568050E-1,-4.298125267E0,9.730701447E-1
6.592579115E0,8.126380444E-1,-3.791386604E0,1.577867031E0
6.597629271E0,1.185026884E0,-3.061013699E0,1.822768688E0
6.602679480E0,1.458119392E0,-2.287868977E0,1.783907175E0
6.607729688E0,1.671919703E0,-1.564380169E0,1.634594202E0
6.612780469E0,1.820872068E0,-9.060511589E-1,1.569152832E0
6.617830677E0,1.985140681E0,-3.680739403E-1,1.501660347E0
6.622880886E0,2.072163343E0,-3.647804260E-4,1.459523201E0
6.627931042E0,2.084813118E0,2.821965218E-1,1.548917294E0
6.632981250E0,2.054527283E0,3.781762123E-1,1.672330379E0
6.638031459E0,1.950726151E0,4.577288628E-1,1.878311872E0
6.643082344E0,1.800977826E0,4.175834656E-1,1.959742069E0
6.648132552E0,1.705618858E0,2.625904083E-1,2.090977669E0
6.653182761E0,1.552007914E0,6.071186066E-2,2.164298058E0
6.658232917E0,1.356788516E0,-1.191024780E-1,2.225527287E0
6.663283125E0,1.228620291E0,-3.405027390E-1,2.232774734E0
6.668333334E0,1.000742912E0,-5.343313217E-1,2.161147118E0
6.673384167E0,9.165227413E-1,-7.867631912E-1,2.051351547E0
6.678434375E0,8.196392059E-1,-1.029681206E0,2.007594347E0
6.683484584E0,8.191779852E-1,-1.291618347E0,2.033049583E0
6.688534740E0,9.664425850E-1,-1.554476738E0,2.096356392E0
6.693584948E0,1.231047630E0,-1.876732826E0,2.196190357E0
6.698635157E0,1.405013800E0,-2.047741890E0,2.192918062E0
6.703686042E0,1.597972512E0,-2.236234665E0,2.264909506E0
6.708736250E0,1.760127544E0,-2.271010399E0,2.253077745E0
6.713786459E0,1.839525461E0,-2.176420212E0,2.114017487E0
6.718836615E0,1.798563957E0,-1.869068146E0,1.874946594E0
6.723886823E0,1.708465457E0,-1.532157898E0,1.566107988E0
6.728937032E0,1.641909361E0,-1.103383064E0,1.425577879E0
6.733987865E0,1.629942060E0,-6.818809509E-1,1.471719980E0
6.739038073E0,1.473959088E0,-1.634063721E-1,1.416789532E0
6.744088282E0,1.245650291E0,3.657627106E-1,1.378323793E0
6.749138438E0,9.318110943E-1,8.301782608E-1,1.141227961E0
6.754188646E0,4.880105257E-1,1.298138618E0,8.732933998E-1
6.759238855E0,1.520836353E-2,1.680743217E0,5.778224468E-1
6.764329167E0,-4.481968880E-1,1.973369598E0,3.408629894E-1
6.769379323E0,-8.352062702E-1,2.189627171E0,1.128370762E-1
6.774429532E0,-1.157227159E0,2.254227161E0,-3.929805756E-2
6.779479740E0,-1.370642662E0,2.199695587E0,7.079553604E-2
6.784529948E0,-1.359263062E0,2.016781330E0,3.036048412E-1
6.789580105E0,-1.187819123E0,1.715438843E0,6.225025654E-1
6.794591563E0,-8.291883469E-1,1.389267921E0,9.386556149E-1
6.799641771E0,-3.536764383E-1,1.052010536E0,1.146653414E0
6.804691980E0,9.564900398E-2,7.132902145E-1,1.263597012E0
6.809742136E0,4.646521807E-1,4.627780914E-1,1.197873354E0
6.814792344E0,7.040710449E-1,2.800045013E-1,1.021827102E0
6.819842552E0,8.511599302E-1,2.018241882E-1,7.792761326E-1
6.824893386E0,8.856174946E-1,1.897983551E-1,6.273107529E-1
6.829943594E0,8.413789272E-1,2.773151398E-1,4.977042675E-1
6.834993802E0,7.101897001E-1,3.625621796E-1,3.954020739E-1
6.840043959E0,5.093103647E-1,4.515333176E-1,3.525493145E-1
6.845094167E0,2.666039467E-1,5.777206421E-1,2.961107492E-1
6.850144375E0,9.004139900E-2,7.806549072E-1,3.524677753E-1
6.855195209E0,-1.603566408E-1,9.789772034E-1,3.884431124E-1
6.860245417E0,-4.698647261E-1,1.210957527E0,3.442496061E-1
6.865295625E0,-7.604906559E-1,1.385684013E0,2.341437340E-1
6.870345782E0,-1.095384479E0,1.531863213E0,4.649996758E-3
6.875395990E0,-1.455088139E0,1.676941872E0,-3.819073439E-1
6.880446198E0,-1.764874697E0,1.778990269E0,-8.164047003E-1
6.885497084E0,-1.983933568E0,1.814101219E0,-1.170591235E0
6.890547292E0,-2.108593464E0,1.887661934E0,-1.539284229E0
6.895597500E0,-2.016538382E0,1.881371498E0,-1.762408853E0
6.900647657E0,-1.733938575E0,1.799063683E0,-1.995751739E0
6.905697865E0,-1.370050192E0,1.648178101E0,-2.308423519E0
6.910748073E0,-9.224795103E-1,1.527041435E0,-2.636722088E0
6.915798907E0,-5.346615314E-1,1.344826698E0,-2.894230366E0
6.920849115E0,-2.224473953E-1,1.092122078E0,-3.085812330E0
6.925899323E0,-8.402776718E-2,8.349037170E-1,-3.083797216E0
6.930949480E0,-6.522333622E-2,5.971832275E-1,-2.928417206E0
6.935999688E0,-1.119625568E-1,3.611316681E-1,-2.680535078E0
6.941049896E0,-1.978658438E-1,1.089239120E-1,-2.331404686E0
6.946100730E0,-2.246879339E-1,-1.030912399E-1,-2.000371933E0
6.951150938E0,-3.021891117E-1,-3.850250244E-1,-1.641145110E0
6.956201146E0,-3.875315189E-1,-6.770038605E-1,-1.303614497E0
6.961251302E0,-4.345016479E-1,-1.059300423E0,-9.817655087E-1
6.966301511E0,-4.307700396E-1,-1.476825714E0,-7.248266935E-1
6.971351719E0,-2.020236254E-1,-1.781152725E0,-4.635580778E-1
6.976402605E0,1.530227661E-1,-2.044091225E0,-1.842209101E-1
6.981452813E0,4.972035885E-1,-2.096938133E0,7.466328144E-2
6.986503021E0,7.265509367E-1,-2.020180702E0,2.462306023E-1
6.991553177E0,7.802989483E-1,-1.773386002E0,3.091748357E-1
6.996603386E0,7.583069801E-1,-1.446613312E0,3.344247341E-1
7.001653594E0,5.525929928E-1,-1.190881729E0,3.187296391E-1
7.006704427E0,1.893470287E-1,-1.115173340E0,1.178727150E-1
7.011754636E0,-2.920243740E-1,-1.294899940E0,-1.831187606E-1
7.016804844E0,-5.979661942E-1,-1.687994957E0,-5.750870109E-1
7.021855000E0,-7.588044405E-1,-2.136357307E0,-8.522541523E-1
7.026905209E0,-8.342157602E-1,-2.474728584E0,-1.167531371E0
7.031955417E0,-6.771546602E-1,-2.694729805E0,-1.507164359E0
7.037006302E0,-4.113869667E-1,-2.760391235E0,-1.745437384E0
7.042056511E0,-2.127009630E-1,-2.721943855E0,-1.939209700E0
7.047106719E0,-1.461578608E-1,-2.754055977E0,-2.097254276E0
7.052156875E0,-2.487746477E-1,-2.912825584E0,-2.216241121E0
7.057207084E0,-4.483027458E-1,-3.119153023E0,-2.257192612E0
7.062257292E0,-7.055997849E-1,-3.320424080E0,-2.237440109E0
7.067308125E0,-8.487479687E-1,-3.449759483E0,-2.096365929E0
7.072358438E0,-6.914345026E-1,-3.613718033E0,-1.863815665E0
7.077408698E0,-4.831058979E-1,-3.763194084E0,-1.703599572E0
7.082458959E0,-3.318172693E-1,-4.141041756E0,-1.559611320E0
7.087509271E0,-2.424792051E-1,-4.827131271E0,-1.546643734E0
7.092559532E0,-3.438520432E-1,-5.810365677E0,-1.573529243E0
7.097609948E0,-4.932314157E-1,-6.922884941E0,-1.449442744E0
7.102660261E0,-6.083902121E-1,-7.821119308E0,-9.425736070E-1
7.107710521E0,-7.124131918E-1,-8.425116539E0,-2.433461845E-1
7.112760782E0,-8.313856125E-1,-8.354846954E0,3.238559365E-1
7.117811094E0,-1.163295746E0,-7.580252647E0,6.419597268E-1
7.122861355E0,-1.446702123E0,-6.437328339E0,5.840343237E-1
7.127911823E0,-1.960167885E0,-5.204176903E0,1.603712142E-1
7.132962136E0,-2.437618494E0,-4.182456017E0,-3.211979866E-1
7.138012396E0,-2.969679356E0,-3.348070145E0,-7.692846060E-1
7.143062657E0,-3.478292465E0,-2.528614044E0,-1.252785683E0
7.148112969E0,-3.800034285E0,-1.788711548E0,-1.680504084E0
7.153163230E0,-3.913321495E0,-1.202486038E0,-1.914091945E0
7.158213646E0,-3.904379368E0,-7.698431015E-1,-2.066844940E0
7.163263959E0,-3.760996580E0,-5.062036514E-1,-2.291712761E0
7.168314219E0,-3.466436625E0,-4.568901062E-1,-2.602985859E0
7.173364480E0,-3.189015865E0,-3.741865158E-1,-2.861701012E0
7.178414792E0,-2.971312284E0,-2.607116699E-1,-3.152232170E0
7.183465052E0,-2.800027609E0,-1.788635254E-1,-3.367610455E0
7.188515521E0,-2.708176613E0,-2.185201645E-1,-3.637606144E0
7.193565834E0,-2.755919695E0,-3.427085876E-1,-3.943280458E0
7.198616094E0,-2.862915516E0,-4.954338074E-1,-4.251532078E0
7.203666355E0,-2.937029600E0,-6.291151047E-1,-4.435198307E0
7.208716667E0,-2.891565800E0,-6.853809357E-1,-4.599159718E0
7.213766927E0,-2.735562801E0,-7.003993988E-1,-4.702431202E0
7.218856823E0,-2.378008127E0,-7.378807068E-1,-4.911733150E0
7.223907084E0,-1.944372773E0,-8.704576492E-1,-5.186249733E0
7.228957396E0,-1.600361109E0,-1.042072296E0,-5.441148281E0
7.234007657E0,-1.411519170E0,-1.288867950E0,-5.576069832E0
7.239057917E0,-1.166851401E0,-1.634988785E0,-5.557946205E0
7.244108230E0,-9.006121159E-1,-2.035216331E0,-5.406414032E0
7.249119167E0,-5.386788845E-1,-2.470291138E0,-5.102975845E0
7.254169480E0,-2.772858143E-1,-2.837139130E0,-4.601479053E0
7.259219740E0,-2.359049320E-1,-3.049603462E0,-3.936475515E0
7.264270000E0,1.252746582E-1,-3.291608810E0,-3.139878035E0
7.269320313E0,7.669510841E-1,-3.673417091E0,-2.017850876E0
7.274370573E0,1.171558142E0,-4.079823494E0,-6.753747463E-1
7.279421042E0,1.162196159E0,-4.354986191E0,7.280035019E-1
7.284471355E0,1.122185230E0,-4.324034691E0,1.908834219E0
7.289521615E0,1.376379251E0,-4.248908997E0,3.235563040E0
7.294571875E0,1.809745669E0,-4.147841454E0,3.614160538E0
7.299622188E0,2.025703669E0,-3.958039284E0,3.986973763E0
7.304672448E0,2.265296459E0,-3.681315422E0,4.458110332E0
7.309722865E0,2.639937639E0,-3.495656967E0,5.151799202E0
7.314773177E0,2.879082918E0,-3.385822296E0,6.029644012E0
7.319823438E0,2.794610500E0,-3.320169449E0,7.074312687E0
7.324873698E0,2.535390854E0,-3.117191315E0,7.936104298E0
7.329924011E0,2.215006351E0,-3.029270172E0,8.353293419E0
7.334974271E0,1.791078210E0,-2.595587730E0,8.159139633E0
7.340024688E0,1.185239434E0,-1.946260452E0,7.811933994E0
7.345075000E0,8.167680502E-1,-1.570262909E0,7.782118797E0
7.350125261E0,7.218894958E-1,-1.280170441E0,7.497512817E0
7.355175521E0,7.267627716E-1,-1.137290001E0,6.747961998E0
7.360225834E0,9.050812721E-1,-1.103289604E0,5.585532665E0
7.365276094E0,1.316073179E0,-1.135886192E0,4.240215302E0
7.370326511E0,1.716816306E0,-1.255584717E0,2.795044422E0
7.375376823E0,2.023461580E0,-1.270016670E0,1.888519764E0
7.380427084E0,2.050931454E0,-1.087592602E0,1.193353176E0
7.385477344E0,2.048899889E0,-8.229980469E-1,8.464727402E-1
7.390527657E0,1.969552517E0,-4.317512512E-1,6.222643852E-1
7.395577917E0,1.927620769E0,7.516622543E-2,6.305842400E-1
7.400628386E0,1.941916227E0,6.065411568E-1,8.576889038E-1
7.405678698E0,2.008249998E0,1.048047066E0,9.528956413E-1
7.410728959E0,2.042387486E0,1.573406219E0,1.101928711E0
7.415779219E0,2.032951355E0,2.130810738E0,1.522656441E0
7.420829532E0,1.905590057E0,2.683717251E0,2.141496897E0
7.425879792E0,1.683407903E0,3.218050241E0,2.905791044E0
7.430930209E0,1.389628649E0,3.576037645E0,3.611448288E0
7.435980521E0,1.095579147E0,3.634042501E0,4.277493477E0
7.441030782E0,6.980688572E-1,3.387128830E0,4.871118546E0
7.446081042E0,2.198772430E-1,3.189708710E0,5.442582130E0
7.451131355E0,-3.527736664E-1,3.041453838E0,5.671808720E0
7.456181615E0,-8.413314819E-1,2.916060686E0,5.764060974E0
7.461232032E0,-1.316452265E0,2.855450392E0,5.728244781E0
7.466282344E0,-1.576525450E0,2.875333309E0,5.488496780E0
7.471332605E0,-1.563840628E0,2.858996868E0,5.136947632E0
7.476382865E0,-1.403189659E0,2.792652607E0,4.772105694E0
7.481433177E0,-9.398288727E-1,2.759877682E0,4.340415478E0
7.486483438E0,-4.064450264E-1,2.717214584E0,3.904426098E0
7.491573282E0,2.571132183E-1,2.694466114E0,3.649124622E0
7.496623542E0,9.172005653E-1,2.544421911E0,3.412156105E0
7.501673855E0,1.323080063E0,2.463387012E0,3.176792145E0
7.506724115E0,1.672006130E0,2.295749187E0,3.103139877E0
7.511774375E0,1.929316044E0,2.267954350E0,3.211857796E0
7.516824688E0,2.052786350E0,2.278486252E0,3.411311626E0
7.521835677E0,2.222502470E0,2.283056736E0,3.661809921E0
7.526885990E0,2.283967018E0,2.336886406E0,3.933224916E0
7.531936250E0,2.255403280E0,2.416215897E0,4.191468239E0
7.536986511E0,2.328250170E0,2.473505974E0,4.501088142E0
7.542036823E0,2.356145382E0,2.505557775E0,4.828578472E0
7.547087084E0,2.338688374E0,2.570410490E0,5.062656879E0
7.552137448E0,2.182587624E0,2.568908691E0,5.112550735E0
7.557187761E0,1.905856133E0,2.688846588E0,5.127519131E0
7.562238021E0,1.829941750E0,2.756801128E0,5.010225773E0
7.567288282E0,1.789814949E0,2.815722466E0,4.659163952E0
7.572338594E0,1.879876137E0,2.982769966E0,4.194401264E0
7.577388855E0,2.092720032E0,3.181960583E0,3.612908363E0
7.582439271E0,2.278443813E0,3.434558868E0,2.936680317E0
7.587489584E0,2.524636030E0,3.546574831E0,2.302915573E0
7.592539896E0,2.625755787E0,3.534441471E0,1.784601212E0
7.597590157E0,2.563250542E0,3.322219610E0,1.353025913E0
7.602640469E0,2.347327232E0,3.137759209E0,1.082455635E0
7.607690782E0,2.066693544E0,2.960825443E0,1.058649540E0
7.612741094E0,1.823152065E0,2.793023348E0,1.106215954E0
7.617791407E0,1.562146664E0,2.701555729E0,1.039026737E0
7.622841719E0,1.360280514E0,2.563209534E0,6.823191643E-1
7.627891980E0,1.157341003E0,2.552371979E0,-3.030490875E-2
7.632942292E0,1.004659176E0,2.479895592E0,-9.637103081E-1
7.637992605E0,5.828697681E-1,2.341573954E0,-2.924738407E0
7.643042917E0,-6.773853302E-2,2.281836510E0,-5.045417309E0
7.648093230E0,-9.632987976E-1,2.156506062E0,-8.068767548E0
7.653143542E0,-2.307283640E0,1.656504631E0,-1.133692169E1
7.658193802E0,-3.624162197E0,9.016370773E-1,-1.364871883E1
7.663244115E0,-5.962528229E0,2.298808098E-1,-1.067908859E1
7.668294427E0,-9.195248604E0,-2.506341934E-1,-1.783329964E0
7.673344740E0,-9.471166611E0,-8.585467339E-1,6.585285664E0
7.678395052E0,-6.894165039E0,-1.720415592E0,8.648176193E0
7.683445365E0,-4.790650368E0,-3.178874016E0,4.491931915E0
7.688495625E0,-3.543430805E0,-4.731945038E0,-2.211740017E0
7.693545938E0,-1.999616623E0,-6.064741135E0,-6.509678841E0
7.698596250E0,-6.489591599E-1,-6.512122631E0,-5.732047558E0
7.703646511E0,-6.092643738E-2,-6.177622318E0,-4.859566689E0
7.708696823E0,-5.670914650E-1,-5.417357445E0,-4.749405384E0
7.713747136E0,-1.269027948E0,-4.527124882E0,-1.850920200E0
7.718797396E0,-1.114669085E0,-3.412995338E0,2.650516510E0
7.723847709E0,-5.671737194E-1,-2.329835892E0,4.245849609E0
7.728898021E0,1.217296124E-1,-1.613361835E0,3.493880510E0
7.733948334E0,4.857506752E-1,-1.000143528E0,2.288324356E0
7.738998646E0,5.692658424E-1,-4.004750252E-1,1.517307281E0
7.744048959E0,5.548496246E-1,5.476427078E-2,9.857602119E-1
7.749099219E0,4.931890965E-1,2.139773369E-1,6.651258469E-2
7.754149532E0,3.681156635E-1,2.926445007E-2,-6.017308235E-1
7.759199844E0,-2.121121883E-1,-5.434899330E-1,-7.860808372E-1
7.764289636E0,-1.344812155E0,-1.169396400E0,-1.078773022E0
7.769339896E0,-2.099698067E0,-1.905654430E0,-1.725461483E0
7.774390209E0,-2.119035006E0,-2.673847675E0,-1.898355961E0
7.779440521E0,-1.606981754E0,-3.506081581E0,-1.300270557E0
7.784490834E0,-9.738166332E-1,-4.130080223E0,-6.497735977E-1
7.789541146E0,-3.280570507E-1,-4.410820484E0,-4.043865204E-1
7.794551980E0,-1.375637054E-1,-4.396327972E0,-1.273636818E-1
7.799602292E0,-3.469212055E-1,-4.100075722E0,1.928839684E-1
7.804652605E0,-7.941846848E-1,-3.537790775E0,2.916073799E-1
7.809702865E0,-1.355581760E0,-2.784603119E0,1.617112160E-1
7.814753177E0,-1.823642492E0,-1.938087463E0,8.361577988E-2
7.819803490E0,-2.019158125E0,-1.160215855E0,9.833002090E-2
7.824853802E0,-2.015826702E0,-4.260530472E-1,1.320276260E-1
7.829904115E0,-1.842705011E0,1.718001366E-1,1.530590057E-1
7.834954427E0,-1.544400454E0,5.923113823E-1,1.693387032E-1
7.840004688E0,-1.064025164E0,8.643445969E-1,3.581843376E-1
7.845055000E0,-5.178809166E-1,9.918007851E-1,7.060456276E-1
7.850105313E0,2.329802513E-2,9.436888695E-1,1.173336506E0
7.855155625E0,5.679168701E-1,8.352098465E-1,1.600541115E0
7.860205938E0,1.086894035E0,7.116842270E-1,1.878697634E0
7.865256250E0,1.485190630E0,5.477519035E-1,2.085801125E0
7.870306511E0,1.735248208E0,4.004592896E-1,2.389592171E0
7.875356823E0,1.884589195E0,2.588443756E-1,2.691867113E0
7.880407136E0,1.910237432E0,9.148311615E-2,2.735634327E0
7.885457448E0,1.842383146E0,-1.924896240E-2,2.665169239E0
7.890507761E0,1.733919382E0,-9.638500214E-2,2.550486088E0
7.895558073E0,1.611403942E0,-2.405138016E-1,2.506686926E0
7.900608334E0,1.500098825E0,-3.379688263E-1,2.358084679E0
7.905658646E0,1.345591068E0,-6.268682480E-1,2.252424717E0
7.910708959E0,1.281953216E0,-9.476356506E-1,2.188773632E0
7.915759271E0,1.307053328E0,-1.082055092E0,2.246912479E0
7.920809584E0,1.342793465E0,-1.096814156E0,2.375638485E0
7.925859896E0,1.312422752E0,-1.082678795E0,2.428470135E0
7.930910157E0,1.224285722E0,-1.013113022E0,2.365588665E0
7.935960469E0,1.095397234E0,-8.162593842E-1,2.280027866E0
7.941010782E0,1.042695165E0,-5.988073349E-1,2.269606590E0
7.946061094E0,1.001321077E0,-3.872919083E-1,2.280283451E0
7.951111407E0,9.261765480E-1,-1.976509094E-1,2.063892365E0
7.956161719E0,8.060311079E-1,-5.275440216E-2,1.628577709E0
7.961211980E0,6.436060667E-1,6.183815002E-2,1.150931120E0
7.966262292E0,4.762856960E-1,8.285713196E-2,6.732382774E-1
7.971312605E0,3.990012407E-1,3.216457367E-2,3.928453922E-1
7.976362917E0,1.255419254E-1,1.121177673E-1,2.412457466E-1
7.981413230E0,-1.673690081E-1,2.411851883E-1,-9.829616547E-2
7.986463542E0,-1.918926239E-1,3.226871490E-1,-4.455208778E-2
7.991513802E0,3.579413891E-2,3.114891052E-1,2.650730610E-1
7.996564115E0,1.642632484E-1,3.835687637E-1,2.934455872E-1
8.001614427E0,2.724586725E-1,5.316505432E-1,2.574889660E-1
8.006664740E0,3.679411411E-1,6.944246292E-1,2.318747044E-1
8.011715052E0,4.030125141E-1,8.191785812E-1,2.143471241E-1
8.016765365E0,5.226413012E-1,8.926877975E-1,1.537704468E-1
8.021815625E0,5.930762291E-1,1.000974655E0,7.578706741E-2
8.026865938E0,6.073670387E-1,1.080445290E0,8.797645569E-5
8.031916250E0,6.161869764E-1,1.151419640E0,-1.098084450E-2
8.036966563E0,6.212271452E-1,1.267739296E0,7.109570503E-2
8.042016875E0,5.957483053E-1,1.379089355E0,2.005305290E-1
8.047067188E0,6.824818850E-1,1.477161407E0,3.638415337E-1
8.052117448E0,7.922451496E-1,1.602716446E0,5.449237823E-1
8.057167761E0,9.084085226E-1,1.635061264E0,7.467470169E-1
8.062218073E0,9.834663272E-1,1.705954552E0,9.474129677E-1
8.067268386E0,1.035069704E0,1.652770519E0,1.125234842E0
8.072318698E0,1.133798361E0,1.607312202E0,1.237003684E0
8.077369011E0,1.196709156E0,1.604360580E0,1.320916772E0
8.082419271E0,1.201732874E0,1.477601051E0,1.202703953E0
8.087469584E0,1.131993532E0,1.462813377E0,1.038505435E0
8.092519896E0,9.504227042E-1,1.468860626E0,7.451924086E-1
8.097570261E0,7.421330810E-1,1.346177101E0,4.450912476E-1
8.102620573E0,5.229098797E-1,1.195280075E0,1.855702400E-1
8.107670886E0,1.995999813E-1,1.108266830E0,-7.611191273E-2
8.112721198E0,-1.037551165E-1,1.032286644E0,-4.088708162E-1
8.117771459E0,-4.790505171E-1,1.060551643E0,-8.275684118E-1
8.122821771E0,-8.266491890E-1,1.101961136E0,-1.326868176E0
8.127872084E0,-1.092700720E0,1.204417229E0,-1.820623040E0
8.132922396E0,-1.326783061E0,1.308200836E0,-2.138160944E0
8.137972709E0,-1.488535404E0,1.423124313E0,-2.217358351E0
8.143023021E0,-1.534058094E0,1.550584793E0,-2.189890862E0
8.148073282E0,-1.510204434E0,1.651226044E0,-2.153565884E0
8.153123594E0,-1.495205045E0,1.642584324E0,-2.189659834E0
8.158173907E0,-1.570479155E0,1.545125008E0,-2.288317680E0
8.163224219E0,-1.606671214E0,1.338572502E0,-2.343845844E0
8.168274532E0,-1.656429529E0,1.046940804E0,-2.494670868E0
8.173324844E0,-1.707806945E0,7.695760727E-1,-2.572757244E0
8.178375105E0,-1.723859549E0,4.957427979E-1,-2.656037807E0
8.183425417E0,-1.675313711E0,2.255496979E-1,-2.632173538E0
8.188475730E0,-1.601859331E0,-6.832599640E-2,-2.490584135E0
8.193526042E0,-1.470308781E0,-2.935295105E-1,-2.243532658E0
8.198576355E0,-1.326507807E0,-4.786415100E-1,-1.934378743E0
8.203626667E0,-1.203878403E0,-6.307973862E-1,-1.707733035E0
8.208676927E0,-1.036328554E0,-7.392711639E-1,-1.485125661E0
8.213727240E0,-9.564719200E-1,-9.082775116E-1,-1.438670278E0
8.218777552E0,-9.673658609E-1,-1.140289307E0,-1.522228718E0
8.223827865E0,-8.479074240E-1,-1.381423950E0,-1.521149874E0
8.228878177E0,-5.090596676E-1,-1.580189705E0,-1.387643576E0
8.233928490E0,1.223325729E-2,-1.811964035E0,-1.256615639E0
8.238978750E0,5.682611465E-1,-1.837441444E0,-1.129194021E0
8.244029063E0,9.532583952E-1,-1.757424355E0,-1.013534069E0
8.249079375E0,1.066012502E0,-1.639102936E0,-9.467194676E-1
8.254129688E0,1.085708976E0,-1.550829887E0,-8.043935299E-1
8.259180000E0,9.868281484E-1,-1.691270828E0,-7.017442584E-1
8.264230313E0,9.349489212E-1,-1.975319862E0,-5.929962993E-1
8.269280573E0,8.532740474E-1,-2.295156479E0,-6.155385375E-1
8.274330886E0,8.004519939E-1,-2.730976105E0,-7.490367889E-1
8.279381198E0,7.119479179E-1,-3.186837196E0,-1.044903040E0
8.284431511E0,6.011335850E-1,-3.624336243E0,-1.390168667E0
8.289481823E0,2.609636784E-1,-4.093553543E0,-1.637696505E0
8.294532136E0,-4.235959053E-2,-4.628979683E0,-1.736090302E0
8.299582396E0,-2.145123482E-1,-4.693512917E0,-1.492759228E0
8.304632709E0,-5.397677422E-2,-4.299764633E0,-1.049622297E0
8.309683021E0,2.921562195E-1,-3.755808830E0,-5.357981324E-1
8.314733334E0,3.829959631E-1,-3.628991127E0,-2.909897268E-1
8.319783646E0,4.287123680E-3,-4.015806198E0,-3.042339087E-1
8.324833959E0,-5.398854017E-1,-5.115489006E0,-4.113395810E-1
8.329884219E0,-1.083229303E0,-6.423460007E0,-5.568957329E-1
8.334934532E0,-1.523236752E0,-7.612800598E0,-6.425004005E-1
8.339984844E0,-1.957923055E0,-8.347505569E0,-6.742208004E-1
8.345035157E0,-2.240717888E0,-8.451139450E0,-7.227461934E-1
8.350085469E0,-2.465428829E0,-7.891063690E0,-8.917196989E-1
8.355135782E0,-2.476413250E0,-6.736396790E0,-1.132463694E0
8.360186042E0,-2.369756460E0,-5.406623840E0,-1.278967023E0
8.365236355E0,-2.336109161E0,-4.179517746E0,-1.417906523E0
8.370286667E0,-2.418794155E0,-3.127915382E0,-1.609954834E0
8.375336980E0,-2.583452702E0,-2.226474762E0,-1.734218121E0
8.380387292E0,-2.768199682E0,-1.349442482E0,-1.723936200E0
8.385437605E0,-2.812983990E0,-7.491540909E-1,-1.797281265E0
8.390487865E0,-2.784416199E0,-3.857698441E-1,-1.822580099E0
8.395538177E0,-2.706948042E0,-2.470741272E-1,-1.903879881E0
8.400588490E0,-2.495652437E0,-2.167367935E-1,-2.177602768E0
8.405638802E0,-2.237649441E0,-3.186035156E-1,-2.548079729E0
8.410689115E0,-1.953042746E0,-5.238552094E-1,-2.877814531E0
8.415739427E0,-1.689520717E0,-7.271480560E-1,-3.234541178E0
8.420789688E0,-1.429967284E0,-9.417142868E-1,-3.600416899E0
8.425840000E0,-1.291868210E0,-1.138989449E0,-3.939943075E0
8.430890313E0,-1.122055411E0,-1.289290428E0,-4.231348038E0
8.435940625E0,-1.013792515E0,-1.331926346E0,-4.628817558E0
8.440990938E0,-9.024498463E-1,-1.377365112E0,-4.917751312E0
8.446041250E0,-7.367831469E-1,-1.409128189E0,-5.085140705E0
8.451091511E0,-5.815761089E-1,-1.488547325E0,-5.190998077E0
8.456141823E0,-4.051469564E-1,-1.661274910E0,-5.316461563E0
8.461231615E0,-3.654553890E-1,-1.875049591E0,-5.436315536E0
8.466281875E0,-4.020336866E-1,-2.066564560E0,-5.597783089E0
8.471332188E0,-4.314984083E-1,-2.321276665E0,-5.613963127E0
8.476382500E0,-3.815553188E-1,-2.638168335E0,-5.404501438E0
8.481432813E0,-4.009957314E-1,-2.895427704E0,-4.939364433E0
8.486483125E0,-5.502545834E-1,-2.990694046E0,-4.383494377E0
8.491493959E0,-8.186726570E-1,-3.131155014E0,-3.906406164E0
8.496544271E0,-1.122754097E0,-3.307017326E0,-3.189815283E0
8.501594584E0,-1.352837086E0,-3.405234337E0,-2.267455578E0
8.506644896E0,-1.192597628E0,-3.545755386E0,-1.205401421E0
8.511695157E0,-7.719099522E-1,-3.682556152E0,8.512973785E-2
8.516745469E0,-3.076786995E-1,-3.739600182E0,1.376469016E0
8.521795782E0,2.634489536E-1,-3.837220192E0,2.403863430E0
8.526846094E0,8.679516315E-1,-3.800572395E0,2.963486433E0
8.531896407E0,1.521931171E0,-3.712718010E0,3.165411711E0
8.536946719E0,2.045158148E0,-3.483668327E0,3.250176191E0
8.541996980E0,2.437883854E0,-3.285578728E0,3.503790379E0
8.547047292E0,2.687495708E0,-3.167707443E0,3.898485184E0
8.552097605E0,2.645176411E0,-3.018239975E0,4.417284966E0
8.557147917E0,2.511488914E0,-2.816791534E0,4.918792248E0
8.562198230E0,2.139875650E0,-2.668826103E0,5.436058044E0
8.567248542E0,1.938280106E0,-2.525154114E0,6.326789856E0
8.572298802E0,1.894910216E0,-2.395173073E0,7.248654842E0
8.577349115E0,1.762377739E0,-2.171213150E0,7.797335625E0
8.582399427E0,1.408442616E0,-1.643195152E0,7.775313377E0
8.587449740E0,1.029429197E0,-1.175850868E0,7.943586349E0
8.592500052E0,9.858038425E-1,-9.420213699E-1,8.014299393E0
8.597550365E0,1.065355778E0,-1.045389175E0,7.651241779E0
8.602600625E0,1.089751959E0,-1.018142700E0,6.998947620E0
8.607650938E0,1.088958502E0,-9.194011688E-1,5.997082233E0
8.612701250E0,1.246689200E0,-8.866987228E-1,5.016578197E0
8.617751563E0,1.383477092E0,-8.491373062E-1,4.204911709E0
8.622801875E0,1.318974972E0,-6.230430603E-1,3.398936749E0
8.627852188E0,1.259679556E0,-2.496995926E-1,3.000157118E0
8.632902448E0,1.051795006E0,2.218604088E-1,2.691410065E0
8.637952761E0,8.121201992E-1,6.580648422E-1,1.925523281E0
8.643003021E0,6.369998455E-1,1.110379696E0,7.187266350E-1
8.648053334E0,5.535287857E-1,1.699528694E0,-4.656763077E-1
8.653103646E0,4.066159725E-1,2.086118221E0,-1.036401272E0
8.658153959E0,2.581503391E-1,2.373832226E0,-9.548239708E-1
8.663204219E0,5.144214630E-2,2.885683060E0,-1.897454262E-1
8.668254532E0,-3.285791874E-1,3.344078541E0,1.172766685E0
8.673304844E0,-5.493035316E-1,3.706141472E0,2.406110048E0
8.678355157E0,-5.856521130E-1,3.862747431E0,3.336406946E0
8.683405469E0,-3.744790554E-1,3.902051926E0,4.109672070E0
8.688455782E0,-3.840470314E-2,3.749797821E0,4.586119652E0
8.693506042E0,3.134787083E-1,3.523375988E0,4.972732544E0
8.698556355E0,4.502534866E-1,3.287181854E0,5.349597931E0
8.703606667E0,6.927428246E-1,3.080714703E0,5.512856007E0
8.708656980E0,9.275581837E-1,3.017787933E0,5.494773388E0
8.713707292E0,1.192614794E0,2.984060764E0,5.384962082E0
8.718757605E0,1.285841465E0,2.981264353E0,5.193291664E0
8.723807865E0,1.236078262E0,2.967133522E0,4.970205307E0
8.728858177E0,1.101701975E0,2.989415169E0,4.575912952E0
8.733908490E0,1.188829899E0,2.915060520E0,4.116074562E0
8.738958802E0,1.174532413E0,2.802067757E0,3.929677963E0
8.744009115E0,1.360252857E0,2.774568081E0,4.065043449E0
8.749059427E0,1.460217476E0,2.723418951E0,4.409726143E0
8.754109688E0,1.673020840E0,2.679058075E0,4.704975605E0
8.759160000E0,1.764838457E0,2.808947086E0,4.884859562E0
8.764249740E0,1.761215925E0,2.860395432E0,4.938837051E0
8.769300000E0,1.678131580E0,2.890656710E0,4.950984001E0
8.774350313E0,1.361862183E0,3.017303944E0,4.755604744E0
8.779400625E0,9.663696289E-1,3.296992779E0,4.517110348E0
8.784450938E0,6.919293404E-1,3.561643124E0,4.182533741E0
8.789501250E0,6.352367401E-1,3.708179235E0,3.623691559E0
8.794512084E0,6.260161400E-1,3.780523777E0,3.246856213E0
8.799562396E0,7.251036167E-1,3.732117653E0,3.073371410E0
8.804612709E0,9.059510231E-1,3.689712286E0,2.923719883E0
8.809663021E0,1.036885023E0,3.602015972E0,2.674460411E0
8.814713282E0,1.158222914E0,3.483894825E0,2.349415779E0
8.819763594E0,1.173105001E0,3.273661613E0,2.025911331E0
8.824813855E0,1.201942921E0,3.065100193E0,1.663118362E0
8.829864167E0,1.130463123E0,2.888062477E0,1.431675434E0
8.834914480E0,1.134816647E0,2.686598301E0,1.219580650E0
8.839964792E0,1.139546394E0,2.526840687E0,1.010722637E0
8.845015052E0,1.116925955E0,2.324973583E0,5.776343346E-1
8.850065365E0,9.893493652E-1,2.202279568E0,3.054356575E-1
8.855115677E0,9.767565727E-1,2.091053963E0,3.037285805E-1
8.860165990E0,9.948070049E-1,1.952960014E0,-9.339332581E-3
8.865216302E0,1.059620142E0,1.848213673E0,-1.432366371E0
8.870266615E0,1.112518311E0,1.819098949E0,-4.031689644E0
8.875316875E0,6.909537315E-1,1.581934452E0,-7.803597450E0
8.880367188E0,-2.963519096E-2,8.685078621E-1,-1.004609203E1
8.885417448E0,-1.133111000E0,-8.668470383E-2,-6.795066357E0
8.890467761E0,-3.135821819E0,-1.106359005E0,1.018002987E0
8.895518073E0,-4.326521873E0,-3.123055458E0,5.648696899E0
8.900568386E0,-4.577534676E0,-6.056499481E0,2.132660389E0
8.905618646E0,-4.422977448E0,-9.000370026E0,-5.577388287E0
8.910668959E0,-4.213582993E0,-1.182826614E1,-1.297377968E1
8.915719271E0,-4.523748875E0,-1.407101822E1,-1.496077347E1
8.920769584E0,-3.776399851E0,-1.555653763E1,-1.024051571E1
8.925819896E0,-8.738670349E-1,-1.528079414E1,-2.552535534E0
8.930870209E0,1.895072460E0,-1.156821442E1,5.257247925E0
8.935920469E0,3.756674767E0,-6.149655819E0,9.217205048E0
8.940970782E0,3.761979580E0,-1.909310818E0,9.025249481E0
8.946021042E0,2.427613020E0,1.376050472E0,6.793322086E0
8.951071355E0,7.845664024E-1,3.779129982E0,4.637230873E0
8.956121667E0,-5.479457378E-1,5.284839630E0,3.088920116E0
8.961171980E0,-1.519907713E0,5.827340603E0,1.119102955E0
8.966222240E0,-2.108783960E0,5.446259499E0,-8.111200333E-1
8.971272552E0,-2.169842005E0,5.037570477E0,-1.617351532E0
8.976322865E0,-2.172241449E0,4.631403923E0,-1.299799442E0
8.981373177E0,-2.282759190E0,4.115088463E0,-8.782577515E-2
8.986423490E0,-2.258883476E0,3.392065048E0,1.391533852E0
8.991473802E0,-1.961970329E0,2.464241028E0,2.526911259E0
8.996524063E0,-1.690925121E0,1.284127712E0,2.748483419E0
9.001574375E0,-1.548896790E0,3.124427795E-2,2.115414619E0
9.006624688E0,-1.409126282E0,-1.064398289E0,1.396065712E0
9.011675000E0,-1.309914827E0,-2.111155510E0,7.643051147E-1
9.016725313E0,-1.157825947E0,-2.955554962E0,1.930665970E-1
9.021775625E0,-9.153826237E-1,-3.486104965E0,-7.823276520E-2
9.026825886E0,-4.825959206E-1,-3.754902840E0,-1.140174866E-1
9.031876198E0,3.775930405E-2,-3.749337196E0,6.994915009E-2
9.036926511E0,4.217296839E-1,-3.560180664E0,2.334547043E-1
9.041976823E0,8.139647245E-1,-3.203567505E0,5.427165031E-1
9.047027136E0,1.091202259E0,-2.816813469E0,9.285402298E-1
9.052077448E0,1.351411104E0,-2.353044510E0,1.315012932E0
9.057127709E0,1.582946897E0,-1.881579399E0,1.665712118E0
9.062178021E0,1.770697355E0,-1.430035591E0,1.914726734E0
9.067228282E0,1.897838235E0,-1.006825447E0,2.068148851E0
9.072278594E0,1.876089096E0,-6.086530685E-1,2.008032322E0
9.077328907E0,1.887505770E0,-2.501726151E-1,2.036551476E0
9.082379219E0,1.923652411E0,3.603744507E-2,1.954334736E0
9.087429480E0,2.015493393E0,2.450847626E-1,1.929327726E0
9.092479792E0,2.086839437E0,3.457927704E-1,1.965146542E0
9.097530105E0,2.119158983E0,3.930463791E-1,2.015357018E0
9.102580417E0,2.086628437E0,3.673982620E-1,1.939391136E0
9.107630730E0,2.004173040E0,2.699995041E-1,1.921776772E0
9.112681042E0,1.883125305E0,1.056671143E-1,2.029426098E0
9.117731302E0,1.724248886E0,-8.988666534E-2,2.074766159E0
9.122781615E0,1.483761787E0,-2.808322906E-1,2.056851864E0
9.127831927E0,1.311643600E0,-5.175952911E-1,1.897249460E0
9.132882240E0,1.164238691E0,-7.044219971E-1,1.681423426E0
9.137932552E0,1.001298189E0,-8.459119797E-1,1.557608724E0
9.142982865E0,8.413952589E-1,-9.756050110E-1,1.423133612E0
9.148033125E0,7.641446590E-1,-1.095562935E0,1.376726627E0
9.153083438E0,5.339638591E-1,-1.064584732E0,1.029828548E0
9.158133750E0,1.562740803E-1,-9.148559570E-1,7.412455082E-1
9.163184063E0,-3.527188301E-2,-6.283864975E-1,5.798842907E-1
9.168234375E0,-2.207659483E-1,-3.463211060E-1,4.662694931E-1
9.173284688E0,-4.528006315E-1,3.666877747E-2,2.434306145E-1
9.178334948E0,-5.888885260E-1,3.614196777E-1,8.468055725E-2
9.183385261E0,-7.189289331E-1,6.242246628E-1,-1.302912235E-1
9.188435573E0,-8.391908407E-1,9.027357101E-1,-2.740678787E-1
9.193485886E0,-9.972136021E-1,1.054323196E0,-3.949928284E-1
9.198536198E0,-1.145306587E0,1.336172104E0,-3.145585060E-1
9.203586511E0,-1.103377938E0,1.480099678E0,-1.202661991E-1
9.208636771E0,-1.046992540E0,1.610655785E0,1.195526123E-2
9.213687084E0,-8.361412287E-1,1.675349712E0,2.983665466E-1
9.218737344E0,-6.898698807E-1,1.729487896E0,6.053078175E-1
9.223787657E0,-4.859386683E-1,1.824595451E0,1.026964664E0
9.228837969E0,-2.152324915E-1,1.814745903E0,1.366955280E0
9.233888282E0,-1.784729958E-2,1.777770996E0,1.520437002E0
9.238938542E0,1.746219397E-1,1.803420544E0,1.645589232E0
9.243988855E0,2.785636187E-1,1.783822536E0,1.593586206E0
9.249039167E0,3.274223804E-1,1.795639038E0,1.570430517E0
9.254089480E0,3.417000771E-1,1.819677353E0,1.461459279E0
9.259139792E0,2.379044294E-1,1.889269829E0,1.174357176E0
9.264190105E0,1.442002654E-1,1.767418861E0,8.058342934E-1
9.269240365E0,4.297280312E-2,1.706648350E0,3.401370049E-1
9.274290677E0,-5.384898186E-2,1.623169899E0,-2.248585224E-2
9.279340990E0,-7.464778423E-2,1.503990173E0,-2.333916426E-1
9.284391302E0,-2.603650093E-2,1.364901543E0,-3.519078493E-1
9.289441615E0,9.865081310E-2,1.265973091E0,-3.670873642E-1
9.294491927E0,1.577218771E-1,1.164288521E0,-3.719793558E-1
9.299542188E0,1.755152941E-1,1.124667168E0,-4.019998312E-1
9.304592500E0,1.195397377E-1,1.129134178E0,-5.277366638E-1
9.309642813E0,8.994460106E-3,1.204028130E0,-7.889633179E-1
9.314693125E0,-2.673629522E-1,1.300202370E0,-1.013030291E0
9.319743438E0,-5.055009127E-1,1.343437195E0,-1.306580782E0
9.324793750E0,-7.888305187E-1,1.379221916E0,-1.523532629E0
9.329844011E0,-1.035861611E0,1.325052261E0,-1.762313604E0
9.334894323E0,-1.268987656E0,1.312587738E0,-1.991757274E0
9.339944636E0,-1.436330914E0,1.198114395E0,-2.335680246E0
9.344994948E0,-1.572223902E0,1.125222206E0,-2.620054722E0
9.350045261E0,-1.559333205E0,8.952074051E-1,-2.912495136E0
9.355095573E0,-1.429436564E0,6.925535202E-1,-3.086114407E0
9.360145834E0,-1.162340403E0,4.837541580E-1,-3.186622381E0
9.365196146E0,-8.306174278E-1,2.246742249E-1,-3.212021351E0
9.370246459E0,-5.779744387E-1,7.094764709E-2,-3.219031811E0
9.375296771E0,-4.018548727E-1,3.205108643E-2,-3.136283875E0
9.380347084E0,-2.590655088E-1,1.343059540E-2,-2.908579111E0
9.385397396E0,-1.755863428E-1,7.612800598E-2,-2.550194979E0
9.390447657E0,-1.344788074E-1,5.861949921E-2,-2.079015493E0
9.395497969E0,-1.752786636E-1,1.248836517E-2,-1.692982674E0
9.400548230E0,-2.079529762E-1,-1.519794464E-1,-1.370595455E0
9.405598542E0,-1.835874319E-1,-3.928050995E-1,-1.085068464E0
9.410648855E0,-1.157412529E-1,-5.998563766E-1,-8.586117625E-1
9.415699167E0,4.068398476E-2,-7.612180710E-1,-6.393325925E-1
9.420749427E0,1.838726997E-1,-8.913059235E-1,-4.499489665E-1
9.425799740E0,4.269692898E-1,-9.793024063E-1,-2.442246079E-1
9.430850052E0,7.564315796E-1,-1.118497849E0,-3.710156679E-2
9.435900365E0,1.039049625E0,-1.149669647E0,2.144867182E-2
9.440950677E0,1.273328304E0,-1.210471153E0,-3.403955698E-2
9.446000990E0,1.371874809E0,-1.233890533E0,-2.260643840E-1
9.451051250E0,1.305970073E0,-1.312118530E0,-6.592078209E-1
9.456101563E0,1.125974178E0,-1.423593521E0,-1.141280413E0
9.461151875E0,8.736488223E-1,-1.705857277E0,-1.658406019E0
9.466202188E0,5.367505550E-1,-2.078538895E0,-2.133282185E0
9.471252500E0,1.706165075E-1,-2.533218384E0,-2.446682453E0
9.476302813E0,-6.075727940E-2,-2.910702705E0,-2.611710310E0
9.481353073E0,-1.439197063E-1,-3.169269562E0,-2.451579571E0
9.486403386E0,-4.446780682E-2,-3.417903900E0,-2.234677315E0
9.491493125E0,4.728579521E-2,-3.679347992E0,-1.899377823E0
9.496543386E0,8.757030964E-2,-4.102009773E0,-1.633777976E0
9.501593698E0,2.143466473E-2,-4.689272881E0,-1.407731056E0
9.506644011E0,-1.655110121E-1,-5.408614159E0,-1.233399630E0
9.511694323E0,-3.787659407E-1,-6.115085602E0,-9.046152234E-1
9.516744636E0,-6.765685081E-1,-6.625703812E0,-5.338730216E-1
9.521755469E0,-1.028371692E0,-6.824720383E0,-2.051089555E-1
9.526805782E0,-1.352296472E0,-6.580968857E0,1.082314998E-1
9.531856094E0,-1.752097487E0,-6.133237839E0,1.812489778E-1
9.536906407E0,-2.237858295E0,-5.734385490E0,7.323996723E-2
9.541956667E0,-2.719714642E0,-5.633307457E0,-2.424938530E-1
9.547006980E0,-3.063883066E0,-5.616805077E0,-6.598342061E-1
9.552057292E0,-3.133366585E0,-5.711025238E0,-1.041427970E0
9.557107605E0,-3.042448044E0,-5.751897812E0,-1.392299652E0
9.562157917E0,-2.928049088E0,-5.588718414E0,-1.725921392E0
9.567208230E0,-2.862114191E0,-5.256420135E0,-1.994725823E0
9.572258490E0,-2.785790443E0,-4.731334686E0,-2.205176830E0
9.577308802E0,-2.735948324E0,-4.014977455E0,-2.401091814E0
9.582359115E0,-2.667166948E0,-3.266752243E0,-2.573443651E0
9.587409427E0,-2.514292240E0,-2.688879013E0,-2.674082994E0
9.592459740E0,-2.316112041E0,-2.183115005E0,-2.741433382E0
9.597510052E0,-2.074885368E0,-1.854630470E0,-2.807793379E0
9.602560313E0,-1.838053823E0,-1.593175888E0,-2.838883400E0
9.607610625E0,-1.636219382E0,-1.411862373E0,-2.937826157E0
9.612660886E0,-1.443338633E0,-1.319074631E0,-3.109199047E0
9.617711198E0,-1.361970067E0,-1.227393150E0,-3.262075901E0
9.622761511E0,-1.331512094E0,-1.219427109E0,-3.332200766E0
9.627811823E0,-1.278362274E0,-1.170743942E0,-3.466503382E0
9.632862084E0,-1.299681544E0,-1.154551506E0,-3.636951447E0
9.637912396E0,-1.308632970E0,-1.075282097E0,-3.839200974E0
9.642962709E0,-1.325520635E0,-9.680643082E-1,-3.973029852E0
9.648013021E0,-1.377877235E0,-8.069639206E-1,-4.049098969E0
9.653063334E0,-1.487114549E0,-6.868925095E-1,-3.939907551E0
9.658113646E0,-1.584889174E0,-7.049779892E-1,-3.735145092E0
9.663163907E0,-1.686508417E0,-8.015041351E-1,-3.457541704E0
9.668214219E0,-1.717521429E0,-9.359197617E-1,-3.184904337E0
9.673264532E0,-1.658245087E0,-1.090453148E0,-2.997459888E0
9.678314844E0,-1.616508245E0,-1.383897781E0,-2.916155338E0
9.683365157E0,-1.453764915E0,-1.847394943E0,-2.707629919E0
9.688415469E0,-1.235582829E0,-2.406412125E0,-2.432570696E0
9.693465730E0,-9.330530167E-1,-3.091494560E0,-1.909248352E0
9.698516042E0,-4.475934505E-1,-3.784435272E0,-1.328127623E0
9.703566302E0,1.226248741E-1,-4.371924400E0,-7.517530918E-1
9.708616615E0,7.935971022E-1,-4.701107025E0,-3.139803410E-1
9.713666927E0,1.472862244E0,-4.870602608E0,9.737014771E-4
9.718717240E0,2.087590218E0,-4.755429268E0,1.758289337E-1
9.723767500E0,2.578317404E0,-4.387402534E0,3.808169365E-1
9.728817813E0,2.969474316E0,-3.891862869E0,7.183382511E-1
9.733868125E0,3.266138077E0,-3.428650856E0,1.178474903E0
9.738918438E0,3.437965155E0,-3.047587395E0,1.792171597E0
9.743968750E0,3.286884308E0,-2.689043999E0,2.530643940E0
9.749019063E0,2.750008583E0,-2.190211296E0,3.130674362E0
9.754069323E0,1.980986476E0,-1.631598473E0,3.636600733E0
9.759119636E0,1.403328776E0,-1.350607872E0,4.439310551E0
9.764169896E0,9.382855892E-1,-1.247731209E0,5.715006828E0
9.769220209E0,4.824826717E-1,-1.269857407E0,6.784024239E0
9.774270521E0,-4.403972626E-2,-1.305405617E0,7.561336994E0
9.779320834E0,-5.702366829E-1,-1.354102135E0,7.955059528E0
9.784371094E0,-8.777406216E-1,-1.380715370E0,8.142932892E0
9.789421407E0,-9.797391891E-1,-1.436818123E0,8.191410065E0
9.794471719E0,-1.097132921E0,-1.207519531E0,8.033746719E0
9.799522032E0,-9.739415646E-1,-9.533872604E-1,7.758474350E0
9.804572344E0,-8.875820637E-1,-6.536636353E-1,7.226099491E0
9.809622657E0,-7.961115837E-1,-3.033704758E-1,6.380329132E0
9.814672917E0,-8.580484390E-1,1.227865219E-1,5.449415684E0
9.819723230E0,-8.826222420E-1,5.461478233E-1,4.436281681E0
9.824773490E0,-8.458433151E-1,9.454479218E-1,3.235357523E0
9.829823802E0,-6.609213352E-1,1.385186672E0,1.824074507E0
9.834874115E0,-3.245382309E-1,1.579648495E0,3.605380058E-1
9.839924427E0,5.199456215E-2,1.720483780E0,-7.657403946E-1
9.844974688E0,5.260198116E-1,1.793760300E0,-1.537819862E0
9.850025000E0,1.004966736E0,1.898923874E0,-1.772878647E0
9.855075313E0,1.313186884E0,1.974371433E0,-1.422265053E0
9.860125625E0,1.469610214E0,2.196798801E0,-6.966729164E-1
9.865175938E0,1.439252377E0,2.329010010E0,3.347496986E-1
9.870226250E0,1.413741112E0,2.415249825E0,1.545121670E0
9.875276511E0,1.414188385E0,2.372039795E0,2.701726913E0
9.880326823E0,1.337977648E0,2.407790184E0,3.673014402E0
9.885377084E0,1.240848303E0,2.450863361E0,4.447568893E0
9.890427396E0,1.175200224E0,2.568233967E0,4.896833420E0
9.895477709E0,1.159004927E0,2.641633987E0,5.396039009E0
9.900528021E0,9.426929951E-1,2.790660620E0,5.773339748E0
9.905578282E0,6.347434521E-1,3.166900158E0,5.917006969E0
9.910628594E0,3.518989086E-1,3.572536945E0,5.821273327E0
9.915678855E0,2.126209736E-1,4.016130924E0,5.438441753E0
9.920729167E0,1.799609661E-1,4.526737690E0,5.092607498E0
9.925779480E0,4.645395279E-1,4.565443516E0,4.618731499E0
9.930829792E0,7.030503750E-1,4.518799305E0,4.115539074E0
9.935880052E0,1.023366451E0,4.308333874E0,3.683073044E0
9.940930365E0,1.415539742E0,3.976293087E0,3.564326763E0
9.945980677E0,1.781435013E0,3.605559111E0,3.626152039E0
9.951030990E0,2.111717701E0,3.215206861E0,3.771605492E0
9.956081302E0,2.242919445E0,2.916314125E0,4.056920528E0
9.961131615E0,2.536770105E0,2.592263937E0,4.425133705E0
9.966181875E0,2.671484947E0,2.353752613E0,4.644361973E0
9.971232188E0,2.592232704E0,2.294149637E0,4.810526848E0
9.976282448E0,2.355499744E0,2.373111248E0,4.925806046E0
9.981332761E0,2.238246441E0,2.423838615E0,4.989025116E0
9.986383073E0,1.961725950E0,2.569689274E0,4.900924683E0
9.991433386E0,1.802951336E0,2.687791109E0,4.730078697E0
9.996483646E0,1.682952642E0,2.876530886E0,4.468765736E0
1.000153396E1,1.600222349E0,3.220053196E0,4.138458252E0
1.000658422E1,1.435218811E0,3.635423422E0,3.823055029E0
1.001163453E1,1.183498383E0,4.073300362E0,3.430397034E0
1.001668484E1,9.413955212E-1,4.541445732E0,2.992930412E0
1.002173516E1,8.075385094E-1,4.880081654E0,2.483258724E0
1.002678542E1,7.990150452E-1,5.051743031E0,1.891919136E0
1.003183573E1,9.095821381E-1,4.992770195E0,1.231284142E0
1.003688604E1,1.092431545E0,4.797331810E0,4.826555252E-1
1.004193636E1,1.269825220E0,4.655200005E0,-1.837234497E-1
1.004698667E1,1.363900423E0,4.427714348E0,-8.878064156E-1
1.005203698E1,1.348774672E0,4.176794052E0,-1.433411121E0
1.005708724E1,1.256563187E0,3.918030262E0,-1.821930885E0
1.006213755E1,1.091511488E0,3.583837748E0,-1.758102894E0
1.006718781E1,7.253377438E-1,3.173882246E0,-1.912865162E0
1.007223812E1,3.712525368E-1,2.907530069E0,-2.458310604E0
1.007728844E1,5.695104599E-2,2.686424732E0,-4.080531597E0
1.008233875E1,-5.482275486E-1,2.281330585E0,-6.192440033E0
1.008738901E1,-1.591957331E0,1.482563019E0,-7.796345711E0
1.009243932E1,-3.234879971E0,2.884812355E-1,-7.125068665E0
1.009748958E1,-4.711619377E0,-1.684743881E0,-3.565939426E0
1.010253990E1,-4.919478416E0,-4.451403141E0,1.137269020E0
1.010759021E1,-4.319041729E0,-7.616762638E0,2.135678768E0
1.011264052E1,-3.565398693E0,-1.055577278E1,-2.171753883E0
1.011769078E1,-2.612784863E0,-1.335036659E1,-7.702265739E0
1.012274109E1,-9.716131687E-1,-1.554650688E1,-9.289951324E0
1.012779136E1,7.433485985E-1,-1.612614441E1,-5.690168381E0
1.013284167E1,2.050848722E0,-1.439725304E1,-1.995258331E0
1.013789198E1,2.315263510E0,-1.092611122E1,-4.715299606E-1
1.014294229E1,2.219728470E0,-6.859213829E0,2.032711506E0
1.014799255E1,2.092012167E0,-3.316578865E0,4.759582996E0
1.015304286E1,1.475479603E0,-5.889506340E-1,5.115223408E0
1.015809318E1,3.392961025E-1,1.225101471E0,3.922592878E0
1.016314349E1,-8.204414845E-1,2.394808769E0,2.711323977E0
1.016819380E1,-1.537317038E0,3.179006100E0,1.685671806E0
1.017324406E1,-1.875932455E0,3.565012455E0,9.197807312E-1
1.017829438E1,-2.113383293E0,3.640635252E0,4.235582352E-1
1.018334469E1,-2.534968376E0,3.467880249E0,-1.553425789E-1
1.018839495E1,-2.946579695E0,2.983893871E0,-7.653546333E-1
1.019344526E1,-3.274707794E0,2.247553349E0,-1.254261017E0
1.019849557E1,-3.405460596E0,1.401513100E0,-1.294901371E0
1.020354583E1,-3.181051493E0,3.611087799E-1,-6.296458244E-1
1.020859615E1,-2.810612440E0,-7.198429108E-1,3.652205467E-1
1.021364646E1,-2.543532848E0,-1.761654377E0,1.323934078E0
1.021873625E1,-2.362707615E0,-2.655299664E0,1.640414238E0
1.022378651E1,-2.252272367E0,-3.268559456E0,1.585637569E0
1.022883682E1,-2.163053751E0,-3.558724880E0,1.452864647E0
1.023388714E1,-1.975458860E0,-3.516736984E0,1.365835667E0
1.023893745E1,-1.411072493E0,-3.240296841E0,1.286489487E0
1.024398776E1,-5.776591301E-1,-2.747421741E0,1.316102982E0
1.024899854E1,2.427783012E-1,-2.230271339E0,1.548850536E0
1.025404886E1,9.970006943E-1,-1.616707325E0,1.766436577E0
1.025909917E1,1.412415266E0,-9.648113251E-1,1.831935883E0
1.026414943E1,1.718131542E0,-3.068418503E-1,1.935407877E0
1.026919974E1,1.859646797E0,2.993144989E-1,2.007830858E0
1.027425005E1,1.974361897E0,7.149229050E-1,1.933332443E0
1.027930031E1,2.113384247E0,1.120398521E0,1.876783848E0
1.028435062E1,2.144975901E0,1.400552750E0,1.765769720E0
1.028940094E1,2.210464478E0,1.498887062E0,1.687169075E0
1.029445120E1,2.188248158E0,1.426111221E0,1.628071308E0
1.029950151E1,2.196884632E0,1.099654198E0,1.660681725E0
1.030455182E1,2.138826847E0,7.434597015E-1,1.728591919E0
1.030960214E1,2.137939453E0,3.433084488E-1,1.844557762E0
1.031465245E1,2.128907204E0,-1.339721680E-2,1.906620502E0
1.031970276E1,2.125617027E0,-3.984937668E-1,1.870336533E0
1.032475302E1,2.124671698E0,-6.492881775E-1,1.829185009E0
1.032980333E1,2.139251709E0,-9.223842621E-1,1.710916996E0
1.033485365E1,2.230967283E0,-1.234168053E0,1.692308187E0
1.033990396E1,2.195037603E0,-1.480311394E0,1.559932709E0
1.034495427E1,2.096830845E0,-1.641856194E0,1.333515644E0
1.035000458E1,1.933416128E0,-1.773840904E0,9.701797962E-1
1.035505484E1,1.780576229E0,-1.770983696E0,5.971784592E-1
1.036010516E1,1.637955070E0,-1.791349411E0,3.306887150E-1
1.036515547E1,1.517916918E0,-1.678071976E0,1.419267654E-1
1.037020573E1,1.344096184E0,-1.462476730E0,1.504173279E-1
1.037525604E1,1.020921707E0,-1.075400352E0,7.256436348E-2
1.038030636E1,6.983031034E-1,-6.713161469E-1,1.714019775E-1
1.038535662E1,4.754920006E-1,-3.160600662E-1,3.151681423E-1
1.039040693E1,3.206570148E-1,-6.215286255E-2,4.177911282E-1
1.039545724E1,1.271817684E-1,1.549959183E-1,3.875641823E-1
1.040050755E1,-1.577260494E-1,4.176473618E-1,9.403991699E-2
1.040555786E1,-4.484122992E-1,7.301473618E-1,-2.259478569E-1
