time,seconds_elapsed,z,y,x
1687271832092105200,0.290105224609375,-0.66302490234375,-0.77734375,0.01544189453125
1687271832112138000,0.310137939453125,-0.649505615234375,-0.74090576171875,-0.0342254638671875
1687271832122155300,0.3201552734375,-0.6442413330078125,-0.74261474609375,-0.0301513671875
1687271832132172000,0.330172119140625,-0.645721435546875,-0.75531005859375,-0.015472412109375
1687271832142188000,0.34018798828125,-0.653228759765625,-0.7714996337890625,0.0031890869140625
1687271832152205000,0.350205078125,-0.6610107421875,-0.784210205078125,0.01385498046875
1687271832162222000,0.36022216796875,-0.67120361328125,-0.79534912109375,0.03436279296875
1687271832172238000,0.370238037109375,-0.6648712158203125,-0.8099822998046875,0.063873291015625
1687271832182255000,0.380255126953125,-0.64630126953125,-0.819732666015625,0.0737152099609375
1687271832192272100,0.390272216796875,-0.6221771240234375,-0.8200531005859375,0.0737762451171875
1687271832202288000,0.4002880859375,-0.60107421875,-0.805755615234375,0.052032470703125
1687271832212305200,0.41030517578125,-0.5904998779296875,-0.7877960205078125,0.0225372314453125
1687271832222322000,0.420322021484375,-0.5882415771484375,-0.781402587890625,0.0223846435546875
1687271832232338200,0.430338134765625,-0.585723876953125,-0.7853851318359375,0.0235748291015625
1687271832242355200,0.440355224609375,-0.5968780517578125,-0.78619384765625,0.0252532958984375
1687271832252372000,0.4503720703125,-0.613555908203125,-0.792572021484375,0.045623779296875
1687271832262388000,0.460387939453125,-0.6279144287109375,-0.7931671142578125,0.046905517578125
1687271832272405200,0.4704052734375,-0.6358795166015625,-0.785308837890625,0.0226898193359375
1687271832282422000,0.480422119140625,-0.6355743408203125,-0.77642822265625,-0.0031280517578125
1687271832292438000,0.49043798828125,-0.6327667236328125,-0.7707977294921875,-0.019775390625
1687271832302455300,0.500455322265625,-0.6280670166015625,-0.7685546875,-0.0292510986328125
1687271832312472000,0.51047216796875,-0.6246795654296875,-0.7664337158203125,-0.04156494140625
1687271832322488000,0.520488037109375,-0.62664794921875,-0.7716064453125,-0.0405731201171875
1687271832332505000,0.530505126953125,-0.630889892578125,-0.7822113037109375,-0.0256195068359375
1687271832342522000,0.540522216796875,-0.6360015869140625,-0.7878265380859375,-0.0167083740234375
1687271832352538000,0.5505380859375,-0.6366119384765625,-0.78863525390625,-0.0145111083984375
1687271832362555100,0.56055517578125,-0.6348114013671875,-0.7870941162109375,-0.0146942138671875
1687271832372572200,0.570572265625,-0.636383056640625,-0.7809295654296875,-0.0247344970703125
1687271832382588200,0.580588134765625,-0.6353912353515625,-0.7749176025390625,-0.034515380859375
1687271832392605200,0.590605224609375,-0.6320343017578125,-0.7751312255859375,-0.02984619140625
1687271832402622000,0.6006220703125,-0.6204376220703125,-0.7802734375,-0.020751953125
1687271832412638200,0.61063818359375,-0.6119232177734375,-0.782623291015625,-0.0167999267578125
1687271832422655200,0.6206552734375,-0.6232452392578125,-0.7817230224609375,-0.0121612548828125
1687271832432672000,0.630672119140625,-0.6353302001953125,-0.7845458984375,0.00823974609375
1687271832442688000,0.64068798828125,-0.6394805908203125,-0.7849578857421875,0.01495361328125
1687271832452705000,0.650705078125,-0.636627197265625,-0.783294677734375,0.0032958984375
1687271832462722000,0.66072216796875,-0.634765625,-0.7828521728515625,-0.0066070556640625
1687271832472738000,0.670738037109375,-0.63836669921875,-0.7816314697265625,-0.0119781494140625
1687271832482755000,0.680755126953125,-0.6421356201171875,-0.782318115234375,-0.01483154296875
1687271832492772000,0.690772216796875,-0.6349334716796875,-0.7844696044921875,-0.015625
1687271832502788000,0.7007880859375,-0.6255645751953125,-0.7838287353515625,-0.0219268798828125
1687271832512804900,0.710804931640625,-0.6145172119140625,-0.7801513671875,-0.0318756103515625
1687271832522822100,0.720822265625,-0.61505126953125,-0.7781219482421875,-0.03521728515625
1687271832532838100,0.730838134765625,-0.62469482421875,-0.7816619873046875,-0.028961181640625
1687271832542855000,0.74085498046875,-0.631683349609375,-0.786895751953125,-0.014190673828125
1687271832552872200,0.7508720703125,-0.632904052734375,-0.7907562255859375,-0.010498046875
1687271832562889200,0.76088916015625,-0.631988525390625,-0.7898406982421875,-0.0166015625
1687271832572905000,0.770905029296875,-0.62786865234375,-0.7895660400390625,-0.0196533203125
1687271832582922000,0.780921875,-0.6184234619140625,-0.789947509765625,-0.0225677490234375
1687271832592939300,0.790939208984375,-0.616851806640625,-0.7905120849609375,-0.026519775390625
1687271832602955000,0.800955078125,-0.6390838623046875,-0.7996673583984375,-0.0365447998046875
1687271832612972000,0.810971923828125,-0.632080078125,-0.798858642578125,-0.0467987060546875
1687271832622989000,0.820989013671875,-0.6245880126953125,-0.795989990234375,-0.03790283203125
1687271832633005000,0.831005126953125,-0.6093292236328125,-0.796051025390625,-0.01165771484375
1687271832643022000,0.84102197265625,-0.5983734130859375,-0.80450439453125,0.024139404296875
1687271832653039000,0.8510390625,-0.5858612060546875,-0.8098297119140625,0.052825927734375
1687271832663055000,0.86105517578125,-0.5759124755859375,-0.8077545166015625,0.0650634765625
1687271832673072000,0.871072021484375,-0.5709075927734375,-0.7989959716796875,0.0670013427734375
1687271832683089000,0.8810888671875,-0.5540924072265625,-0.793548583984375,0.0497894287109375
1687271832693105000,0.89110498046875,-0.543487548828125,-0.8089752197265625,0.03594970703125
1687271832703122200,0.9011220703125,-0.542755126953125,-0.8216094970703125,0.0327606201171875
1687271832713139000,0.911138916015625,-0.5546417236328125,-0.8312530517578125,0.038330078125
1687271832723155000,0.921155029296875,-0.5811614990234375,-0.819305419921875,0.053863525390625
1687271832733172200,0.931172119140625,-0.5922698974609375,-0.8038482666015625,0.0534820556640625
1687271832743189000,0.94118896484375,-0.58563232421875,-0.8094940185546875,0.0482330322265625
1687271832753205000,0.951205078125,-0.564422607421875,-0.8246917724609375,0.0424957275390625
1687271832763222000,0.961221923828125,-0.545440673828125,-0.83087158203125,0.0450439453125
1687271832773239000,0.971239013671875,-0.5475921630859375,-0.8268890380859375,0.0601959228515625
1687271832783255000,0.981255126953125,-0.5512847900390625,-0.8201141357421875,0.06402587890625
1687271832793272000,0.99127197265625,-0.55987548828125,-0.811676025390625,0.0438995361328125
1687271832803289000,1.0012890625,-0.57440185546875,-0.807220458984375,0.0189056396484375
1687271832813306000,1.01130615234375,-0.5954742431640625,-0.80682373046875,0.0128021240234375
1687271832823322000,1.021322021484375,-0.6143798828125,-0.810333251953125,0.018524169921875
1687271832833339000,1.0313388671875,-0.626800537109375,-0.8105621337890625,0.0150146484375
1687271832843356200,1.041356201171875,-0.6295013427734375,-0.80389404296875,0.0145111083984375
1687271832853372200,1.0513720703125,-0.630462646484375,-0.79461669921875,0.012481689453125
1687271832863389000,1.061388916015625,-0.6306304931640625,-0.7896728515625,0.0042877197265625
1687271832873406200,1.07140625,-0.62933349609375,-0.7884521484375,-0.002716064453125
1687271832883422200,1.081422119140625,-0.6222686767578125,-0.798492431640625,-0.0028839111328125
1687271832893439000,1.09143896484375,-0.61102294921875,-0.812225341796875,0.010101318359375
1687271832903456000,1.1014560546875,-0.6095428466796875,-0.8151092529296875,0.015350341796875
1687271832913472300,1.11147216796875,-0.5997772216796875,-0.8103790283203125,0.02435302734375
1687271832923489000,1.121489013671875,-0.585784912109375,-0.80694580078125,0.02734375
1687271832933506000,1.131506103515625,-0.57861328125,-0.8040008544921875,0.0218505859375
1687271832943522000,1.14152197265625,-0.5729827880859375,-0.7984466552734375,0.021759033203125
1687271832953539000,1.1515390625,-0.5747833251953125,-0.78961181640625,0.022186279296875
1687271832963556000,1.16155615234375,-0.5821533203125,-0.789093017578125,0.0223388671875
1687271832973572000,1.171572021484375,-0.5897674560546875,-0.793182373046875,0.0212554931640625
1687271832983589000,1.181589111328125,-0.58538818359375,-0.7973785400390625,0.02288818359375
1687271832993606100,1.191606201171875,-0.58135986328125,-0.7960205078125,0.0220947265625
1687271833003622100,1.2016220703125,-0.5942230224609375,-0.7936553955078125,0.029144287109375
1687271833013639000,1.211638916015625,-0.608367919921875,-0.7919921875,0.034637451171875
1687271833023656200,1.22165625,-0.615814208984375,-0.7927398681640625,0.03216552734375
1687271833033673000,1.2316728515625,-0.6235809326171875,-0.7944183349609375,0.025177001953125
1687271833043689000,1.24168896484375,-0.6317138671875,-0.7964019775390625,0.0247039794921875
1687271833053706200,1.251706298828125,-0.6475372314453125,-0.794189453125,0.028839111328125
1687271833063723000,1.261722900390625,-0.6479644775390625,-0.7954254150390625,0.037811279296875
1687271833073739000,1.271739013671875,-0.63818359375,-0.7983856201171875,0.045867919921875
1687271833083756300,1.28175634765625,-0.630462646484375,-0.7876739501953125,0.0269622802734375
1687271833093773000,1.29177294921875,-0.624237060546875,-0.786865234375,0.025360107421875
1687271833103789000,1.3017890625,-0.615325927734375,-0.7906341552734375,0.028656005859375
1687271833113806300,1.311806396484375,-0.6093292236328125,-0.795196533203125,0.0323028564453125
1687271833123823000,1.321822998046875,-0.60308837890625,-0.79766845703125,0.0354461669921875
1687271833133839000,1.331839111328125,-0.6009979248046875,-0.7982177734375,0.0422210693359375
1687271833143856400,1.3418564453125,-0.6028900146484375,-0.7993927001953125,0.0492401123046875
1687271833153873200,1.351873046875,-0.6058197021484375,-0.80413818359375,0.0552215576171875
1687271833163889200,1.36188916015625,-0.610992431640625,-0.812286376953125,0.0633392333984375
1687271833173906200,1.37190625,-0.6199188232421875,-0.8127593994140625,0.0641937255859375
1687271833183923200,1.381923095703125,-0.621917724609375,-0.8025054931640625,0.054351806640625
1687271833193939200,1.391939208984375,-0.6074371337890625,-0.794464111328125,0.0434722900390625
1687271833203956200,1.401956298828125,-0.592926025390625,-0.7926177978515625,0.0321807861328125
1687271833213973200,1.41197314453125,-0.5807037353515625,-0.79296875,0.020263671875
1687271833223989200,1.4219892578125,-0.5727081298828125,-0.7926483154296875,0.0135650634765625
1687271833234006300,1.43200634765625,-0.5718536376953125,-0.78961181640625,0.003814697265625
1687271833244023000,1.44202294921875,-0.578826904296875,-0.7811431884765625,-0.00579833984375
1687271833254039300,1.452039306640625,-0.5853729248046875,-0.7840576171875,0.0059814453125
1687271833264056300,1.462056396484375,-0.603057861328125,-0.794342041015625,0.0269622802734375
1687271833274073000,1.472072998046875,-0.6292877197265625,-0.8026275634765625,0.05206298828125
1687271833284090400,1.48209033203125,-0.64971923828125,-0.8106231689453125,0.074615478515625
1687271833294106400,1.4921064453125,-0.662506103515625,-0.8132781982421875,0.0882568359375
1687271833304123100,1.502123046875,-0.661163330078125,-0.813629150390625,0.0976715087890625
1687271833314140400,1.512140380859375,-0.633880615234375,-0.81170654296875,0.090301513671875
1687271833324156200,1.52215625,-0.61065673828125,-0.793365478515625,0.01739501953125
1687271833334173200,1.532173095703125,-0.62432861328125,-0.781158447265625,0.0035858154296875
1687271833344190200,1.542190185546875,-0.6110382080078125,-0.7840423583984375,0.038665771484375
1687271833354206200,1.552206298828125,-0.5936126708984375,-0.7939453125,0.065704345703125
1687271833364223200,1.56222314453125,-0.5753173828125,-0.8121795654296875,0.082366943359375
1687271833374240300,1.572240234375,-0.566619873046875,-0.821502685546875,0.0985565185546875
1687271833384256000,1.582256103515625,-0.5554656982421875,-0.8253021240234375,0.1201171875
1687271833394273300,1.592273193359375,-0.5520172119140625,-0.825042724609375,0.1226959228515625
1687271833404290300,1.602290283203125,-0.55511474609375,-0.814239501953125,0.087554931640625
1687271833414306000,1.61230615234375,-0.5678253173828125,-0.8008880615234375,0.044281005859375
1687271833424323300,1.6223232421875,-0.584136962890625,-0.7902069091796875,0.0194549560546875
1687271833434340400,1.63234033203125,-0.599761962890625,-0.7838134765625,0.01025390625
1687271833444356000,1.642356201171875,-0.617462158203125,-0.785125732421875,0.023040771484375
1687271833454373000,1.652373046875,-0.6277923583984375,-0.7940826416015625,0.050445556640625
1687271833464390400,1.662390380859375,-0.62994384765625,-0.8073272705078125,0.0736541748046875
1687271833474406100,1.67240625,-0.628143310546875,-0.8148193359375,0.0826568603515625
1687271833484423200,1.682423095703125,-0.6243896484375,-0.8145599365234375,0.0816802978515625
1687271833494440200,1.692440185546875,-0.614349365234375,-0.810699462890625,0.078948974609375
1687271833504456200,1.702456298828125,-0.602569580078125,-0.8061981201171875,0.0727691650390625
1687271833514473200,1.71247314453125,-0.589508056640625,-0.80328369140625,0.0603790283203125
1687271833524490200,1.722490234375,-0.5803070068359375,-0.79718017578125,0.0453033447265625
1687271833534506000,1.732506103515625,-0.5843505859375,-0.798583984375,0.039337158203125
1687271833544523300,1.742523193359375,-0.59320068359375,-0.7979278564453125,0.040863037109375
1687271833554540000,1.7525400390625,-0.5966033935546875,-0.7957763671875,0.0449981689453125
1687271833564557300,1.762557373046875,-0.599945068359375,-0.79644775390625,0.0414276123046875
1687271833574573300,1.7725732421875,-0.6077880859375,-0.7987060546875,0.0460357666015625
1687271833584590000,1.782590087890625,-0.6134185791015625,-0.7994537353515625,0.0541229248046875
1687271833594607000,1.792607177734375,-0.6151123046875,-0.8004913330078125,0.05712890625
1687271833604623400,1.802623291015625,-0.6111602783203125,-0.7993927001953125,0.0531463623046875
1687271833614640000,1.81264013671875,-0.619598388671875,-0.78985595703125,0.02386474609375
1687271833624657200,1.8226572265625,-0.622406005859375,-0.7768707275390625,0.010986328125
1687271833634673200,1.832673095703125,-0.618927001953125,-0.7838134765625,0.02386474609375
1687271833644690200,1.842690185546875,-0.6204376220703125,-0.7923431396484375,0.028350830078125
1687271833654707200,1.852707275390625,-0.62115478515625,-0.7934417724609375,0.0325775146484375
1687271833664723200,1.86272314453125,-0.6233062744140625,-0.79833984375,0.055145263671875
1687271833674740200,1.872740234375,-0.6259613037109375,-0.8045501708984375,0.074615478515625
1687271833684757200,1.88275732421875,-0.6174774169921875,-0.811859130859375,0.1007080078125
1687271833694773200,1.892773193359375,-0.5967254638671875,-0.8256378173828125,0.1305999755859375
1687271833704790000,1.9027900390625,-0.579925537109375,-0.8281402587890625,0.1339111328125
1687271833714807300,1.912807373046875,-0.56549072265625,-0.8172760009765625,0.122161865234375
1687271833724823300,1.9228232421875,-0.5553436279296875,-0.801483154296875,0.09698486328125
1687271833734840000,1.932840087890625,-0.554718017578125,-0.7964324951171875,0.076141357421875
1687271833744857300,1.942857421875,-0.5714569091796875,-0.7987518310546875,0.0632476806640625
1687271833754873300,1.952873291015625,-0.5793914794921875,-0.793548583984375,0.0575408935546875
1687271833764890000,1.96289013671875,-0.5829315185546875,-0.79302978515625,0.048797607421875
1687271833774907100,1.9729072265625,-0.6116485595703125,-0.8097686767578125,0.073974609375
1687271833784923400,1.98292333984375,-0.64154052734375,-0.8231048583984375,0.0920562744140625
1687271833794940200,1.992940185546875,-0.6576385498046875,-0.827239990234375,0.0967559814453125
1687271833804957200,2.002957275390625,-0.644195556640625,-0.8256683349609375,0.105621337890625
1687271833814973200,2.01297314453125,-0.6222076416015625,-0.8153228759765625,0.1144256591796875
1687271833824990200,2.022990234375,-0.6057281494140625,-0.806365966796875,0.096832275390625
1687271833835007200,2.03300732421875,-0.5751800537109375,-0.7962799072265625,0.0792236328125
1687271833845024000,2.04302392578125,-0.5468597412109375,-0.792205810546875,0.0644989013671875
1687271833855040300,2.053040283203125,-0.5365753173828125,-0.7974090576171875,0.0595550537109375
1687271833865057300,2.063057373046875,-0.532196044921875,-0.8036346435546875,0.0596771240234375
1687271833875074000,2.073073974609375,-0.53582763671875,-0.8079986572265625,0.054656982421875
1687271833885090000,2.083090087890625,-0.541656494140625,-0.809539794921875,0.044189453125
1687271833895107300,2.093107421875,-0.565277099609375,-0.80755615234375,0.0389862060546875
1687271833905124000,2.1031240234375,-0.6016387939453125,-0.8034820556640625,0.0338134765625
1687271833915140000,2.11314013671875,-0.606781005859375,-0.7999267578125,0.0378265380859375
1687271833925157400,2.123157470703125,-0.5927734375,-0.808807373046875,0.0398712158203125
1687271833935174100,2.133174072265625,-0.5794830322265625,-0.80889892578125,0.036834716796875
1687271833945190100,2.143190185546875,-0.5736083984375,-0.7955169677734375,0.032470703125
1687271833955207200,2.153207275390625,-0.5750579833984375,-0.78729248046875,0.0310211181640625
1687271833965224200,2.16322412109375,-0.578765869140625,-0.7891845703125,0.0391998291015625
1687271833975240200,2.173240234375,-0.583404541015625,-0.79779052734375,0.049072265625
1687271833985257200,2.18325732421875,-0.5889739990234375,-0.8033447265625,0.05682373046875
1687271833995274200,2.193274169921875,-0.5963592529296875,-0.8048095703125,0.0582733154296875
1687271834005290200,2.203290283203125,-0.619110107421875,-0.795867919921875,0.0389251708984375
1687271834015307300,2.213307373046875,-0.611541748046875,-0.778564453125,0.0222625732421875
1687271834025324000,2.223323974609375,-0.5231781005859375,-0.785308837890625,0.038330078125
1687271834035340300,2.23334033203125,-0.587921142578125,-0.81463623046875,0.0739288330078125
1687271834045357300,2.243357421875,-0.6233673095703125,-0.820526123046875,0.1038818359375
1687271834055374000,2.2533740234375,-0.667510986328125,-0.8099517822265625,0.1045379638671875
1687271834065390000,2.26339013671875,-0.716217041015625,-0.791259765625,0.099884033203125
1687271834075407400,2.273407470703125,-0.739959716796875,-0.783782958984375,0.0830841064453125
1687271834085424000,2.283424072265625,-0.74127197265625,-0.788543701171875,0.069122314453125
1687271834095440100,2.293440185546875,-0.7117919921875,-0.796356201171875,0.05511474609375
1687271834105457200,2.30345703125,-0.6650238037109375,-0.801422119140625,0.0457611083984375
1687271834115474000,2.313473876953125,-0.618804931640625,-0.8068389892578125,0.040771484375
1687271834125491200,2.3234912109375,-0.573089599609375,-0.80511474609375,0.0374755859375
1687271834135507200,2.333507080078125,-0.5303802490234375,-0.8017730712890625,0.0482940673828125
1687271834145524000,2.34352392578125,-0.499969482421875,-0.8029327392578125,0.063262939453125
1687271834155541200,2.353541259765625,-0.481170654296875,-0.80816650390625,0.082763671875
1687271834165557200,2.36355712890625,-0.47320556640625,-0.8138427734375,0.097747802734375
1687271834175574000,2.373573974609375,-0.4858245849609375,-0.8151702880859375,0.104339599609375
1687271834185591000,2.383591064453125,-0.516510009765625,-0.81195068359375,0.100982666015625
1687271834195607300,2.393607177734375,-0.5563507080078125,-0.8070220947265625,0.0927581787109375
1687271834205624000,2.4036240234375,-0.5984344482421875,-0.803314208984375,0.083740234375
1687271834215641000,2.41364111328125,-0.63348388671875,-0.80322265625,0.0675048828125
1687271834225657000,2.423656982421875,-0.652496337890625,-0.8028564453125,0.0533905029296875
1687271834235674000,2.433674072265625,-0.656890869140625,-0.8039093017578125,0.0481109619140625
1687271834245691100,2.443691162109375,-0.6479339599609375,-0.805755615234375,0.0509033203125
1687271834255707100,2.45370703125,-0.6296539306640625,-0.80633544921875,0.056060791015625
1687271834265724200,2.46372412109375,-0.6131591796875,-0.8070068359375,0.0613250732421875
1687271834275741200,2.4737412109375,-0.5968017578125,-0.80865478515625,0.064727783203125
1687271834285757200,2.483757080078125,-0.5764007568359375,-0.8077392578125,0.06561279296875
1687271834295774000,2.49377392578125,-0.56634521484375,-0.80596923828125,0.0644073486328125
1687271834305791200,2.503791259765625,-0.56475830078125,-0.803955078125,0.0623779296875
1687271834315807200,2.51380712890625,-0.575775146484375,-0.80328369140625,0.05731201171875
1687271834325824000,2.523823974609375,-0.5907440185546875,-0.803680419921875,0.0505828857421875
1687271834335841300,2.53384130859375,-0.5981292724609375,-0.803070068359375,0.048248291015625
1687271834345857000,2.54385693359375,-0.609832763671875,-0.8003692626953125,0.0446319580078125
1687271834355874000,2.5538740234375,-0.617156982421875,-0.799285888671875,0.0426177978515625
1687271834365891000,2.56389111328125,-0.6147003173828125,-0.801300048828125,0.0408172607421875
1687271834375907000,2.573906982421875,-0.6109771728515625,-0.8050079345703125,0.042144775390625
1687271834385924000,2.583924072265625,-0.6049346923828125,-0.806549072265625,0.049713134765625
1687271834395941000,2.593941162109375,-0.6028289794921875,-0.8087005615234375,0.0571136474609375
1687271834405956900,2.603956787109375,-0.600311279296875,-0.8093719482421875,0.0605010986328125
1687271834415974100,2.61397412109375,-0.5982666015625,-0.807159423828125,0.0615692138671875
1687271834425991200,2.6239912109375,-0.5955047607421875,-0.80804443359375,0.0611419677734375
1687271834436008000,2.634008056640625,-0.5929412841796875,-0.8092803955078125,0.0628204345703125
1687271834446024200,2.644024169921875,-0.5927276611328125,-0.806854248046875,0.0621185302734375
1687271834456041200,2.654041259765625,-0.5912017822265625,-0.80255126953125,0.0543365478515625
1687271834466058000,2.66405810546875,-0.588592529296875,-0.8025360107421875,0.0482025146484375
1687271834476074000,2.674073974609375,-0.5884552001953125,-0.8069915771484375,0.048675537109375
1687271834486091300,2.68409130859375,-0.5851287841796875,-0.8081207275390625,0.05352783203125
1687271834496108000,2.69410791015625,-0.584075927734375,-0.807708740234375,0.05474853515625
1687271834506124000,2.7041240234375,-0.5819854736328125,-0.8074493408203125,0.056396484375
1687271834516141000,2.71414111328125,-0.5862884521484375,-0.8085784912109375,0.056396484375
1687271834526158000,2.724157958984375,-0.5928192138671875,-0.8087615966796875,0.0599212646484375
1687271834536174000,2.734174072265625,-0.6005859375,-0.8114013671875,0.0653076171875
1687271834546191000,2.744191162109375,-0.6038360595703125,-0.8115997314453125,0.0673828125
1687271834556208000,2.7542080078125,-0.60205078125,-0.809539794921875,0.062286376953125
1687271834566224100,2.76422412109375,-0.5910186767578125,-0.8091888427734375,0.0572052001953125
1687271834576241000,2.774240966796875,-0.5870819091796875,-0.809783935546875,0.0529937744140625
1687271834586258200,2.784258056640625,-0.5845489501953125,-0.8094940185546875,0.054412841796875
1687271834596274200,2.794274169921875,-0.582794189453125,-0.8067626953125,0.05133056640625
1687271834606291000,2.804291015625,-0.5786895751953125,-0.805572509765625,0.048248291015625
1687271834616308000,2.814307861328125,-0.5783538818359375,-0.807159423828125,0.048858642578125
1687271834626324200,2.82432421875,-0.5830535888671875,-0.8110198974609375,0.053802490234375
1687271834636341000,2.834341064453125,-0.595306396484375,-0.8119049072265625,0.0632476806640625
1687271834646358000,2.84435791015625,-0.605316162109375,-0.8111724853515625,0.066436767578125
1687271834656374000,2.8543740234375,-0.6101531982421875,-0.80718994140625,0.0612945556640625
1687271834666391000,2.86439111328125,-0.6074676513671875,-0.802642822265625,0.052093505859375
1687271834676408000,2.874407958984375,-0.597198486328125,-0.8013916015625,0.0440826416015625
1687271834686424000,2.884424072265625,-0.591064453125,-0.8052215576171875,0.0430145263671875
1687271834696441000,2.894441162109375,-0.5857086181640625,-0.8071441650390625,0.0437469482421875
1687271834706458000,2.9044580078125,-0.5807037353515625,-0.8080596923828125,0.0441131591796875
1687271834716475100,2.91447509765625,-0.5782318115234375,-0.8098602294921875,0.0481109619140625
1687271834726491000,2.924490966796875,-0.5832977294921875,-0.812652587890625,0.055908203125
1687271834736508200,2.934508056640625,-0.5928802490234375,-0.81427001953125,0.0655059814453125
1687271834746525000,2.94452490234375,-0.599517822265625,-0.8121185302734375,0.0680694580078125
1687271834756541000,2.954541015625,-0.5994110107421875,-0.8108978271484375,0.06219482421875
1687271834766558200,2.96455810546875,-0.5966644287109375,-0.8102264404296875,0.054290771484375
1687271834776575000,2.974574951171875,-0.5922393798828125,-0.8072052001953125,0.0500030517578125
1687271834786591000,2.984591064453125,-0.5858001708984375,-0.808441162109375,0.044281005859375
1687271834796608000,2.99460791015625,-0.5850372314453125,-0.81231689453125,0.0440216064453125
1687271834806625000,3.004625,-0.586578369140625,-0.8138427734375,0.0505828857421875
1687271834816641000,3.01464111328125,-0.590789794921875,-0.8173828125,0.054046630859375
1687271834826658000,3.024657958984375,-0.602203369140625,-0.8211822509765625,0.054107666015625
1687271834836675000,3.034675048828125,-0.612945556640625,-0.82171630859375,0.0551605224609375
1687271834846691000,3.044691162109375,-0.6278839111328125,-0.8201141357421875,0.055633544921875
1687271834856708000,3.0547080078125,-0.6259307861328125,-0.8145599365234375,0.0601959228515625
1687271834866724900,3.064724853515625,-0.6163177490234375,-0.817047119140625,0.0596923828125
1687271834876741000,3.0747412109375,-0.6011505126953125,-0.8138275146484375,0.05645751953125
1687271834886758100,3.084758056640625,-0.5814056396484375,-0.814605712890625,0.047607421875
1687271834896775000,3.09477490234375,-0.579559326171875,-0.82843017578125,0.0446319580078125
1687271834906791000,3.104791015625,-0.5806884765625,-0.8245697021484375,0.0631561279296875
1687271834916808200,3.11480810546875,-0.5758514404296875,-0.8220062255859375,0.0748748779296875
1687271834926825000,3.124824951171875,-0.58111572265625,-0.8197479248046875,0.07763671875
1687271834936842000,3.134842041015625,-0.5409698486328125,-0.8144073486328125,0.0699920654296875
1687271834946858200,3.144858154296875,-0.4825592041015625,-0.8260955810546875,0.0303192138671875
1687271834956875000,3.154875,-0.47369384765625,-0.8305206298828125,0.0082855224609375
1687271834966892000,3.16489208984375,-0.5043487548828125,-0.812744140625,0.026824951171875
1687271834976908000,3.174907958984375,-0.51312255859375,-0.7845306396484375,0.0089874267578125
1687271834986925000,3.184925048828125,-0.5385589599609375,-0.7855987548828125,-0.01580810546875
1687271834996942000,3.194942138671875,-0.56817626953125,-0.784423828125,0.01141357421875
1687271835006958000,3.2049580078125,-0.6197357177734375,-0.7939453125,0.0405426025390625
1687271835016975000,3.21497509765625,-0.6626739501953125,-0.8021240234375,0.08465576171875
1687271835026992000,3.2249921875,-0.6611175537109375,-0.810089111328125,0.099090576171875
1687271835037008100,3.235008056640625,-0.59234619140625,-0.8062896728515625,0.00146484375
1687271835047025000,3.24502490234375,-0.590606689453125,-0.8047637939453125,-0.0587615966796875
1687271835057042200,3.255042236328125,-0.617584228515625,-0.8062591552734375,-0.02685546875
1687271835067058200,3.26505810546875,-0.6070709228515625,-0.78973388671875,0.038970947265625
1687271835077075000,3.275074951171875,-0.5876007080078125,-0.79620361328125,0.0549163818359375
1687271835087092000,3.285092041015625,-0.5823822021484375,-0.82025146484375,0.0289154052734375
1687271835097108000,3.29510791015625,-0.586761474609375,-0.8351898193359375,0.017913818359375
1687271835107124700,3.305124755859375,-0.5976409912109375,-0.828094482421875,0.03900146484375
1687271835117141800,3.315141845703125,-0.60711669921875,-0.8092041015625,0.0571441650390625
1687271835127158000,3.325157958984375,-0.6063995361328125,-0.8013458251953125,0.0489959716796875
1687271835137174800,3.3351748046875,-0.5976409912109375,-0.805450439453125,0.0233612060546875
1687271835147191800,3.34519189453125,-0.5824737548828125,-0.80889892578125,0.003326416015625
1687271835157207800,3.355207763671875,-0.571624755859375,-0.8079376220703125,0.00152587890625
1687271835167224800,3.365224853515625,-0.5648040771484375,-0.80419921875,0.010467529296875
1687271835177241900,3.375241943359375,-0.5656280517578125,-0.8060302734375,0.0193023681640625
1687271835187258600,3.385258544921875,-0.568115234375,-0.8119659423828125,0.0213165283203125
1687271835197275000,3.39527490234375,-0.5706787109375,-0.814697265625,0.0187530517578125
1687271835207292000,3.4052919921875,-0.5795440673828125,-0.815643310546875,0.01739501953125
1687271835217308700,3.41530859375,-0.59613037109375,-0.81610107421875,0.0154876708984375
1687271835227324700,3.42532470703125,-0.6114959716796875,-0.8118743896484375,0.015716552734375
1687271835237342000,3.435342041015625,-0.61883544921875,-0.81329345703125,0.021240234375
1687271835247358700,3.445358642578125,-0.6246490478515625,-0.815338134765625,0.027191162109375
1687271835257374700,3.455374755859375,-0.6234283447265625,-0.811492919921875,0.028289794921875
1687271835267392000,3.46539208984375,-0.62152099609375,-0.8046112060546875,0.030609130859375
1687271835277408800,3.47540869140625,-0.616180419921875,-0.798370361328125,0.03497314453125
1687271835287424800,3.4854248046875,-0.608001708984375,-0.7965545654296875,0.0380096435546875
1687271835297441800,3.49544189453125,-0.599212646484375,-0.800140380859375,0.0362396240234375
1687271835307458800,3.505458740234375,-0.59503173828125,-0.8075103759765625,0.0308074951171875
1687271835317474800,3.515474853515625,-0.5966339111328125,-0.8121185302734375,0.02777099609375
1687271835327491800,3.525491943359375,-0.5994720458984375,-0.81414794921875,0.030853271484375
1687271835337508900,3.5355087890625,-0.59942626953125,-0.8139495849609375,0.0362548828125
1687271835347524900,3.54552490234375,-0.5984039306640625,-0.812744140625,0.040435791015625
1687271835357542000,3.5555419921875,-0.595703125,-0.812255859375,0.041259765625
1687271835367558700,3.56555859375,-0.593719482421875,-0.8106689453125,0.0377349853515625
1687271835377575000,3.575574951171875,-0.5928802490234375,-0.8076934814453125,0.033477783203125
1687271835387592000,3.585592041015625,-0.5939483642578125,-0.8058013916015625,0.0346527099609375
1687271835397608700,3.595608642578125,-0.590576171875,-0.80718994140625,0.0394744873046875
1687271835407626000,3.6056259765625,-0.5817413330078125,-0.8094329833984375,0.04608154296875
1687271835417642000,3.61564208984375,-0.5704498291015625,-0.8155975341796875,0.0435333251953125
1687271835427658800,3.62565869140625,-0.5676422119140625,-0.822906494140625,0.037750244140625
1687271835437675800,3.63567578125,-0.572845458984375,-0.8211669921875,0.0414581298828125
1687271835447692000,3.645692138671875,-0.5727386474609375,-0.815673828125,0.05133056640625
1687271835457708800,3.655708740234375,-0.5710906982421875,-0.8131561279296875,0.0549774169921875
1687271835467725800,3.665725830078125,-0.5671234130859375,-0.8146514892578125,0.048431396484375
1687271835477741800,3.675741943359375,-0.568878173828125,-0.8170928955078125,0.0395355224609375
1687271835487758800,3.6857587890625,-0.5749969482421875,-0.8179779052734375,0.03240966796875
1687271835497775900,3.69577587890625,-0.584228515625,-0.817474365234375,0.029541015625
1687271835507792000,3.7057919921875,-0.59197998046875,-0.8157501220703125,0.031707763671875
1687271835517809000,3.715808837890625,-0.592926025390625,-0.817108154296875,0.03704833984375
1687271835527826000,3.725825927734375,-0.589752197265625,-0.8191375732421875,0.038330078125
1687271835537842000,3.735842041015625,-0.587066650390625,-0.8200836181640625,0.0367279052734375
1687271835547858700,3.745858642578125,-0.58477783203125,-0.8173370361328125,0.037384033203125
1687271835557876000,3.7558759765625,-0.5858001708984375,-0.815185546875,0.0361175537109375
1687271835567891700,3.7658916015625,-0.59197998046875,-0.81640625,0.03582763671875
1687271835577908700,3.77590869140625,-0.5947113037109375,-0.8182220458984375,0.035308837890625
1687271835587926000,3.785926025390625,-0.5920562744140625,-0.8196868896484375,0.0301055908203125
1687271835597941800,3.795941650390625,-0.5868988037109375,-0.8197479248046875,0.025146484375
1687271835607958800,3.805958740234375,-0.5801239013671875,-0.8179931640625,0.0267333984375
1687271835617975800,3.815975830078125,-0.5758514404296875,-0.817657470703125,0.0294342041015625
1687271835627991800,3.82599169921875,-0.5731201171875,-0.816680908203125,0.03143310546875
1687271835638008800,3.8360087890625,-0.578094482421875,-0.8185272216796875,0.0328216552734375
1687271835648025900,3.84602587890625,-0.5911407470703125,-0.8202056884765625,0.02984619140625
1687271835658041600,3.85604150390625,-0.606842041015625,-0.8196868896484375,0.02142333984375
1687271835668059000,3.866058837890625,-0.6164398193359375,-0.81390380859375,0.0227203369140625
1687271835678076000,3.876075927734375,-0.61846923828125,-0.8019561767578125,0.0085906982421875
1687271835688091600,3.886091552734375,-0.620269775390625,-0.7706298828125,-0.049163818359375
1687271835698109000,3.89610888671875,-0.6034393310546875,-0.7736358642578125,-0.041595458984375
1687271835708126000,3.9061259765625,-0.593597412109375,-0.7937164306640625,-0.02935791015625
1687271835718142700,3.916142822265625,-0.582855224609375,-0.8090667724609375,-0.00927734375
1687271835728158700,3.92615869140625,-0.5712432861328125,-0.8210601806640625,0.02496337890625
1687271835738175700,3.93617578125,-0.572845458984375,-0.83648681640625,0.0620574951171875
1687271835748192800,3.94619287109375,-0.5791015625,-0.84686279296875,0.0983428955078125
1687271835758208800,3.956208740234375,-0.582000732421875,-0.85308837890625,0.1253204345703125
1687271835768225800,3.966225830078125,-0.5759429931640625,-0.8524169921875,0.1301727294921875
1687271835778242800,3.976242919921875,-0.5668487548828125,-0.8459930419921875,0.12335205078125
1687271835788258800,3.9862587890625,-0.5553741455078125,-0.83770751953125,0.1121063232421875
1687271835798275600,3.996275634765625,-0.5475006103515625,-0.833648681640625,0.09881591796875
1687271835808292900,4.00629296875,-0.54302978515625,-0.842254638671875,0.1046600341796875
1687271835818308900,4.016308837890625,-0.548980712890625,-0.828643798828125,0.0781707763671875
1687271835828325600,4.02632568359375,-0.5561981201171875,-0.80816650390625,0.050750732421875
1687271835838343000,4.036343017578125,-0.5522918701171875,-0.8075103759765625,0.0407867431640625
1687271835848359000,4.04635888671875,-0.5472869873046875,-0.8170166015625,0.0338287353515625
1687271835858375700,4.056375732421875,-0.542724609375,-0.8180694580078125,0.01947021484375
1687271835868393000,4.06639306640625,-0.5405426025390625,-0.8146820068359375,-0.004669189453125
1687271835878409000,4.076408935546875,-0.536956787109375,-0.8131561279296875,-0.0240020751953125
1687271835888425700,4.08642578125,-0.535430908203125,-0.815582275390625,-0.0302886962890625
1687271835898442800,4.09644287109375,-0.5399322509765625,-0.8197174072265625,-0.022369384765625
1687271835908458800,4.106458740234375,-0.5476226806640625,-0.8233184814453125,-0.0065765380859375
1687271835918475800,4.116475830078125,-0.570556640625,-0.819122314453125,-0.005828857421875
1687271835928492800,4.126492919921875,-0.5744171142578125,-0.8197174072265625,-0.0169830322265625
1687271835938508800,4.1365087890625,-0.5683746337890625,-0.8104400634765625,0.0003814697265625
1687271835948525800,4.14652587890625,-0.566802978515625,-0.8145294189453125,0.0472869873046875
1687271835958542800,4.15654296875,-0.5676422119140625,-0.833892822265625,0.097137451171875
1687271835968558800,4.166558837890625,-0.57196044921875,-0.8533935546875,0.12823486328125
1687271835978576000,4.176575927734375,-0.5777740478515625,-0.846527099609375,0.124114990234375
1687271835988593000,4.186593017578125,-0.574676513671875,-0.8290863037109375,0.083770751953125
1687271835998609000,4.19660888671875,-0.5694580078125,-0.821441650390625,0.038604736328125
1687271836008625700,4.206625732421875,-0.57525634765625,-0.806396484375,0.008880615234375
1687271836018643000,4.216642822265625,-0.579864501953125,-0.7911224365234375,-0.0052032470703125
1687271836028659000,4.226658935546875,-0.573455810546875,-0.7907562255859375,-0.0071868896484375
1687271836038675700,4.23667578125,-0.5607147216796875,-0.8074188232421875,0.0095367431640625
1687271836048693000,4.24669287109375,-0.5514068603515625,-0.8248443603515625,0.025848388671875
1687271836058709800,4.256709716796875,-0.5484771728515625,-0.8319091796875,0.0329132080078125
1687271836068725800,4.266725830078125,-0.55364990234375,-0.832244873046875,0.03948974609375
1687271836078742800,4.27674267578125,-0.5676422119140625,-0.8300018310546875,0.0482635498046875
1687271836088759800,4.286759765625,-0.5773773193359375,-0.8258209228515625,0.0512847900390625
1687271836098776000,4.296776123046875,-0.5853118896484375,-0.8177032470703125,0.0473175048828125
1687271836108793000,4.30679296875,-0.59375,-0.8124237060546875,0.0445404052734375
1687271836118809900,4.316809814453125,-0.5968780517578125,-0.8114166259765625,0.04473876953125
1687271836128825900,4.326825927734375,-0.5941619873046875,-0.8123626708984375,0.039031982421875
1687271836138843100,4.336843017578125,-0.5905303955078125,-0.8144073486328125,0.0355072021484375
1687271836148860000,4.34685986328125,-0.5912322998046875,-0.8159332275390625,0.04339599609375
1687271836158876000,4.3568759765625,-0.5901641845703125,-0.8162384033203125,0.0564727783203125
1687271836168893200,4.36689306640625,-0.589141845703125,-0.817413330078125,0.06585693359375
1687271836178910000,4.376909912109375,-0.58880615234375,-0.8177337646484375,0.0726165771484375
1687271836188926000,4.386926025390625,-0.5898590087890625,-0.81884765625,0.0782012939453125
1687271836198943000,4.39694287109375,-0.5897369384765625,-0.8206939697265625,0.084197998046875
1687271836208960000,4.4069599609375,-0.58990478515625,-0.815673828125,0.0834503173828125
1687271836218976000,4.41697607421875,-0.593597412109375,-0.8166656494140625,0.0732421875
1687271836228993000,4.426992919921875,-0.58843994140625,-0.820098876953125,0.060302734375
1687271836239010000,4.437010009765625,-0.5771484375,-0.8186798095703125,0.0512542724609375
1687271836249026000,4.447026123046875,-0.5732269287109375,-0.8153839111328125,0.04931640625
1687271836259043000,4.45704296875,-0.575347900390625,-0.8126220703125,0.05224609375
1687271836269059800,4.467059814453125,-0.5780181884765625,-0.809722900390625,0.0534515380859375
1687271836279076000,4.477076171875,-0.57708740234375,-0.812042236328125,0.0523529052734375
1687271836289093000,4.487093017578125,-0.57891845703125,-0.81622314453125,0.0575714111328125
1687271836299110000,4.49710986328125,-0.5828704833984375,-0.8171844482421875,0.0588531494140625
1687271836309126000,4.5071259765625,-0.5875244140625,-0.8140869140625,0.05743408203125
1687271836319143200,4.51714306640625,-0.5907745361328125,-0.814208984375,0.0575408935546875
1687271836329160000,4.527159912109375,-0.5914154052734375,-0.8163604736328125,0.057830810546875
1687271836339176000,4.537176025390625,-0.589874267578125,-0.8146514892578125,0.0585784912109375
1687271836349193200,4.547193115234375,-0.58416748046875,-0.8135223388671875,0.05804443359375
1687271836359210000,4.5572099609375,-0.5802154541015625,-0.8170166015625,0.0583343505859375
1687271836369226000,4.56722607421875,-0.5799102783203125,-0.819091796875,0.06201171875
1687271836379243000,4.577242919921875,-0.582122802734375,-0.8186187744140625,0.0678253173828125
1687271836389260000,4.587260009765625,-0.58392333984375,-0.8203125,0.0741424560546875
1687271836399276000,4.597276123046875,-0.5871734619140625,-0.8190155029296875,0.072784423828125
1687271836409293000,4.60729296875,-0.5883636474609375,-0.8153839111328125,0.070770263671875
1687271836419310000,4.61731005859375,-0.5852508544921875,-0.8143463134765625,0.057220458984375
1687271836429326000,4.627326171875,-0.5832061767578125,-0.81768798828125,0.0499114990234375
1687271836439342800,4.6373427734375,-0.5848541259765625,-0.817596435546875,0.05322265625
1687271836449360000,4.64735986328125,-0.5811309814453125,-0.8158111572265625,0.049530029296875
1687271836459376000,4.657376220703125,-0.575164794921875,-0.8126983642578125,0.042633056640625
1687271836469393000,4.667392822265625,-0.573883056640625,-0.81170654296875,0.036376953125
1687271836479410000,4.677409912109375,-0.5772705078125,-0.8115081787109375,0.034515380859375
1687271836489426000,4.687426025390625,-0.58538818359375,-0.8102874755859375,0.034393310546875
1687271836499443000,4.69744287109375,-0.5915069580078125,-0.80596923828125,0.03094482421875
1687271836509460000,4.7074599609375,-0.59539794921875,-0.7997283935546875,0.015289306640625
1687271836519476000,4.71747607421875,-0.5975189208984375,-0.795989990234375,0.0017852783203125
1687271836529493000,4.727492919921875,-0.6015625,-0.80120849609375,0.0006561279296875
1687271836539510000,4.737510009765625,-0.60589599609375,-0.8116455078125,0.01129150390625
1687271836549526000,4.747526123046875,-0.6020355224609375,-0.8193206787109375,0.0296783447265625
1687271836559542800,4.757542724609375,-0.590728759765625,-0.824249267578125,0.050933837890625
1687271836569560000,4.76756005859375,-0.5607147216796875,-0.827117919921875,0.074066162109375
1687271836579577000,4.7775771484375,-0.4959869384765625,-0.833587646484375,0.1064910888671875
1687271836589592800,4.7875927734375,-0.5059661865234375,-0.8368377685546875,0.144500732421875
1687271836599610000,4.797610107421875,-0.4851837158203125,-0.8361053466796875,0.17279052734375
1687271836609627100,4.807627197265625,-0.485137939453125,-0.8419342041015625,0.177764892578125
1687271836619643000,4.817642822265625,-0.5019378662109375,-0.8450775146484375,0.1717681884765625
1687271836629660000,4.827659912109375,-0.5335693359375,-0.8287506103515625,0.1228485107421875
1687271836639677000,4.837677001953125,-0.532501220703125,-0.808807373046875,0.0544586181640625
1687271836649693000,4.84769287109375,-0.56903076171875,-0.836151123046875,0.095062255859375
1687271836659710000,4.8577099609375,-0.6702117919921875,-0.839111328125,0.143280029296875
1687271836669727000,4.86772705078125,-0.7205352783203125,-0.8232879638671875,0.166778564453125
1687271836679743000,4.877742919921875,-0.6884307861328125,-0.8397064208984375,0.1372222900390625
1687271836689760000,4.887760009765625,-0.6168365478515625,-0.855438232421875,0.0880889892578125
1687271836699776800,4.89777685546875,-0.565216064453125,-0.8435211181640625,0.0800018310546875
1687271836709793000,4.90779296875,-0.537109375,-0.825714111328125,0.1028289794921875
1687271836719810000,4.91781005859375,-0.5096435546875,-0.8204803466796875,0.129486083984375
1687271836729826800,4.927826904296875,-0.486480712890625,-0.8263397216796875,0.1417999267578125
1687271836739842800,4.9378427734375,-0.477508544921875,-0.832916259765625,0.1349029541015625
1687271836749860000,4.947860107421875,-0.48394775390625,-0.8354644775390625,0.125762939453125
1687271836759876900,4.957876953125,-0.50128173828125,-0.8326568603515625,0.125640869140625
1687271836769892900,4.967892822265625,-0.522918701171875,-0.8282928466796875,0.124420166015625
1687271836779910100,4.97791015625,-0.539947509765625,-0.8247222900390625,0.11334228515625
1687271836789927000,4.987927001953125,-0.5476531982421875,-0.8243865966796875,0.093170166015625
1687271836799943000,4.99794287109375,-0.55706787109375,-0.8258514404296875,0.0819854736328125
1687271836809960000,5.0079599609375,-0.55902099609375,-0.8254852294921875,0.09210205078125
1687271836819977000,5.01797705078125,-0.5380401611328125,-0.82208251953125,0.0587615966796875
1687271836829993000,5.027992919921875,-0.54229736328125,-0.828125,0.0318756103515625
1687271836840010000,5.038010009765625,-0.5713653564453125,-0.8155975341796875,0.0501861572265625
1687271836850027000,5.048027099609375,-0.604339599609375,-0.8033447265625,0.0892791748046875
1687271836860044000,5.0580439453125,-0.6088409423828125,-0.808929443359375,0.103271484375
1687271836870060000,5.06806005859375,-0.5935516357421875,-0.8256378173828125,0.092498779296875
1687271836880076800,5.078076904296875,-0.5781707763671875,-0.8331451416015625,0.0858306884765625
1687271836890094000,5.088093994140625,-0.5703887939453125,-0.828643798828125,0.087860107421875
1687271836900110000,5.098110107421875,-0.5726776123046875,-0.82391357421875,0.0898590087890625
1687271836910126800,5.108126953125,-0.5769195556640625,-0.8244171142578125,0.089874267578125
1687271836920144100,5.11814404296875,-0.570831298828125,-0.8245391845703125,0.0866851806640625
1687271836930160000,5.12816015625,-0.559600830078125,-0.8242340087890625,0.088470458984375
1687271836940177000,5.138177001953125,-0.549835205078125,-0.82513427734375,0.092742919921875
1687271836950194000,5.14819384765625,-0.5428619384765625,-0.8240966796875,0.0972442626953125
1687271836960210200,5.158210205078125,-0.5408172607421875,-0.82421875,0.1022186279296875
1687271836970227000,5.16822705078125,-0.550384521484375,-0.8285675048828125,0.1117401123046875
1687271836980244000,5.178243896484375,-0.568084716796875,-0.831298828125,0.1223907470703125
1687271836990260000,5.188260009765625,-0.5765228271484375,-0.8308563232421875,0.11920166015625
1687271837000277000,5.198277099609375,-0.5756683349609375,-0.8270111083984375,0.1065826416015625
1687271837010294000,5.2082939453125,-0.5800018310546875,-0.824432373046875,0.0947723388671875
1687271837020310000,5.21831005859375,-0.585357666015625,-0.8239288330078125,0.0875701904296875
1687271837030327000,5.2283271484375,-0.58428955078125,-0.8224334716796875,0.0802459716796875
1687271837040344000,5.238343994140625,-0.573333740234375,-0.8227691650390625,0.0740814208984375
1687271837050360800,5.24836083984375,-0.5590057373046875,-0.824462890625,0.0730438232421875
1687271837060376800,5.258376953125,-0.5456085205078125,-0.828948974609375,0.079925537109375
1687271837070394000,5.26839404296875,-0.537445068359375,-0.8308563232421875,0.084625244140625
1687271837080411000,5.278410888671875,-0.5344696044921875,-0.829254150390625,0.0854339599609375
1687271837090427100,5.28842724609375,-0.533416748046875,-0.827484130859375,0.0865020751953125
1687271837100444200,5.298444091796875,-0.5328216552734375,-0.8282012939453125,0.0868682861328125
1687271837110461000,5.3084609375,-0.534942626953125,-0.8296661376953125,0.0830535888671875
1687271837120477000,5.318476806640625,-0.542022705078125,-0.8306121826171875,0.0818023681640625
1687271837130494200,5.328494140625,-0.5511016845703125,-0.8316192626953125,0.0888671875
1687271837140511000,5.338510986328125,-0.5586700439453125,-0.8341064453125,0.0943603515625
1687271837150527000,5.34852685546875,-0.5650787353515625,-0.8331298828125,0.0969085693359375
1687271837160544300,5.358544189453125,-0.5659332275390625,-0.8325958251953125,0.094451904296875
1687271837170561000,5.36856103515625,-0.5659027099609375,-0.83447265625,0.092529296875
1687271837180577000,5.378576904296875,-0.564971923828125,-0.8361968994140625,0.088653564453125
1687271837190594000,5.388593994140625,-0.5609283447265625,-0.836181640625,0.081634521484375
1687271837200611000,5.398611083984375,-0.5597991943359375,-0.8347320556640625,0.0724334716796875
1687271837210628000,5.408628173828125,-0.559112548828125,-0.830780029296875,0.0650634765625
1687271837220644000,5.41864404296875,-0.5574493408203125,-0.8291473388671875,0.065155029296875
1687271837230661000,5.4286611328125,-0.5557708740234375,-0.8290863037109375,0.0667877197265625
1687271837240678100,5.43867822265625,-0.55535888671875,-0.826416015625,0.0660247802734375
1687271837250694100,5.448694091796875,-0.5549774169921875,-0.8236236572265625,0.0673370361328125
1687271837260711200,5.458711181640625,-0.5532684326171875,-0.824554443359375,0.0667572021484375
1687271837270728200,5.468728271484375,-0.5542449951171875,-0.8264007568359375,0.066558837890625
1687271837280744200,5.478744140625,-0.5549468994140625,-0.8284149169921875,0.06768798828125
1687271837290761000,5.488760986328125,-0.55609130859375,-0.8282928466796875,0.071075439453125
1687271837300778200,5.4987783203125,-0.559112548828125,-0.82696533203125,0.0726165771484375
1687271837310794200,5.508794189453125,-0.56182861328125,-0.825042724609375,0.073974609375
1687271837320811000,5.51881103515625,-0.5660400390625,-0.8262939453125,0.0747833251953125
1687271837330828300,5.528828369140625,-0.56964111328125,-0.82745361328125,0.0775604248046875
1687271837340845000,5.538844970703125,-0.5673675537109375,-0.82843017578125,0.079437255859375
1687271837350861000,5.548861083984375,-0.5658416748046875,-0.82781982421875,0.082122802734375
1687271837360878000,5.558878173828125,-0.564605712890625,-0.8273468017578125,0.0850677490234375
1687271837370895000,5.56889501953125,-0.5657501220703125,-0.8275604248046875,0.0834808349609375
1687271837380911000,5.5789111328125,-0.5614471435546875,-0.82855224609375,0.083099365234375
1687271837390928100,5.58892822265625,-0.556427001953125,-0.8293304443359375,0.0805206298828125
1687271837400945200,5.598945068359375,-0.5560760498046875,-0.8270111083984375,0.0738372802734375
1687271837410961200,5.608961181640625,-0.5615081787109375,-0.8236236572265625,0.069091796875
1687271837420978200,5.618978271484375,-0.56744384765625,-0.8237762451171875,0.06842041015625
1687271837430995000,5.628994873046875,-0.573516845703125,-0.8256072998046875,0.065185546875
1687271837441011200,5.63901123046875,-0.57855224609375,-0.82769775390625,0.0614013671875
1687271837451028200,5.6490283203125,-0.587615966796875,-0.82513427734375,0.0561370849609375
1687271837461045000,5.659044921875,-0.592071533203125,-0.82537841796875,0.0505218505859375
1687271837471061000,5.66906103515625,-0.587890625,-0.8260345458984375,0.0457763671875
1687271837481078300,5.679078369140625,-0.5765228271484375,-0.8285675048828125,0.045745849609375
1687271837491095000,5.689094970703125,-0.564483642578125,-0.8279266357421875,0.048980712890625
1687271837501112000,5.699112060546875,-0.5535736083984375,-0.82763671875,0.051361083984375
1687271837511128000,5.709128173828125,-0.53887939453125,-0.82843017578125,0.05462646484375
1687271837521145000,5.71914501953125,-0.5340576171875,-0.8249969482421875,0.055572509765625
1687271837531162000,5.729162109375,-0.54217529296875,-0.8235321044921875,0.055816650390625
1687271837541178000,5.73917822265625,-0.5493621826171875,-0.8211669921875,0.059051513671875
1687271837551195100,5.749195068359375,-0.55322265625,-0.8213043212890625,0.0587005615234375
1687271837561212200,5.759212158203125,-0.559356689453125,-0.8223724365234375,0.052734375
1687271837571228000,5.769227783203125,-0.569580078125,-0.8228912353515625,0.0487060546875
1687271837581245200,5.7792451171875,-0.575164794921875,-0.824432373046875,0.052734375
1687271837591262200,5.78926220703125,-0.5809173583984375,-0.823638916015625,0.055023193359375
1687271837601278000,5.79927783203125,-0.5858917236328125,-0.8222198486328125,0.050537109375
1687271837611295000,5.809294921875,-0.591522216796875,-0.81939697265625,0.0529022216796875
1687271837621312300,5.819312255859375,-0.587738037109375,-0.821990966796875,0.0578765869140625
1687271837631329000,5.8293291015625,-0.587371826171875,-0.81890869140625,0.048919677734375
1687271837641345000,5.839344970703125,-0.586151123046875,-0.814300537109375,0.0410919189453125
1687271837651362300,5.8493623046875,-0.576904296875,-0.8147125244140625,0.0440673828125
1687271837661379000,5.859379150390625,-0.5774993896484375,-0.8165130615234375,0.04327392578125
1687271837671395000,5.86939501953125,-0.578369140625,-0.8199615478515625,0.047576904296875
1687271837681412000,5.879412109375,-0.5723114013671875,-0.8213348388671875,0.0503387451171875
1687271837691429000,5.88942919921875,-0.56231689453125,-0.82257080078125,0.0491485595703125
1687271837701445000,5.899445068359375,-0.5642852783203125,-0.8222503662109375,0.0493927001953125
1687271837711462100,5.909462158203125,-0.564697265625,-0.82122802734375,0.047210693359375
1687271837721479200,5.919479248046875,-0.5645904541015625,-0.818389892578125,0.043182373046875
1687271837731495200,5.9294951171875,-0.5700531005859375,-0.815216064453125,0.035369873046875
1687271837741512000,5.939511962890625,-0.5734405517578125,-0.8134613037109375,0.033843994140625
1687271837751529000,5.949529052734375,-0.5700225830078125,-0.81427001953125,0.037933349609375
1687271837761545200,5.959545166015625,-0.561798095703125,-0.81787109375,0.0424041748046875
1687271837771562000,5.96956201171875,-0.5552825927734375,-0.8201446533203125,0.048370361328125
1687271837781579000,5.9795791015625,-0.5576934814453125,-0.8195343017578125,0.0512847900390625
1687271837791596300,5.98959619140625,-0.5620269775390625,-0.81854248046875,0.050689697265625
1687271837801612000,5.999612060546875,-0.56365966796875,-0.8199462890625,0.0521087646484375
1687271837811629000,6.009629150390625,-0.5953521728515625,-0.816070556640625,0.04791259765625
1687271837821646000,6.01964599609375,-0.609954833984375,-0.81103515625,0.0395660400390625
1687271837831662000,6.029662109375,-0.6013946533203125,-0.812164306640625,0.0319061279296875
1687271837841679000,6.03967919921875,-0.5833892822265625,-0.817962646484375,0.029296875
1687271837851696000,6.049696044921875,-0.568359375,-0.8161773681640625,0.041412353515625
1687271837861712000,6.0597119140625,-0.56890869140625,-0.8131866455078125,0.057220458984375
1687271837871729200,6.069729248046875,-0.5921173095703125,-0.8169708251953125,0.073455810546875
1687271837881746200,6.07974609375,-0.6219329833984375,-0.8149871826171875,0.0790252685546875
1687271837891762000,6.089761962890625,-0.6451416015625,-0.8125152587890625,0.0767974853515625
1687271837901779200,6.099779296875,-0.659637451171875,-0.82403564453125,0.0672760009765625
1687271837911796000,6.1097958984375,-0.6346588134765625,-0.8227691650390625,0.048736572265625
1687271837921812000,6.11981201171875,-0.594451904296875,-0.8065185546875,0.0321502685546875
1687271837931829000,6.1298291015625,-0.5590972900390625,-0.7960052490234375,0.0234527587890625
1687271837941846000,6.139845947265625,-0.528167724609375,-0.798736572265625,0.02301025390625
1687271837951863000,6.149863037109375,-0.5146484375,-0.807861328125,0.0375518798828125
1687271837961879000,6.159879150390625,-0.5258636474609375,-0.8159637451171875,0.0524749755859375
1687271837971896000,6.16989599609375,-0.5581817626953125,-0.8161773681640625,0.0530548095703125
1687271837981913000,6.1799130859375,-0.59490966796875,-0.8137664794921875,0.0478363037109375
1687271837991929000,6.18992919921875,-0.6273040771484375,-0.8108673095703125,0.041900634765625
1687271838001945900,6.19994580078125,-0.6436004638671875,-0.8110809326171875,0.0401458740234375
1687271838011963100,6.209963134765625,-0.6360015869140625,-0.813079833984375,0.0437469482421875
1687271838021979100,6.219979248046875,-0.62359619140625,-0.81097412109375,0.0478057861328125
1687271838031996000,6.229995849609375,-0.6082763671875,-0.810791015625,0.047210693359375
1687271838042013200,6.24001318359375,-0.592041015625,-0.81298828125,0.04925537109375
1687271838052029200,6.250029296875,-0.5811767578125,-0.8124847412109375,0.0548248291015625
1687271838062046000,6.2600458984375,-0.565338134765625,-0.8138885498046875,0.0516510009765625
1687271838072063000,6.27006298828125,-0.553375244140625,-0.8132781982421875,0.0504608154296875
1687271838082079200,6.280079345703125,-0.54571533203125,-0.814361572265625,0.0511016845703125
1687271838092096000,6.290095947265625,-0.5489349365234375,-0.81427001953125,0.050811767578125
1687271838102113000,6.300113037109375,-0.557952880859375,-0.81573486328125,0.0544281005859375
1687271838112129000,6.31012890625,-0.57958984375,-0.8147430419921875,0.0594940185546875
1687271838122146000,6.32014599609375,-0.6023101806640625,-0.8109893798828125,0.0584716796875
1687271838132163000,6.3301630859375,-0.61456298828125,-0.812744140625,0.0626068115234375
1687271838142179000,6.340178955078125,-0.60614013671875,-0.8192291259765625,0.058868408203125
1687271838152196000,6.350196044921875,-0.5810699462890625,-0.8249969482421875,0.042938232421875
1687271838162213000,6.360213134765625,-0.566253662109375,-0.822479248046875,0.033355712890625
1687271838172229000,6.37022900390625,-0.5711517333984375,-0.816741943359375,0.0465240478515625
1687271838182246000,6.380245849609375,-0.5956268310546875,-0.8087310791015625,0.0551910400390625
1687271838192263200,6.39026318359375,-0.593902587890625,-0.8117828369140625,0.05535888671875
1687271838202280000,6.400280029296875,-0.590667724609375,-0.8238372802734375,0.0608062744140625
1687271838212296000,6.4102958984375,-0.594482421875,-0.8309173583984375,0.071258544921875
1687271838222313200,6.420313232421875,-0.601837158203125,-0.824310302734375,0.06658935546875
1687271838232330000,6.430330078125,-0.6115570068359375,-0.81396484375,0.048797607421875
1687271838242346000,6.440345947265625,-0.606903076171875,-0.808868408203125,0.0294952392578125
1687271838252363000,6.450363037109375,-0.5919189453125,-0.811004638671875,0.0193939208984375
1687271838262380000,6.460380126953125,-0.562469482421875,-0.8132781982421875,0.010772705078125
1687271838272396000,6.47039599609375,-0.53070068359375,-0.812591552734375,0.0078277587890625
1687271838282413000,6.4804130859375,-0.5040130615234375,-0.8129730224609375,0.0160064697265625
1687271838292430000,6.49043017578125,-0.487152099609375,-0.8180084228515625,0.038238525390625
1687271838302446000,6.500446044921875,-0.4978179931640625,-0.82513427734375,0.06158447265625
1687271838312463000,6.510463134765625,-0.5300445556640625,-0.816375732421875,0.0717315673828125
1687271838322479900,6.52047998046875,-0.5857696533203125,-0.81903076171875,0.077392578125
1687271838332496100,6.53049609375,-0.6312255859375,-0.846710205078125,0.073089599609375
1687271838342513200,6.54051318359375,-0.6035614013671875,-0.844024658203125,0.063201904296875
1687271838352530000,6.550530029296875,-0.573516845703125,-0.8355560302734375,0.062408447265625
1687271838362546000,6.5605458984375,-0.5324554443359375,-0.8224945068359375,0.0572357177734375
1687271838372563200,6.570563232421875,-0.54205322265625,-0.8010406494140625,0.0570831298828125
1687271838382580000,6.580580078125,-0.61572265625,-0.7841339111328125,0.05224609375
1687271838392596000,6.590595947265625,-0.6585540771484375,-0.8093719482421875,0.07000732421875
1687271838402613200,6.60061328125,-0.67010498046875,-0.824127197265625,0.07012939453125
1687271838412630000,6.610630126953125,-0.68505859375,-0.8048858642578125,0.04791259765625
1687271838422646000,6.62064599609375,-0.64044189453125,-0.81219482421875,0.02838134765625
1687271838432663000,6.6306630859375,-0.590240478515625,-0.82342529296875,0.010711669921875
1687271838442680000,6.64068017578125,-0.582611083984375,-0.8138580322265625,0.0121612548828125
1687271838452696000,6.650696044921875,-0.5673065185546875,-0.8039703369140625,0.0157470703125
1687271838462713000,6.660713134765625,-0.5585479736328125,-0.8016204833984375,0.0123443603515625
1687271838472730000,6.670730224609375,-0.54840087890625,-0.8159332275390625,0.0301361083984375
1687271838482747100,6.6807470703125,-0.5417938232421875,-0.8322601318359375,0.0611724853515625
1687271838492763100,6.69076318359375,-0.5465087890625,-0.8318023681640625,0.0758056640625
1687271838502780000,6.70077978515625,-0.5572967529296875,-0.8191680908203125,0.07574462890625
1687271838512797200,6.710797119140625,-0.5697174072265625,-0.8165283203125,0.0749969482421875
1687271838522813200,6.720813232421875,-0.580718994140625,-0.8234710693359375,0.07440185546875
1687271838532830000,6.730829833984375,-0.5387115478515625,-0.8204498291015625,0.07366943359375
1687271838542847200,6.74084716796875,-0.487579345703125,-0.8132476806640625,0.0532379150390625
1687271838552863200,6.75086328125,-0.520294189453125,-0.8139495849609375,0.031158447265625
1687271838562880000,6.7608798828125,-0.5230865478515625,-0.8185577392578125,0.03179931640625
1687271838572897000,6.77089697265625,-0.570953369140625,-0.8328399658203125,0.0414886474609375
1687271838582913300,6.780913330078125,-0.6134796142578125,-0.84259033203125,0.0517730712890625
1687271838592930000,6.790929931640625,-0.6385650634765625,-0.8359375,0.0684051513671875
1687271838602947000,6.800947021484375,-0.65203857421875,-0.8183441162109375,0.0763397216796875
1687271838612963000,6.810963134765625,-0.6499176025390625,-0.80029296875,0.0697479248046875
1687271838622980000,6.82097998046875,-0.6318511962890625,-0.7970123291015625,0.05328369140625
1687271838632997000,6.8309970703125,-0.5972137451171875,-0.8048095703125,0.0374755859375
1687271838643013000,6.84101318359375,-0.5705108642578125,-0.813323974609375,0.0379638671875
1687271838653030100,6.851030029296875,-0.55450439453125,-0.8162994384765625,0.0487823486328125
1687271838663047200,6.861047119140625,-0.54693603515625,-0.8164520263671875,0.0591278076171875
1687271838673063000,6.87106298828125,-0.5479736328125,-0.817108154296875,0.0561370849609375
1687271838683080000,6.881079833984375,-0.559326171875,-0.8178558349609375,0.0452880859375
1687271838693097200,6.89109716796875,-0.5749359130859375,-0.818023681640625,0.0419769287109375
1687271838703113000,6.901113037109375,-0.591461181640625,-0.8165740966796875,0.0382080078125
1687271838713130000,6.9111298828125,-0.60888671875,-0.814453125,0.036834716796875
1687271838723147300,6.921147216796875,-0.6230621337890625,-0.812469482421875,0.036956787109375
1687271838733163000,6.9311630859375,-0.6335296630859375,-0.810791015625,0.036834716796875
1687271838743180000,6.941179931640625,-0.64013671875,-0.8116302490234375,0.0377197265625
1687271838753197300,6.951197265625,-0.6363983154296875,-0.8106231689453125,0.0371856689453125
1687271838763213000,6.961213134765625,-0.60931396484375,-0.8087921142578125,0.0327301025390625
1687271838773230000,6.97122998046875,-0.5599517822265625,-0.8266754150390625,0.0332489013671875
1687271838783247000,6.9812470703125,-0.5396728515625,-0.8313446044921875,0.035125732421875
1687271838793262800,6.991262939453125,-0.542633056640625,-0.8199615478515625,0.0498199462890625
1687271838803280100,7.001280029296875,-0.5392303466796875,-0.816558837890625,0.0625762939453125
1687271838813297200,7.011297119140625,-0.540313720703125,-0.824462890625,0.071136474609375
1687271838823314200,7.021314208984375,-0.5506744384765625,-0.8334503173828125,0.075653076171875
1687271838833330200,7.031330078125,-0.5562896728515625,-0.8268890380859375,0.0760040283203125
1687271838843347200,7.04134716796875,-0.5577239990234375,-0.8223419189453125,0.0808563232421875
1687271838853364000,7.051364013671875,-0.551361083984375,-0.832061767578125,0.0911102294921875
1687271838863380200,7.061380126953125,-0.5380401611328125,-0.870758056640625,0.1403045654296875
1687271838873397000,7.07139697265625,-0.5585479736328125,-0.8594818115234375,0.1329803466796875
1687271838883414000,7.0814140625,-0.5838165283203125,-0.8227996826171875,0.0970306396484375
1687271838893430000,7.091429931640625,-0.5885162353515625,-0.8072662353515625,0.0737762451171875
1687271838903447000,7.101447021484375,-0.571563720703125,-0.813201904296875,0.0506439208984375
1687271838913464000,7.111464111328125,-0.5475311279296875,-0.821929931640625,0.0358123779296875
1687271838923480000,7.12147998046875,-0.524993896484375,-0.822235107421875,0.02349853515625
1687271838933497000,7.1314970703125,-0.521514892578125,-0.8142242431640625,0.0217437744140625
1687271838943514000,7.14151416015625,-0.5504913330078125,-0.801116943359375,0.0215606689453125
1687271838953530000,7.151530029296875,-0.595245361328125,-0.7856903076171875,0.0055999755859375
1687271838963547000,7.161546875,-0.634033203125,-0.79876708984375,-0.0240631103515625
1687271838973564200,7.171564208984375,-0.657257080078125,-0.822052001953125,-0.0314788818359375
1687271838983580200,7.181580078125,-0.5878448486328125,-0.8497467041015625,0.0040740966796875
1687271838993597000,7.191596923828125,-0.5417327880859375,-0.836639404296875,0.0055694580078125
1687271839003614200,7.2016142578125,-0.51287841796875,-0.8116607666015625,0.0040740966796875
1687271839013630200,7.211630126953125,-0.5168914794921875,-0.788299560546875,0.02520751953125
1687271839023647000,7.22164697265625,-0.5795745849609375,-0.799041748046875,0.0450592041015625
1687271839033664000,7.2316640625,-0.6461944580078125,-0.8062744140625,0.051544189453125
1687271839043680300,7.24168017578125,-0.7244873046875,-0.7970733642578125,0.059326171875
1687271839053697000,7.251697021484375,-0.7222747802734375,-0.8224639892578125,0.0384521484375
1687271839063714000,7.261714111328125,-0.6431121826171875,-0.8457489013671875,-0.02264404296875
1687271839073730000,7.27172998046875,-0.6054840087890625,-0.8307342529296875,-0.0421905517578125
1687271839083747000,7.2817470703125,-0.580230712890625,-0.8023834228515625,-0.03643798828125
1687271839093764000,7.29176416015625,-0.5448455810546875,-0.78900146484375,-0.0374603271484375
1687271839103780000,7.301780029296875,-0.5211639404296875,-0.80316162109375,-0.0245513916015625
1687271839113796900,7.311796875,-0.520263671875,-0.8270111083984375,0.022979736328125
1687271839123814000,7.32181396484375,-0.5386199951171875,-0.833404541015625,0.061431884765625
1687271839133830100,7.331830078125,-0.5368499755859375,-0.8273468017578125,0.0783233642578125
1687271839143847000,7.341846923828125,-0.5273590087890625,-0.827117919921875,0.076385498046875
1687271839153864000,7.351864013671875,-0.5331268310546875,-0.8283538818359375,0.059417724609375
1687271839163880000,7.3618798828125,-0.5439910888671875,-0.82843017578125,0.0520782470703125
1687271839173897000,7.37189697265625,-0.542388916015625,-0.8317718505859375,0.0548248291015625
1687271839183914000,7.3819140625,-0.5418548583984375,-0.836883544921875,0.050445556640625
1687271839193930000,7.391929931640625,-0.5445709228515625,-0.832672119140625,0.039581298828125
1687271839203947000,7.401947021484375,-0.499542236328125,-0.808013916015625,0.028228759765625
1687271839213964000,7.411964111328125,-0.5317230224609375,-0.8171844482421875,-0.004669189453125
1687271839223980000,7.42197998046875,-0.600189208984375,-0.8387298583984375,0.0020599365234375
1687271839233996800,7.431996826171875,-0.5892333984375,-0.8443756103515625,0.0447998046875
1687271839244014000,7.44201416015625,-0.6013946533203125,-0.8260040283203125,0.0454864501953125
1687271839254030000,7.452030029296875,-0.6093597412109375,-0.8055877685546875,0.0401611328125
1687271839264046800,7.462046875,-0.6229705810546875,-0.79949951171875,0.044403076171875
1687271839274064100,7.472064208984375,-0.6300506591796875,-0.8099517822265625,0.0410614013671875
1687271839284080000,7.482080078125,-0.6241455078125,-0.8192596435546875,0.0305328369140625
1687271839294097000,7.492096923828125,-0.6147918701171875,-0.82177734375,0.026153564453125
1687271839304114000,7.502114013671875,-0.6037445068359375,-0.8199615478515625,0.0225982666015625
1687271839314130200,7.512130126953125,-0.5879364013671875,-0.8180389404296875,0.0192108154296875
1687271839324147000,7.52214697265625,-0.579925537109375,-0.8172149658203125,0.018524169921875
1687271839334164000,7.5321640625,-0.5802154541015625,-0.81805419921875,0.02557373046875
1687271839344180000,7.542179931640625,-0.5843048095703125,-0.817626953125,0.0393524169921875
1687271839354197000,7.552197021484375,-0.59173583984375,-0.81341552734375,0.0520782470703125
1687271839364214000,7.562214111328125,-0.589202880859375,-0.816070556640625,0.040985107421875
1687271839374230000,7.57222998046875,-0.569549560546875,-0.8325347900390625,0.0229339599609375
1687271839384247000,7.5822470703125,-0.570648193359375,-0.83154296875,0.019378662109375
1687271839394264000,7.59226416015625,-0.5738067626953125,-0.820098876953125,0.028045654296875
1687271839404280800,7.60228076171875,-0.5519866943359375,-0.8167266845703125,0.0279083251953125
1687271839414296800,7.612296875,-0.53704833984375,-0.8202056884765625,0.022735595703125
1687271839424314000,7.622314208984375,-0.5428466796875,-0.82525634765625,0.0332489013671875
1687271839434330000,7.632330078125,-0.5495758056640625,-0.830474853515625,0.0511932373046875
1687271839444347000,7.642346923828125,-0.5518341064453125,-0.833343505859375,0.0545196533203125
1687271839454364200,7.6523642578125,-0.5486602783203125,-0.8281402587890625,0.0446319580078125
1687271839464381000,7.662380859375,-0.5510101318359375,-0.82318115234375,0.0353240966796875
1687271839474397000,7.67239697265625,-0.5558013916015625,-0.8212890625,0.027557373046875
1687271839484414000,7.6824140625,-0.5473480224609375,-0.8285369873046875,0.0323638916015625
1687271839494431000,7.692430908203125,-0.5290374755859375,-0.83489990234375,0.0378875732421875
1687271839504447000,7.702447021484375,-0.5155487060546875,-0.8336334228515625,0.0418853759765625
1687271839514464000,7.712464111328125,-0.519073486328125,-0.831512451171875,0.0505218505859375
1687271839524481000,7.72248095703125,-0.5421142578125,-0.830718994140625,0.060791015625
1687271839534497000,7.7324970703125,-0.5866851806640625,-0.8250732421875,0.0552215576171875
1687271839544514000,7.74251416015625,-0.6171875,-0.8268585205078125,0.0455322265625
1687271839554530800,7.75253076171875,-0.635009765625,-0.8358306884765625,0.03265380859375
1687271839564547000,7.762547119140625,-0.5892486572265625,-0.8378448486328125,0.031036376953125
1687271839574564000,7.772564208984375,-0.52728271484375,-0.8299407958984375,0.0341339111328125
1687271839584580900,7.782580810546875,-0.5031890869140625,-0.815155029296875,0.04443359375
1687271839594596900,7.792596923828125,-0.527313232421875,-0.80902099609375,0.0698699951171875
1687271839604614100,7.8026142578125,-0.5908050537109375,-0.81610107421875,0.07769775390625
1687271839614631000,7.812630859375,-0.6484222412109375,-0.8194580078125,0.05908203125
1687271839624647000,7.82264697265625,-0.690093994140625,-0.821624755859375,0.033935546875
1687271839634664000,7.832663818359375,-0.71160888671875,-0.80157470703125,0.019287109375
1687271839644681000,7.842680908203125,-0.6883392333984375,-0.8003997802734375,0.000946044921875
1687271839654697000,7.852697021484375,-0.613525390625,-0.819305419921875,-0.0488739013671875
1687271839664714000,7.8627138671875,-0.568450927734375,-0.82037353515625,-0.0654754638671875
1687271839674731000,7.87273095703125,-0.5531463623046875,-0.8092803955078125,-0.0335540771484375
1687271839684747000,7.8827470703125,-0.52667236328125,-0.809051513671875,-0.0019989013671875
1687271839694763800,7.892763671875,-0.503662109375,-0.8145294189453125,0.013702392578125
1687271839704781000,7.902781005859375,-0.49920654296875,-0.8154296875,0.0330047607421875
1687271839714797000,7.912797119140625,-0.5007171630859375,-0.8145599365234375,0.064422607421875
1687271839724813800,7.922813720703125,-0.4722747802734375,-0.865997314453125,0.0576629638671875
1687271839734830800,7.932830810546875,-0.54644775390625,-0.8785247802734375,0.0819854736328125
1687271839744847000,7.94284716796875,-0.612396240234375,-0.8424224853515625,0.1355438232421875
1687271839754863900,7.95286376953125,-0.589447021484375,-0.8110809326171875,0.0955657958984375
1687271839764881000,7.962880859375,-0.5514984130859375,-0.817352294921875,0.032958984375
1687271839774897000,7.97289697265625,-0.512115478515625,-0.81414794921875,-0.02154541015625
1687271839784914000,7.982913818359375,-0.585052490234375,-0.800018310546875,-0.0255126953125
1687271839794931000,7.992930908203125,-0.55352783203125,-0.81524658203125,-0.0074920654296875
1687271839804947000,8.002947021484376,-0.571197509765625,-0.8456268310546875,-0.00445556640625
1687271839814964000,8.0129638671875,-0.6075897216796875,-0.8358306884765625,0.0294952392578125
1687271839824981000,8.02298095703125,-0.60174560546875,-0.8123016357421875,0.061126708984375
1687271839834998000,8.032998046875,-0.586883544921875,-0.8256683349609375,0.05950927734375
1687271839845013800,8.043013671875,-0.591949462890625,-0.8397674560546875,0.0530548095703125
1687271839855031000,8.053031005859374,-0.593353271484375,-0.8275604248046875,0.0431365966796875
1687271839865047800,8.0630478515625,-0.580291748046875,-0.81689453125,0.03363037109375
1687271839875063800,8.073063720703125,-0.5575103759765625,-0.8194732666015625,0.024078369140625
1687271839885081000,8.0830810546875,-0.5350189208984375,-0.8267669677734375,0.015533447265625
1687271839895097900,8.093097900390624,-0.5419464111328125,-0.822998046875,0.025726318359375
1687271839905113900,8.10311376953125,-0.5590972900390625,-0.8177642822265625,0.0392303466796875
1687271839915131000,8.113130859375,-0.575653076171875,-0.817291259765625,0.0401458740234375
1687271839925148000,8.12314794921875,-0.589508056640625,-0.8160552978515625,0.0361785888671875
1687271839935164000,8.133163818359375,-0.5952911376953125,-0.8157501220703125,0.0362548828125
1687271839945181000,8.143180908203124,-0.5941619873046875,-0.815673828125,0.0328521728515625
1687271839955198000,8.153197998046876,-0.579010009765625,-0.8356475830078125,0.0203094482421875
1687271839965214000,8.1632138671875,-0.562225341796875,-0.8400421142578125,0.0177001953125
1687271839975231000,8.17323095703125,-0.5573272705078125,-0.819000244140625,0.027801513671875
1687271839985247700,8.183247802734375,-0.5568084716796875,-0.8079071044921875,0.0254669189453125
1687271839995264000,8.193263916015624,-0.57464599609375,-0.8194580078125,0.023712158203125
1687271840005281000,8.203281005859376,-0.5980224609375,-0.8264617919921875,0.0369110107421875
1687271840015297800,8.2132978515625,-0.61346435546875,-0.8251800537109375,0.0449676513671875
1687271840025313800,8.223313720703125,-0.608367919921875,-0.8220977783203125,0.041717529296875
1687271840035331000,8.2333310546875,-0.5852203369140625,-0.81591796875,0.0340576171875
1687271840045347800,8.243347900390624,-0.5568389892578125,-0.81268310546875,0.0241241455078125
1687271840055363800,8.25336376953125,-0.5301513671875,-0.820220947265625,0.017364501953125
1687271840065381000,8.263381103515625,-0.5357818603515625,-0.83013916015625,0.0204925537109375
1687271840075398000,8.27339794921875,-0.5630645751953125,-0.8289031982421875,0.0313720703125
1687271840085414000,8.283413818359374,-0.579498291015625,-0.8249664306640625,0.037353515625
1687271840095431700,8.293431640625,-0.5859375,-0.825469970703125,0.03643798828125
1687271840105448400,8.303448486328126,-0.591644287109375,-0.82562255859375,0.0399322509765625
1687271840115465500,8.313465576171875,-0.5895538330078125,-0.8233642578125,0.042266845703125
1687271840125481700,8.323481689453125,-0.58538818359375,-0.8193206787109375,0.0367889404296875
1687271840135498500,8.33349853515625,-0.58319091796875,-0.8175201416015625,0.0326080322265625
1687271840145515500,8.343515625,-0.57666015625,-0.8185882568359375,0.032958984375
1687271840155531500,8.353531494140626,-0.5689849853515625,-0.8240966796875,0.0381927490234375
1687271840165548500,8.363548583984375,-0.5674591064453125,-0.83050537109375,0.045562744140625
1687271840175565600,8.373565673828125,-0.5641632080078125,-0.83154296875,0.0568084716796875
1687271840185581600,8.38358154296875,-0.5584869384765625,-0.8229827880859375,0.0599517822265625
1687271840195598600,8.3935986328125,-0.548095703125,-0.8204803466796875,0.049163818359375
1687271840205615600,8.40361572265625,-0.5489959716796875,-0.8257598876953125,0.039581298828125
1687271840215631400,8.41363134765625,-0.5565032958984375,-0.826751708984375,0.0378875732421875
1687271840225648400,8.4236484375,-0.5626983642578125,-0.8206634521484375,0.03094482421875
1687271840235665700,8.433665771484375,-0.5735015869140625,-0.8179931640625,0.025604248046875
1687271840245681400,8.443681396484376,-0.5816802978515625,-0.8223419189453125,0.027862548828125
1687271840255698400,8.453698486328125,-0.5829620361328125,-0.8232269287109375,0.0356903076171875
1687271840265715700,8.4637158203125,-0.57647705078125,-0.821502685546875,0.02838134765625
1687271840275731500,8.4737314453125,-0.57086181640625,-0.8209991455078125,0.0270233154296875
1687271840285748500,8.48374853515625,-0.5703887939453125,-0.82110595703125,0.0295562744140625
1687271840295765500,8.493765625,-0.570220947265625,-0.8189697265625,0.030242919921875
1687271840305781500,8.503781494140625,-0.5746612548828125,-0.8126220703125,0.03192138671875
1687271840315798500,8.513798583984375,-0.582977294921875,-0.808013916015625,0.0345916748046875
1687271840325815600,8.523815673828125,-0.5889434814453125,-0.808807373046875,0.017913818359375
1687271840335832600,8.53383251953125,-0.5888214111328125,-0.810821533203125,0.0019378662109375
1687271840345848600,8.5438486328125,-0.58905029296875,-0.816314697265625,-0.0031890869140625
1687271840355865600,8.553865478515625,-0.5910491943359375,-0.822540283203125,0.006378173828125
1687271840365882400,8.56388232421875,-0.59747314453125,-0.8223114013671875,0.025177001953125
1687271840375898600,8.573898681640625,-0.604034423828125,-0.8198089599609375,0.039031982421875
1687271840385915400,8.583915283203124,-0.6034393310546875,-0.81915283203125,0.046051025390625
1687271840395932400,8.593932373046876,-0.5943145751953125,-0.81976318359375,0.0528106689453125
1687271840405948400,8.603948486328125,-0.584747314453125,-0.8190765380859375,0.052764892578125
1687271840415965400,8.61396533203125,-0.5767974853515625,-0.8224334716796875,0.0502471923828125
1687271840425982500,8.623982421875,-0.5745849609375,-0.8217010498046875,0.0489044189453125
1687271840435998500,8.63399853515625,-0.570587158203125,-0.8206787109375,0.050018310546875
1687271840446015500,8.644015380859376,-0.5662384033203125,-0.8198699951171875,0.0482635498046875
1687271840456032500,8.654032470703125,-0.5670013427734375,-0.8195953369140625,0.04058837890625
1687271840466048500,8.664048583984375,-0.579071044921875,-0.823272705078125,0.0409088134765625
1687271840476065300,8.674065185546874,-0.602935791015625,-0.826751708984375,0.045135498046875
1687271840486082600,8.68408251953125,-0.6201171875,-0.8273468017578125,0.06280517578125
1687271840496098600,8.6940986328125,-0.6208343505859375,-0.817138671875,0.07586669921875
1687271840506115300,8.704115234375,-0.609161376953125,-0.818878173828125,0.049346923828125
1687271840516132600,8.714132568359375,-0.6137542724609375,-0.83343505859375,0.0320281982421875
1687271840526148600,8.724148681640624,-0.6182861328125,-0.833160400390625,0.0327606201171875
1687271840536165400,8.734165283203126,-0.602294921875,-0.8281402587890625,0.043487548828125
1687271840546182400,8.744182373046876,-0.5722808837890625,-0.8255767822265625,0.0449371337890625
1687271840556199400,8.754199462890625,-0.5455322265625,-0.827301025390625,0.0461273193359375
1687271840566215400,8.76421533203125,-0.52178955078125,-0.8280029296875,0.0416107177734375
1687271840576232400,8.774232421875,-0.4958343505859375,-0.82220458984375,0.0209197998046875
1687271840586249500,8.78424951171875,-0.4889373779296875,-0.819122314453125,0.0023345947265625
1687271840596265500,8.794265380859375,-0.4932708740234375,-0.818206787109375,-0.01251220703125
1687271840606282500,8.804282470703125,-0.49810791015625,-0.8186798095703125,-0.024810791015625
1687271840616299300,8.81429931640625,-0.506866455078125,-0.8163909912109375,-0.0377349853515625
1687271840626315500,8.8243154296875,-0.529693603515625,-0.813995361328125,-0.0464630126953125
1687271840636332500,8.83433251953125,-0.56573486328125,-0.8137664794921875,-0.033050537109375
1687271840646349300,8.844349365234375,-0.603668212890625,-0.8139801025390625,-0.023590087890625
1687271840656365300,8.854365234375,-0.622161865234375,-0.8119049072265625,-0.0307159423828125
1687271840666382600,8.864382568359375,-0.6110076904296875,-0.8130950927734375,-0.0364990234375
1687271840676399400,8.8743994140625,-0.5920867919921875,-0.813720703125,-0.0383758544921875
1687271840686415400,8.884415283203126,-0.591888427734375,-0.8132781982421875,-0.0342254638671875
1687271840696432600,8.8944326171875,-0.625885009765625,-0.8219146728515625,-0.0461273193359375
1687271840706449400,8.904449462890625,-0.6071319580078125,-0.820892333984375,-0.0438385009765625
1687271840716466400,8.914466552734375,-0.59539794921875,-0.81781005859375,0.0029449462890625
1687271840726482400,8.924482421875,-0.591522216796875,-0.8208160400390625,0.057159423828125
1687271840736499500,8.93449951171875,-0.579345703125,-0.82305908203125,0.0760955810546875
1687271840746516500,8.9445166015625,-0.559967041015625,-0.8249053955078125,0.0726165771484375
1687271840756532500,8.954532470703125,-0.5323028564453125,-0.8158721923828125,0.060699462890625
1687271840766549500,8.964549560546875,-0.5161285400390625,-0.8070831298828125,0.047332763671875
1687271840776566500,8.97456640625,-0.5186767578125,-0.811279296875,0.03466796875
1687271840786582500,8.98458251953125,-0.5220489501953125,-0.828216552734375,0.0170135498046875
1687271840796599300,8.994599365234375,-0.540374755859375,-0.845733642578125,-0.0010986328125
1687271840806616600,9.004616455078125,-0.5813751220703125,-0.8472747802734375,0.0040740966796875
1687271840816632600,9.014632568359374,-0.6073760986328125,-0.8395233154296875,0.0304412841796875
1687271840826649300,9.0246494140625,-0.605316162109375,-0.82794189453125,0.052276611328125
1687271840836666600,9.03466650390625,-0.5821380615234375,-0.81976318359375,0.054473876953125
1687271840846682600,9.0446826171875,-0.5593109130859375,-0.8158721923828125,0.05084228515625
1687271840856699400,9.054699462890625,-0.5506134033203125,-0.8182220458984375,0.0475311279296875
1687271840866716400,9.06471630859375,-0.55694580078125,-0.8218841552734375,0.048919677734375
1687271840876733400,9.0747333984375,-0.573699951171875,-0.822967529296875,0.0486907958984375
1687271840886749400,9.08474951171875,-0.5956878662109375,-0.82061767578125,0.05194091796875
1687271840896766500,9.094766357421875,-0.607147216796875,-0.820281982421875,0.055938720703125
1687271840906783500,9.104783447265625,-0.605224609375,-0.821441650390625,0.0521240234375
1687271840916799500,9.114799560546874,-0.60430908203125,-0.81964111328125,0.0420379638671875
1687271840926816500,9.12481640625,-0.6097564697265625,-0.81561279296875,0.030670166015625
1687271840936833300,9.134833251953125,-0.6094818115234375,-0.8145599365234375,0.02032470703125
1687271840946849500,9.144849609375,-0.6048431396484375,-0.812652587890625,0.0081634521484375
1687271840956866600,9.154866455078125,-0.5920867919921875,-0.8101348876953125,-0.0050506591796875
1687271840966883300,9.16488330078125,-0.5701904296875,-0.8079986572265625,-0.01318359375
1687271840976899300,9.1748994140625,-0.5563507080078125,-0.810302734375,-0.0002288818359375
1687271840986916600,9.18491650390625,-0.5654754638671875,-0.8145751953125,0.0241851806640625
1687271840996933400,9.194933349609375,-0.6011810302734375,-0.82086181640625,0.042510986328125
1687271841006950400,9.204950439453125,-0.6280670166015625,-0.8242340087890625,0.0641326904296875
1687271841016966700,9.214966552734374,-0.6287841796875,-0.82763671875,0.077423095703125
1687271841026983400,9.2249833984375,-0.609527587890625,-0.827362060546875,0.08441162109375
1687271841037000400,9.23500048828125,-0.5775299072265625,-0.8260040283203125,0.077911376953125
1687271841047016400,9.245016357421875,-0.552764892578125,-0.8318328857421875,0.06768798828125
1687271841057033500,9.255033447265625,-0.5329742431640625,-0.828033447265625,0.07171630859375
1687271841067050500,9.265050537109374,-0.53863525390625,-0.81805419921875,0.047607421875
1687271841077066500,9.27506640625,-0.5515289306640625,-0.81005859375,0.0224151611328125
1687271841087083500,9.28508349609375,-0.5688629150390625,-0.808624267578125,0.0046844482421875
1687271841097099800,9.295099853515625,-0.5750732421875,-0.8200836181640625,0.003875732421875
1687271841107115800,9.30511572265625,-0.5682525634765625,-0.82861328125,0.016204833984375
1687271841117132500,9.315132568359376,-0.5587921142578125,-0.824737548828125,0.0210723876953125
1687271841127149800,9.32514990234375,-0.560272216796875,-0.8136138916015625,0.0208892822265625
1687271841137166800,9.335166748046875,-0.5691375732421875,-0.8108062744140625,0.0190582275390625
1687271841147182600,9.3451826171875,-0.5801239013671875,-0.8161468505859375,0.012847900390625
1687271841157200000,9.355199951171874,-0.586334228515625,-0.8179779052734375,0.00213623046875
1687271841167217000,9.365216796875,-0.588043212890625,-0.815765380859375,-0.0050811767578125
1687271841177232600,9.375232666015625,-0.58056640625,-0.813446044921875,-0.0041351318359375
1687271841187249700,9.385249755859375,-0.575653076171875,-0.8141632080078125,0.0052490234375
1687271841197267000,9.395266845703125,-0.5730133056640625,-0.8177642822265625,0.0224151611328125
1687271841207282700,9.40528271484375,-0.5746612548828125,-0.823822021484375,0.04052734375
1687271841217299700,9.4152998046875,-0.581634521484375,-0.824066162109375,0.050262451171875
1687271841227316700,9.425316650390625,-0.5891876220703125,-0.8212432861328125,0.0545501708984375
1687271841237333800,9.435333740234375,-0.59295654296875,-0.821807861328125,0.055694580078125
1687271841247349800,9.445349853515625,-0.5893707275390625,-0.82330322265625,0.0467987060546875
1687271841257366800,9.45536669921875,-0.583648681640625,-0.822662353515625,0.0334625244140625
1687271841267383800,9.4653837890625,-0.576904296875,-0.8173370361328125,0.0242462158203125
1687271841277399800,9.47539990234375,-0.568817138671875,-0.8126678466796875,0.016876220703125
1687271841287416600,9.48541650390625,-0.557647705078125,-0.813079833984375,0.0107574462890625
1687271841297433900,9.495433837890625,-0.553924560546875,-0.81475830078125,0.0103759765625
1687271841307449900,9.505449951171874,-0.5594940185546875,-0.8167877197265625,0.0158233642578125
1687271841317466600,9.515466552734376,-0.578704833984375,-0.8183441162109375,0.0271148681640625
1687271841327483600,9.525483642578125,-0.607757568359375,-0.8195037841796875,0.045440673828125
1687271841337501000,9.5355009765625,-0.625335693359375,-0.8215179443359375,0.0543212890625
1687271841347516700,9.5455166015625,-0.62945556640625,-0.821533203125,0.0446624755859375
1687271841357533700,9.55553369140625,-0.6260833740234375,-0.8150482177734375,0.0269622802734375
1687271841367551000,9.565551025390626,-0.612823486328125,-0.81292724609375,0.01751708984375
1687271841377566700,9.575566650390625,-0.5895538330078125,-0.8143463134765625,0.0147705078125
1687271841387583700,9.585583740234375,-0.5641632080078125,-0.8181610107421875,0.0132293701171875
1687271841397600800,9.595600830078125,-0.552276611328125,-0.8227996826171875,0.015869140625
1687271841407616800,9.60561669921875,-0.5586395263671875,-0.8223724365234375,0.0334625244140625
1687271841417633800,9.6156337890625,-0.563507080078125,-0.8199462890625,0.0435333251953125
1687271841427650800,9.62565087890625,-0.5640106201171875,-0.8200225830078125,0.042266845703125
1687271841437667800,9.635667724609375,-0.547637939453125,-0.824798583984375,0.0247955322265625
1687271841447683800,9.645683837890624,-0.555023193359375,-0.82257080078125,-0.0360870361328125
1687271841457700600,9.65570068359375,-0.59765625,-0.7906341552734375,-0.0335540771484375
1687271841467717600,9.665717529296876,-0.60577392578125,-0.8066253662109375,0.0368499755859375
1687271841477734000,9.67573388671875,-0.603057861328125,-0.846435546875,0.1016082763671875
1687271841487750700,9.685750732421875,-0.571197509765625,-0.870025634765625,0.1322174072265625
1687271841497767700,9.695767578125,-0.5298309326171875,-0.8604736328125,0.136566162109375
1687271841507785000,9.705784912109374,-0.5084228515625,-0.8310394287109375,0.1261138916015625
1687271841517800700,9.71580078125,-0.4989166259765625,-0.81884765625,0.108978271484375
1687271841527817700,9.725817626953125,-0.49700927734375,-0.8240509033203125,0.076385498046875
1687271841537834800,9.735834716796875,-0.5107269287109375,-0.832489013671875,0.0355072021484375
1687271841547850800,9.745850830078124,-0.5301666259765625,-0.832000732421875,0.0249481201171875
1687271841557867800,9.75586767578125,-0.5695343017578125,-0.8174591064453125,0.0159149169921875
1687271841567884800,9.765884765625,-0.609161376953125,-0.8127593994140625,0.0121307373046875
1687271841577900500,9.775900634765625,-0.6186370849609375,-0.82373046875,0.025634765625
1687271841587917800,9.785917724609375,-0.6078948974609375,-0.8361968994140625,0.042816162109375
1687271841597934800,9.795934814453124,-0.592987060546875,-0.831756591796875,0.044769287109375
1687271841607951600,9.80595166015625,-0.580963134765625,-0.814849853515625,0.0317535400390625
1687271841617967900,9.8159677734375,-0.571044921875,-0.805755615234375,0.0140533447265625
1687271841627984600,9.825984619140625,-0.5660400390625,-0.8093414306640625,-0.0015869140625
1687271841638001700,9.836001708984375,-0.562042236328125,-0.815460205078125,-0.005157470703125
1687271841648017700,9.846017578125,-0.55859375,-0.8206939697265625,0.0062408447265625
1687271841658034700,9.85603466796875,-0.5619659423828125,-0.82537841796875,0.0305633544921875
1687271841668051700,9.8660517578125,-0.575347900390625,-0.8292388916015625,0.0535736083984375
1687271841678068700,9.87606884765625,-0.5874481201171875,-0.828155517578125,0.0689544677734375
1687271841688084700,9.886084716796875,-0.591949462890625,-0.8261566162109375,0.0726165771484375
1687271841698101800,9.896101806640624,-0.5930633544921875,-0.82318115234375,0.066619873046875
1687271841708118800,9.906118896484376,-0.5880279541015625,-0.8217926025390625,0.0581512451171875
1687271841718134500,9.916134521484375,-0.5801239013671875,-0.8245391845703125,0.049346923828125
1687271841728151800,9.92615185546875,-0.57330322265625,-0.8247222900390625,0.0394287109375
1687271841738168800,9.9361689453125,-0.5683746337890625,-0.821624755859375,0.0337982177734375
1687271841748185600,9.946185546875,-0.561248779296875,-0.8195953369140625,0.0352020263671875
1687271841758201900,9.956201904296876,-0.5570831298828125,-0.8201751708984375,0.0371856689453125
1687271841768219000,9.966218994140625,-0.5618743896484375,-0.822296142578125,0.0386810302734375
1687271841778235600,9.976235595703125,-0.5708465576171875,-0.8223876953125,0.041168212890625
1687271841788251600,9.986251708984375,-0.5789337158203125,-0.8234405517578125,0.039642333984375
1687271841798268700,9.9962685546875,-0.5795440673828125,-0.8218994140625,0.0329742431640625
1687271841808285700,10.00628564453125,-0.5803985595703125,-0.82012939453125,0.0263671875
1687271841818301700,10.0163017578125,-0.5828399658203125,-0.8199462890625,0.0310516357421875
1687271841828318700,10.026318603515625,-0.5896453857421875,-0.8225250244140625,0.03826904296875
1687271841838335700,10.036335693359375,-0.5913543701171875,-0.8182220458984375,0.041168212890625
1687271841848352800,10.046352783203124,-0.5954132080078125,-0.8067169189453125,0.0435333251953125
1687271841858368500,10.056368408203125,-0.6170806884765625,-0.8080902099609375,0.0582427978515625
1687271841868385800,10.0663857421875,-0.663421630859375,-0.8215484619140625,0.0850677490234375
1687271841878402800,10.07640283203125,-0.7107086181640625,-0.8280487060546875,0.1075439453125
1687271841888418600,10.08641845703125,-0.7398223876953125,-0.8240966796875,0.1109619140625
1687271841898435800,10.096435791015624,-0.7552032470703125,-0.804046630859375,0.07147216796875
1687271841908452900,10.106452880859376,-0.7353973388671875,-0.7781219482421875,0.031494140625
1687271841918469600,10.1164697265625,-0.65679931640625,-0.7688140869140625,-0.0151519775390625
1687271841928485600,10.126485595703125,-0.560943603515625,-0.805023193359375,-0.02984619140625
1687271841938503000,10.1365029296875,-0.49591064453125,-0.83575439453125,-0.023651123046875
1687271841948519700,10.146519775390624,-0.480621337890625,-0.8713836669921875,0.0263214111328125
1687271841958535700,10.15653564453125,-0.53656005859375,-0.86578369140625,0.117828369140625
1687271841968552700,10.166552734375,-0.547210693359375,-0.8078155517578125,0.1515655517578125
1687271841978569700,10.17656982421875,-0.533935546875,-0.87628173828125,0.097900390625
1687271841988585700,10.186585693359374,-0.49920654296875,-0.93853759765625,0.0366363525390625
1687271841998602800,10.196602783203126,-0.4781951904296875,-0.92864990234375,0.0449676513671875
1687271842008619800,10.206619873046876,-0.498687744140625,-0.8614349365234375,0.0705108642578125
1687271842018636800,10.21663671875,-0.451568603515625,-0.80731201171875,0.0214691162109375
1687271842028652500,10.226652587890625,-0.36004638671875,-0.87835693359375,-0.023590087890625
1687271842038669800,10.236669921875,-0.334259033203125,-0.8892059326171875,-0.070068359375
1687271842048686800,10.246686767578124,-0.321319580078125,-0.8862762451171875,-0.061737060546875
1687271842058702600,10.25670263671875,-0.3236083984375,-0.899688720703125,-0.036895751953125
1687271842068719600,10.2667197265625,-0.35040283203125,-0.916717529296875,-0.0114898681640625
1687271842078737000,10.27673681640625,-0.40155029296875,-0.938079833984375,0.009063720703125
1687271842088753700,10.286753662109374,-0.429718017578125,-0.9263458251953125,0.0124969482421875
1687271842098769400,10.296769287109376,-0.4356536865234375,-0.91021728515625,0.0156707763671875
1687271842108786400,10.306786376953125,-0.43304443359375,-0.91522216796875,0.00537109375
1687271842118803200,10.31680322265625,-0.415374755859375,-0.9244384765625,-0.0316925048828125
1687271842128819500,10.3268193359375,-0.3780364990234375,-0.9358673095703125,-0.0433197021484375
1687271842138836500,10.33683642578125,-0.3605194091796875,-0.9215087890625,-0.013946533203125
1687271842148853200,10.346853271484376,-0.374176025390625,-0.8959197998046875,0.0203704833984375
1687271842158869200,10.356869140625,-0.374298095703125,-0.9067230224609375,0.0268402099609375
1687271842168886500,10.366886474609375,-0.352783203125,-0.9457550048828125,0.0128936767578125
1687271842178903300,10.3769033203125,-0.3411407470703125,-0.955352783203125,0.002349853515625
1687271842188920300,10.38692041015625,-0.3419647216796875,-0.930908203125,-0.0010986328125
1687271842198936600,10.3969365234375,-0.34503173828125,-0.9368438720703125,-0.0019378662109375
1687271842208953300,10.406953369140625,-0.340301513671875,-0.945404052734375,-0.021636962890625
1687271842218970400,10.416970458984375,-0.318023681640625,-0.946990966796875,-0.051605224609375
1687271842228986400,10.426986328125,-0.1878814697265625,-0.97021484375,-0.08026123046875
1687271842239003400,10.43700341796875,-0.0599517822265625,-0.9739837646484375,-0.087371826171875
1687271842249020400,10.4470205078125,-0.0396575927734375,-0.9403076171875,-0.0766448974609375
1687271842259037200,10.457037109375,-0.1248779296875,-0.9061737060546875,-0.0649261474609375
1687271842269053400,10.467053466796875,-0.281494140625,-0.9148712158203125,-0.106414794921875
1687271842279070500,10.477070556640625,-0.3408355712890625,-0.984039306640625,-0.07720947265625
1687271842289087200,10.487087158203124,-0.376708984375,-1.0202484130859375,-0.029327392578125
1687271842299103200,10.497103271484375,-0.3913421630859375,-0.98345947265625,0.005615234375
1687271842309120500,10.50712060546875,-0.355865478515625,-0.916168212890625,-0.021759033203125
1687271842319137300,10.51713720703125,-0.2967987060546875,-0.9006500244140625,-0.0362548828125
1687271842329153300,10.5271533203125,-0.249420166015625,-0.9244384765625,-0.0374908447265625
1687271842339170600,10.537170654296874,-0.2174224853515625,-0.9701080322265625,-0.0311431884765625
1687271842349187300,10.547187255859376,-0.2184600830078125,-0.988372802734375,-0.0172882080078125
1687271842359204400,10.557204345703125,-0.2425537109375,-0.9497833251953125,-0.0024871826171875
1687271842369220400,10.567220458984375,-0.276458740234375,-0.8945465087890625,0.00390625
1687271842379237400,10.5772373046875,-0.317474365234375,-0.8791961669921875,0.0283050537109375
1687271842389254400,10.58725439453125,-0.37353515625,-0.8901519775390625,0.0404510498046875
1687271842399270400,10.5972705078125,-0.430145263671875,-0.9023590087890625,0.02691650390625
1687271842409287400,10.607287353515625,-0.477294921875,-0.9037322998046875,0.00927734375
1687271842419304400,10.617304443359375,-0.4862823486328125,-0.893646240234375,-0.0160980224609375
1687271842429321200,10.6273212890625,-0.48736572265625,-0.914825439453125,-0.017730712890625
1687271842439337200,10.637337158203126,-0.5100250244140625,-0.91937255859375,-0.0040283203125
1687271842449354500,10.6473544921875,-0.52447509765625,-0.894378662109375,0.0115966796875
1687271842459371300,10.657371337890625,-0.517425537109375,-0.8948974609375,-0.001129150390625
1687271842469387300,10.66738720703125,-0.536041259765625,-0.9395294189453125,-0.0008087158203125
1687271842479404500,10.677404541015624,-0.5456695556640625,-0.9131927490234375,0.0175933837890625
1687271842489421300,10.68742138671875,-0.526641845703125,-0.8537139892578125,0.04071044921875
1687271842499437300,10.697437255859375,-0.513702392578125,-0.83770751953125,0.057281494140625
1687271842509454300,10.707454345703125,-0.525146484375,-0.854766845703125,0.06439208984375
1687271842519471400,10.717471435546875,-0.5294952392578125,-0.8744659423828125,0.0584716796875
1687271842529488400,10.72748828125,-0.517059326171875,-0.892303466796875,0.0491790771484375
1687271842539504400,10.73750439453125,-0.500457763671875,-0.9038543701171875,0.0218048095703125
1687271842549521400,10.747521484375,-0.47821044921875,-0.905609130859375,0.0024871826171875
1687271842559538400,10.757538330078125,-0.461578369140625,-0.9027252197265625,-0.0093994140625
1687271842569554400,10.767554443359375,-0.452056884765625,-0.9029083251953125,-0.0146484375
1687271842579571500,10.777571533203124,-0.44342041015625,-0.9017333984375,-0.01483154296875
1687271842589588500,10.78758837890625,-0.4434051513671875,-0.889373779296875,-0.003387451171875
1687271842599605200,10.797605224609375,-0.4482421875,-0.86785888671875,0.0131988525390625
1687271842609621200,10.807621337890625,-0.42962646484375,-0.8527069091796875,0.0585479736328125
1687271842619638500,10.817638427734375,-0.3995513916015625,-0.8471221923828125,0.086456298828125
1687271842629655300,10.8276552734375,-0.370574951171875,-0.8489990234375,0.073089599609375
1687271842639671300,10.83767138671875,-0.3461151123046875,-0.873138427734375,0.0598907470703125
1687271842649688600,10.8476884765625,-0.34686279296875,-0.9039764404296875,0.068817138671875
1687271842659705300,10.857705322265625,-0.3743896484375,-0.918731689453125,0.097320556640625
1687271842669722400,10.867722412109375,-0.4010009765625,-0.9107208251953125,0.12249755859375
1687271842679738400,10.87773828125,-0.404022216796875,-0.8843994140625,0.078369140625
1687271842689755400,10.88775537109375,-0.3719940185546875,-0.875274658203125,0.0726165771484375
1687271842699772400,10.8977724609375,-0.3993377685546875,-0.8686981201171875,0.103851318359375
1687271842709788400,10.907788330078125,-0.46923828125,-0.8626251220703125,0.140625
1687271842719805400,10.917805419921875,-0.52392578125,-0.863433837890625,0.135833740234375
1687271842729822500,10.927822509765624,-0.5566864013671875,-0.87127685546875,0.1183319091796875
1687271842739839200,10.937839111328126,-0.5822906494140625,-0.8677825927734375,0.0956878662109375
1687271842749855200,10.947855224609375,-0.6035003662109375,-0.859344482421875,0.088226318359375
1687271842759872500,10.95787255859375,-0.619232177734375,-0.8493194580078125,0.08917236328125
1687271842769889300,10.96788916015625,-0.6174163818359375,-0.8406219482421875,0.0893096923828125
1687271842779905300,10.9779052734375,-0.5888671875,-0.82537841796875,0.0746612548828125
1687271842789922600,10.987922607421876,-0.5632476806640625,-0.8287200927734375,0.0765380859375
1687271842799939300,10.997939208984375,-0.5847625732421875,-0.840362548828125,0.0842132568359375
1687271842809955300,11.007955322265625,-0.6195526123046875,-0.83721923828125,0.07489013671875
1687271842819972400,11.017972412109375,-0.6313323974609375,-0.8350067138671875,0.06304931640625
1687271842829989400,11.0279892578125,-0.637451171875,-0.8338165283203125,0.028228759765625
1687271842840006400,11.03800634765625,-0.630645751953125,-0.8285980224609375,-0.0005950927734375
1687271842850022400,11.0480224609375,-0.6126708984375,-0.821258544921875,-0.0134429931640625
1687271842860039400,11.058039306640625,-0.585662841796875,-0.8184814453125,-0.0135955810546875
1687271842870056400,11.068056396484375,-0.56231689453125,-0.81610107421875,-0.010406494140625
1687271842880072400,11.078072509765626,-0.549407958984375,-0.8145751953125,-0.007568359375
1687271842890089200,11.088089111328125,-0.5485076904296875,-0.8077545166015625,-0.003936767578125
1687271842900106500,11.0981064453125,-0.5542755126953125,-0.7997589111328125,-0.0009307861328125
1687271842910123300,11.108123291015625,-0.5640869140625,-0.7938690185546875,-0.0007171630859375
1687271842920139300,11.11813916015625,-0.575408935546875,-0.798980712890625,0.0001220703125
1687271842930156500,11.128156494140624,-0.5844879150390625,-0.8162384033203125,0.0084075927734375
1687271842940173300,11.13817333984375,-0.5911865234375,-0.8286895751953125,0.024627685546875
1687271842950189300,11.148189208984375,-0.596343994140625,-0.832794189453125,0.0459136962890625
1687271842960206300,11.158206298828125,-0.5989990234375,-0.8308868408203125,0.0635223388671875
1687271842970223400,11.168223388671874,-0.60052490234375,-0.828338623046875,0.0706939697265625
1687271842980240400,11.178240478515624,-0.60235595703125,-0.825225830078125,0.0676727294921875
1687271842990256400,11.18825634765625,-0.5999908447265625,-0.82177734375,0.0572052001953125
1687271843000273400,11.1982734375,-0.596099853515625,-0.8208160400390625,0.0420074462890625
1687271843010290400,11.20829052734375,-0.586883544921875,-0.8186492919921875,0.0288238525390625
1687271843020306400,11.218306396484374,-0.574676513671875,-0.8218231201171875,0.0176849365234375
1687271843030323200,11.2283232421875,-0.563018798828125,-0.824737548828125,0.0072021484375
1687271843040340500,11.238340576171876,-0.5533294677734375,-0.8197174072265625,0.004608154296875
1687271843050357200,11.248357177734375,-0.5466766357421875,-0.8138885498046875,0.0053253173828125
1687271843060373200,11.258373291015625,-0.548431396484375,-0.8132171630859375,0.0069732666015625
1687271843070390500,11.268390625,-0.554443359375,-0.8164520263671875,0.0121917724609375
1687271843080407300,11.2784072265625,-0.5627593994140625,-0.81781005859375,0.022125244140625
1687271843090423300,11.28842333984375,-0.575225830078125,-0.8171539306640625,0.033599853515625
1687271843100440800,11.29844091796875,-0.5888671875,-0.8160400390625,0.044921875
1687271843110457600,11.30845751953125,-0.602203369140625,-0.8161163330078125,0.0576019287109375
1687271843120475000,11.318474853515625,-0.612335205078125,-0.8139801025390625,0.068267822265625
1687271843130491000,11.328490966796876,-0.6172027587890625,-0.817626953125,0.07659912109375
1687271843140507600,11.338507568359375,-0.6144256591796875,-0.8250579833984375,0.078460693359375
1687271843150524700,11.348524658203125,-0.605682373046875,-0.8278961181640625,0.0786895751953125
1687271843160541000,11.358541015625,-0.597259521484375,-0.8264617919921875,0.0764617919921875
1687271843170557700,11.3685576171875,-0.5854949951171875,-0.825775146484375,0.0719146728515625
1687271843180574700,11.37857470703125,-0.5731048583984375,-0.8247528076171875,0.067962646484375
1687271843190591700,11.388591796875,-0.56524658203125,-0.82476806640625,0.06494140625
1687271843200607700,11.398607666015625,-0.5598297119140625,-0.8282470703125,0.06158447265625
1687271843210624800,11.408624755859375,-0.557891845703125,-0.829864501953125,0.0550384521484375
1687271843220641500,11.4186416015625,-0.558807373046875,-0.8295135498046875,0.046112060546875
1687271843230657800,11.42865771484375,-0.5580291748046875,-0.8292236328125,0.0380859375
1687271843240674800,11.4386748046875,-0.555938720703125,-0.828643798828125,0.030517578125
1687271843250691600,11.448691650390625,-0.55377197265625,-0.824859619140625,0.0214996337890625
1687271843260708900,11.458708984375,-0.552490234375,-0.8186492919921875,0.0146026611328125
1687271843270724900,11.468724853515624,-0.5546875,-0.81695556640625,0.0098724365234375
1687271843280741600,11.47874169921875,-0.559722900390625,-0.8167724609375,0.00823974609375
1687271843290758700,11.488758544921875,-0.569549560546875,-0.8165435791015625,0.0075225830078125
1687271843300775000,11.49877490234375,-0.5796051025390625,-0.8166656494140625,0.00738525390625
1687271843310791700,11.508791748046875,-0.583892822265625,-0.8178863525390625,0.0095977783203125
1687271843320808700,11.51880859375,-0.5836029052734375,-0.81842041015625,0.015289306640625
1687271843330825700,11.52882568359375,-0.5788116455078125,-0.8194427490234375,0.0263824462890625
1687271843340841700,11.538841796875,-0.5738677978515625,-0.8217315673828125,0.03887939453125
1687271843350858800,11.548858642578125,-0.5724029541015625,-0.8253173828125,0.0507354736328125
1687271843360875500,11.55887548828125,-0.575408935546875,-0.8312225341796875,0.057098388671875
1687271843370891800,11.568891845703124,-0.5748291015625,-0.835296630859375,0.0534820556640625
1687271843380908800,11.57890869140625,-0.5667877197265625,-0.83612060546875,0.0437774658203125
1687271843390925600,11.588925537109375,-0.5508270263671875,-0.833526611328125,0.0315399169921875
1687271843400942800,11.59894287109375,-0.5349273681640625,-0.8319854736328125,0.023651123046875
1687271843410958800,11.608958740234375,-0.522979736328125,-0.83233642578125,0.0190277099609375
1687271843420975600,11.6189755859375,-0.5158538818359375,-0.8327789306640625,0.0163421630859375
1687271843430992600,11.62899267578125,-0.515533447265625,-0.8311614990234375,0.0157012939453125
1687271843441009700,11.639009765625,-0.5193023681640625,-0.8255615234375,0.0161590576171875
1687271843451025700,11.649025634765625,-0.530303955078125,-0.8173675537109375,0.018310546875
1687271843461042700,11.659042724609375,-0.542999267578125,-0.810699462890625,0.0258026123046875
1687271843471059700,11.669059814453124,-0.564727783203125,-0.8087310791015625,0.037109375
1687271843481075700,11.67907568359375,-0.5897064208984375,-0.807769775390625,0.0530242919921875
1687271843491092700,11.6890927734375,-0.6114349365234375,-0.808624267578125,0.0719451904296875
1687271843501109500,11.699109619140625,-0.6292572021484375,-0.814605712890625,0.0864410400390625
1687271843511125800,11.709125732421874,-0.639556884765625,-0.8246612548828125,0.09844970703125
1687271843521142800,11.719142822265624,-0.6424713134765625,-0.832794189453125,0.1067657470703125
1687271843531159600,11.72915966796875,-0.636444091796875,-0.8338470458984375,0.1111602783203125
1687271843541176800,11.7391767578125,-0.624786376953125,-0.833221435546875,0.107025146484375
1687271843551192800,11.74919287109375,-0.605499267578125,-0.832611083984375,0.097259521484375
1687271843561209600,11.759209716796875,-0.5828704833984375,-0.833038330078125,0.08355712890625
1687271843571226600,11.7692265625,-0.5592041015625,-0.8345947265625,0.06829833984375
1687271843581243000,11.779242919921876,-0.540374755859375,-0.83038330078125,0.0522613525390625
1687271843591259600,11.789259765625,-0.525421142578125,-0.8253631591796875,0.037384033203125
1687271843601276700,11.799276611328125,-0.5217132568359375,-0.8190460205078125,0.0242919921875
1687271843611293700,11.809293701171875,-0.5297393798828125,-0.813262939453125,0.0164337158203125
1687271843621309700,11.819309814453124,-0.5441436767578125,-0.81036376953125,0.0167388916015625
1687271843631326700,11.82932666015625,-0.5662384033203125,-0.811065673828125,0.0218353271484375
1687271843641343500,11.839343505859375,-0.5865325927734375,-0.81475830078125,0.029693603515625
1687271843651359700,11.84935986328125,-0.6041259765625,-0.8181915283203125,0.038665771484375
1687271843661376800,11.859376708984374,-0.6169586181640625,-0.8238677978515625,0.04913330078125
1687271843671393500,11.8693935546875,-0.6224212646484375,-0.82672119140625,0.059173583984375
1687271843681410800,11.879410888671876,-0.6219024658203125,-0.8267822265625,0.064422607421875
1687271843691426800,11.8894267578125,-0.614044189453125,-0.82574462890625,0.0609588623046875
1687271843701443600,11.899443603515625,-0.5993804931640625,-0.8257293701171875,0.051544189453125
1687271843711460600,11.909460693359375,-0.58013916015625,-0.828857421875,0.0380706787109375
1687271843721476900,11.919476806640626,-0.556549072265625,-0.8304443359375,0.0245208740234375
1687271843731493600,11.92949365234375,-0.5311279296875,-0.8283233642578125,0.0137176513671875
1687271843741510700,11.9395107421875,-0.5081939697265625,-0.823028564453125,0.00689697265625
1687271843751527700,11.949527587890625,-0.4957733154296875,-0.8202667236328125,0.0039825439453125
1687271843761543700,11.959543701171874,-0.4955291748046875,-0.8211517333984375,0.0055389404296875
1687271843771560700,11.969560791015626,-0.50994873046875,-0.8239898681640625,0.00885009765625
1687271843781577500,11.979577392578125,-0.5333251953125,-0.82574462890625,0.0151214599609375
1687271843791593700,11.98959375,-0.5550079345703125,-0.824859619140625,0.0232696533203125
1687271843801610800,11.99961083984375,-0.5721435546875,-0.824859619140625,0.0294036865234375
1687271843811627500,12.00962744140625,-0.586456298828125,-0.8271636962890625,0.032958984375
1687271843821643500,12.0196435546875,-0.5955810546875,-0.8292236328125,0.0354461669921875
1687271843831660800,12.029660888671875,-0.598236083984375,-0.8279876708984375,0.0360565185546875
1687271843841677600,12.039677490234375,-0.594970703125,-0.825225830078125,0.03485107421875
1687271843851694600,12.049694580078125,-0.5883636474609375,-0.8219757080078125,0.034820556640625
1687271843861710800,12.0597109375,-0.579559326171875,-0.820465087890625,0.0368804931640625
1687271843871727600,12.0697275390625,-0.57257080078125,-0.820587158203125,0.03973388671875
1687271843881744600,12.07974462890625,-0.5671844482421875,-0.8196868896484375,0.0424346923828125
1687271843891760600,12.0897607421875,-0.5665740966796875,-0.817718505859375,0.045013427734375
1687271843901777700,12.099777587890625,-0.5732879638671875,-0.8153228759765625,0.04669189453125
1687271843911794700,12.109794677734374,-0.5865936279296875,-0.818756103515625,0.045013427734375
1687271843921811700,12.119811767578126,-0.5970916748046875,-0.8242034912109375,0.042205810546875
1687271843931827700,12.12982763671875,-0.59759521484375,-0.8276824951171875,0.0401763916015625
1687271843941844700,12.1398447265625,-0.585357666015625,-0.8268890380859375,0.038787841796875
1687271843951861500,12.149861572265625,-0.5666046142578125,-0.8259735107421875,0.03759765625
1687271843961877500,12.15987744140625,-0.5514068603515625,-0.822265625,0.0379638671875
1687271843971894800,12.169894775390626,-0.543975830078125,-0.8161468505859375,0.04071044921875
1687271843981911600,12.17991162109375,-0.55224609375,-0.81158447265625,0.0476837158203125
1687271843991927600,12.189927490234375,-0.5732269287109375,-0.812774658203125,0.0548553466796875
1687271844001944800,12.19994482421875,-0.597381591796875,-0.8192596435546875,0.0626678466796875
1687271844011961600,12.209961669921874,-0.6141204833984375,-0.828826904296875,0.074737548828125
1687271844021978600,12.219978515625,-0.6168975830078125,-0.8381195068359375,0.0810394287109375
1687271844031995000,12.229994873046875,-0.6075897216796875,-0.8423004150390625,0.08074951171875
1687271844042011600,12.24001171875,-0.5881500244140625,-0.8416290283203125,0.0732879638671875
1687271844052028700,12.250028564453125,-0.5668792724609375,-0.8363037109375,0.0560760498046875
1687271844062044700,12.260044677734374,-0.5458984375,-0.829833984375,0.0363311767578125
1687271844072061700,12.270061767578126,-0.5314178466796875,-0.81817626953125,0.0196075439453125
1687271844082078700,12.28007861328125,-0.52703857421875,-0.80816650390625,0.0104827880859375
1687271844092095500,12.290095458984375,-0.5325164794921875,-0.80426025390625,0.00543212890625
1687271844102111700,12.30011181640625,-0.548797607421875,-0.8077392578125,0.0068206787109375
1687271844112129000,12.31012890625,-0.56768798828125,-0.812469482421875,0.01092529296875
1687271844122145800,12.320145751953126,-0.589569091796875,-0.8194580078125,0.0175018310546875
1687271844132161800,12.330161865234375,-0.604705810546875,-0.8247528076171875,0.0240478515625
1687271844142178800,12.3401787109375,-0.60809326171875,-0.8277587890625,0.0298919677734375
1687271844152195800,12.35019580078125,-0.5995635986328125,-0.8310699462890625,0.0356292724609375
1687271844162212900,12.360212890625,-0.582000732421875,-0.83428955078125,0.03778076171875
1687271844172228900,12.370228759765626,-0.5619354248046875,-0.8325042724609375,0.0359039306640625
1687271844182246000,12.380245849609375,-0.54156494140625,-0.8297882080078125,0.03680419921875
1687271844192263000,12.390262939453125,-0.52581787109375,-0.8294677734375,0.039703369140625
1687271844202279000,12.40027880859375,-0.5145263671875,-0.833282470703125,0.0445709228515625
1687271844212295700,12.410295654296876,-0.5076904296875,-0.8395233154296875,0.0478515625
1687271844222313000,12.42031298828125,-0.50811767578125,-0.843109130859375,0.0512542724609375
1687271844232329000,12.430328857421875,-0.51287841796875,-0.8431854248046875,0.052825927734375
1687271844242345700,12.440345703125,-0.5229644775390625,-0.8399505615234375,0.0533599853515625
1687271844252363000,12.450363037109375,-0.5368194580078125,-0.8380126953125,0.0523529052734375
1687271844262379800,12.4603798828125,-0.549072265625,-0.8355865478515625,0.0518341064453125
1687271844272395800,12.470395751953125,-0.5611114501953125,-0.8296051025390625,0.0511016845703125
1687271844282412800,12.480412841796875,-0.572509765625,-0.8218231201171875,0.0521697998046875
1687271844292429800,12.490429931640625,-0.584228515625,-0.8211212158203125,0.05120849609375
1687271844302445800,12.50044580078125,-0.5891265869140625,-0.8194732666015625,0.0509796142578125
1687271844312462800,12.510462890625,-0.5948638916015625,-0.82196044921875,0.0505523681640625
1687271844322479900,12.52047998046875,-0.5965423583984375,-0.8241119384765625,0.056304931640625
1687271844332496000,12.530495849609375,-0.5968170166015625,-0.8273468017578125,0.066009521484375
1687271844342513000,12.540512939453125,-0.5902862548828125,-0.8302459716796875,0.0769805908203125
1687271844352529700,12.55052978515625,-0.57952880859375,-0.837493896484375,0.0882568359375
1687271844362547000,12.560546875,-0.5627899169921875,-0.8411407470703125,0.098358154296875
1687271844372563000,12.57056298828125,-0.5469970703125,-0.8427886962890625,0.1048583984375
1687271844382579700,12.580579833984375,-0.53759765625,-0.84222412109375,0.109619140625
1687271844392597000,12.590596923828125,-0.5442962646484375,-0.8422088623046875,0.1270294189453125
1687271844402613000,12.600613037109374,-0.543975830078125,-0.8478240966796875,0.138092041015625
1687271844412629800,12.610629638671876,-0.533538818359375,-0.85693359375,0.1227264404296875
1687271844422646800,12.620646728515625,-0.524658203125,-0.8573760986328125,0.1012420654296875
1687271844432663000,12.6306630859375,-0.5208587646484375,-0.8496856689453125,0.0816802978515625
1687271844442679800,12.6406796875,-0.5180206298828125,-0.837860107421875,0.0724334716796875
1687271844452696800,12.65069677734375,-0.519012451171875,-0.833953857421875,0.06329345703125
1687271844462713900,12.6607138671875,-0.5237579345703125,-0.83489990234375,0.052520751953125
1687271844472729900,12.670729736328125,-0.5304107666015625,-0.833038330078125,0.0468597412109375
1687271844482747000,12.680746826171875,-0.548126220703125,-0.830078125,0.04718017578125
1687271844492763600,12.690763671875,-0.56390380859375,-0.8288116455078125,0.0500335693359375
1687271844502780000,12.70077978515625,-0.575836181640625,-0.83135986328125,0.04998779296875
1687271844512797000,12.710796875,-0.5802001953125,-0.835601806640625,0.0459747314453125
1687271844522813700,12.720813720703125,-0.5821380615234375,-0.8370819091796875,0.0431976318359375
1687271844532829700,12.73082958984375,-0.5791015625,-0.834381103515625,0.04217529296875
1687271844542847000,12.740846923828125,-0.438629150390625,-0.833465576171875,0.049835205078125
1687271844552863700,12.75086376953125,-0.2475128173828125,-0.8694610595703125,0.0741424560546875
1687271844562879700,12.760879638671875,-0.374725341796875,-0.8539886474609375,0.0353851318359375
1687271844572897000,12.77089697265625,-0.5328826904296875,-0.8023681640625,0.0276336669921875
1687271844582913800,12.780913818359375,-0.72332763671875,-0.811126708984375,0.0794219970703125
1687271844592930800,12.790930908203125,-0.797607421875,-0.83563232421875,0.121429443359375
1687271844602946800,12.80094677734375,-0.7478179931640625,-0.857696533203125,0.1010894775390625
1687271844612963800,12.8109638671875,-0.6829376220703125,-0.8544464111328125,0.0829925537109375
1687271844622980900,12.82098095703125,-0.625579833984375,-0.8280181884765625,0.0842742919921875
1687271844632996900,12.830996826171875,-0.5731201171875,-0.8108062744140625,0.0738677978515625
1687271844643014000,12.841013916015624,-0.527923583984375,-0.8141326904296875,0.048370361328125
1687271844653031000,12.851031005859374,-0.490570068359375,-0.82891845703125,0.02392578125
1687271844663047000,12.861046875,-0.466156005859375,-0.838043212890625,0.011993408203125
1687271844673063700,12.871063720703125,-0.45574951171875,-0.8395843505859375,0.0151824951171875
1687271844683081000,12.8810810546875,-0.455108642578125,-0.8358612060546875,0.024017333984375
1687271844693097000,12.891096923828124,-0.462921142578125,-0.8338623046875,0.034149169921875
1687271844703113700,12.90111376953125,-0.479705810546875,-0.836029052734375,0.044464111328125
1687271844713131000,12.911131103515626,-0.5054779052734375,-0.8394317626953125,0.056732177734375
1687271844723147800,12.921147705078125,-0.537750244140625,-0.8397216796875,0.072418212890625
1687271844733163800,12.931163818359375,-0.5671844482421875,-0.8398590087890625,0.0866241455078125
1687271844743180800,12.941180908203124,-0.59063720703125,-0.841094970703125,0.0980682373046875
1687271844753197800,12.95119775390625,-0.6027984619140625,-0.843017578125,0.1067352294921875
1687271844763213800,12.9612138671875,-0.6042938232421875,-0.84307861328125,0.1131744384765625
1687271844773230800,12.97123095703125,-0.59625244140625,-0.84228515625,0.1149444580078125
1687271844783248000,12.981247802734375,-0.58251953125,-0.842315673828125,0.110565185546875
1687271844793263900,12.991263916015624,-0.5640411376953125,-0.841949462890625,0.10125732421875
1687271844803281000,13.001281005859376,-0.54620361328125,-0.8408355712890625,0.092529296875
1687271844813298000,13.0112978515625,-0.5318756103515625,-0.8394775390625,0.08258056640625
1687271844823315000,13.02131494140625,-0.5233612060546875,-0.84027099609375,0.0718841552734375
1687271844833331000,13.0313310546875,-0.5144805908203125,-0.842742919921875,0.0616912841796875
1687271844843347700,13.04134765625,-0.50994873046875,-0.84375,0.052764892578125
1687271844853365000,13.051364990234376,-0.509368896484375,-0.841339111328125,0.0450592041015625
1687271844863381000,13.061381103515625,-0.515411376953125,-0.8330841064453125,0.0433502197265625
1687271844873397800,13.071397705078125,-0.526702880859375,-0.8275909423828125,0.04339599609375
1687271844883415000,13.0814150390625,-0.53759765625,-0.826904296875,0.0442962646484375
1687271844893431000,13.09143115234375,-0.5404052734375,-0.831878662109375,0.055206298828125
1687271844903447800,13.10144775390625,-0.5372161865234375,-0.8399810791015625,0.07208251953125
1687271844913464800,13.11146484375,-0.5337371826171875,-0.8563995361328125,0.0858001708984375
1687271844923480800,13.121480712890625,-0.54412841796875,-0.8637542724609375,0.102294921875
1687271844933497900,13.131497802734375,-0.552825927734375,-0.8515167236328125,0.1133880615234375
1687271844943515000,13.141514892578124,-0.547454833984375,-0.8354644775390625,0.11492919921875
1687271844953531000,13.15153076171875,-0.53826904296875,-0.8271026611328125,0.10369873046875
1687271844963548000,13.1615478515625,-0.5382232666015625,-0.827056884765625,0.0836334228515625
1687271844973565000,13.17156494140625,-0.5501251220703125,-0.8252410888671875,0.0533294677734375
