time,seconds_elapsed,z,y,x
1687271832124659000,0.322658935546875,-0.09640168813467025,0.3084036858707666,-0.3090374537296593
1687271832134676000,0.332676025390625,-0.09308511093258857,0.20249591824412344,-0.1896981037303805
1687271832144692200,0.342692138671875,-0.16153846943378447,0.053852001696825025,-0.01251972822472453
1687271832154709000,0.352708984375,-0.24214929871857166,-0.08491291039288043,0.11282850680053233
1687271832164726000,0.36272607421875,-0.35019992359280583,-0.17663608532249928,0.25842691817209124
1687271832174742000,0.372741943359375,-0.3544897297412157,-0.31252573423683644,0.5663662014015018
1687271832184759000,0.382759033203125,-0.19759236411154268,-0.4166863659352064,0.7066717670619488
1687271832194776000,0.392776123046875,0.019090484917163846,-0.44054713399410245,0.7383869018830359
1687271832204792000,0.4027919921875,0.23071195890307425,-0.32245266948938367,0.5757568378202617
1687271832214809000,0.41280908203125,0.3549555936872959,-0.1323059452086687,0.26987857877388594
1687271832224826000,0.422826171875,0.37124388066530223,-0.017798691540956497,0.1770271304666996
1687271832234842000,0.432842041015625,0.39738253052830697,-0.05167641122341156,0.23057108912765978
1687271832244859000,0.44285888671875,0.32086803064644337,-0.0513216064363718,0.20681305079087614
1687271832254876200,0.452876220703125,0.15911737976670265,-0.10733809269070625,0.39596901046857236
1687271832264892200,0.46289208984375,0.011858195576071739,-0.1377478440016508,0.501875901312381
1687271832274909000,0.472908935546875,-0.08469839085936545,-0.07921499101221562,0.3217341459564864
1687271832284926200,0.48292626953125,-0.09434124847352504,0.009894786548614502,0.07611527143120765
1687271832294942200,0.492942138671875,-0.06956219652593136,0.07350830380320549,-0.10408595902696251
1687271832304959000,0.502958984375,-0.030170681858062744,0.1006523313164711,-0.19175313656404613
1687271832314976000,0.51297607421875,0.013679565784335136,0.12683423579931258,-0.3103064507521689
1687271832324992300,0.5229921875,0.003968319109082222,0.09789631060659885,-0.34412396467998624
1687271832335009000,0.533009033203125,-0.03876607624590397,0.004352934512495995,-0.2089528392985463
1687271832345026000,0.543026123046875,-0.0867664293050766,-0.07090776591598986,-0.09147343795225024
1687271832355042000,0.5530419921875,-0.10908055244386196,-0.08521335464417934,-0.055684614818310364
1687271832365059000,0.56305908203125,-0.09205050718784331,-0.07800152356922627,-0.04021320631429553
1687271832375076000,0.573076171875,-0.10114683683514594,-0.02679799055457115,-0.10526406289562583
1687271832385092000,0.583092041015625,-0.10019815780818461,0.03857552210986614,-0.21894114934951064
1687271832395109000,0.593109130859375,-0.08129881154894829,0.06002338380813598,-0.2090742737211287
1687271832405126100,0.603126220703125,0.006578209346532821,0.019592004698514937,-0.1179231995910406
1687271832415142100,0.61314208984375,0.11882453234493731,-0.01583645155727863,-0.06903772512725553
1687271832425159000,0.623158935546875,0.04260930767059326,-0.0024409634113311766,-0.04871288524270057
1687271832435176200,0.63317626953125,-0.090896660977602,-0.02042670195698738,0.12566080810576677
1687271832445192200,0.643192138671875,-0.1618739849984646,-0.02965747163891792,0.2517263976201415
1687271832455209000,0.653208984375,-0.1438824012339115,-0.011640753433108329,0.163236505523324
1687271832465226200,0.663226318359375,-0.12520166616141795,-0.0018418284744024275,0.049058931334549555
1687271832475242200,0.6732421875,-0.14864625463485717,0.012287819164991378,-0.003624766368418932
1687271832485259000,0.683259033203125,-0.21069968296587466,0.02084580415189266,-0.041808649679040535
1687271832495276000,0.693276123046875,-0.1651753646314144,0.0028676643908023833,-0.04979921917468309
1687271832505292300,0.703292236328125,-0.08610591956973075,0.010267711514234543,-0.09730535897612572
1687271832515309000,0.71330908203125,0.015606734454631805,0.04459259044229984,-0.2036000800937414
1687271832525326000,0.723326171875,0.04122340627014637,0.08179156350195407,-0.2687717865757644
1687271832535342000,0.733342041015625,-0.05872282260358333,0.06856091052889823,-0.2492731592491269
1687271832545359000,0.743359130859375,-0.14453297409713267,0.02436287236213684,-0.11850655243694781
1687271832555376000,0.753376220703125,-0.1825818419843912,-0.011512158617377281,-0.05376957954380195
1687271832565393000,0.763392822265625,-0.18363398138582707,-0.00786532654762268,-0.11010521931648254
1687271832575409200,0.7734091796875,-0.16546821009814738,0.009928104296326637,-0.15721666071191429
1687271832585426200,0.78342626953125,-0.08351064237952231,0.005381693038344383,-0.18701061821207404
1687271832595443000,0.79344287109375,-0.03156418204307556,0.02138181072473526,-0.24007526892349124
1687271832605459000,0.803458984375,-0.26756080335080623,-0.03788753984570503,-0.3378244261443615
1687271832615476200,0.813476318359375,-0.3016413521289825,-0.02952420064806938,-0.515310406294465
1687271832625493000,0.823492919921875,-0.26487200265824795,0.038918051937222475,-0.5306204958900809
1687271832635509000,0.833509033203125,-0.18295593599379062,0.07979425220489501,-0.3769356625661254
1687271832645526300,0.8435263671875,-0.10026946947872638,0.04772796585857868,-0.09020811245786026
1687271832655543000,0.85354296875,-0.030948680493235587,-0.0015296937853097915,0.18624575305311009
1687271832665559000,0.86355908203125,0.07945815211832523,0.018457447710633276,0.3229277396552265
1687271832675576000,0.873576171875,0.10659750345647334,0.08991524872481822,0.3689493399873376
1687271832685593000,0.883593017578125,0.26152210770845413,0.17053367679417133,0.2477998535598628
1687271832695609000,0.893609130859375,0.4117570928394794,0.050285833647847174,0.09602056159628555
1687271832705626000,0.903626220703125,0.4565788158625364,-0.12409458170235156,0.0649320525072515
1687271832715643100,0.91364306640625,0.4126905742973089,-0.22067279544770715,0.07826424789233133
1687271832725659100,0.9236591796875,0.17344868745803832,-0.1981593503445387,0.26214813065230846
1687271832735676200,0.93367626953125,0.03328384544253349,-0.015880290699005126,0.2918035564646125
1687271832745693000,0.94369287109375,0.0651157385110855,-0.03585691080093384,0.24794117999300358
1687271832755709200,0.953709228515625,0.253868378084898,-0.18383447239398956,0.18371479153707623
1687271832765726200,0.963726318359375,0.47191491668224333,-0.2757446943283081,0.1680762006394565
1687271832775743000,0.973742919921875,0.5040162743419409,-0.26156360876262186,0.2880246041814796
1687271832785759000,0.983759033203125,0.4626970064818859,-0.20628245104551315,0.37102117782533167
1687271832795776300,0.9937763671875,0.40592122629284855,-0.12030804890096188,0.21578969958126543
1687271832805793000,1.00379296875,0.28353227946460247,-0.08034194921553134,-0.05128056203993037
1687271832815810000,1.01381005859375,0.09984686015248298,-0.06812894885241985,-0.17295593550503252
1687271832825826000,1.023825927734375,-0.08758183734118938,-0.1070306341767311,-0.11803281571166589
1687271832835843000,1.033843017578125,-0.22348025408387182,-0.12466098341345787,-0.13125424419865012
1687271832845860000,1.043860107421875,-0.26082652665972705,-0.08659224178194999,-0.14263663895651696
1687271832855876000,1.0538759765625,-0.26761633293032644,0.007733224600553512,-0.14374271876858546
1687271832865893000,1.06389306640625,-0.26185996136069295,0.05938040972948074,-0.20774392016651108
1687271832875910100,1.07391015625,-0.26649054377079007,0.09251578661203384,-0.2894622540354729
1687271832885926000,1.08392578125,-0.205827693015337,0.016934768187999723,-0.3092642482228577
1687271832895943200,1.093943115234375,-0.10435469296574593,-0.11386661767661571,-0.21421061369627714
1687271832905960200,1.103960205078125,-0.07568740140795707,-0.1760644229143858,-0.1426739022269845
1687271832915976000,1.113975830078125,-0.015196400088071823,-0.12990823641717433,-0.07747547213481738
1687271832925993000,1.123992919921875,0.11910977902710437,-0.08829436952471732,-0.02391719268755987
1687271832936010200,1.13401025390625,0.2005634888768196,-0.05675649096667766,-0.08547054427564144
1687271832946026000,1.14402587890625,0.2633212660849094,-0.01556114174723625,-0.10438318840786814
1687271832956043000,1.15404296875,0.27081366766691206,0.07099661324322223,-0.09942162047773599
1687271832966060300,1.164060302734375,0.2159399217069149,0.09104396049380302,-0.09871025733798741
1687271832976076000,1.174075927734375,0.1387064599007368,0.054791328373551364,-0.11719799058903008
1687271832986093000,1.184093017578125,0.15456336972415446,-0.004613631275296211,-0.09940455974508076
1687271832996110000,1.194110107421875,0.23368191462457177,-0.0042979894548654555,-0.1254808118963614
1687271833006126000,1.2041259765625,0.14296470186710356,0.012757774764299392,-0.0811794594855979
1687271833016143000,1.21414306640625,-0.0037818566262722013,0.028368600872159002,-0.025692221269756555
1687271833026160000,1.22416015625,-0.08268179033994674,0.023942601123452187,-0.03349734206274151
1687271833036177200,1.23417724609375,-0.1547615226447582,0.005983166062831878,-0.10824965457767248
1687271833046193200,1.244193115234375,-0.21643033557236194,-0.02188800668120384,-0.13463033303562552
1687271833056210000,1.2542099609375,-0.36368601263165473,-0.010460603737831115,-0.10280486970786004
1687271833066227000,1.26422705078125,-0.4147837471842766,-0.007087327912449836,-0.033732758253812785
1687271833076243200,1.2742431640625,-0.3302332403630018,-0.054231940925121305,0.07791410101410001
1687271833086260200,1.28426025390625,-0.24557342794835565,0.038002106136083603,-0.07394128839299083
1687271833096277200,1.29427734375,-0.19307927060127258,0.07637947532534599,-0.14825009492412208
1687271833106293200,1.304293212890625,-0.10543898107111453,0.04649988536834716,-0.12303707200605421
1687271833116310000,1.31431005859375,-0.043866614255309105,-0.0010293430477380753,-0.08887801463156939
1687271833126327300,1.324327392578125,0.011840075397491455,-0.02535188339948654,-0.07103709138408303
1687271833136343300,1.33434326171875,0.05226502476632595,-0.03666530457437038,-0.014977094781585036
1687271833146360000,1.344360107421875,0.03236731511950493,-0.04409048613905906,0.05261690694391727
1687271833156377300,1.35437744140625,0.01139934589266777,-0.07813128742873668,0.10869856738895177
1687271833166393300,1.364393310546875,-0.039212650969624514,-0.1564747563034296,0.18048136257380246
1687271833176410000,1.37441015625,-0.1168038401722908,-0.1873404346883297,0.22831585754677652
1687271833186427100,1.38442724609375,-0.17574819657206533,-0.10377075559794902,0.14812909889295697
1687271833196443400,1.394443359375,-0.06398878030776978,-0.004805354455113411,0.041998482295870776
1687271833206460200,1.404460205078125,0.08001987765431404,0.02759878554344177,-0.06440510602369905
1687271833216477200,1.414477294921875,0.2087503024637699,0.026698621833324433,-0.19301628836765886
1687271833226493200,1.4244931640625,0.29353111090958117,0.028337621212005615,-0.27609482294023036
1687271833236510200,1.43451025390625,0.33183658390641213,0.041483518511056895,-0.35816593403592706
1687271833246527200,1.44452734375,0.26374738254249097,0.12413374466896056,-0.5063612665655091
1687271833256543200,1.454543212890625,0.21799802328050136,0.1234878479808569,-0.4350202237987891
1687271833266560300,1.464560302734375,0.08172258991897105,0.023403671941161153,-0.2604895863229409
1687271833276577300,1.474577392578125,-0.15888474005460737,-0.06687865653038025,-0.026574995453655718
1687271833286594000,1.484593994140625,-0.3773872057259083,-0.15489654720127582,0.21034235742818563
1687271833296610000,1.494610107421875,-0.5234358450829982,-0.1920551882505417,0.3609321838788688
1687271833306627300,1.50462744140625,-0.5635597656786442,-0.19351883106231688,0.4586534301795065
1687271833316644000,1.51464404296875,-0.38811902762055395,-0.17902268819808959,0.4810677988223731
1687271833326660000,1.52466015625,-0.08333762390017509,-0.016809680503606796,-0.17394779608659444
1687271833336677400,1.534677490234375,-0.26134207496643064,0.1803466302782297,-0.5664014188453554
1687271833346694100,1.544694091796875,-0.1995867527991533,0.17911270456910133,-0.29539094996470955
1687271833356710100,1.554710205078125,-0.06796878985464573,0.13316110073328016,-0.034188904523476955
1687271833366727200,1.56472705078125,0.11577625069022178,-0.03474222755730152,0.13494681510627268
1687271833376744200,1.574744140625,0.21188217074871063,-0.15286065745949745,0.2783592607408762
1687271833386760200,1.58476025390625,0.33284897581934925,-0.20603753637373445,0.5058667245142161
1687271833396777200,1.594777099609375,0.4120020075112581,-0.23390461746454239,0.6390057595461607
1687271833406794200,1.604794189453125,0.4288157796680927,-0.16966858439743518,0.40898733586519953
1687271833416810200,1.614810302734375,0.3408592637956142,-0.05202244818210602,-0.009332038099318742
1687271833426827300,1.6248271484375,0.19979308902621268,0.05411328298151493,-0.290294759336859
1687271833436844000,1.634843994140625,0.05299392356276512,0.12455752303898333,-0.4206901947490871
1687271833446860300,1.6448603515625,-0.11925532497763633,0.13040566454529762,-0.36596217740271236
1687271833456877300,1.654877197265625,-0.24664661013782022,0.06047229661941528,-0.12347951854392886
1687271833466894000,1.66489404296875,-0.29179215828776356,-0.06488602140843867,0.11503259271606803
1687271833476910000,1.67491015625,-0.2819020479142666,-0.1531324601382017,0.23660773894339798
1687271833486927400,1.68492724609375,-0.25675883882939815,-0.16923077750205992,0.24023864279165863
1687271833496944000,1.694944091796875,-0.16930559630393982,-0.13337211313545702,0.22013591209203004
1687271833506960100,1.704960205078125,-0.0607546206921339,-0.0862257465571165,0.17823402203842997
1687271833516977400,1.714977294921875,0.07174889291524887,-0.06091887134313583,0.08255787169933318
1687271833526994200,1.724994140625,0.17907529516816137,-0.0015454758763313293,-0.07351575645729899
1687271833537010200,1.73501025390625,0.1736018321931362,0.00019464578926563263,-0.1550301104530692
1687271833547027200,1.745027099609375,0.08739186772704124,-0.0035293431699275966,-0.1596666842125356
1687271833557044200,1.755044189453125,0.038517654442787166,0.01675064379274845,-0.11302110676318407
1687271833567061200,1.765061279296875,0.018463292929530143,0.021098317608237264,-0.14654113558176904
1687271833577077200,1.7750771484375,-0.05443769263029098,-0.008249941951036453,-0.13163798281922937
1687271833587094300,1.78509423828125,-0.1171393557369709,-0.014638766205310821,-0.04944952895417809
1687271833597111300,1.795111328125,-0.14769465299844742,-0.025077158111333847,-0.012135112821310757
1687271833607127300,1.805127197265625,-0.11798691247701644,-0.02249357135891914,-0.02704991948902607
1687271833617144000,1.81514404296875,-0.1570937649846077,0.04247019146084785,-0.2444349254377186
1687271833627161300,1.825161376953125,-0.2318430087596178,0.18702303930222988,-0.48389443708304314
1687271833637177300,1.83517724609375,-0.18413199403584002,0.1687041232794523,-0.38132238975036886
1687271833647194000,1.845194091796875,-0.20450550450086594,0.06520575488209725,-0.31489816245660185
1687271833657211400,1.85521142578125,-0.2167676047027111,0.058626376491785044,-0.31756898910105225
1687271833667227400,1.865227294921875,-0.2405307576060295,0.018185645031929015,-0.13367745275758205
1687271833677244200,1.875244140625,-0.2789250779300928,-0.033683073893189426,0.058571942890807985
1687271833687261200,1.88526123046875,-0.25151275486946106,-0.088901103246212,0.26479659933447836
1687271833697277200,1.895277099609375,-0.057307110586762425,-0.21023323449790476,0.5959313916470855
1687271833707294200,1.905294189453125,0.1001163247436285,-0.27236674232780933,0.6818262257494032
1687271833717311200,1.915311279296875,0.2478893036752939,-0.18485972378849982,0.6086677582971751
1687271833727327200,1.9253271484375,0.34832536189258095,-0.029859131690859794,0.3771568310361355
1687271833737344300,1.93534423828125,0.39483284604549407,0.06368658249080181,0.1527538360841572
1687271833747361300,1.945361328125,0.24838906989097595,0.04346446319520473,-0.0179499365799129
1687271833757377000,1.955376953125,0.12539806551635266,0.07005319491326809,-0.0605197159577161
1687271833767394300,1.965394287109375,0.11567279031574726,0.12292203079164027,-0.20720548417456447
1687271833777411300,1.975411376953125,-0.10892740770876407,-0.02038403185904026,-0.013172566110268234
1687271833787427000,1.985427001953125,-0.42365854303538797,-0.17220248678922653,0.21171697024963795
1687271833797444000,1.995444091796875,-0.621701573523879,-0.23287176728546619,0.2932559472300112
1687271833807461400,2.00546142578125,-0.5732067149460315,-0.2352496023327112,0.3637397886455059
1687271833817477000,2.01547705078125,-0.33344343458116055,-0.140815414878726,0.5161773253221065
1687271833827494100,2.025494140625,-0.19504092606306075,-0.04166296673119068,0.395976170861721
1687271833837511400,2.035511474609375,0.06572714840769768,0.05993804361224174,0.22352303377967325
1687271833847528200,2.045528076171875,0.36137656664550305,0.13393266962766648,0.07378982415832579
1687271833857544200,2.055544189453125,0.48927989298105234,0.1053185695618391,0.0023657062180340287
1687271833867561200,2.065561279296875,0.539365235620737,0.044597266617417336,0.008506547060608863
1687271833877578200,2.075578125,0.5320107812047005,-0.0029313772767782208,-0.017342033814638853
1687271833887594200,2.08559423828125,0.4847726446896791,-0.034707156243920324,-0.1040885893754661
1687271833897611300,2.095611328125,0.32783494704961774,-0.025707272708415982,-0.16307430069893597
1687271833907628300,2.105628173828125,-0.028566753792762755,-0.006329787543416023,-0.18816523160729556
1687271833917644300,2.115644287109375,-0.1541349151790142,0.03772270467281341,-0.1690118740543723
1687271833927661000,2.1256611328125,-0.029063012877106664,-0.030589784052968024,-0.1263685545163229
1687271833937678000,2.135677978515625,0.11682605200409889,-0.08195873676240444,-0.15375935986489056
1687271833947694300,2.1456943359375,0.19624737924337385,0.03139350165128708,-0.20531082953438162
1687271833957711000,2.155711181640625,0.19972060831189153,0.13638766156435012,-0.24753332984447476
1687271833967728000,2.16572802734375,0.17083821269869803,0.13418050690889358,-0.20536752815768122
1687271833977744100,2.175744140625,0.13495616745650768,0.05110124168395996,-0.1097619588367641
1687271833987761200,2.18576123046875,0.0878513019323349,-0.01946633249223232,-0.03803659292757511
1687271833997778200,2.195778076171875,0.037383097454905506,-0.055332011121511454,-0.006293437588401138
1687271834007794200,2.205794189453125,-0.11922376079559326,-0.01158756194114685,-0.13569061921089887
1687271834017811200,2.215811279296875,-0.2722095059394836,0.1470715526640415,-0.3820705412365496
1687271834027828200,2.225828125,0.6790554458618163,0.1726876399576664,-0.32238033490553497
1687271834037844200,2.23584423828125,0.32591245455443857,-0.1385275962024927,-0.01589658424668014
1687271834047861000,2.245861083984375,-0.1363970139145851,-0.25128654489815233,0.3198579768210649
1687271834057878300,2.255878173828125,-0.5001777190923691,-0.19314590609669685,0.3701250327032059
1687271834067894300,2.265894287109375,-0.9968629198938608,-0.00923603037893772,0.3517542403627187
1687271834077911000,2.2759111328125,-1.3082991053283213,0.10443243437707424,0.21976810169294475
1687271834087928000,2.285927978515625,-1.3768214374125003,0.08599719849824905,0.08374342822209001
1687271834097944000,2.295944091796875,-1.1947492985159158,0.02836217113137245,-0.03650843351222575
1687271834107961000,2.305961181640625,-0.7699678889304399,-0.01230477029979229,-0.14500559657756237
1687271834117978000,2.31597802734375,-0.3453577442586422,-0.04590659565031528,-0.18472367631867526
1687271834127995100,2.3259951171875,0.08189385483264923,-0.02898819407522678,-0.2453124754572287
1687271834138011000,2.336010986328125,0.48947746137976644,0.022547347372770307,-0.17218641243726013
1687271834148028200,2.346028076171875,0.8061381034642457,0.040427871978282924,-0.04318783821091056
1687271834158045000,2.356044921875,1.0025158310890196,-0.0010322656571865082,0.13185147943943737
1687271834168061000,2.36606103515625,1.1101871012568474,-0.05248538951873779,0.29307357640042897
1687271834178078200,2.376078125,1.047531030857563,-0.08628536778986454,0.37240649470388887
1687271834188095000,2.386094970703125,0.7960083391159772,-0.07239420508146285,0.37088388824649154
1687271834198111000,2.396111083984375,0.43801615421175955,-0.037542087408900256,0.30087445940971375
1687271834208128000,2.4061279296875,0.04199146803319454,-0.006958733096718787,0.22938787069246172
1687271834218145000,2.41614501953125,-0.31589141127765175,-0.010410334855318068,0.10372892575021833
1687271834228161000,2.4261611328125,-0.5347668019145727,-0.015139116942882537,-0.048085547124594445
1687271834238178000,2.436177978515625,-0.6081751524746417,-0.02012742674946785,-0.114198041588068
1687271834248195000,2.446195068359375,-0.5537672704607248,-0.036660043877363206,-0.10909253514260053
1687271834258211000,2.456211181640625,-0.3942518312871456,-0.04312251788973808,-0.05479235128685832
1687271834268228000,2.46622802734375,-0.23065818288922307,-0.042618660020828245,-0.008005757931619882
1687271834278244900,2.476244873046875,-0.08490414256453514,-0.05346621724963188,0.0345982890419662
1687271834288261000,2.48626123046875,0.11577625069022178,-0.0497965888261795,0.04739135431535542
1687271834298278100,2.496278076171875,0.24421499907672403,-0.03155249160528183,0.05092877119388431
1687271834308295000,2.506294921875,0.283234757822752,-0.015084171885251999,0.0329652810126543
1687271834318311000,2.516310791015625,0.20906302167475221,-0.006672317370772361,0.004189560644328594
1687271834328328200,2.526328125,0.061978025007247924,-0.011471242085099219,-0.05977613104879856
1687271834338345000,2.536344970703125,-0.01687748504281044,-0.015694997259974478,-0.08614289057925344
1687271834348361000,2.54636083984375,-0.11712766529917716,0.007175006195902824,-0.11016177180930971
1687271834358378200,2.556378173828125,-0.2114998934328556,0.0236065010368824,-0.13420651813298462
1687271834368395000,2.56639501953125,-0.2015612677425146,0.014229016360640525,-0.155380421728082
1687271834378411000,2.576410888671875,-0.1751058070152998,-0.02087327668070793,-0.15457056664992122
1687271834388428000,2.586427978515625,-0.1193307283014059,-0.03727320733964443,-0.09739818835873157
1687271834398445000,2.596445068359375,-0.09178630329370498,-0.05548398681282997,-0.014517624043673277
1687271834408461000,2.6064609375,-0.07683481787741184,-0.064680269703269,0.024568733665160835
1687271834418478000,2.61647802734375,-0.05704875191152096,-0.04316986416280269,0.04264960314836353
1687271834428495000,2.6264951171875,-0.03830664204061031,-0.03923486280143261,0.042161563903093335
1687271834438512000,2.63651220703125,-0.01106383032798767,-0.05286006805002689,0.05438420887738466
1687271834448528100,2.646528076171875,-0.00640226825773716,-0.03586450958549976,0.06746829298660159
1687271834458545000,2.656544921875,-0.005550619864463806,0.006711480337381362,0.0031458968102931976
1687271834468562200,2.666562255859375,0.02473404376208782,0.02626899824440479,-0.06598189035374671
1687271834478578200,2.676578125,0.019549334600567816,-0.011951134556531906,-0.08299250025693326
1687271834488595000,2.686594970703125,0.04641337612867355,-0.03217851454913616,-0.03238733499422669
1687271834498612200,2.6966123046875,0.061252048820257185,-0.02518763274848461,-0.017744477135688067
1687271834508628200,2.706628173828125,0.07810790655314923,-0.021077859342098236,-0.0027148484492674468
1687271834518645000,2.71664501953125,0.056762920707464214,-0.030018121644854543,-0.0017971125498414038
1687271834528662000,2.726662109375,-0.0076303487479686734,-0.03258534178435802,0.021687807933986187
1687271834538678300,2.73667822265625,-0.08389175065159797,-0.05243044446110725,0.07674100211411714
1687271834548695000,2.746695068359375,-0.13221300622820853,-0.06191489664316177,0.11821107662171125
1687271834558712000,2.756712158203125,-0.13504793739318846,-0.04371288499832153,0.079806381034106
1687271834568728000,2.76672802734375,-0.03609481121003628,-0.03098375180661678,0.03340045755952596
1687271834578745000,2.7767451171875,0.01565875690281391,-0.03727846803665161,-0.015581088556721806
1687271834588762000,2.78676220703125,0.04287994130551815,-0.03863865047395229,-0.006328655032254755
1687271834598778000,2.796778076171875,0.056036944520473475,-0.01179798982143402,-0.022024784803390502
1687271834608795100,2.806795166015625,0.09042086015939713,0.005703764599561691,-0.05552114048544317
1687271834618812200,2.816812255859375,0.10916589263975619,0.0003045359045267105,-0.06200246532876044
1687271834628828200,2.826828125,0.07629471965134144,-0.03768938692510128,-0.024023886198736726
1687271834638845000,2.836844970703125,-0.029766192710399625,-0.05756546926200389,0.0645006753526628
1687271834648862200,2.8468623046875,-0.14105331528782844,-0.05234802687466144,0.12494506105184554
1687271834658878200,2.856878173828125,-0.20055998174548148,-0.01794306844770908,0.09571735913231968
1687271834668895000,2.86689501953125,-0.1969996589154005,0.029160628032684325,0.015547661211155354
1687271834678912300,2.876912353515625,-0.11108546252548694,0.05343582211136818,-0.06971888492498546
1687271834688928000,2.886927978515625,-0.035193478456139564,0.027789924201369283,-0.09480641829986125
1687271834698945000,2.896945068359375,0.012115969729423522,0.0007528641939163207,-0.0848269856750965
1687271834708962000,2.906962158203125,0.05983575228154659,-0.004689619120955467,-0.0843388002993539
1687271834718979000,2.91697900390625,0.0927834976375103,-0.020918284866213797,-0.05668430251330137
1687271834728995000,2.9269951171875,0.06196984170079231,-0.043241175833344456,0.008651216228306294
1687271834739012000,2.93701220703125,-0.0274842192530632,-0.06630465603470802,0.10574921606406569
1687271834749029000,2.947029052734375,-0.10968787068724632,-0.05131809930503368,0.16017258790805936
1687271834759045000,2.957045166015625,-0.12245265971422195,-0.03307166399657726,0.1207335808366537
1687271834769062100,2.967062255859375,-0.09872750073373317,-0.028304887986183164,0.04537563057877123
1687271834779079000,2.977078857421875,-0.06715805799365043,0.0015817162334918974,0.00247676537707448
1687271834789095200,2.98709521484375,-0.003418284010887146,0.006491700106859207,-0.051693070097267625
1687271834799112200,2.9971123046875,0.014437690675258635,-0.032271453529596324,-0.07402180628329515
1687271834809129000,3.00712890625,0.0004085808008909225,-0.04497954393327236,-0.024042590899206698
1687271834819145000,3.01714501953125,-0.032623920229077334,-0.07450900527834892,0.02942990996073931
1687271834829162200,3.027162353515625,-0.13453998787105081,-0.11170739381611347,0.025238924544304608
1687271834839179000,3.037178955078125,-0.24611761782765387,-0.11904138996601105,0.04135784630477428
1687271834849195000,3.047195068359375,-0.39387773727774616,-0.11232523345351218,0.040122313160449265
1687271834859212300,3.05721240234375,-0.441648373234272,-0.04417465729117393,0.09023162119761109
1687271834869229000,3.06722900390625,-0.35656828958094117,-0.04908931733965873,0.10280567342545836
1687271834879245000,3.0772451171875,-0.24090835874676703,-0.026229250755906104,0.09132073160856961
1687271834889262000,3.087261962890625,-0.052828503867983816,0.005505611678957939,0.02594425980206579
1687271834899279000,3.097279052734375,0.010135025045275688,-0.11769757414162159,-0.04072568588107824
1687271834909295000,3.107295166015625,-0.036791561302542686,-0.1189998889118433,0.11586096983160823
1687271834919312100,3.11731201171875,0.012058686584234236,-0.06084872871637344,0.2810619438283145
1687271834929329200,3.1273291015625,-0.03914893808364868,-0.0604886632323265,0.3264101749435067
1687271834939346200,3.13734619140625,0.1903939770400524,0.026872809356451033,0.34820626555755735
1687271834949362000,3.14736181640625,0.821848298293352,-0.07477262465059757,0.03102729868739843
1687271834959379000,3.15737890625,1.062367365461588,-0.14194704925715923,-0.2432176586024463
1687271834969396200,3.167396240234375,0.821434456795454,-0.08598550806045532,-0.11287161528989673
1687271834979412000,3.177411865234375,0.7106155362516641,0.24126082544624805,-0.10950303390594199
1687271834989429000,3.187428955078125,0.5270440987080335,0.24092355631589887,-0.43552726000547404
1687271834999446300,3.1974462890625,0.2869289361655712,0.24067104285955426,-0.2456431321837008
1687271835009462000,3.2074619140625,-0.17134499317705632,0.16524258464872837,0.053022400738578286
1687271835019479000,3.21747900390625,-0.6133171915382146,0.05333586886823177,0.43346418999582526
1687271835029496300,3.227496337890625,-0.7974363260924816,-0.007687047371268272,0.8273930729389191
1687271835039512000,3.237511962890625,-0.1456517489939928,-0.03000175503194332,0.04848314987374469
1687271835049529000,3.247529052734375,0.06458791524469852,0.030430209577083586,-0.7562057594291866
1687271835059546000,3.257546142578125,-0.21799217806160448,-0.020143208840489386,-0.6519998272843659
1687271835069561900,3.267561767578125,-0.21374328844547272,0.13152911561727523,-0.011914017416536807
1687271835079579100,3.2775791015625,-0.009772036951780319,0.14462006785869597,0.3006010492958128
1687271835089596000,3.287595947265625,0.07012859823703765,-0.06945873615145683,0.09029971799775957
1687271835099611600,3.297611572265625,0.04866144731640815,-0.26062720469534395,-0.101197105717659
1687271835109629000,3.30762890625,-0.045154900500178334,-0.2432102059483528,0.05068783857747912
1687271835119646000,3.31764599609375,-0.15295651904940605,-0.06961480349600314,0.27463969222847373
1687271835129661700,3.32766162109375,-0.16868132692575455,0.04997662156820297,0.263680162525177
1687271835139678700,3.3376787109375,-0.1066822591304779,0.028765491235256194,0.03650193070620298
1687271835149696000,3.347696044921875,0.03381225323081016,-0.010703180322051047,-0.19752545462148263
1687271835159711700,3.357711669921875,0.15165361975729463,-0.014471008422970772,-0.2667040403909981
1687271835169728800,3.367728759765625,0.23050796076357363,0.026516251003742216,-0.19949231598135084
1687271835179745800,3.377745849609375,0.24347850149571895,0.021815525966882705,-0.10700053129941224
1687271835189762800,3.3877626953125,0.221215816283226,-0.03870002527236938,-0.07043751805573702
1687271835199778800,3.39777880859375,0.2086544408738613,-0.0783002142548561,-0.08874708172827958
1687271835209795800,3.4077958984375,0.15402034888863564,-0.09854162277281284,-0.10946838271766901
1687271835219812900,3.417812744140625,0.013128946164250373,-0.11485738227963446,-0.1235489487846382
1687271835229828900,3.427828857421875,-0.14605448457598685,-0.08741466408073902,-0.1338167881630361
1687271835239845600,3.437845703125,-0.22188158671557903,-0.0853635767698288,-0.0897378645976074
1687271835249863000,3.44786279296875,-0.28578853395879267,-0.11455986063778399,-0.02886369091272354
1687271835259879000,3.45787890625,-0.288214299800992,-0.09265198021233081,-0.012070395288337022
1687271835269895700,3.467895751953125,-0.2709177125632763,-0.026289456510543822,0.0005222703084349631
1687271835279912700,3.47791259765625,-0.23632336904406545,0.04084989678263664,0.030716661835648116
1687271835289929000,3.487928955078125,-0.16379940010309219,0.07720423571169376,0.06553118744418025
1687271835299945700,3.49794580078125,-0.08219254551827906,0.0565454785645008,0.052776773680746555
1687271835309962800,3.507962646484375,-0.032958266749978066,-0.002599368843436241,-0.006213796480931341
1687271835319978800,3.517978759765625,-0.04430968184769153,-0.053958969202637666,-0.056578796312212944
1687271835329995800,3.527995849609375,-0.08140753262042999,-0.07127543018460274,-0.04936780548747629
1687271835340012800,3.5380126953125,-0.09726561148762702,-0.07600245870649815,-0.0012596446722745894
1687271835350028800,3.54802880859375,-0.0954319663196802,-0.055741760966181754,0.032851847233437
1687271835360045800,3.5580458984375,-0.07348316936194896,-0.046509237718582154,0.048150100260786706
1687271835370062800,3.568062744140625,-0.06064180796742439,-0.03201718650758266,0.02001665985137224
1687271835380078800,3.578078857421875,-0.04817804771363735,-0.0009966098219156266,-0.0356528030635789
1687271835390095600,3.588095703125,-0.07157295182645321,0.028624621459841727,-0.04203687807749957
1687271835400113000,3.59811279296875,-0.05900047050118446,0.026098902374505996,-0.013989800777286291
1687271835410129700,3.608129638671875,0.007106617134809493,0.01201017126739025,0.05192161815613508
1687271835420145700,3.618145751953125,0.10953706403970717,-0.02856441570520401,0.04521740780975669
1687271835430163000,3.628162841796875,0.1607838516741991,-0.1067652612388134,-0.022172230450063942
1687271835440179700,3.6381796875,0.11479659200310706,-0.10871581078469753,-0.018465923278033734
1687271835450195700,3.64819580078125,0.09455401444137096,-0.055737669312953944,0.069551675131917
1687271835460212700,3.658212646484375,0.11043255157470702,-0.017005495336651803,0.13441124692484735
1687271835470229800,3.668229736328125,0.14749299294650553,-0.024902386066317558,0.0892022416172549
1687271835480245800,3.678245849609375,0.14920856469273566,-0.05397182868421077,0.009335654828511179
1687271835490262800,3.6882626953125,0.10313947195708752,-0.06628244420289993,-0.06668945410121233
1687271835500279800,3.69827978515625,0.01794189940392971,-0.06759820297658443,-0.10166344458777457
1687271835510295800,3.7082958984375,-0.06812485719919205,-0.04663198731541633,-0.09412526763528585
1687271835520312800,3.718312744140625,-0.09407178388237952,-0.0546025278031826,-0.04093278929311782
1687271835530329900,3.728329833984375,-0.07156710660755634,-0.07233633741438389,-0.011544270788691937
1687271835540345900,3.738345947265625,-0.040157238343358034,-0.09098492378294468,-0.02870787929650396
1687271835550363000,3.74836279296875,-0.021103578305244446,-0.06669920831024646,-0.019742665215581653
1687271835560379600,3.758379638671875,-0.016465397110581398,-0.03871814545094967,-0.02337400745525956
1687271835570395600,3.768395751953125,-0.07223755321502685,-0.04336801708340644,-0.028640841942280528
1687271835580413000,3.778412841796875,-0.11472937198579311,-0.06166472127437591,-0.01811769436225295
1687271835590429700,3.7884296875,-0.10360007520616053,-0.07296002227067946,-0.05444912733975798
1687271835600445700,3.79844580078125,-0.05870762503445148,-0.07822481093108653,-0.11125311070997267
1687271835610463000,3.808462890625,0.002505260819196701,-0.05644727888703346,-0.10657982166931032
1687271835620479700,3.818479736328125,0.042674774122238156,-0.04930325235128402,-0.08082461816594004
1687271835630495700,3.828495849609375,0.07541969038248061,-0.03454115202724933,-0.06171367498263716
1687271835640513000,3.838512939453125,0.04192892419099808,-0.04527180487811565,-0.044611916197277605
1687271835650529800,3.84852978515625,-0.07095160505771636,-0.06177753399908542,-0.05364672491569072
1687271835660545800,3.8585458984375,-0.22598551490306854,-0.06273439633250236,-0.12521189529448748
1687271835670562800,3.868562744140625,-0.34697803893685336,-0.01645955189168453,-0.1329255384117365
1687271835680579800,3.878579833984375,-0.3747276311278343,0.0732417618215084,-0.16045885750353336
1687271835690595800,3.888595947265625,-0.41771103280782695,0.3730728496581316,-0.7346024149082601
1687271835700612900,3.89861279296875,-0.29376842679679394,0.44091304469704623,-0.7884710754789411
1687271835710630000,3.9086298828125,-0.172470197814703,0.2667950796753168,-0.6764961167678236
1687271835720647000,3.91864697265625,-0.09982289475500583,0.10320669197440147,-0.5316230970613658
1687271835730663000,3.928662841796875,0.01825461861491203,-0.0027659575819969176,-0.24436142181009052
1687271835740679700,3.9386796875,0.020307459491491316,-0.14753975469768046,0.10369988231882453
1687271835750697000,3.948697021484375,-0.05400047025680542,-0.24917642087638375,0.4497406404055655
1687271835760713000,3.958712890625,-0.103946112164855,-0.3218500274211168,0.7546731430344283
1687271835770729700,3.968729736328125,-0.07359189043343067,-0.3216320007562637,0.853998317400366
1687271835780747000,3.9787470703125,0.0021048633247613907,-0.2706201909214258,0.8218613039053976
1687271835790763000,3.988762939453125,0.1095060843795538,-0.1776496462792158,0.7358002463907003
1687271835800779800,3.99877978515625,0.1979401546359062,-0.12120061382651329,0.6123702295443043
1687271835810796800,4.008796875,0.24161679927706717,-0.18519816196262837,0.6677529844723642
1687271835820813000,4.01881298828125,0.21444646827876568,-0.11662030029892921,0.51469866760429
1687271835830829800,4.028829833984375,0.11521160254478453,0.10394845025241374,0.21788809663262218
1687271835840846800,4.038846923828125,0.1350333243459463,0.16727262917160987,0.10457228123918175
1687271835850862800,4.04886279296875,0.1846253305107355,0.07849836717545985,0.05552006277320906
1687271835860880000,4.0588798828125,0.23185236110985277,0.042161563903093335,-0.05067207475276664
1687271835870897000,4.06889697265625,0.2613964355021715,0.07104805116951465,-0.2623911638942547
1687271835880913000,4.078912841796875,0.2966530423223972,0.089742230245471,-0.46740211543291804
1687271835890930000,4.088929931640625,0.3319634251564741,0.06913666459023952,-0.5635569891996681
1687271835900947000,4.098947021484375,0.3070668843090534,0.027307693642377853,-0.5195723015226423
1687271835910963000,4.108962890625,0.24407062216997144,-0.017408815440535543,-0.3788138775281608
1687271835920979700,4.118979736328125,0.05333060817122459,0.015402736315131187,-0.33296631858870385
1687271835930997000,4.1289970703125,-0.08675999956429004,0.023618191474676132,-0.48645259713325645
1687271835941012700,4.1390126953125,-0.0339805955350399,0.10946984402239322,-0.4475096664831042
1687271835951029800,4.14902978515625,-0.02815174325108528,0.129369891756773,-0.07755947889015079
1687271835961047000,4.159047119140625,-0.03736556179821491,-0.03842646902799606,0.40856940271407366
1687271835971062800,4.169062744140625,-0.05239829575717449,-0.2513917588382959,0.7774545914240181
1687271835981079800,4.179079833984375,-0.1005301662415266,-0.2800321623891592,0.855861480923742
1687271835991096800,4.189096923828125,-0.06834989812672138,-0.10783493629693984,0.5622498155912384
1687271836001112800,4.19911279296875,0.013638649252057074,-0.0338064080119133,0.11169292689934372
1687271836011129900,4.2091298828125,-0.009964929175376891,0.08216916464269161,-0.20464944301620125
1687271836021147000,4.21914697265625,-0.07102993099093437,0.2469189973384142,-0.391201796066761
1687271836031162600,4.22916259765625,-0.03940203606188297,0.2956821514636278,-0.4568083868347108
1687271836041180000,4.239179931640625,0.07695055321156978,0.16797522448301314,-0.3541584884928539
1687271836051197000,4.249197021484375,0.17945055822134018,-0.018851415464282036,-0.19001345328986644
1687271836061213700,4.259213623046875,0.22949089267551898,-0.11557634420394897,-0.11803747362047433
1687271836071230000,4.26922998046875,0.2120364845275879,-0.14005202929079533,-0.06705547440201044
1687271836081247000,4.2792470703125,0.09739712891280651,-0.1292605861634016,0.014026625656336545
1687271836091264000,4.289263916015625,0.0006242693781852722,-0.10776304010450839,0.05935030685216188
1687271836101280000,4.299280029296875,-0.06194061560630798,-0.03953881418406963,0.024886457844823597
1687271836111296800,4.309296875,-0.14324819498360156,0.018474398845434187,-0.02116086145043373
1687271836121314000,4.31931396484375,-0.1851438014268875,0.0314537074059248,-0.029462387458235022
1687271836131330000,4.329330078125,-0.16754852350354194,0.023441665863990782,-0.08019863175470382
1687271836141346800,4.339346923828125,-0.12516659484803677,0.002515197691321373,-0.1461042054692283
1687271836151364000,4.349364013671875,-0.1205506254851818,-0.019150106149911878,-0.11033274446204304
1687271836161380000,4.359380126953125,-0.11740706676244735,-0.024575638329982757,0.008684972367435694
1687271836171396900,4.36939697265625,-0.0960077203810215,-0.03597966039776802,0.09848170927911996
1687271836181414000,4.379413818359375,-0.09352759400308132,-0.04366553872525692,0.16362039027437567
1687271836191430100,4.38943017578125,-0.1004430724799633,-0.04936053549647331,0.21048238695338367
1687271836201447000,4.399447021484375,-0.10140928716361522,-0.07414718622863292,0.266712662088871
1687271836211464000,4.4094638671875,-0.09516776242554187,-0.04153378739356994,0.2755935954198241
1687271836221480000,4.41947998046875,-0.1334609604626894,-0.020960370442271233,0.1971010734632611
1687271836231497000,4.4294970703125,-0.11313362722694874,-0.06610767215788364,0.06502013264950364
1687271836241514000,4.439513916015625,-0.0004091653227806091,-0.060630702051520345,-0.036829701355844735
1687271836251530000,4.449530029296875,0.05658756414055824,-0.031218729606270788,-0.07523764834646135
1687271836261547000,4.459547119140625,0.04926993460357189,-0.005113982012867928,-0.055216020059026774
1687271836271564000,4.46956396484375,0.020021628287434576,0.026249124500155447,-0.037650808480381964
1687271836281580000,4.479580078125,0.02286532728075981,0.016732523614168167,-0.058236646521836515
1687271836291596800,4.4895966796875,0.017249825486540794,-0.02527648007571697,-0.020195998473651704
1687271836301614000,4.499614013671875,-0.019458733707666397,-0.04807926351428032,0.005923617895320058
1687271836311630000,4.509630126953125,-0.06229951204657554,-0.02329319730401039,-0.013340396957844496
1687271836321646800,4.519646728515625,-0.10080781413912772,-0.010818915656208992,-0.014554156661778688
1687271836331664100,4.5296640625,-0.11487141080498695,-0.035438977649807926,-0.015003836658038198
1687271836341680000,4.53968017578125,-0.10881167237460612,-0.02863397381007671,-0.013356690505519509
1687271836351697000,4.54969677734375,-0.05213116925358772,-0.008775427129864692,-0.012403408368676901
1687271836361714000,4.5597138671875,-0.013124854511022566,-0.0336930107653141,-0.02152121919542551
1687271836371730200,4.569730224609375,0.0028740941315889357,-0.06317804844677448,0.006497399195283651
1687271836381747000,4.579746826171875,-0.02184358301758766,-0.05896949084103107,0.054889089659601445
1687271836391764000,4.589763916015625,-0.0377145213663578,-0.0684668025046587,0.12358414796218276
1687271836401780000,4.599780029296875,-0.06903788039088249,-0.06668401074111462,0.12561404635459184
1687271836411797000,4.609796875,-0.0966477718502283,-0.03152852620780468,0.11412541474327445
1687271836421814000,4.61981396484375,-0.07146598432064057,-0.007640285620093345,0.006453413923084735
1687271836431830000,4.629830078125,-0.047018940806388854,-0.034648704054951664,-0.10342106537744403
1687271836441847000,4.639846923828125,-0.06302548823356628,-0.03990472488701343,-0.07485460384562612
1687271836451864000,4.649864013671875,-0.049366380715370174,-0.02399111644029617,-0.0933580826550722
1687271836461880000,4.659880126953125,0.009728782331943511,0.007779401829838752,-0.16191139439940452
1687271836471896800,4.669896728515625,0.03254091812074184,0.026208792489767072,-0.23355054332986472
1687271836481914000,4.6799140625,0.005933481702208519,0.02915945898890495,-0.2659537334803492
1687271836491930000,4.68993017578125,-0.07062894897460938,0.041247956189513206,-0.2807918947152793
1687271836501947000,4.69994677734375,-0.1493336523771286,0.07992810771763324,-0.3075320176027715
1687271836511964200,4.709964111328125,-0.19750176321864127,0.1425970375984907,-0.45147637815698977
1687271836521980200,4.719980224609375,-0.23440789081156252,0.19934476073682306,-0.6282101517003029
1687271836531997000,4.729996826171875,-0.27780688755512234,0.1807131255030632,-0.6961389748707413
1687271836542014000,4.740013916015625,-0.34286125126779077,0.08874503590166569,-0.6499615263897925
1687271836552030200,4.7500302734375,-0.35985037999153136,0.01857669017612934,-0.5185069373134523
1687271836562047000,4.760046875,-0.28083646450936794,-0.02200491105914116,-0.34997700155712663
1687271836572064000,4.77006396484375,-0.12173954300880431,-0.038348727616667744,-0.18112082952111958
1687271836582081000,4.7800810546875,0.548919830429554,-0.08280863159000873,0.08702266908846795
1687271836592097000,4.790096923828125,0.5404921938240528,-0.129243050506711,0.40265316440761084
1687271836602114000,4.800114013671875,0.6672644703030586,-0.11531330935359001,0.7240899348527192
1687271836612130800,4.810130859375,0.7548889777421951,-0.1667179178982973,0.7926390088133514
1687271836622147000,4.82014697265625,0.6238531985998154,-0.22201894935965535,0.7638610964879393
1687271836632164000,4.8301640625,0.36172085003852844,-0.14560498724281787,0.4582299440704286
1687271836642180900,4.840180908203125,0.26256197215020655,0.112760117739439,-0.36800197613462804
1687271836652196900,4.85019677734375,0.15140110630095005,-0.08936988980174064,-0.16554624377042054
1687271836662214100,4.860214111328125,-0.7965829241335391,-0.2336415826141834,0.3106192430283874
1687271836672231000,4.87023095703125,-1.4991957711935042,-0.045017537856101984,0.6457840215094387
1687271836682247000,4.880246826171875,-1.3928957893788814,-0.11357844838500022,0.47746115263253447
1687271836692264200,4.89026416015625,-0.7482856339544057,-0.30041970137953755,-0.017960092647746204
1687271836702281000,4.900281005859375,-0.1907511199146509,-0.22475509632527826,-0.22874591952711343
1687271836712297000,4.910296875,0.10221475832760334,-0.02599193486869335,-0.05209858215823769
1687271836722314000,4.92031396484375,0.3410509869754314,0.07404080324470996,0.20402678107321262
1687271836732331000,4.9303310546875,0.579207416665554,0.04093757506608963,0.37976021846756336
1687271836742347000,4.940346923828125,0.6965338194072246,-0.019745149433612823,0.3494472055293619
1687271836752364000,4.950364013671875,0.673861968871951,-0.05940145251750946,0.25948271083533764
1687271836762381000,4.960381103515625,0.5337748682677745,-0.04864858783483505,0.248276111035794
1687271836772397000,4.97039697265625,0.33511633622944353,-0.011805588605999945,0.2738301659438759
1687271836782414000,4.9804140625,0.16360300074815748,0.02086100172102451,0.20343232231140135
1687271836792430800,4.990430908203125,0.0814157159268856,0.021940613651275632,0.03331453284174204
1687271836802447000,5.000447021484375,0.017640286108851433,0.017879355561733246,-0.11189495227746665
1687271836812463900,5.0104638671875,-0.06192892516851425,-0.014797756159305571,-0.012703268098086118
1687271836822481000,5.02048095703125,0.14473638771474362,0.052174423873424525,-0.20685886269398032
1687271836832497000,5.030496826171875,0.1878536449074745,-0.03518412610590458,-0.5620903507132082
1687271836842514000,5.040513916015625,-0.03476970008611679,0.04555237538516521,-0.49291240426450966
1687271836852531000,5.050531005859375,-0.37650925384759903,0.17892039686739444,-0.11079933906048536
1687271836862548000,5.0605478515625,-0.4939969846308231,0.1742337003558874,0.11135653455182909
1687271836872564000,5.07056396484375,-0.3704495154172182,0.015082418319582938,0.050270124622061846
1687271836882581000,5.0805810546875,-0.20481822371184824,-0.09268237535059451,-0.04655782610066235
1687271836892598000,5.090597900390625,-0.10582359647452831,-0.06709259154200553,-0.036606925450637935
1687271836902613800,5.10061376953125,-0.10941022278964518,-0.012905074280500412,-0.017608721926808357
1687271836912631000,5.110631103515625,-0.16230243954360485,-0.004793079495429993,-0.007324643799662589
1687271836922648000,5.12064794921875,-0.13222995736300944,-0.009054244071245193,-0.03303622735701501
1687271836932663800,5.130663818359375,-0.029302082329988478,-0.002187280911207199,-0.03375146295428276
1687271836942681000,5.14068115234375,0.07370236507058144,-0.010337854140996932,0.0083251991443336
1687271836952698000,5.150697998046875,0.14279285243153572,-0.002354454171657562,0.04646335275024176
1687271836962713900,5.1607138671875,0.17766776645779608,0.0041284781068563455,0.08943594077527522
1687271836972731000,5.17073095703125,0.12054945644140243,-0.029047815307974813,0.16736863689199089
1687271836982748000,5.180747802734375,-0.05045768308341503,-0.06434358509480953,0.29286183334589005
1687271836992764000,5.190763916015625,-0.16560148108899592,-0.07015197911262512,0.30290793799869714
1687271837002781000,5.200781005859375,-0.16217676733732223,-0.036033436411619185,0.20633856514692306
1687271837012798000,5.2107978515625,-0.19173311668932436,-0.00513736288845539,0.08814268609434366
1687271837022814000,5.22081396484375,-0.24953999349176884,0.0074836337536573405,0.02113799203149974
1687271837032831000,5.2308310546875,-0.2694908946305513,0.023147066831588743,-0.03971972370892763
1687271837042848000,5.240847900390625,-0.18517653465270995,0.03145546097159385,-0.10008483362682163
1687271837052865000,5.250864990234375,-0.06179857678711414,0.025482816302776334,-0.12402509666271506
1687271837062881000,5.260881103515625,0.07647416787147522,-0.011494622960686682,-0.0699513419739902
1687271837072897800,5.270897705078125,0.15706453889012337,-0.032928456133604046,-0.007702975592762232
1687271837082915000,5.2809150390625,0.19880816964209078,-0.02338087558746338,0.007124883443862199
1687271837092931000,5.29093115234375,0.20918869388103484,0.0016045125871896743,0.019126433013379573
1687271837102948000,5.300947998046875,0.21503157469034193,-0.00531213493347168,0.030733722568303343
1687271837112965000,5.310965087890625,0.2076829654932022,-0.018336451679468155,0.008290127830952405
1687271837122981000,5.320981201171875,0.1527840850919485,-0.028452187502384183,-0.019126798339560627
1687271837132998000,5.330997802734375,0.06957797861695289,-0.03861351603269577,0.039565702190995214
1687271837143015200,5.34101513671875,-0.008284428742527961,-0.06452887853384018,0.10932817052938043
1687271837153031200,5.35103125,-0.07519231136739253,-0.06443769311904907,0.14523257373385132
1687271837163048000,5.3610478515625,-0.09214110808074474,-0.05591244135797024,0.14026238410584627
1687271837173065200,5.371065185546875,-0.0909405001193285,-0.06813771668076515,0.11861666174791753
1687271837183081200,5.381081298828125,-0.0829231978803873,-0.09179974729716778,0.09828691735938191
1687271837193098000,5.391097900390625,-0.05038812497854232,-0.09207447258532046,0.048131578223407266
1687271837203115000,5.401114990234375,-0.020745850908756254,-0.08781973775029182,-0.02987652121707797
1687271837213132000,5.411132080078125,-0.016932430100440977,-0.0516746576577425,-0.10443177678994833
1687271837223148000,5.42114794921875,0.003645663025975227,-0.028873043262958524,-0.10905103408843278
1687271837233165000,5.4311650390625,0.028674890342354774,-0.032444472008943556,-0.08285510108023882
1687271837243182000,5.44118212890625,0.03995908542275429,-0.0189618901014328,-0.0811577956430614
1687271837253198000,5.451197998046875,0.042511107993125914,0.013890578186511992,-0.06607720395438373
1687271837263215000,5.461215087890625,0.06591594897806644,0.008564414727687835,-0.060433572044223546
1687271837273232000,5.47123193359375,0.06568272474408149,-0.008891162464022636,-0.06439034684598445
1687271837283248000,5.481248046875,0.056795069411396976,-0.033327684584259984,-0.052321869520097965
1687271837293265200,5.49126513671875,0.05698094737231731,-0.03929039238095283,-0.024020927056670187
1687271837303282000,5.501281982421875,0.03029401597678661,-0.029851532906293866,0.003942746276408434
1687271837313298000,5.5112978515625,0.010760463467240333,-0.01422317114174366,0.017733955741673708
1687271837323315200,5.521315185546875,-0.025108137771487234,-0.021526187631487847,0.02672236803509295
1687271837333332000,5.53133203125,-0.06144435652196407,-0.03562193300127983,0.056217196458205575
1687271837343349000,5.541348876953125,-0.048374447068572045,-0.05066051217913627,0.08124028629474342
1687271837353365200,5.551365234375,-0.026104747593402863,-0.04808393968939781,0.10740823531746864
1687271837363382000,5.561382080078125,-0.00800911893248558,-0.042537996000051495,0.1475400469586253
1687271837373399000,5.57139892578125,-0.013443418940901756,-0.048535190588235855,0.14463533849306404
1687271837383415000,5.5814150390625,0.015386369702219961,-0.05604746591448784,0.1450895120013505
1687271837393432000,5.59143212890625,0.07366612471342086,-0.06793138045370578,0.13856098701544106
1687271837403449000,5.601448974609375,0.09880407310128211,-0.05448796151280403,0.087839903755486
1687271837413465000,5.611465087890625,0.057473114803433416,-0.02524082424044609,0.03438998005352914
1687271837423482000,5.621482177734375,0.004112696015834808,-0.016451953107118604,0.034822380121424794
1687271837433499100,5.6314990234375,-0.05464344433546066,-0.036571781072020526,0.01878872549161315
1687271837443515100,5.64151513671875,-0.09980185196697712,-0.06034720893502235,-0.007049918511509895
1687271837453532000,5.651531982421875,-0.17631985898017882,-0.0446294153213501,-0.04357333039715886
1687271837463549200,5.661549072265625,-0.23763152903318405,-0.041160277906060215,-0.08293050440400838
1687271837473565200,5.671565185546875,-0.21943127095401285,-0.04284896164536476,-0.12837580268550663
1687271837483582000,5.68158203125,-0.12114449972510337,-0.06581599573493004,-0.12984481579214333
1687271837493599200,5.69159912109375,-0.0018453356057405472,-0.06527998916208744,-0.09500263499170541
1687271837503616000,5.701615966796875,0.10346505064964294,-0.059952656659483905,-0.06549553160890936
1687271837513632000,5.711632080078125,0.24205402165055273,-0.06817395703792571,-0.03320990342348814
1687271837523649000,5.72164892578125,0.3290174348324537,-0.04063070107400417,-0.005577800132334232
1687271837533666000,5.731666015625,0.27413492104411125,-0.026104163071513174,-0.005238777436316013
1687271837543682000,5.74168212890625,0.20081892494261264,-0.0071557169735431666,0.02559402159228921
1687271837553699000,5.751698974609375,0.16544190661311148,-0.007127659922838211,0.04692117952033877
1687271837563716000,5.761716064453125,0.1235135669440031,-0.022236381727457045,0.004031009081751108
1687271837573732000,5.771732177734375,0.03301964154839516,-0.03247136001586914,-0.04549713806658983
1687271837583749000,5.7817490234375,-0.024914661026000977,-0.05052198049128055,-0.01968640498369932
1687271837593766000,5.791765869140625,-0.07625321859717368,-0.051288288688659665,0.024012414956651625
1687271837603782100,5.8017822265625,-0.11129764397144316,-0.04752162963151931,-0.0049777884125709534
1687271837613799200,5.811799072265625,-0.17710779448747635,-0.016657120290398595,-0.0014553133748471737
1687271837623816000,5.82181591796875,-0.1521966405928135,-0.03826221837699413,0.07478241539224982
1687271837633833200,5.831833251953125,-0.11787468427419662,-0.02916004351079464,0.024766776987910268
1687271837643849200,5.84184912109375,-0.13637363303899763,0.022044658547639845,-0.07520239436998963
1687271837653866000,5.851865966796875,-0.03893266498446464,0.028197335958480833,-0.053146191515028474
1687271837663883000,5.861883056640625,-0.024189269360899924,0.01360357793867588,-0.047728769576177
1687271837673899300,5.871899169921875,-0.04207856179475784,-0.020336685585975647,-0.021758681213110684
1687271837683916000,5.881916015625,-0.006241524738073349,-0.03739303432703018,0.025829291652888057
1687271837693933000,5.89193310546875,0.10722644900977611,-0.04814005379080772,0.015986819813400506
1687271837703949000,5.901948974609375,0.11000351250767708,-0.05199906730651855,0.017177344772219657
1687271837713966000,5.911966064453125,0.09533668925166129,-0.04520049320757389,0.006977876188606023
1687271837723983000,5.921983154296875,0.10678981115818023,-0.022082652470469474,-0.031107524316757916
1687271837733999000,5.9319990234375,0.0640969168573618,0.008062310424447059,-0.09910670930966735
1687271837744016100,5.94201611328125,0.022157471272349356,0.027877017962932585,-0.139181676197052
1687271837754033200,5.952033203125,0.038788872599601745,0.025571663630008696,-0.11008008487522601
1687271837764049200,5.962049072265625,0.11788520566821098,-0.008663783448934554,-0.06794803932756185
1687271837774066000,5.97206591796875,0.196476511824131,-0.03944704424738884,-0.024968583170324563
1687271837784083200,5.982083251953125,0.19543372477293014,-0.04231237055063247,0.007985884187370538
1687271837794100000,5.992099853515625,0.14903496169149874,-0.03353460533320904,-0.003414228890277445
1687271837804116000,6.002115966796875,0.16501520563364028,-0.05027063607871532,0.005502068015001714
1687271837814133200,6.01213330078125,-0.08658990369439125,-0.03159340813755989,-0.019798487056046723
1687271837824150000,6.02214990234375,-0.29892975508272646,0.015885551396012304,-0.08635350112263113
1687271837834166000,6.032166015625,-0.24087328743338585,0.02346387769579887,-0.17010624516233802
1687271837844183000,6.04218310546875,-0.08019698778688907,-0.04123626575171947,-0.2100289806300774
1687271837854200000,6.052199951171875,0.10535247183144092,-0.05052198049128055,-0.12986180345956236
1687271837864216000,6.062216064453125,0.14764613768160342,-0.01701777029633522,0.03040039896070957
1687271837874233000,6.072233154296875,-0.010585691422224043,-0.05086977101564407,0.19659312394112347
1687271837884250000,6.08225,-0.30181963130533696,-0.06342530120611191,0.29829843490924685
1687271837894266000,6.09226611328125,-0.5281728104770184,-0.017609890970587728,0.3039385231554508
1687271837904283100,6.102283203125,-0.7221428924381732,-0.11585691471099853,0.244110661919415
1687271837914300000,6.1122998046875,-0.5790414124488831,-0.15003157151341437,0.0881470334758982
1687271837924316200,6.122316162109375,-0.19885668495893477,-0.0033779520004987716,-0.09245017402991652
1687271837934333200,6.132333251953125,0.15576514672935007,0.13372107270359992,-0.19669249266237018
1687271837944350000,6.142349853515625,0.46776598030924793,0.13987550368010998,-0.2331986611522734
1687271837954367200,6.1523671875,0.6617243718326091,0.056283612757921216,-0.13239610771015287
1687271837964383200,6.16238330078125,0.6186836870074272,-0.03931260421276092,0.03906125980019569
1687271837974400000,6.17239990234375,0.34700317337810993,-0.06742752258479595,0.08133136211168021
1687271837984417000,6.1824169921875,0.003070493486523628,-0.052363224443793294,0.037820283295772965
1687271837994433300,6.192433349609375,-0.33152152660787104,-0.026661796954274175,-0.017097740197367966
1687271838004450000,6.202449951171875,-0.5457102207332849,-0.01917231798171997,-0.05014646170977503
1687271838014467000,6.212467041015625,-0.518497804158926,-0.04060848924219608,-0.029147330159693955
1687271838024483000,6.222483154296875,-0.40902036135196684,-0.019617723661661146,0.012607260377705097
1687271838034500000,6.2325,-0.2772247037529945,-0.0005599719703197479,0.01271448361184448
1687271838044517000,6.24251708984375,-0.12303601256012915,-0.01571019482910633,0.009287577903084456
1687271838054533000,6.252533203125,-0.018589549657702445,-0.0089449384778738,0.06479100006874651
1687271838064550100,6.262550048828125,0.11527940708398818,-0.01579378145933151,0.05035608587246388
1687271838074567200,6.272567138671875,0.24609599051773548,-0.009132570004463195,0.021387729008868334
1687271838084583200,6.282583251953125,0.32954642714262006,-0.01521393574476242,0.026694384049624202
1687271838094600000,6.292599853515625,0.32828736699223515,-0.014141338077187537,0.01715644811466336
1687271838104617200,6.3026171875,0.2503501408308744,-0.025265374159812927,0.03873845758661627
1687271838114633000,6.312633056640625,0.07462415609061718,-0.028809914898872375,0.09658457042090594
1687271838124650000,6.32264990234375,-0.16362988875508308,0.009679682493209838,0.08161986019685864
1687271838134667300,6.332667236328125,-0.3230839531302452,0.012095511463284492,0.11861468898653983
1687271838144683000,6.34268310546875,-0.30363983246982096,-0.03858312089443207,0.10074855823256075
1687271838154700000,6.352699951171875,-0.07734335192143917,-0.10740063653290272,-0.024430567303486167
1687271838164717000,6.362717041015625,0.09830196879804134,-0.0941162075459957,-0.1774316926795989
1687271838174733000,6.372733154296875,0.12325228565931319,-0.04833996027708053,-0.07699556139707565
1687271838184750000,6.38275,-0.12577975831031799,0.039869069051742555,0.03505085511505603
1687271838194767000,6.39276708984375,-0.17361410715281964,0.04649637823700904,0.05430339872613549
1687271838204784000,6.4027841796875,-0.11741174293756484,-0.06242109259963035,0.08230302015542984
1687271838214800100,6.412800048828125,-0.1558335357904434,-0.15556991641819476,0.20203136947229502
1687271838224817200,6.422817138671875,-0.20745967813134192,-0.11698270387053489,0.20779329399988053
1687271838234834200,6.432834228515625,-0.3306429902076721,-0.008563830205798149,0.0690919486656785
1687271838244850200,6.44285009765625,-0.3186205439805984,0.06274316416084766,-0.11861264315992594
1687271838254867200,6.4528671875,-0.21075930419862268,0.0641004239886999,-0.2351146143088117
1687271838264884000,6.462884033203125,0.04033902465105056,0.034407296514511104,-0.31527240259647366
1687271838274900000,6.47289990234375,0.3535299447983503,0.04813946926891804,-0.3787237515592947
1687271838284917000,6.4829169921875,0.6183996093690395,0.052343935221433636,-0.3493377903381362
1687271838294934000,6.49293408203125,0.8227145597338676,0.01212824468910694,-0.17769322969261556
1687271838304950000,6.502949951171875,0.7994453278273344,-0.0640747050255537,0.042008967157267034
1687271838314967000,6.512967041015625,0.5192559290498495,-0.026534955704212188,0.16801760232001542
1687271838324984000,6.522984130859375,0.06575111380517483,0.01715454841852188,0.21802476515695451
1687271838335000000,6.533,-0.5002577985912561,-0.2612783620804548,0.2342645368181169
1687271838345017000,6.54301708984375,-0.34852059220373627,-0.3110784580379724,0.1348887647761032
1687271838355034000,6.5530341796875,-0.024093407770991324,-0.23431027565598486,0.11963497194498776
1687271838365050000,6.563050048828125,0.3691156364649534,-0.13237842592298985,0.09165259391143918
1687271838375067000,6.57306689453125,0.49965048034787174,0.04454173703789711,0.07933964030519128
1687271838385084200,6.583084228515625,-0.13034195165932178,0.2496943072706461,0.051691718390397726
1687271838395100200,6.59310009765625,-0.6810948427349328,0.10168576601743698,0.15619692574273794
1687271838405117000,6.603116943359375,-0.8060393192648887,-0.14947452215254306,0.27343480995073915
1687271838415134200,6.61313427734375,-1.009206853160262,0.032334581893682476,0.0480744412086904
1687271838425150200,6.623150146484375,-0.7606728218406439,0.055700259912014,-0.144119278729707
1687271838435167000,6.6331669921875,-0.1843336540877819,-0.08211012793183327,-0.35578692994490263
1687271838445184000,6.64318408203125,-0.08319441603720187,-0.01183072304725647,-0.3903171587193385
1687271838455200300,6.6532001953125,0.041755321189761156,0.10203355654180049,-0.3401023444810882
1687271838465217000,6.663217041015625,0.13706687600016593,0.15894143867790697,-0.3773065417051315
1687271838475234000,6.673234130859375,0.2224871513932943,0.06367547657489776,-0.27085765293911096
1687271838485251000,6.6832509765625,0.30495325315594674,-0.11672259162962435,0.0305363003000617
1687271838495267000,6.69326708984375,0.27975919066667554,-0.15284896702170372,0.21754355751127002
1687271838505284000,6.7032841796875,0.17549626763761042,-0.03705927232801914,0.23663952232114968
1687271838515300900,6.71330078125,0.058356327378749843,0.02870587000250816,0.21939967023935167
1687271838525317000,6.723317138671875,-0.07255962477624416,-0.028977672681212423,0.21578370823189616
1687271838535334100,6.733334228515625,0.10082534979581832,-0.04692132565081119,0.21063874655887482
1687271838545351000,6.743350830078125,0.8874094424843788,0.04563420844972133,0.08199073933586477
1687271838555367000,6.753366943359375,0.5398907207995652,0.027789339679479597,-0.17680840968210249
1687271838565384200,6.76338427734375,0.5841647468119859,-0.010168342792987823,-0.21992391330916433
1687271838575401000,6.77340087890625,0.1970814919799566,-0.14366963526606558,-0.13072349832281469
1687271838585417000,6.7834169921875,-0.24665362440049646,-0.27767770821750165,-0.028931787712872026
1687271838595434200,6.793434326171875,-0.5115671281129122,-0.2615565944999456,0.12881076003666966
1687271838605451000,6.803450927734375,-0.6737322050124407,-0.11279869618415832,0.2511292719772085
1687271838615467000,6.813467041015625,-0.6834738468259572,0.0770762254178524,0.22868951316475866
1687271838625484000,6.823484130859375,-0.553158783173561,0.15283376945257185,0.09133739048242569
1687271838635501000,6.8335009765625,-0.2443862639904022,0.0942781201094389,-0.07996727068424224
1687271838645517000,6.84351708984375,0.049910570594668385,0.009759177470207214,-0.1273217270553112
1687271838655534000,6.8535341796875,0.22128888151943682,-0.032635026144981386,-0.03321903657801449
1687271838665551000,6.863551025390625,0.32105157051980493,-0.037492987570166586,0.08369195376317948
1687271838675567000,6.873567138671875,0.33592940617799755,-0.04139233309626579,0.09650544077008961
1687271838685584100,6.883584228515625,0.25488369260728355,-0.0593517681568861,-0.004664484679698944
1687271838695601000,6.893600830078125,0.11241057364940643,-0.06318915436267852,-0.052931671981513495
1687271838705617200,6.9036171875,-0.04237316082715988,-0.05879705688357353,-0.07612725412994623
1687271838715634200,6.91363427734375,-0.2122884134620428,-0.03559387595057487,-0.10583484852090477
1687271838725651000,6.92365087890625,-0.3748375212430954,-0.013542203140258788,-0.10552373674511908
1687271838735667000,6.9336669921875,-0.488937363153696,0.014792495462298392,-0.11968936901334673
1687271838745684200,6.943684326171875,-0.5877168863356113,0.0228875391125679,-0.11346110561564564
1687271838755701000,6.953700927734375,-0.6074117668867111,0.03723638246059417,-0.13000161378905176
1687271838765717000,6.963717041015625,-0.43021570959389205,0.08674246390759945,-0.18192279355376959
1687271838775734300,6.973734375,0.01000116953253746,-0.035275896042585374,-0.20359014322161673
1687271838785751000,6.9837509765625,0.2972475010842085,-0.1320183604389429,-0.2115269275702536
1687271838795767000,6.99376708984375,0.2739934667468071,-0.028303718942403792,-0.1028328902259469
1687271838805784000,7.0037841796875,0.28455694633722306,0.037460254344344135,0.03971650883853435
1687271838815801000,7.013801025390625,0.2991904518455267,-0.011995558220148085,0.12391980965733528
1687271838825818000,7.023818115234375,0.2056996827214956,-0.12310615518689155,0.2021324917592108
1687271838835834000,7.033834228515625,0.1411035841703415,-0.0893149447441101,0.20862243830040095
1687271838845851100,7.04385107421875,0.12430734767019748,-0.025499767437577245,0.273326636868529
1687271838855868200,7.0538681640625,0.1670575251162052,-0.08488894499540328,0.354519978749007
1687271838865884200,7.06388427734375,0.3224637754052877,-0.41531858471333977,0.7761199818193912
1687271838875901000,7.07390087890625,0.18540800532102583,-0.47346799134314055,0.9377638113237917
1687271838885918200,7.083918212890625,-0.05509995593130588,-0.11898118421137333,0.5943805820085107
1687271838895934200,7.093934326171875,-0.18138591019809244,0.1026958198428154,0.3789517881615087
1687271838905951000,7.103950927734375,-0.03269406285583973,0.07751578587889671,0.16646419886555522
1687271838915968300,7.11396826171875,0.18940028982758522,-0.018040099081397056,0.01601005455851555
1687271838925984300,7.123984375,0.4306500093579292,-0.04902852706313133,-0.10444938551187515
1687271838936001000,7.1340009765625,0.5368816021114587,0.010744681376218795,-0.14469477706272155
1687271838946018000,7.14401806640625,0.3487994091451168,0.12284779651165008,-0.13204612522870302
1687271838956034300,7.154034423828125,-0.11019698925316333,0.27751579565405843,-0.22962851104792206
1687271838966051000,7.164051025390625,-0.4294838881880045,0.22144027268886565,-0.4689767078058794
1687271838976068000,7.174068115234375,-0.8233388291120529,0.012412906849384307,-0.6591197422921657
1687271838986084000,7.184083984375,-0.2784767496407032,-0.3052975365489721,-0.3100289489850402
1687271838996101000,7.19410107421875,0.28907939219772816,-0.27025135760903357,-0.20173048682957886
1687271839006118100,7.2041181640625,0.5941396128594875,-0.04183247807919979,-0.26137027814760805
1687271839016134100,7.214134033203125,0.7015764897495508,0.2009738232433796,-0.10451645939871668
1687271839026151200,7.224151123046875,0.17925532791018484,0.20266016889512536,0.10591171314939855
1687271839036168200,7.234168212890625,-0.44609366220533847,0.03608721242547035,0.19564676473541184
1687271839046184000,7.244183837890625,-1.254641749420762,0.17157938645482063,0.2706155147463083
1687271839056201000,7.254200927734375,-1.5122218415051698,-0.0010346037447452544,0.20443930739685892
1687271839066218200,7.26421826171875,-0.8250678448617458,-0.2709785028398037,-0.3601249591492116
1687271839076234000,7.27423388671875,-0.341312852782011,-0.19661621255576608,-0.6883581117361783
1687271839086251000,7.2842509765625,-0.1393687232017517,0.09097381786704063,-0.6460404804885387
1687271839096268000,7.29426806640625,0.18630933807492256,0.29034371304512024,-0.6535850506491959
1687271839106283800,7.30428369140625,0.438576710703969,0.2287444582223892,-0.6214131119713187
1687271839116301000,7.314301025390625,0.5076660290211439,-0.004589665877819061,-0.22376451438535003
1687271839126318000,7.324318115234375,0.3266016058623791,-0.11349895340800285,0.18820494256317613
1687271839136333800,7.334333740234375,0.27290216437876225,-0.05715279680788517,0.38993557552322744
1687271839146350800,7.344350830078125,0.3801654382675886,-0.03717676122784614,0.41649825948458163
1687271839156368100,7.3543681640625,0.35968028412163255,-0.05569558373689651,0.263970231512934
1687271839166383900,7.3643837890625,0.250571090105176,-0.05662263545393943,0.15207695973590016
1687271839176401000,7.37440087890625,0.24358313091397285,-0.0799251851081848,0.17400179129615426
1687271839186418200,7.384418212890625,0.2705669994294643,-0.14342647415995596,0.15512641043439507
1687271839196434000,7.394433837890625,0.2527314830094576,-0.13451602247357367,0.054880760222673415
1687271839206451000,7.404450927734375,0.5119581732571125,0.047369069418311115,-0.059030281117558474
1687271839216468000,7.414468017578125,0.6710024877876043,0.09858780000209807,-0.3235220888191834
1687271839226484000,7.42448388671875,-0.24299743998050688,-0.1646785210251808,-0.45348026532530783
1687271839236501000,7.4345009765625,-0.14612345815896988,-0.26700959920883177,-0.018422376397252083
1687271839246518000,7.44451806640625,-0.21729659701287746,-0.1498562149465084,0.10471110518798231
1687271839256533800,7.45453369140625,-0.3046533934265375,0.06279460208714008,0.021628588560037312
1687271839266551000,7.464551025390625,-0.40798166595399377,0.1604565194159746,0.06755363318249583
1687271839276567800,7.47456787109375,-0.5085492415964603,0.08936404458284378,0.06051219023838639
1687271839286583800,7.484583740234375,-0.48089025029838084,-0.021709142982959746,-0.03455284246504307
1687271839296601000,7.49460107421875,-0.39189737711548805,-0.056306993633508676,-0.09309884719699621
1687271839306617900,7.504617919921875,-0.301381239888072,-0.04185235182344913,-0.12319518517721444
1687271839316633900,7.5146337890625,-0.15741700558960436,-0.015081833797693251,-0.16074048745650796
1687271839326651000,7.52465087890625,-0.05988894377350807,0.0004845686465501785,-0.1837329117156565
1687271839336668000,7.53466796875,-0.05823766943514347,0.005203413861989975,-0.13423095845449715
1687271839346684000,7.544683837890625,-0.09745382753610611,0.004560439783334732,-0.020232494559139013
1687271839356701000,7.554700927734375,-0.18295710503756998,0.052609308159351345,0.13328622495029122
1687271839366718000,7.564718017578125,-0.20597557705342767,0.06060790569782257,0.09209434632956981
1687271839376734000,7.57473388671875,-0.03533668631911278,-0.07930266929566859,-0.09633812137916684
1687271839386751000,7.5847509765625,0.011201777493953704,-0.1265893211275339,-0.16728665769696235
1687271839396767700,7.594767822265625,-0.06912263606488704,-0.0038929157853126524,-0.0910580255517736
1687271839406785000,7.604784912109375,0.09214169260263443,0.057038230517506595,-0.05944543778970837
1687271839416801000,7.614801025390625,0.2783656904816627,0.038866029489040374,-0.12354440047368406
1687271839426817800,7.62481787109375,0.2520557757049799,-0.007245733344554901,-0.06553195462916046
1687271839436833800,7.634833740234375,0.1744908899873495,-0.05096972425878048,0.10898100105952471
1687271839446851000,7.64485107421875,0.13494915319383144,-0.09733341602683067,0.19178718496412037
1687271839456867800,7.654867919921875,0.16471066972911358,-0.05798983215391636,0.11861322768181562
1687271839466884900,7.664884765625,0.16144903758466242,-0.00566284806728363,0.020245354040712118
1687271839476901000,7.674901123046875,0.1051964044868946,0.024490298134088515,-0.06271130771785974
1687271839486918000,7.68491796875,0.15146131205558777,-0.027486557340621946,-0.04739084285870194
1687271839496935000,7.694934814453125,0.3217272778242826,-0.10644728133082389,0.005060461727343499
1687271839506951000,7.704950927734375,0.48112113644480703,-0.10974340026676654,0.033938765687309205
1687271839516968000,7.714968017578125,0.4984983877032995,-0.0896112973421812,0.08746022025551646
1687271839526985000,7.72498486328125,0.33539982934594154,-0.08935819936394691,0.1990156749129295
1687271839537001000,7.7350009765625,-0.06369944197237491,-0.05526537562608719,0.18664675333574413
1687271839547018000,7.74501806640625,-0.39889293509125706,-0.032281390401721,0.10459723301734775
1687271839557035000,7.755034912109375,-0.6234077929198741,-0.13846388331651688,-0.004857084642350674
1687271839567051000,7.765051025390625,-0.34707857670187947,-0.1742681871473789,-0.04532017406448722
1687271839577067800,7.77506787109375,0.31045009700655934,-0.1299269411176443,-0.016811762862838805
1687271839587085000,7.7850849609375,0.6596686083465815,0.0062765960514545435,0.04792871259506792
1687271839597101000,7.79510107421875,0.5648492209672927,0.08906360033154487,0.28296587775349613
1687271839607117800,7.805117919921875,0.007956511962413787,0.02966448590159416,0.43887759334668514
1687271839617135000,7.815135009765625,-0.5691092164993286,-0.014511340433359145,0.33205344152748584
1687271839627151000,7.825151123046875,-1.0268266810029745,-0.0735381144195795,0.09683012441350146
1687271839637167900,7.83516796875,-1.3071803304314613,0.1019634139150381,-0.0655139440484345
1687271839647185000,7.845184814453125,-1.2364999435305595,0.20481939275562763,-0.17886062950417397
1687271839657201200,7.855201171875,-0.600287614095211,0.04647124379575252,-0.6246902339458466
1687271839667218000,7.865218017578125,-0.046780455875396726,-0.010716624325513839,-0.9313086438350379
1687271839677235000,7.87523486328125,0.10369184514284133,0.10814590194225311,-0.7040266593806446
1687271839687251000,7.8852509765625,0.3202805861473083,0.15529986730515957,-0.3637356969922781
1687271839697268000,7.89526806640625,0.5639572405636311,0.11189560986459254,-0.196244310503453
1687271839707285000,7.905284912109375,0.6424521006077527,0.07545242360830307,-0.046021454201638695
1687271839717301000,7.915301025390625,0.583864302560687,0.15556231763362885,0.24552535102292894
1687271839727318000,7.925318115234375,0.8766559932798147,-0.2728565716713667,0.27607929657753555
1687271839737335000,7.9353349609375,0.4553156640589237,-0.5707452932685614,0.3213942464776337
1687271839747351000,7.94535107421875,-0.4161410070121288,-0.27503508475422855,0.9413726494707166
1687271839757367800,7.955367919921875,-0.29096564433574673,0.06895955445766448,0.7872644761681556
1687271839767385000,7.965385009765625,0.0054214405268430705,0.08606617208123206,0.1750650183471851
1687271839777401000,7.975401123046875,0.6032791971266269,0.04989069685041904,-0.3922698636896908
1687271839787417900,7.98541796875,-0.041492870861291886,0.18506372192800044,-0.6051229252971708
1687271839797435100,7.99543505859375,0.06122165368199348,0.13093524137735366,-0.38696722723692656
1687271839807451100,8.005451171875,0.09870236629247665,-0.18761808258593082,-0.3957623819805681
1687271839817468000,8.015468017578126,-0.31051030276119707,-0.2183358769327402,-0.13885858172252774
1687271839827485000,8.02548486328125,-0.35110476347804065,0.053985272687673565,0.22308730924353
1687271839837502000,8.035501953125,-0.17992577451765537,0.009118541479110717,0.26955577656030655
1687271839847518000,8.04551806640625,-0.18755495422184465,-0.18122224406898021,0.20538327371608464
1687271839857535000,8.055534912109374,-0.23843232402205466,-0.10966799694299698,0.12222060452401637
1687271839867552000,8.065552001953124,-0.14212532843351364,0.026413959673047063,0.02546206577569246
1687271839877568000,8.075568115234375,0.0576917259901762,0.03038987756669521,-0.0610239756854251
1687271839887585000,8.0855849609375,0.3093628862917423,-0.04586801720559597,-0.16521160498857498
1687271839897601800,8.095601806640625,0.31770752078890796,-0.04080196598768234,-0.11658055281043052
1687271839907618000,8.1056181640625,0.1609708986788988,0.018068156132102012,0.03587766132801771
1687271839917635000,8.115635009765626,0.00010989011526107787,0.020768062740564346,0.08077040376067161
1687271839927651800,8.12565185546875,-0.1405932965606451,0.03270575329363346,0.04183905395045876
1687271839937667800,8.135667724609375,-0.21865444136261938,0.02943009262382984,0.04064878471996635
1687271839947685000,8.14568505859375,-0.22072014172077178,0.052739072018861764,0.025627485470473766
1687271839957702000,8.155701904296874,-0.11734978361725806,-0.10895429571568965,-0.08725567412674426
1687271839967718000,8.1657177734375,0.07967384069561957,-0.2248661554843187,-0.16428645296767352
1687271839977735200,8.175735107421875,0.1346761814713478,-0.056200610649585724,-0.0720252256385982
1687271839987752000,8.185751953125,0.16348317376077173,0.10899404320418835,-0.06070625150576234
1687271839997768000,8.195767822265625,0.03844809633791446,0.02815992655754089,-0.11541636786926537
1687271840007785000,8.205784912109374,-0.1939537153482437,-0.06351181044578552,-0.011695698490738869
1687271840017802000,8.215802001953126,-0.37286475986540313,-0.06740472623109817,0.10185282968003302
1687271840027818000,8.22581787109375,-0.3873445361167192,-0.03877016789913177,0.0892392856920138
1687271840037835000,8.2358349609375,-0.18839666574299335,0.01618950277864933,0.025274105455540118
1687271840047852000,8.24585205078125,0.06735445734858513,0.07143558918237686,-0.07598083139657974
1687271840057868000,8.255867919921876,0.36090953365564343,0.02267711123228073,-0.16070450282767415
1687271840067884800,8.265884765625,0.395554730579257,-0.08469020755290985,-0.16759736761394886
1687271840077901800,8.27590185546875,0.1483522401243448,-0.1033534069687128,-0.07592504608873278
1687271840087918000,8.28591796875,-0.05097440043389797,-0.05716039559245109,0.005143609966151416
1687271840097935400,8.295935302734375,-0.12028291445970535,-0.05575111331641674,0.002824409770965576
1687271840107952600,8.30595263671875,-0.1859545332878828,-0.06541092206537723,0.02413969459813088
1687271840117969400,8.315969482421876,-0.1822808132112026,-0.04398176506757736,0.060270746165327724
1687271840127985400,8.3259853515625,-0.1407896959155798,-0.006914893954992294,0.019483685485832392
1687271840138002400,8.33600244140625,-0.12279694310724734,0.02088672068417072,-0.03320416780244559
1687271840148019500,8.34601953125,-0.07562485756576061,0.019947394007444382,-0.046022805908508595
1687271840158035500,8.356035400390626,0.00578092148900032,-0.02084931128323078,-0.005861731640249491
1687271840168052500,8.366052490234376,0.02865150946676731,-0.0852022487282753,0.058854486159235234
1687271840178069500,8.376069580078125,0.05361877746284008,-0.11614449948072433,0.16766261486988512
1687271840188085500,8.38608544921875,0.09997311688065529,-0.0512345126748085,0.2313178158417344
1687271840198102500,8.3961025390625,0.2016530376791954,0.0032218846559524533,0.15974544853717088
1687271840208119300,8.406119384765624,0.23899580312371252,-0.05086801744997501,0.04672711825296282
1687271840218135600,8.416135498046875,0.16906243519783018,-0.07622749963402747,0.02661240485459566
1687271840228152600,8.426152587890625,0.12493337061405181,-0.038430560681223865,-0.0188768421664834
1687271840238169300,8.43616943359375,0.025921207720041275,0.009039046502113342,-0.08003218914661556
1687271840248185300,8.446185302734374,-0.05537409669756889,-0.03427285647988319,-0.08511325527057051
1687271840258202600,8.45620263671875,-0.0878682530671358,-0.0547591796696186,0.012240801685489713
1687271840268219400,8.466219482421875,-0.03040039896070957,-0.048317748445272445,-0.029545097305625677
1687271840278235400,8.4762353515625,0.04124737166762352,-0.03753331958055496,-0.06567965600416063
1687271840288252700,8.486252685546875,0.06025485447645187,-0.04597966088652611,-0.037261078510433435
1687271840298269400,8.49626953125,0.06839841344356537,-0.038485505738854404,-0.017903795883245765
1687271840308285400,8.506285400390626,0.045458267360925675,0.012328735697269439,-0.011994389176368712
1687271840318302500,8.516302490234375,-0.024668577310442922,0.06351824018657207,0.03225800952613354
1687271840328319500,8.526319580078125,-0.09660743983983992,0.06785714617371559,-0.08535773155093193
1687271840338336500,8.53633642578125,-0.09730302088856696,0.0462543861746788,-0.2647452710060403
1687271840348352500,8.5463525390625,-0.09866787950098514,0.002552607092261314,-0.355044002623111
1687271840358369500,8.55636962890625,-0.11476736590862273,-0.06478723720908165,-0.3082099168643355
1687271840368386600,8.566386474609375,-0.16984686357378959,-0.07695932103991508,-0.1438196016633883
1687271840378402600,8.576402587890625,-0.2423690789490938,-0.04795592939555645,0.007517974414676427
1687271840388419300,8.58641943359375,-0.26741116574704643,-0.03604746493697166,0.07668528987150638
1687271840398436600,8.5964365234375,-0.1903805330365896,-0.03728665134310722,0.14376049188729376
1687271840408452600,8.60645263671875,-0.1050958667218685,-0.02752864291667938,0.1600264574356377
1687271840418469400,8.616469482421875,-0.019932196438312528,-0.04984627318680286,0.13324848675578832
1687271840428486700,8.626486572265625,0.012800444862246513,-0.057493573069572444,0.12149871999025344
1687271840438502700,8.636502685546875,0.03768237266242504,-0.03962473890185356,0.12857965469453483
1687271840448519400,8.64651953125,0.08885141888558865,-0.032770050701498986,0.13481632059440016
1687271840458536400,8.656536376953126,0.09559913958013057,-0.025638299125432966,0.06761168351266533
1687271840468552700,8.666552734375,0.01072656119763851,-0.05425123014748096,0.04781400017421692
1687271840478569500,8.676569580078125,-0.19866554630100725,-0.09312836555242537,0.09920589536782354
1687271840488586500,8.68658642578125,-0.4117231905698776,-0.10404314279854297,0.23518501266390085
1687271840498602500,8.6966025390625,-0.4585363796710968,-0.030986089894175527,0.4556636007137596
1687271840508619500,8.70661962890625,-0.3628267654538154,0.02136778219938278,0.27826588336899877
1687271840518636500,8.716636474609375,-0.36367315315008164,-0.1211304711997509,0.0836591109395027
1687271840528652500,8.726652587890625,-0.45470893033742904,-0.1423363408356905,0.07311068278774618
1687271840538669600,8.736669677734374,-0.36262685896754265,-0.08538578860163688,0.1974060477592051
1687271840548686600,8.7466865234375,-0.10768471417129039,-0.039893618971109386,0.256080190649163
1687271840558703400,8.756703369140626,0.1585363650083542,-0.03367313702106475,0.2794097927071154
1687271840568719400,8.76671923828125,0.3708323772549629,-0.04322597826421261,0.28277327779084444
1687271840578736600,8.776736572265625,0.6309282515525817,0.0093850834608078,0.1222619594477117
1687271840588753400,8.78675341796875,0.7492091785401106,0.05005260941386223,-0.06627862654430791
1687271840598769400,8.796769287109376,0.7238286535680294,0.05956979482173919,-0.19397037422209976
1687271840608786700,8.80678662109375,0.6800473795086145,0.05160743764042854,-0.31850568542927504
1687271840618803500,8.816803466796875,0.6363023458063602,0.05561608875989914,-0.41743879173770543
1687271840628819500,8.8268193359375,0.46288288444280623,0.07101064176857472,-0.5385635638490319
1687271840638836500,8.83683642578125,0.15719021109640596,0.06843932997584343,-0.4420921714790165
1687271840648853500,8.846853515625,-0.22314006234407424,0.05419336248040199,-0.3126945149324834
1687271840658869500,8.856869384765625,-0.44974517045021056,0.06250234114229679,-0.35377135233879087
1687271840668886500,8.866886474609375,-0.40872283971011636,0.058933250483870506,-0.43613487050980326
1687271840678903600,8.876903564453125,-0.2066840175837278,0.03948445364832878,-0.4745430732287466
1687271840688919600,8.88691943359375,-0.1304506727308035,0.06244213538765907,-0.48013387897312637
1687271840698936600,8.8969365234375,-0.49253100373148917,0.004929273095726967,-0.572650980759412
1687271840708953300,8.906953369140625,-0.43958501096367836,0.0022457331001758574,-0.7072878531336784
1687271840718970600,8.916970703125,-0.29825054064691064,0.05780804584622383,-0.36984844425152985
1687271840728986600,8.926986572265625,-0.27646014912128447,0.0439537080168724,0.1652023987688124
1687271840739003400,8.93700341796875,-0.18390695310831068,0.027401217144727704,0.4359102679736912
1687271840749020700,8.947020751953126,-0.01893792470395565,-0.003551555001735687,0.43832069011628627
1687271840759036400,8.957036376953125,0.2661900995194912,0.05316986465156078,0.345916693315655
1687271840769053400,8.967053466796875,0.48614744017422196,0.13835516224503516,0.2284156646594405
1687271840779070500,8.977070556640625,0.5233768083721398,0.1168950255870819,0.11641513311564922
1687271840789086500,8.98708642578125,0.5099012407273054,-0.04117372190952301,-0.02811800537826493
1687271840799103500,8.997103515625,0.4133130901098251,-0.24208500131070612,-0.2292209896929562
1687271840809120500,9.00712060546875,0.04249591042399406,-0.30201544613838194,-0.26193098077028987
1687271840819136300,9.01713623046875,-0.2740267844945192,-0.2411100187987089,-0.04925634446963668
1687271840829153500,9.027153564453124,-0.32285482054948805,-0.1301443832606077,0.1799083849914372
1687271840839170600,9.037170654296874,-0.1294476331681013,-0.03996200803220272,0.2269762429734692
1687271840849186300,9.047186279296875,0.10961305188536644,0.009325462228059769,0.17925123625695705
1687271840859203600,9.05720361328125,0.24296529127657412,-0.006440262180566788,0.13157368541136383
1687271840869220600,9.067220703125,0.21904724007248877,-0.0494306781232357,0.12443857283443212
1687271840879237400,9.0772373046875,0.09403495900332927,-0.0753290894895792,0.12589008681699632
1687271840889253400,9.08725341796875,-0.1181324584275484,-0.06443944668471813,0.14884115615244953
1687271840899270700,9.097270751953126,-0.2538847446978092,-0.058846741244196886,0.20123013609200716
1687271840909287400,9.107287353515625,-0.25469839916825293,-0.07611585595309733,0.18828356075733899
1687271840919303400,9.117303466796875,-0.22674188622832298,-0.0692985771536827,0.10463628638610244
1687271840929320400,9.127320556640624,-0.2718704832434654,-0.027896891707181928,-0.006499152760952711
1687271840939337500,9.13733740234375,-0.28759646016359325,-0.015296937853097915,-0.1070643903158605
1687271840949353500,9.147353515625,-0.2517734516322613,0.0029307927548885343,-0.2176715678051114
1687271840959370500,9.15737060546875,-0.15849954012930392,0.028657354685664174,-0.34875852914545685
1687271840969387500,9.167387451171875,0.04191606470942497,0.05566518859863281,-0.4581614088788628
1687271840979403500,9.177403564453124,0.21660452309548853,0.048291444960236546,-0.4089444100389257
1687271840989420300,9.187420166015626,0.1741390078097582,0.015078326666355132,-0.18185086082872
1687271840999437600,9.1974375,-0.1409726512670517,-0.033819267493486405,-0.028363486305624245
1687271841009454600,9.20745458984375,-0.4841103813886642,-0.06259060394763946,0.17016206700280306
1687271841019470300,9.21747021484375,-0.5610556739032269,-0.08653028246164321,0.31425416546463963
1687271841029487600,9.227487548828124,-0.42972529572844503,-0.08701543563008309,0.40331075153350826
1687271841039504600,9.237504638671876,-0.12388882999718188,-0.06809738467037678,0.4145126386253163
1687271841049520400,9.247520263671875,0.1379307993531227,-0.11840776823759078,0.28910715698748823
1687271841059537400,9.257537353515625,0.38317923313081265,-0.12390052043497561,0.39058764622379094
1687271841069554700,9.2675546875,0.39205285993814465,-0.03592997603714466,0.23421572924032805
1687271841079570400,9.2775703125,0.2752811684697866,0.05257599041163921,-0.017599954098463058
1687271841089587500,9.28758740234375,0.10729776068031788,0.09008417555093765,-0.20684346419544888
1687271841099603700,9.297603759765625,0.004606617012619972,0.007290741530060768,-0.2703790756419301
1687271841109620000,9.307619873046875,0.04516483737230301,-0.10039572620689868,-0.1602384927511215
1687271841119636700,9.31763671875,0.14435703300833702,-0.09155483262538909,-0.08292904309928417
1687271841129653800,9.32765380859375,0.16795359717309474,0.009535305586457252,-0.07567879797639325
1687271841139670800,9.3376708984375,0.09694646253585815,0.059658057627081866,-0.08269011977687478
1687271841149686800,9.347686767578125,-0.010425532424449921,0.01590542514026165,-0.13073285067304968
1687271841159703800,9.357703857421875,-0.07594459103941917,-0.020011691415309906,-0.22773615796267985
1687271841169720600,9.367720458984374,-0.10999942085444926,-0.0006207622468471527,-0.32134821537882086
1687271841179736800,9.37773681640625,-0.05651040725111961,0.02311199551820755,-0.33919425319284197
1687271841189753900,9.38775390625,0.007479542100429534,0.024880758756399154,-0.27501944879367946
1687271841199770600,9.3977705078125,0.03215221106410027,-0.0004383914172649383,-0.13307137662321328
1687271841209786600,9.40778662109375,0.03172200295329094,-0.06311316651701927,0.04551555050611496
1687271841219804000,9.417803955078124,-0.02735211730599403,-0.08268412842750548,0.1596814433902502
1687271841229820700,9.427820556640626,-0.10190788433551788,-0.05416530542969703,0.20611659295931456
1687271841239837700,9.437837646484375,-0.154735803681612,-0.05238134462237358,0.23436390553936362
1687271841249854000,9.44785400390625,-0.131443775421381,-0.07079144605994224,0.1741391539402306
1687271841259870700,9.45787060546875,-0.08052607361078262,-0.06694996820092201,0.04877557521536946
1687271841269887700,9.4678876953125,-0.014265841239690779,-0.027586510583758352,-0.052522068267315626
1687271841279903700,9.47790380859375,0.05726970118582248,0.027007249391078948,-0.1251014206573367
1687271841289920800,9.487920654296875,0.1677542752087116,0.03356558499336242,-0.19410642169192432
1687271841299937800,9.497937744140625,0.22939386204183101,0.01409983702301979,-0.22508904098737983
1687271841309953800,9.507953857421874,0.20089082113504408,-0.006766425395011901,-0.18819149855971334
1687271841319970800,9.517970703125,0.056629649716615674,-0.027884616747498512,-0.1054901267364621
1687271841329987800,9.52798779296875,-0.22453473157286644,-0.038547465059161186,0.06800923146288841
1687271841340004600,9.538004638671875,-0.43534138204455375,-0.05759527987837791,0.1933637866310775
1687271841350020600,9.5480205078125,-0.5030810393184423,-0.0684276395380497,0.15252061185017227
1687271841360038000,9.558037841796875,-0.48871758292317385,-0.008410100948810577,-0.018242489785701036
1687271841370054700,9.5680546875,-0.3968050229012966,0.034244799429178234,-0.13297803578395395
1687271841380070700,9.578070556640625,-0.19653379496932027,0.027303017467260358,-0.1670586941599846
1687271841390088000,9.588087890625,0.04045125285387039,0.015010522127151489,-0.1916084673963487
1687271841400104700,9.598104736328125,0.21077391724586486,-0.04143675675988197,-0.1938052467882633
1687271841410120700,9.60812060546875,0.15740180802047252,-0.03872340614795684,-0.05249470533635467
1687271841420137700,9.6181376953125,0.09910217926502227,-0.010796119302511214,0.08180891649555415
1687271841430154800,9.62815478515625,0.0747013129800558,-0.005510287854075432,0.08514584236592054
1687271841440171800,9.638171875,0.1596153924167156,-0.02347790622115135,-0.03418693176209926
1687271841450187800,9.648187744140625,0.2149023953527212,-0.04567746306955814,-0.6186879247911274
1687271841460204800,9.658204833984374,-0.26277532263994213,0.2767559171974659,-0.8956938712269067
1687271841470221800,9.668221923828124,-0.4402250624328851,0.28707798924744127,-0.3500801331380382
1687271841480237800,9.67823779296875,-0.4855272624492645,-0.08702069632709025,0.31496888960525393
1687271841490254600,9.688254638671875,-0.25896833157241345,-0.3588403261661529,0.6833912831090391
1687271841500271900,9.69827197265625,0.1648573847234249,-0.3612503099173307,0.7957656164012848
1687271841510288600,9.70828857421875,0.4453513194054365,-0.09093290133476256,0.7551147493220866
1687271841520304600,9.7183046875,0.5921124909460544,0.06570610561966896,0.65575464977324
1687271841530322000,9.728322021484376,0.6706137807309627,0.020527239722013473,0.4246794105157256
1687271841540338700,9.738338623046875,0.6093178927689791,-0.08214052307009696,0.03970346669387072
1687271841550354700,9.748354736328125,0.44504795254468915,-0.12958967198729515,-0.11415697892531752
1687271841560371700,9.758371826171874,0.12443769605159759,-0.0042740240573883054,-0.19165479075610636
1687271841570388700,9.768388671875,-0.3045101855635643,0.07887246118485927,-0.26972517831046133
1687271841580404700,9.77840478515625,-0.4758458263903856,0.007139934882521629,-0.1798436491921544
1687271841590421800,9.788421875,-0.4028957409918308,-0.1392822139620781,-0.0058655310325324535
1687271841600438800,9.798438720703125,-0.25203590196073056,-0.13946633835732936,0.07020122508183121
1687271841610455800,9.808455810546874,-0.12745441352427006,0.005958616143465042,-0.02632609872650355
1687271841620471800,9.818471923828126,-0.014902970099449157,0.12844284003973006,-0.19088121256772428
1687271841630488600,9.828488525390625,0.04671966559886932,0.11364683744609355,-0.363189461286366
1687271841640505900,9.838505859375,0.08254150508642197,0.05479191289544105,-0.4426278857909143
1687271841650521900,9.84852197265625,0.12243103240430354,-0.003407762616872787,-0.3808753766352311
1687271841660538600,9.85853857421875,0.11596797387003897,-0.045927638438344,-0.1738252656854689
1687271841670556000,9.868555908203126,0.0042968204110860825,-0.0942471404492855,0.058078058426640926
1687271841680572700,9.87857275390625,-0.12923019102513789,-0.09287176044285297,0.22898381993621586
1687271841690588700,9.888588623046875,-0.1874187606215477,-0.07511340091228484,0.29780411205366253
1687271841700605700,9.898605712890625,-0.20655600728988646,-0.04868891984522342,0.25454379312843084
1687271841710622700,9.908622802734374,-0.17408698536157607,-0.02668985400497913,0.17836890046447515
1687271841720638700,9.918638671875,-0.09777005387842655,-0.04180442102849483,0.0959308192199096
1687271841730655700,9.92865576171875,-0.030425533401966093,-0.05781564463078975,0.000009498480707406997
1687271841740672800,9.9386728515625,0.018436989444494248,-0.030319150418043134,-0.07051661117393523
1687271841750689800,9.948689697265625,0.08206804235577583,-0.0036918402552604673,-0.06480331156104803
1687271841760705800,9.958705810546874,0.13941080877780915,-0.0030272388666868206,-0.042583150316029786
1687271841770722600,9.96872265625,0.11374795973300933,-0.02361468434333801,-0.026277473811805247
1687271841780739800,9.97873974609375,0.03564356031119823,-0.03137479695081711,-0.002040017927624285
1687271841790755800,9.988755859375,-0.053292614248394966,-0.03929389951229095,-0.0034586525538936254
1687271841800772600,9.998772705078125,-0.07552490432262421,-0.03308101634681224,-0.05654215409625321
1687271841810790000,10.008789794921874,-0.08009820358753204,-0.01151040505170822,-0.13414265911653636
1687271841820806000,10.018805908203126,-0.09642039283514023,-0.0034311434924602507,-0.1122504146516323
1687271841830822700,10.02882275390625,-0.1628004521936178,-0.02588204475343227,-0.04060618768725544
1687271841840839700,10.038839599609375,-0.19990882436037063,-0.004151858982443809,-0.00009162380620837212
1687271841850856700,10.048856689453125,-0.23010405613780022,0.10946692141294478,0.011188918012380599
1687271841860872700,10.058872802734374,-0.39372166993319985,0.14921967060863972,0.1138941998032853
1687271841870889700,10.0688896484375,-0.8125573228567838,0.04530746071338653,0.37416692850515243
1687271841880906800,10.07890673828125,-1.3253244744092225,-0.038111411729454994,0.6333022872075438
1687271841890922800,10.0889228515625,-1.6889561265051365,0.002477203768491745,0.7824561991035938
1687271841900939800,10.098939697265624,-1.9136942716956138,0.18241759133338928,0.4871095632046461
1687271841910956800,10.108956787109374,-1.9105711712390183,0.49134910047054287,0.1178049800388515
1687271841920973800,10.118973876953126,-1.3445768718898297,0.7032873853206634,-0.35973303722217675
1687271841930989800,10.12898974609375,-0.46864685479700563,0.4887818803310394,-0.5976733399435877
1687271841941006600,10.139006591796875,0.17032967865467072,0.19598259082734584,-0.621943127194792
1687271841951023900,10.14902392578125,0.40352001037001606,-0.020547113466262815,-0.3143496251957491
1687271841961040000,10.159039794921876,-0.16666823353767393,-0.2048468652844429,0.5455424629509449
1687271841971056600,10.169056640625,-0.53447337192595,0.5492319651186466,1.084020102082193
1687271841981074000,10.179073974609375,-0.49792555625140666,0.19851298608779905,0.7922484020605682
1687271841991090000,10.18908984375,-0.34476825393289323,-0.5029635504186153,0.13687730824481695
1687271842001106700,10.199106689453124,-0.10819207917153835,-0.478137152197957,0.053379854140430685
1687271842011123700,10.209123779296876,-0.36209143691658974,-0.010393968242406845,0.5473731855094432
1687271842021140700,10.219140625,-0.26586042917370795,0.90656071767807,0.137846335940063
1687271842031156700,10.22915673828125,0.6290203721046448,0.32601708397269247,-0.15752075822502373
1687271842041173800,10.239173828125,0.9319184462964534,0.10770809504687785,-0.7011532959014177
1687271842051190800,10.249190673828124,1.0073203087612985,0.1836404111266136,-0.6806102740883827
1687271842061206800,10.259206787109376,0.9722884506076573,0.11258008499741554,-0.4499316329330206
1687271842071223800,10.269223876953125,0.7358069683924316,-0.017557284000515937,-0.18273264863193034
1687271842081240600,10.279240478515625,0.19626462263911962,-0.21576631870567797,0.061687225367128846
1687271842091257900,10.2892578125,-0.21282266646921633,-0.17530688254535198,0.13817688306868076
1687271842101273300,10.2992734375,-0.3579658814191818,0.05627776753902435,0.175541860345006
1687271842111290400,10.309290283203126,-0.40830636786371466,0.05889584108293056,0.15791151110827922
1687271842121307400,10.319307373046875,-0.3434568790733814,0.00675298139154911,-0.15792583189457654
1687271842131323400,10.329323486328125,-0.06064531509876251,-0.09593407062292099,-0.3727656834051013
1687271842141340200,10.339340087890625,0.14058745134174824,-0.013097381982207298,-0.15240238316482863
1687271842151357400,10.349357421875,-0.008196165937185288,0.2874292869031429,0.21202362504601477
1687271842161373400,10.35937353515625,-0.14433306761085987,0.31432430809140205,0.38168811779022216
1687271842171390200,10.36939013671875,-0.017296294976770876,-0.018828034588694573,0.268894682303071
1687271842181407500,10.379407470703125,0.07079524545222521,-0.21597616206407547,0.17087388680027796
1687271842191424300,10.38942431640625,0.025936405289173126,0.0337801045268774,0.12317775911837815
1687271842201440300,10.399440185546876,-0.06581921060532331,0.08236264138817787,0.15127252975152805
1687271842211457300,10.409457275390626,-0.09458587088435888,-0.025481647258996962,0.02581951917754486
1687271842221474300,10.419474365234375,-0.005787643490731716,-0.004292728757858276,-0.23284807588262482
1687271842231490300,10.429490234375,0.9247568841040134,-0.17862462879121302,-0.5189250896602868
1687271842241507300,10.43950732421875,2.4193863702952862,-0.32054829717278477,-0.6195818048909306
1687271842251524400,10.4495244140625,2.868731143251061,-0.06512392181754112,-0.5635279092356562
1687271842261541400,10.459541259765626,2.4170438988223673,0.2873193967878818,-0.31513065603822465
1687271842271557400,10.469557373046875,0.8794692971348762,0.33208734379708765,-0.7883356125310063
1687271842281574100,10.47957421875,0.12230360663235187,-0.26000468888282774,-0.6032704292982817
1687271842291591400,10.48959130859375,-0.2364329668983817,-0.78509297734797,-0.22821986809270456
1687271842301607400,10.499607421875,-0.450917429099977,-0.5920633911073208,0.23342562004225328
1687271842311624200,10.509624267578126,-0.2521343938991427,0.08712064957022667,-0.011746862422395497
1687271842321641500,10.519641357421875,0.34862492936104533,0.37625381778180594,-0.23447540308982132
1687271842331657500,10.529657470703125,0.8483560737296938,0.2184223861724138,-0.3054068421423435
1687271842341674200,10.53967431640625,1.278383567275107,-0.22578151676356792,-0.2844081855162978
1687271842351691500,10.54969140625,1.414744925354421,-0.5555898097127676,-0.18567396278083323
1687271842361708300,10.559708251953126,1.3159662789553404,-0.3353296867191791,-0.035035365284979345
1687271842371724300,10.569724365234375,1.099010750465095,0.18993921900987623,0.012705752316117286
1687271842381741300,10.5797412109375,0.8347820141464471,0.4065682920247316,0.21276070714890954
1687271842391758300,10.58975830078125,0.41131987046599383,0.28404256707429887,0.38581688815802334
1687271842401774300,10.5997744140625,-0.05445990446209907,0.11877192537486553,0.29412147801816463
1687271842411791400,10.609791259765625,-0.4737848022073507,0.023969489130377768,0.11411854661107063
1687271842421808400,10.619808349609375,-0.5947562834531068,0.09970774394273757,-0.14036211815327404
1687271842431825400,10.629825439453125,-0.4914543144106865,-0.07714753708839416,-0.25514672745764255
1687271842441841400,10.63984130859375,-0.6267275849923492,-0.23184008615016935,-0.1766612197637558
1687271842451858200,10.649858154296876,-0.7680500726103782,-0.08485738081336021,-0.020182682334352282
1687271842461875500,10.65987548828125,-0.6691553986161947,0.08031973738372325,-0.14035714971721172
1687271842471891500,10.669891357421875,-0.738831576910615,-0.4238227936863899,-0.2010888279251754
1687271842481908200,10.679908203125,-0.8692688056379556,-0.3630547289907932,-0.09431216850951313
1687271842491925500,10.689925537109374,-0.6998550727844238,0.20105974796116352,0.13256634971052408
1687271842501941500,10.69994140625,-0.49988516588658094,0.48247430461943147,0.29100376612273976
1687271842511958300,10.709958251953125,-0.5404641367733478,0.3382891210466623,0.39409547168165443
1687271842521975300,10.719975341796875,-0.6290972367331386,0.14152268636524676,0.3131745535343885
1687271842531992300,10.729992431640625,-0.5227215593338013,-0.041672319081425664,0.25092706393599506
1687271842542008300,10.74000830078125,-0.3828501473069191,-0.1742600038409233,-0.011628040082007646
1687271842552025300,10.750025390625,-0.1762050004288554,-0.2110071414798498,-0.26167704254183916
1687271842562042400,10.76004248046875,-0.0036018238842487334,-0.1824520781248808,-0.41377983083873987
1687271842572058400,10.770058349609375,0.08510755618214606,-0.16596154657304285,-0.5161601184589788
1687271842582075400,10.780075439453125,0.16931056474000214,-0.16601006188988685,-0.5646883678497746
1687271842592092200,10.790092041015624,0.17907295708060264,-0.07040507709085941,-0.5097578867338598
1687271842602109400,10.800109375,0.1313601887911558,0.11973755553662777,-0.3889928878456354
1687271842612125400,10.81012548828125,0.22040683798789976,0.3123801882863045,-0.05637976660877466
1687271842622142200,10.82014208984375,0.5222130252897739,0.37218963708281516,0.30810199951045214
1687271842632159500,10.830159423828125,0.7976450004070996,0.38750761772394177,0.2100625541061163
1687271842642175500,10.840175537109374,1.0766332067012787,0.1980880386739969,0.009814560919255018
1687271842652192300,10.850192138671876,1.1719541138619183,-0.12947159856557847,-0.0007147241406142711
1687271842662209300,10.860209228515625,0.976343571217358,-0.3417798857718706,0.21817608326114712
1687271842672226300,10.870226318359375,0.7463359611913561,-0.34978958922624587,0.5006847187664359
1687271842682242300,10.8802421875,0.6738175452083349,-0.14435001874566078,0.2413137977425009
1687271842692259300,10.89025927734375,1.0674059441506862,-0.04233224429488182,0.0011098609380424023
1687271842702276400,10.9002763671875,1.0715069497287273,-0.04905483054816723,0.2706677563901991
1687271842712292400,10.910292236328125,0.5266027846813202,-0.028044775745272636,0.6758361915543675
1687271842722309400,10.920309326171875,-0.004254150313138962,-0.05950315932631492,0.7274000823140144
1687271842732326100,10.930326171875,-0.2785696886211633,-0.1794447130024433,0.6065422905758023
1687271842742343400,10.940343505859374,-0.4853934069365263,-0.21484861933887003,0.3781295485258102
1687271842752359400,10.950359375,-0.6480453905701636,-0.16980068634450435,0.2774504022676498
1687271842762376200,10.960376220703125,-0.7836959700316191,-0.10140344194471836,0.28167916241120544
1687271842772393500,10.9703935546875,-0.7739496520429849,-0.04103285213410854,0.31207254710923876
1687271842782409500,10.980409423828124,-0.5213122770577668,0.08097966259717941,0.20231204957719892
1687271842792426200,10.99042626953125,-0.16357143656611442,0.07364800453484058,0.20050500015523284
1687271842802443300,11.000443359375,-0.20761457643210887,-0.07053542547225952,0.2970279400493949
1687271842812459500,11.01045947265625,-0.5418453619986773,-0.10526011737287044,0.28229133949279783
1687271842822476300,11.020476318359375,-0.6629968759864568,-0.08401566929221153,0.21479265136793255
1687271842832493300,11.030493408203125,-0.7230728667646646,-0.0900602101534605,-0.04625076944548637
1687271842842510300,11.04051025390625,-0.672099635374546,-0.0603144757091999,-0.3463517237320542
1687271842852526300,11.0505263671875,-0.5224269603013992,0.01401098969578743,-0.49055853461474175
1687271842862543400,11.06054345703125,-0.2614876209169626,0.04820493572056293,-0.5082178542176261
1687271842872560400,11.070560302734375,-0.016977438285946844,0.06912731224000454,-0.46759413087368007
1687271842882576400,11.080576416015624,0.1524614290088415,0.07855272771120071,-0.43531745317969467
1687271842892593400,11.090593505859376,0.18945581940710543,0.1261795712828636,-0.39249095909446474
1687271842902610200,11.100610107421875,0.16273440122008323,0.197875272706151,-0.3604971534624696
1687271842912627500,11.11062744140625,0.08200900564491748,0.25707798778116703,-0.34630993041694164
1687271842922643500,11.1206435546875,-0.014268179327249527,0.2362117253631353,-0.36043621705546974
1687271842932660200,11.13066015625,-0.10521101753413677,0.07547814257144927,-0.3048423401273787
1687271842942677200,11.14067724609375,-0.16612229009270668,-0.0738297908425331,-0.17533669316172598
1687271842952693500,11.150693603515625,-0.2151110696673393,-0.13764905980229378,0.018922727134823798
1687271842962710300,11.160710205078125,-0.2377764904618263,-0.13593290353417395,0.204593913436681
1687271842972727300,11.170727294921875,-0.25109949789345265,-0.11097615693211554,0.3077783570466563
1687271842982744600,11.18074462890625,-0.2650257319152355,-0.08864274457097053,0.30377555114608257
1687271842992760300,11.19076025390625,-0.2505044546097517,-0.05091244111359119,0.2225404524831101
1687271843002777300,11.20077734375,-0.21357377709746359,-0.040566403666138645,0.08867573352511972
1687271843012794400,11.21079443359375,-0.1446802736133337,-0.015424948146939278,-0.04835150458440184
1687271843022810400,11.220810302734375,-0.03472527642250061,-0.026921909195184706,-0.1560663216330111
1687271843032827400,11.230827392578124,0.07832710226178169,-0.06308920111954212,-0.27344960566107185
1687271843042844400,11.240844482421876,0.1704050819784403,-0.028453356546163558,-0.31977354994062335
1687271843052861400,11.250861328125,0.24300562328696249,0.03888999488651752,-0.3263737884558737
1687271843062877400,11.26087744140625,0.24907529858946797,0.058795887839794156,-0.32228228135854003
1687271843072894200,11.270894287109375,0.19560615873038767,0.030038579910993575,-0.28925884041786193
1687271843082911200,11.2809111328125,0.1293295597463846,0.005787351229786872,-0.21377879815027118
1687271843092927500,11.290927490234376,0.019919921478629112,0.0018248773396015165,-0.10924279380086808
1687271843102944500,11.300944580078125,-0.10912906776070594,0.013555062621831893,-0.009208703980594873
1687271843112961800,11.3109619140625,-0.24039748661518096,0.011230419066548347,0.10350172939822078
1687271843122978600,11.320978515625,-0.35241175442337985,0.027086159846186637,0.20989669601991773
1687271843132994600,11.33099462890625,-0.4157628213495016,0.015461773025989532,0.2881688166914508
1687271843143011800,11.34101171875,-0.4164256691724062,-0.05278700281381607,0.3162996632849797
1687271843153028600,11.351028564453125,-0.3420855907201767,-0.09273907397389411,0.31959085031747814
1687271843163044600,11.361044677734375,-0.26856910361051556,-0.07855915745198726,0.302323927565664
1687271843173061600,11.3710615234375,-0.169898301500082,-0.06559446193873882,0.26731197968889026
1687271843183078700,11.38107861328125,-0.04398351863324642,-0.0512169770181179,0.23026140212398022
1687271843193095700,11.391095703125,0.03556114272475242,-0.04344166684150696,0.20206702530756593
1687271843203111700,11.401111572265625,0.0934364085882902,-0.07214461423456668,0.18282043651323765
1687271843213128700,11.411128662109375,0.12051672321557998,-0.09268646700382233,0.13482768223863095
1687271843223145700,11.421145751953125,0.11330255405306816,-0.09052548957765102,0.05716068785339594
1687271843233161700,11.43116162109375,0.11748247008621691,-0.08445113810002804,-0.015377346145547926
1687271843243178500,11.441178466796876,0.1341010119318962,-0.08372223930358887,-0.0825964501440525
1687271843253195800,11.45119580078125,0.15076456196308136,-0.05181728099882602,-0.16432167041152715
1687271843263212800,11.461212890625,0.16776245851516722,0.009051905983686447,-0.23652532135695217
1687271843273228500,11.471228515625,0.15597732817530632,0.039022681355476374,-0.28528551634009924
1687271843283245800,11.481245849609374,0.11237082616090774,0.03936111952960491,-0.3133234604857862
1687271843293262800,11.491262939453126,0.02556932554244995,0.04557634078264236,-0.3232826905727386
1687271843303278600,11.501278564453125,-0.07966916452050209,0.043833296507596965,-0.330596520717442
1687271843313295600,11.511295654296875,-0.1362321787416935,0.03325988004505634,-0.320474209023267
1687271843323312600,11.521312744140625,-0.14663082315921783,0.027346856608986853,-0.28047143058925866
1687271843333329700,11.53132958984375,-0.10812836628556251,0.020512626674771307,-0.18578297611325978
1687271843343345700,11.541345703125,-0.05834054528772831,0.0031073183655738828,-0.06532810262013226
1687271843353362700,11.55136279296875,-0.034864392632246013,-0.02946984011232853,0.051817975118570024
1687271843363379700,11.561379638671875,-0.058068742609024046,-0.08005611801147461,0.13309899528250096
1687271843373395700,11.571395751953125,-0.07638532054424285,-0.12508300821781157,0.11936799157187342
1687271843383412500,11.58141259765625,-0.023430559948086738,-0.13678162931799887,0.037350181565992534
1687271843393429800,11.5914296875,0.11179390305578708,-0.1130564703375101,-0.08228785911891609
1687271843403446800,11.60144677734375,0.26690029361546036,-0.08642039234638213,-0.1756906211659312
1687271843413462500,11.611462646484375,0.3904308116942644,-0.08184533951580523,-0.22610369792263954
1687271843423479800,11.621479736328125,0.4711795881450176,-0.08732289414405822,-0.2620253810554743
1687271843433496800,11.631496826171874,0.48915012912154193,-0.07798340339064598,-0.2758534519324079
1687271843443513600,11.641513671875,0.4740215335726738,-0.038218379235267635,-0.2821405328452587
1687271843453529600,11.651529541015625,0.3794154966831207,0.032064532780647276,-0.2748411696173251
1687271843463547000,11.661546875,0.27676585406959053,0.09805003986358642,-0.2321259538868442
1687271843473563600,11.671563720703125,0.10060323147773742,0.12056582305431365,-0.13810191813632844
1687271843483579600,11.68157958984375,-0.1382405959546566,0.11946633737981319,-0.011772891912795602
1687271843493596700,11.6915966796875,-0.3493693179875612,0.11439794807434081,0.15732110746707767
1687271843503613700,11.70161376953125,-0.5310720390498638,0.06475742659270763,0.30170754923298954
1687271843513629700,11.711629638671875,-0.6468927134037017,-0.032573066824674604,0.4133101675003767
1687271843523646700,11.721646728515625,-0.6959580653458833,-0.12405132708251476,0.5049977596599609
1687271843533663700,11.731663818359374,-0.655167205274105,-0.14688859731256962,0.5582106597356498
1687271843543680800,11.7416806640625,-0.5631289730459451,-0.13894552935361862,0.5515263231335208
1687271843553696500,11.751696533203125,-0.3943447702676058,-0.12768237706124783,0.4731146113282069
1687271843563713800,11.7617138671875,-0.19160744448304176,-0.12087795774340629,0.3636338440530002
1687271843573730800,11.771730712890625,0.04508358882963657,-0.1351601655960083,0.22527999698221682
1687271843583746600,11.78174658203125,0.2316863568931818,-0.10067863480150699,0.0863520032852888
1687271843593763600,11.791763671875,0.3872662101835012,-0.0490080687969923,-0.05355217850003391
1687271843603780900,11.80178076171875,0.46288171539902684,0.007876432463526725,-0.17788813121020794
1687271843613797600,11.811797607421875,0.4092003940939903,0.06290449220240116,-0.2699903685852885
1687271843623813600,11.821813720703124,0.29419337421059605,0.0966086088836193,-0.2783012469433248
1687271843633831000,11.831830810546874,0.10278349812626839,0.09219254600703716,-0.23825682132467627
1687271843643847700,11.84184765625,-0.1020510921984911,0.054452890199422836,-0.16081746168285607
1687271843653863700,11.85186376953125,-0.2710626739919185,0.01567746160328388,-0.07721289394218474
1687271843663880700,11.861880615234375,-0.41266660889983175,-0.03596504735052585,0.027100919023901222
1687271843673897700,11.871897705078124,-0.4798936404764652,-0.07544482482373714,0.1289998894006014
1687271843683914800,11.881914794921874,-0.4973153153985738,-0.07627835303843021,0.20619970466550439
1687271843693930800,11.8919306640625,-0.44145314292311666,-0.06649404112696647,0.20273235734850167
1687271843703947800,11.90194775390625,-0.3231505886256695,-0.04910919108390808,0.12808788912221789
1687271843713964800,11.91196484375,-0.1565308704048395,-0.07019406468868256,0.017236198819987475
1687271843723980500,11.92198046875,0.055686815908551214,-0.08157762849032879,-0.10615472812503576
1687271843733997600,11.93199755859375,0.294984232327342,-0.06783668790757656,-0.21442341619674116
1687271843744014800,11.942014892578126,0.5248468809247017,-0.011151508611440658,-0.2833632065080106
1687271843754031600,11.952031494140625,0.672765405806899,0.024171733704209327,-0.32425171826798466
1687271843764047600,11.962047607421875,0.7101584401339293,0.022807459613680837,-0.31593002625498917
1687271843774065000,11.97206494140625,0.6119231068313121,-0.007253332129120826,-0.2926443912029266
1687271843784081700,11.98208154296875,0.4050403518050909,-0.037328152397274966,-0.24373119761515408
1687271843794097700,11.99209765625,0.18856091639399528,-0.035436055040359495,-0.1635794737420976
1687271843804115000,12.002114990234375,0.019236615389585494,-0.03721183254122734,-0.10595540616065263
1687271843814131700,12.012131591796875,-0.12718845606446266,-0.0604495002657175,-0.066012833481282
1687271843824147700,12.022147705078124,-0.22553251043856143,-0.08485854985713959,-0.04728475213572383
1687271843834164700,12.032164794921876,-0.2702180398613214,-0.08270926286876201,-0.03847016203925013
1687271843844181800,12.042181640625,-0.25141104806065556,-0.054471010378003115,-0.05288827123120427
1687271843854198800,12.05219873046875,-0.1974099932819605,-0.02128945626616478,-0.0565339707897976
1687271843864214800,12.06221484375,-0.11435352441072463,-0.002257423537969589,-0.04845233461037278
1687271843874231800,12.072231689453124,-0.040700259178876874,0.003701777127385139,-0.01731865293905139
1687271843884248800,12.082248779296876,0.017176175728440282,0.006461889490485191,0.006401099213957786
1687271843894264600,12.0922646484375,0.03785656018555164,0.022549685460329056,0.03242532891705632
1687271843904281600,12.102281494140625,-0.005292261189222335,0.04738894316256046,0.04732285565640777
1687271843914299000,12.112298828125,-0.12569967881143093,0.02605214062333107,0.036035664901323615
1687271843924315600,12.122315673828124,-0.24483517680168151,-0.025734160715341566,0.008255494908988475
1687271843934331600,12.13233154296875,-0.2840186016768217,-0.06598433803915978,-0.01503949249330908
1687271843944349000,12.142348876953125,-0.1985726073205471,-0.05894026474654674,-0.032444143215380604
1687271843954365700,12.15236572265625,-0.02306055759191513,-0.048644496181607245,-0.04522971930205822
1687271843964381700,12.162381591796875,0.13486965821683405,-0.017116554495692254,-0.054103492239862674
1687271843974398700,12.172398681640624,0.2298164713680744,0.039976621079444885,-0.035963732176274056
1687271843984415700,12.182415771484376,0.19260580787062645,0.09176993668079375,0.013958528856188058
1687271843994431700,12.192431640625,0.018266309052705765,0.08980360504388808,0.0786086956821382
1687271844004448800,12.20244873046875,-0.22089432924389837,0.03713409112989902,0.1443596633568406
1687271844014465800,12.2124658203125,-0.41039164970517156,-0.05551672003865242,0.25352672504037616
1687271844024482800,12.22248291015625,-0.47546939429342744,-0.14874737692177295,0.3456679427189752
1687271844034498800,12.232498779296876,-0.4140016568958759,-0.19938976892232893,0.36032150463461876
1687271844044515600,12.242515625,-0.2514519645929336,-0.1961678842663765,0.32401246615201235
1687271844054532900,12.252532958984375,-0.05356324788331985,-0.1481184313684702,0.18103198219388722
1687271844064548600,12.262548583984374,0.1469149007976055,-0.0789496180742979,-0.005868855500780046
1687271844074565600,12.272565673828124,0.29893735386729237,0.02487842066884041,-0.18068243810385465
1687271844084583000,12.2825830078125,0.3662567399024963,0.13978373374342917,-0.29377997110411525
1687271844094599700,12.292599609375,0.33609307230710983,0.1973608934432268,-0.35718360846769065
1687271844104616000,12.302615966796875,0.19858722036778925,0.17203122187554834,-0.36612277479190375
1687271844114633000,12.312633056640625,0.01971300072968006,0.13014204517304898,-0.34023093929681925
1687271844124649700,12.322649658203124,-0.19290508307814597,0.06428162577450275,-0.28639862868115307
1687271844134666000,12.332666015625,-0.3673404434859752,0.00331657720208168,-0.23145386331155895
1687271844144683000,12.34268310546875,-0.4435398860692978,-0.019862638333439826,-0.18038389354869722
1687271844154699800,12.35269970703125,-0.3977314900964498,-0.04330722680687904,-0.12853172389958054
1687271844164717000,12.362717041015625,-0.26032676044404507,-0.07113923658430577,-0.10730725916102528
1687271844174732800,12.37273291015625,-0.08102993147969245,-0.05249065021574497,-0.12924893225822598
1687271844184749800,12.382749755859376,0.10846037471890449,-0.015805471897125244,-0.14181275535300372
1687271844194766800,12.392766845703125,0.2628635854452848,0.0037906244546175,-0.12813099761158228
1687271844204782800,12.402782958984375,0.3733738784313202,-0.016346154645085334,-0.09129545103684067
1687271844214800000,12.4127998046875,0.450423215842247,-0.07668459575176238,-0.06682619569078087
1687271844224817000,12.42281689453125,0.46060734072625636,-0.11996668811738491,-0.03936743967253715
1687271844234832600,12.43283251953125,0.4202852672100067,-0.12782675396800042,-0.029451866064220664
1687271844244850000,12.442849853515625,0.3412520625054836,-0.10712474220097064,-0.024333354006707667
1687271844254867000,12.452866943359375,0.2132955446779728,-0.08257248474657534,-0.04220189591348171
1687271844264883700,12.4628837890625,0.08888415211141108,-0.06665712273418903,-0.05749634954854846
1687271844274900000,12.47289990234375,-0.026347324177622793,-0.023670798444747922,-0.0710895887563005
1687271844284917000,12.4829169921875,-0.13348551038205622,0.06210428173542022,-0.07880746965724975
1687271844294933800,12.492933837890625,-0.25999182940125465,0.07855857293009758,-0.09228928437978029
