time,seconds_elapsed,z,y,x
1686445630006894800,0.133894775390625,0.0006704466074705124,-0.04111819233000278,0.003850830209255218
1686445630016912000,0.143911865234375,0.005200491252541542,-0.061520052106678484,0.0012257424026727675
1686445630026929000,0.153928955078125,0.015887304961681364,-0.054149231077730654,-0.012900398105382918
1686445630036946000,0.16394580078125,0.02488134327828884,-0.05846039054142311,-0.008098550781607627
1686445630046962700,0.173962646484375,0.018404256218671797,-0.044762120056618004,-0.0029249475359916684
1686445630056980000,0.18397998046875,0.008343465453386305,-0.03626432255804538,0.006506313154101371
1686445630066996700,0.193996826171875,0.006051555123925209,-0.027831717516481874,0.014989479339122772
1686445630077013800,0.204013671875,0.01386018304824829,-0.031442893750965595,0.02154430781006813
1686445630087030800,0.21403076171875,0.028527006304264066,-0.05714081410914659,0.025967384949326513
1686445630097047800,0.2240478515625,0.022960604348778724,-0.12312896980689837,0.022808628657460212
1686445630107064800,0.23406494140625,0.02022328833937645,-0.17365913360463453,-0.03844926538169384
1686445630117081900,0.244081787109375,0.021286533656716344,-0.1541191513543017,-0.12997662547826766
1686445630127099000,0.254098876953125,-0.013302549165487289,-0.10053191980719565,-0.16899930683374403
1686445630137115000,0.264114990234375,-0.05816051254570484,-0.03035482451962307,-0.16017594890892506
1686445630147132000,0.2741318359375,-0.0772591807693243,-0.00762627536104992,-0.11631634891629218
1686445630157149000,0.28414892578125,-0.05439969870746136,0.024249164588283745,-0.043889410609006876
1686445630167165700,0.294165771484375,0.002267360410094261,0.0578875408232212,0.04041208988726139
1686445630177183000,0.304182861328125,0.04603109881281853,0.010697335103154182,0.14737784213423727
1686445630187199700,0.31419970703125,0.04279401658773422,-0.0020586860954761505,0.11776830129027366
1686445630197216800,0.324216796875,0.02676759541630745,-0.04039630779623985,0.048451603958010674
1686445630207233800,0.33423388671875,0.015429039800167082,-0.10219985301941632,-0.0169575645416975
1686445630217250800,0.344250732421875,-0.03037818712890148,-0.08891178903700783,-0.04315115946233272
1686445630227267800,0.354267822265625,-0.0930056159555912,-0.015355262177903204,0.010753449204564093
1686445630237284900,0.364284912109375,-0.11650047331154345,0.016412333482783287,0.022909166422486305
1686445630247302000,0.374302001953125,-0.06185819801986217,-0.014150690427422523,-0.01050093574821949
1686445630257318700,0.384318603515625,-0.03213525992929935,-0.0336879144650884,-0.022236381727457045
1686445630267336000,0.3943359375,-0.001740121665596962,-0.01296778251947835,-0.005534837773442268
1686445630277352000,0.40435205078125,0.03441840243041515,-0.001735591620951891,0.00355447761118412
1686445630287368700,0.41436865234375,0.05626724614500999,-0.01322802262455225,-0.007696984243392944
1686445630297386000,0.424385986328125,0.0501671757042408,-0.03193856831341982,-0.00888531724512577
1686445630307402800,0.43440283203125,0.05313479333817959,-0.035006139190495014,-0.009751578685641289
1686445630317419800,0.444419677734375,0.02945756515264511,-0.046716304598003626,-0.0018465046495199202
1686445630327436800,0.454436767578125,0.019945055919885633,-0.05518018156066536,-0.01338613579571247
1686445630337453800,0.464453857421875,-0.005917699611186981,-0.0784294118587859,-0.011695113968849181
1686445630347470800,0.474470947265625,-0.03497662083506584,-0.10118176201805472,-0.025662264522910115
1686445630357487900,0.48448779296875,-0.04136719865500927,-0.1104870582409203,-0.056146834635734555
1686445630367505000,0.4945048828125,-0.04886778354346752,-0.10006837568236514,-0.07651917605698108
1686445630377521700,0.504521728515625,-0.047504093974828715,-0.08868017223821953,-0.09852993233501911
1686445630387539000,0.5145390625,-0.017028876212239266,-0.06746319668637588,-0.10512801542580127
1686445630397555700,0.5245556640625,0.006121113228797912,-0.04917290396988391,-0.08892448412179946
1686445630407572700,0.53457275390625,-0.001132218900322914,-0.05217619570540264,-0.09632745385468006
1686445630417590000,0.544590087890625,0.008735095119476318,-0.05743804349005222,-0.07948211751580238
1686445630427605800,0.554605712890625,0.008289104917645455,-0.06787221587868407,-0.0630681583315134
1686445630437622800,0.564622802734375,-0.010039163455367088,-0.07279458430958911,-0.06655249331593513
1686445630447639800,0.574639892578125,-0.01168166996538639,-0.0528061459057033,-0.057469023150205606
1686445630457656800,0.58465673828125,-0.009699556237459182,-0.04760523452805355,-0.0534001662760973
1686445630467673900,0.594673828125,-0.011859364619851112,-0.04897153617888689,-0.045211599123477934
1686445630477691000,0.60469091796875,-0.004416647398471832,-0.04558423182815313,-0.03251519915759563
1686445630487708000,0.6147080078125,0.007659574842453002,-0.03915960560813546,-0.011847089660167693
1686445630497724700,0.624724609375,0.005576338827610015,-0.03639014089480042,-0.006795066967606544
1686445630507742000,0.634741943359375,0.010909516549110413,-0.03129515584334731,0.01433773743212223
1686445630517758700,0.6447587890625,0.018254034093022346,-0.011790409303177148,0.023892916762828825
1686445630527775700,0.654775634765625,0.00041501054167747495,-0.001985474728792906,0.0373661463201046
1686445630537793000,0.66479296875,-0.0006119944185018539,0.002681622033100575,0.05805588312745094
1686445630547809800,0.674809814453125,0.004143091154098511,0.0135733289308846,0.058463879406452174
1686445630557826800,0.684826904296875,0.0008475567400455475,-0.004184025952685624,0.06667991908788681
1686445630567843800,0.69484375,-0.02348842761516571,-0.013645078992843626,0.059921676999330514
1686445630577859800,0.70485986328125,-0.030516134294867513,-0.028920827927440402,0.05472820000946521
1686445630587876900,0.714876953125,-0.030113983234763143,-0.043283425806183363,0.025088848549127577
1686445630597893600,0.7248935546875,-0.03802314892411232,-0.05192441290142014,0.009939210212230681
1686445630607911000,0.734910888671875,-0.023384967240691185,-0.05731005146251991,0.02521978145241737
1686445630617927700,0.744927734375,-0.001152092644572258,-0.028003731348831204,0.024306173738837242
1686445630627944700,0.75494482421875,0.03075286566019058,-0.010164835661649703,0.028009119910001753
1686445630637962000,0.7649619140625,0.026234511452913282,0.024779636469483373,0.016065584138035775
1686445630647978800,0.774978759765625,0.04057341792881489,0.05859435565201565,0.012004326048493384
1686445630657995800,0.784995849609375,0.04390051652491092,0.030827227804344146,0.012613982379436492
1686445630668012800,0.7950126953125,0.018738602739572525,-0.04903437228202819,-0.015009937605261802
1686445630678029800,0.80502978515625,0.013099135547876357,-0.1002567561276257,-0.054168228039145463
1686445630688046800,0.815046875,-0.013946107766032218,-0.10588146414160728,-0.08207622566223144
1686445630698064000,0.82506396484375,-0.03204758164584637,-0.08191825862154364,-0.10642390045523643
1686445630708081000,0.835080810546875,0.0018026655077934264,-0.07668357283845544,-0.1068570311754942
1686445630718098000,0.845097900390625,0.022087328645586966,-0.08582828993843868,-0.0825876823157072
1686445630728114000,0.855114013671875,0.010576923593878745,-0.07292643052833155,-0.02692074015140533
1686445630738130700,0.865130615234375,0.0017605799317359924,-0.05893673934889957,0.035461189481616015
1686445630748147700,0.875147705078125,-0.004729366609454154,-0.0551196835450828,0.04959025259912014
1686445630758165000,0.8851650390625,-0.011689268749952316,-0.039991087996214626,0.05966331832408905
1686445630768181800,0.895181640625,-0.016895605221390723,-0.011376969664078205,0.046102410483360286
1686445630778198800,0.90519873046875,-0.016741291442513465,0.015071440267842262,0.02571779410243034
1686445630788215800,0.9152158203125,-0.02006020673215389,0.02487871292978525,-0.001233341187238693
1686445630798232800,0.92523291015625,-0.018149404674768447,0.005471563278883695,-0.009093407037854193
1686445630808249600,0.93524951171875,-0.019490297889709473,-0.0018164017722010612,-0.016625556108355522
1686445630818266000,0.94526611328125,-0.035979075875878334,0.004082136480789631,-0.019262334352731704
1686445630828283100,0.955283203125,-0.03318155411183834,-0.01631296476153657,-0.02292027233839035
1686445630838300000,0.9652998046875,-0.005188216292858124,-0.0891853270150721,-0.030848142728209495
1686445630848317200,0.975317138671875,0.007879355072975158,-0.15469240293130276,-0.04676584282815456
1686445630858334000,0.985333984375,0.0017588263660669326,-0.14131490709977224,-0.07334872932732105
1686445630868351000,0.99535107421875,-0.011391747108101844,-0.09304055940480903,-0.10140051933526992
1686445630878367200,1.0053671875,-0.025867431706190106,-0.07636793101802468,-0.1231429800659418
1686445630888384000,1.015384033203125,-0.030628947019577024,-0.07731049083145335,-0.1293389120966196
1686445630898401000,1.025401123046875,-0.03882628200054168,-0.0703347883336246,-0.10761749415397644
1686445630908418300,1.035418212890625,-0.03458557569086552,-0.07188203604193404,-0.08221475735008717
1686445630918435000,1.04543505859375,0.0047404725253582,-0.06299070918112992,-0.05048340204656124
1686445630928452000,1.0554521484375,0.01252864218354225,-0.03922624110355973,-0.004099836534261703
1686445630938469000,1.06546923828125,0.025116321077942847,-0.016008611520100385,0.03723345985114574
1686445630948486100,1.075486083984375,0.009229600638151168,-0.012120353643596172,0.042702246651053426
1686445630958503000,1.0855029296875,-0.02358253563940525,-0.008842227022070437,0.045266544181108474
1686445630968520200,1.095520263671875,-0.06376373938024044,-0.014226221615355462,0.046999651584029196
1686445630978537000,1.105536865234375,-0.06706862614452838,-0.033631946494150904,0.02016658971607685
1686445630988554000,1.115553955078125,-0.06020926176905632,-0.04841156420856714,0.00701660076379776
1686445630998571300,1.1255712890625,-0.04486497764289379,-0.044983781716972586,0.018856676161289214
1686445631008588000,1.135588134765625,-0.019039046990871427,-0.05770078607946634,0.016572949138283728
1686445631018605000,1.14560498046875,0.007896890729665755,-0.04413388688936829,0.009288052827119827
1686445631028621000,1.15562109375,0.039810616862773894,-0.028370062176883218,0.021885668593645095
1686445631038638000,1.16563818359375,0.06419979270994663,-0.017765392059553412,0.013664368215203284
1686445631048655000,1.175655029296875,0.07837327949106693,-0.01637421169579029,-0.0009434183299541472
1686445631058671900,1.185671875,0.07841594958901404,-0.010911580642033368,-0.007591185781359672
1686445631068689200,1.195689208984375,0.06465571978390217,0.0018695749978534877,-0.013897007927298545
1686445631078706000,1.205705810546875,0.04657178156077862,-0.0015701901924796403,-0.008122516179084778
1686445631088723200,1.21572314453125,0.013766659545898436,-0.007659593108762055,-0.0048287353307008745
1686445631098740200,1.225740234375,-0.005745850175619125,-0.027999475298821925,0.0008352817803621292
1686445631108757000,1.235757080078125,-0.012781155639886856,-0.039022681355476374,0.012003741526603698
1686445631118774300,1.245774169921875,-0.016593991926312446,-0.06431494352221488,0.00969488006234169
1686445631128791000,1.255791015625,-0.014675591084361075,-0.05976210252344608,-0.013746201279759406
1686445631138808000,1.26580810546875,-0.0031792145580053326,-0.03979571155458689,-0.029102175843715668
1686445631148825000,1.2758251953125,0.000751110628247261,-0.0396510241205804,-0.04425181418061256
1686445631158842000,1.285842041015625,-0.006775777745246887,-0.024901509283483027,-0.0654343029409647
1686445631168859000,1.29585888671875,-0.0015238485664129256,-0.02041766013400629,-0.03709785077273845
1686445631178875000,1.305875,0.0002922609448432922,-0.038407472066581246,-0.023083353945612905
1686445631188892200,1.31589208984375,0.007464344531297683,-0.06613662425773217,-0.021270167043805122
1686445631198909000,1.325908935546875,0.006112345400452614,-0.07152357799308375,-0.025046178451180456
1686445631208926000,1.335926025390625,-0.0158902275711298,-0.07612725412994623,-0.03521276767849922
1686445631218943200,1.345943115234375,-0.020164251628518103,-0.05842411365164443,-0.045532501640915865
1686445631228960000,1.3559599609375,-0.01326630880832672,-0.022248948948085306,-0.03604220423996448
1686445631238977000,1.36597705078125,-0.01824643530845642,-0.01670181794865057,-0.028370354437828062
1686445631248994000,1.375994140625,-0.02374853985607624,-0.03806728032678366,-0.011610358294844627
1686445631259011000,1.386010986328125,-0.03480301783382892,-0.04526217853324487,-0.0004857376903295517
1686445631269027800,1.39602783203125,-0.038593057766556735,-0.04404284760504961,0.003703530693054199
1686445631279045000,1.406045166015625,-0.03763268830180168,-0.026833646389842033,0.0045627778708934785
1686445631289062100,1.416062255859375,-0.02012742674946785,-0.019053075516223907,0.009655717095732689
1686445631299079200,1.4260791015625,0.00016425065100193021,-0.023013211318850518,-0.0040916532278060915
1686445631309096200,1.43609619140625,0.016367781955003737,-0.048123687177896494,-0.008576689687371254
1686445631319112000,1.44611181640625,0.0060965633094310755,-0.06304419293403625,-0.01752221268713474
1686445631329129000,1.45612890625,-0.01502396613061428,-0.07129238131940364,-0.01597381420135498
1686445631339146200,1.466146240234375,-0.02288403198122978,-0.08969459171146153,-0.011506897920370102
1686445631349163000,1.4761630859375,-0.02631342190802097,-0.09897886341260745,-0.041136897030472755
1686445631359180000,1.486179931640625,-0.04919394675791263,-0.09251843522684648,-0.03785246853232384
1686445631369197000,1.496197021484375,-0.05799743093848228,-0.06670096187591552,-0.024358196187019347
1686445631379214000,1.506214111328125,-0.04156009087860584,-0.05432692573219537,-0.013171031740307808
1686445631389230800,1.51623095703125,-0.014542904615402221,-0.05947860940694809,-0.013151157996058463
1686445631399248100,1.526248046875,-0.0004629413366317749,-0.05126812268346548,-0.010088263294100761
1686445631409265200,1.53626513671875,0.017061024916172028,-0.03413958548903465,-0.0019891279906034467
1686445631419282000,1.546281982421875,0.047155134406685825,-0.02479514456586912,-0.018175708159804342
1686445631429299200,1.55629931640625,0.07178045709729194,-0.021471827095746993,-0.03121639151871204
1686445631439316000,1.56631591796875,0.07062719540894032,-0.030497155599761752,-0.0461713840663433
1686445631449333000,1.5763330078125,0.07738251488804816,-0.04185702799856662,-0.04965747261643409
1686445631459350000,1.58635009765625,0.07038052717149257,-0.06616203269362449,-0.05462181702554226
1686445631469367000,1.596366943359375,0.06439443849921227,-0.08137216904610395,-0.05432429538369178
1686445631479383000,1.606383056640625,0.0396796839594841,-0.0745642425969243,-0.04341945500969886
1686445631489400000,1.616400146484375,0.02104980229139328,-0.054208852310478686,-0.039731706407666205
1686445631499417000,1.6264169921875,0.010492167919874191,-0.03655453767627478,-0.021690438282489774
1686445631509434000,1.63643408203125,-0.00793196204304695,-0.019943302354216576,-0.014826397731900214
1686445631519451100,1.646451171875,-0.01962766053378582,-0.010461188259720802,-0.009319032487273216
1686445631529468200,1.65646826171875,-0.02607961315214634,-0.010577508115768432,0.002374327915906906
1686445631539485000,1.66648486328125,-0.03323006942868233,-0.0018798223972320556,0.001585223364830017
1686445631549502200,1.676502197265625,-0.02548749247789383,-0.015029829615820198,-0.01097322943508625
1686445631559519000,1.68651904296875,-0.017394202393293378,-0.032279636836051936,-0.0035398645639419554
1686445631569536000,1.696535888671875,-0.02625906137228012,-0.03313625366538763,0.007152794364094734
1686445631579553000,1.706552978515625,-0.03550327505767345,-0.04272009283499792,0.009365209716558456
1686445631589570000,1.716570068359375,-0.03199146754443645,-0.05709931305497885,0.002945405802130699
1686445631599587000,1.726587158203125,-0.04291033644378185,-0.06244036355568096,0.01808218465745449
1686445631609604000,1.73660400390625,-0.06938041021823883,-0.04116380330370739,0.01900631376504898
1686445631619620000,1.7466201171875,-0.07423252642452717,-0.039270810897648334,0.0073503627628088
1686445631629637000,1.75663720703125,-0.08232230937778949,-0.04471650908291339,-0.018450433447957038
1686445631639654100,1.766654052734375,-0.06010170974135399,-0.04693038574010133,-0.016568857485055922
1686445631649671200,1.776671142578125,-0.030847558206319806,-0.033168110108375545,0.002070961055159569
1686445631659688000,1.78668798828125,-0.004176408901810646,-0.02936844383077696,0.010776245558261871
1686445631669705200,1.796705322265625,0.0008346972584724426,-0.033817221666872496,0.0022059856116771696
1686445631679722000,1.806721923828125,0.0015676877081394194,-0.04779750569714233,0.002712181568145752
1686445631689739000,1.816739013671875,-0.0017629180192947386,-0.04236059360653162,-0.020944003829360007
1686445631699756000,1.826756103515625,-0.009062427377700804,-0.06608224545568227,-0.04629939436018467
1686445631709773000,1.83677294921875,-0.0016997896552085876,-0.07929507051110267,-0.07350830380320549
1686445631719790000,1.8467900390625,0.016749474748969078,-0.07093993288623168,-0.06675123075842856
1686445631729807000,1.85680712890625,0.019839257457852363,-0.060343720069993285,-0.05556465083360672
1686445631739824000,1.86682421875,0.03877718216180801,-0.05548751221047714,-0.04229074324071407
1686445631749841000,1.8768408203125,0.0517833787292242,-0.06164338622540235,-0.02718494404554367
1686445631759858200,1.886858154296875,0.03840191910862922,-0.060466743661463256,-0.0217372000336647
1686445631769874200,1.896874267578125,0.04047463372945785,-0.05567307964414358,-0.021902619728446007
1686445631779891000,1.906890869140625,0.030418519139289855,-0.04738222116082907,-0.023617022430896757
1686445631789908200,1.916908203125,0.03316284941136837,-0.055092941668629644,-0.044271687924861906
1686445631799925000,1.926925048828125,0.036359015104174615,-0.0486246224373579,-0.0518096822142601
1686445631809942000,1.93694189453125,0.023760814815759656,-0.035410336077213285,-0.03471300146281719
1686445631819959600,1.94695947265625,0.0013894085317850112,-0.03504150276482105,-0.013159341302514076
1686445631829976600,1.9569765625,0.0004261164575815201,-0.03241467965887859,-0.0009814122527837753
1686445631839993600,1.96699365234375,-0.0011895020455121993,-0.03991787662953138,0.01695288836658001
1686445631850010600,1.9770107421875,-0.025732407149672506,-0.031630525277554986,0.015364157870411873
1686445631860027600,1.987027587890625,-0.024786066210269925,-0.02602379131168127,0.018407178828120232
1686445631870044400,1.99704443359375,-0.023981764090061187,-0.011329495526850223,0.022500585621595383
1686445631880061700,2.007061767578125,-0.04052665617763996,-0.005086217223107815,0.019217326167225837
1686445631890078500,2.017078369140625,-0.04074877449572086,-0.020214538777340203,0.01115618478655815
1686445631900095500,2.027095458984375,-0.03790390645861626,-0.04520284956144169,-0.009635258829593658
1686445631910111700,2.03711181640625,-0.038436405900120735,-0.052101961425412444,-0.02595101833641529
1686445631920128500,2.04712841796875,-0.032388357907533645,-0.054200961264967915,-0.010994856745004652
1686445631930145500,2.0571455078125,-0.01638824022114277,-0.04909253221005201,0.004614800319075584
1686445631940162600,2.06716259765625,-0.006673486414551734,-0.06290768880648538,0.00038344635963439937
1686445631950179600,2.0771796875,-0.006191840377449989,-0.060446011400688435,0.007059855383634567
1686445631960196600,2.087196533203125,0.0011906710892915725,-0.060011108848452566,0.015756956580281256
1686445631970213600,2.097213623046875,-0.027113047853112218,-0.04781038344502449,-0.0014238953232765196
1686445631980230700,2.107230712890625,-0.028584289449453352,-0.048964521916210646,-0.02181786405444145
1686445631990247400,2.117247314453125,-0.026399931147694587,-0.037217677760124204,-0.028813422030210492
1686445632000264700,2.1272646484375,-0.02488251232206821,-0.03413023313879966,-0.027433365848660466
1686445632010281500,2.137281494140625,-0.010306874480843543,-0.03748480426371097,-0.02204699663519859
1686445632020298500,2.147298583984375,-0.0027110125243663785,-0.039271979941427705,-0.02690261997282505
1686445632030315500,2.1573154296875,0.0030184710383415222,-0.028436989933252332,-0.04293079470992088
1686445632040332500,2.16733251953125,0.0032166239589452744,-0.022376374720036982,-0.040945758372545236
1686445632050349600,2.177349609375,0.018840894070267677,-0.037388668679166584,-0.04299216950833797
1686445632060365600,2.187365478515625,0.017433949881792067,-0.056822249679267404,-0.03843699042201042
1686445632070382600,2.197382568359375,0.010164251139760017,-0.07186464651571586,-0.042080315360426904
1686445632080399600,2.207399658203125,0.008494856622815131,-0.06747019268274307,-0.039455812075734134
1686445632090416600,2.217416748046875,0.013867781832814216,-0.06314913287954405,-0.039026773008704184
1686445632100433700,2.22743359375,0.012598784810304641,-0.0564522473230958,-0.018929741397500036
1686445632110450400,2.237450439453125,0.008804653224349021,-0.054485641691554336,-0.023109072908759114
1686445632120467700,2.2474677734375,0.008541618373990058,-0.05719256256269291,-0.03690905020236969
1686445632130484500,2.257484375,0.0118032505184412,-0.04893093017386272,-0.02516892804801464
1686445632140501500,2.26750146484375,0.023802315869927405,-0.034315252583194525,-0.00964519570171833
1686445632150518500,2.2775185546875,0.01836100159883499,-0.02082244154261425,-0.0005517886638641358
1686445632160535600,2.28753564453125,0.010000585010647774,-0.03008855653256178,0.011644845086336135
1686445632170552600,2.297552490234375,-0.002326397120952606,-0.02905541409254074,0.004848024553060532
1686445632180569600,2.307569580078125,-0.036438510081171986,-0.033532577772904186,0.008415361645817757
1686445632190586600,2.317586669921875,-0.04687514842152595,-0.027574235624074933,-0.009109773650765419
1686445632200602600,2.3276025390625,-0.04560205974578857,-0.020112229180336,-0.013100889113545417
1686445632210619400,2.337619384765625,-0.03104045042991638,-0.032814474365115164,-0.009734627550840378
1686445632220636700,2.34763671875,-0.021098902130126954,-0.0320046192869544,-0.01293780750632286
1686445632230653400,2.3576533203125,-0.016041034218668936,-0.0361462491363287,0.0008528174370527267
1686445632240670700,2.367670654296875,-0.0027834932386875152,-0.04455459651947021,-0.0024321955829858777
1686445632250687500,2.3776875,-0.0178857853025198,-0.05157413815902546,-0.016587562185525893
1686445632260704500,2.38770458984375,-0.02480067925751209,-0.047708694902528076,-0.028426468539237974
1686445632270721800,2.3977216796875,-0.013227145841717719,-0.041191860354412344,-0.028935002583265302
1686445632280738600,2.407738525390625,-0.000983165818452835,-0.04768765211449936,-0.025356559574604032
1686445632290755600,2.417755615234375,0.0018535189121961593,-0.054315235294401645,-0.02854337291717529
1686445632300772600,2.427772705078125,-0.0012234043151140212,-0.04155163357751444,-0.03213175279796123
1686445632310789600,2.43778955078125,0.006050386080145836,-0.03137508921176195,-0.025790859338641167
1686445632320806400,2.447806396484375,0.012693477356433868,-0.046909342952072615,-0.01917348702549934
1686445632330823700,2.45782373046875,0.017468436673283575,-0.05232639956474304,-0.015199322697520255
1686445632340840700,2.4678408203125,0.009293898046016692,-0.042695232388377184,-0.015001754298806189
1686445632350856400,2.4778564453125,0.0042120647370815275,-0.049642567308247086,-0.012438625812530517
1686445632360873500,2.48787353515625,-0.0013864859223365782,-0.051235681718587875,-0.012318798825144767
1686445632370890500,2.497890380859375,-0.0031599253356456754,-0.04358078305125236,-0.023119009780883788
1686445632380907500,2.507907470703125,-0.00781739575266838,-0.04529723158031702,-0.027873510831594464
1686445632390924500,2.517924560546875,-0.0053021980613470075,-0.040762529026437545,-0.02435936523079872
1686445632400941600,2.527941650390625,0.00018821604847908018,-0.04437777864784002,-0.020555296772718428
1686445632410958600,2.53795849609375,0.00428337640762329,-0.03944178355038166,-0.018781272837519646
1686445632420975600,2.5479755859375,0.005427870267629623,-0.04449906693994999,-0.015881459742784498
1686445632430992600,2.55799267578125,0.002155132207274437,-0.04844895534319803,-0.012972878819704055
1686445632441009400,2.568009521484375,-0.003457446977496147,-0.0470627982144244,-0.004790156885981559
1686445632451026700,2.578026611328125,-0.007348609197139739,-0.0455550057336688,-0.01286766487956047
1686445632461043700,2.588043701171875,-0.009372223979234694,-0.04068652291446924,-0.019546411991119384
1686445632471060500,2.598060546875,-0.007301847445964813,-0.033925942738354205,-0.0004068272352218628
1686445632481077800,2.608077880859375,-0.01988894181847572,-0.03349661141037941,0.007318214058876037
1686445632491094500,2.618094482421875,-0.009071195206046104,-0.02235767001956701,-0.002121229937672615
1686445632501110500,2.628110595703125,-0.011638999867439269,-0.027023616003990173,-0.010458265650272369
1686445632511127600,2.63812744140625,-0.016208792001008988,-0.027099603849649427,-0.017938976794481275
1686445632521144600,2.64814453125,-0.02573357619345188,-0.034317298409808426,-0.01929039140343666
1686445632531161600,2.65816162109375,-0.012558452799916266,-0.038361020842660215,-0.022068623945116994
1686445632541178400,2.668178466796875,-0.003964227455854416,-0.04520020094662904,-0.018777765706181525
1686445632551195600,2.678195556640625,-0.015990765336155892,-0.04938654672056436,-0.024997078612446783
1686445632561212400,2.68821240234375,-0.0189922852396965,-0.054903848837316034,-0.023403087419271468
1686445632571229400,2.6982294921875,-0.015582184535264968,-0.05297843373268842,-0.012497078001499176
1686445632581246700,2.708246826171875,-0.00518704724907875,-0.04605652551501989,-0.004518354207277297
1686445632591263500,2.718263427734375,-0.00597089110314846,-0.04313946902453899,-0.007474281403422356
1686445632601280500,2.728280517578125,0.0005687397986650467,-0.04223521366119384,-0.009383914417028426
1686445632611297500,2.738297607421875,0.00824877290725708,-0.04400865307450294,-0.015377017351984977
1686445632621314600,2.748314453125,0.0026648352950811383,-0.04718116389708593,-0.029865561431646346
1686445632631331600,2.75833154296875,0.006351999375224113,-0.034956473096180704,-0.026800913164019582
1686445632641347600,2.76834765625,-0.0047463177442550655,-0.051910512240231035,-0.025720716711878776
1686445632651364600,2.778364501953125,0.0010018705189228057,-0.05632599059492349,-0.031417467048764226
1686445632661381400,2.78838134765625,0.0035299276918172836,-0.042182022169232364,-0.023451018214225766
1686445632671398700,2.798398681640625,-0.004801847323775291,-0.02529491078155115,-0.010606734210252761
1686445632681415700,2.808415771484375,-0.006231587865948677,-0.03371027242736891,-0.004675006073713303
1686445632691432400,2.818432373046875,-0.007930208477377892,-0.03146950776325538,-0.007550853770971298
1686445632701449700,2.82844970703125,-0.0035550621330738066,-0.033760815304517744,-0.005571078130602836
1686445632711466500,2.838466552734375,0.001998480340838432,-0.0460387158636935,-0.0119862058699131
1686445632721483500,2.8484833984375,0.015613164195418357,-0.044733770744968204,-0.029535891085863113
1686445632731500500,2.85850048828125,0.00912497121989727,-0.03381519410656765,-0.02112988179028034
1686445632741517600,2.868517578125,0.015533669218420981,-0.03928514995025471,-0.029271687191724776
1686445632751534300,2.878534423828125,-0.003134206372499466,-0.04485007233470678,-0.034227848294377326
1686445632761551600,2.888551513671875,0.000405073669552803,-0.04588937052087858,-0.030307459980249404
1686445632771568600,2.898568603515625,-0.002171498820185661,-0.03367021441161632,-0.007025953114032745
1686445632781585400,2.90858544921875,-0.01208732815682888,-0.039304439172614364,0.0018885902255773544
1686445632791601700,2.9186015625,-0.02222702937722206,-0.04603637777613476,0.014296236377954482
1686445632801618700,2.92861865234375,-0.029656887117028234,-0.03945349225448444,0.003177460992336273
1686445632811635500,2.938635498046875,-0.027832594299316404,-0.0492784284372814,-0.0012713351100683212
1686445632821653000,2.948653076171875,-0.02827098571658134,-0.04786182137131691,0.0017009586989879606
1686445632831669800,2.958669677734375,-0.019529460856318473,-0.042818292512465266,-0.0044803602844476695
1686445632841686800,2.968686767578125,-0.007829086190462112,-0.04973842889815568,-0.015278233152627944
1686445632851703800,2.978703857421875,-0.0116594581335783,-0.0598006809681654,-0.020023381853103636
1686445632861720800,2.988720947265625,-0.005711947906017303,-0.048102352128922936,-0.013507131826877593
1686445632871737600,2.998737548828125,0.0014496142864227294,-0.04706774838417768,-0.02533960843980312
1686445632881755000,3.0087548828125,-0.007324059277772903,-0.04787205050438642,-0.03033025633394718
1686445632891772000,3.01877197265625,-0.007605798828601837,-0.042132922330498694,-0.03056172700226307
1686445632901788700,3.02878857421875,-0.0008335282146930694,-0.0374707757383585,-0.02649170108437538
1686445632911806000,3.038805908203125,0.005636544582247734,-0.043541035562753676,-0.02336333993077278
1686445632921822700,3.04882275390625,0.00341068522632122,-0.05389905570894479,-0.01715805554986
1686445632931838700,3.058838623046875,0.00014905308187007903,-0.0582558078800328,-0.024002222356200215
1686445632941856000,3.06885595703125,-0.0013677812218666075,-0.045347208201885224,-0.021911387556791305
1686445632951872800,3.078872802734375,0.006086041915416717,-0.055017538344860076,-0.025662849044799804
1686445632961889800,3.088889892578125,0.0039151276171207425,-0.05268237339556217,-0.011682254487276077
1686445632971906800,3.09890673828125,0.00022445640563964844,-0.05177694898843765,-0.0053068742364645
1686445632981923800,3.108923828125,0.0015028057783842085,-0.03673429642366245,-0.016112930411100387
1686445632991940900,3.11894091796875,0.001603343543410301,-0.025112539951968937,-0.013235329148173332
1686445633001958000,3.1289580078125,-0.0006797989577054977,-0.016197978346049784,-0.03110357879400253
1686445633011975000,3.138974853515625,0.01221884558200836,-0.010533961234986781,-0.03121288438737392
1686445633021991700,3.14899169921875,0.013088614153861998,-0.009282518135476857,-0.008214870637655258
1686445633032009000,3.159009033203125,-0.01438040753006935,-0.016153280687797814,0.015143793118000029
1686445633042025700,3.169025634765625,-0.03273088773488998,-0.0243842074111104,0.020528993287682533
1686445633052042800,3.179042724609375,-0.03906768954098224,-0.029870840394962576,-0.0027969372421503065
1686445633062059800,3.189059814453125,-0.0242296013712883,-0.035063130074739456,-0.00018178630769252776
1686445633072075800,3.19907568359375,-0.018071078741550443,-0.05291705893427133,0.005429039311408996
1686445633082092800,3.2090927734375,-0.024949147817492485,-0.06725276880608871,0.006284194836020469
1686445633092109800,3.21910986328125,-0.020409166300296783,-0.07414484814107418,-0.005306289714574814
1686445633102126800,3.229126953125,-0.020998364365100858,-0.0782265644967556,-0.02058452286720276
1686445633112144000,3.239143798828125,-0.005502104547619819,-0.06608051015632227,-0.02165712053477764
1686445633122161000,3.249160888671875,0.00765314510166645,-0.05471623557703569,-0.030581016224622726
1686445633132178000,3.259177978515625,0.018151742762327193,-0.051881578406691546,-0.029845687687397003
1686445633142194700,3.269194580078125,0.04339139795899391,-0.0584802460193634,-0.03643091129660606
1686445633152212000,3.2792119140625,0.03111059305667877,-0.05231005121814087,-0.023881226325035095
1686445633162228700,3.289228759765625,0.012950082466006279,-0.05074000715613365,-0.026761750197410582
1686445633172245800,3.299245849609375,0.014853870260715484,-0.02945345523310825,-0.0211012402176857
1686445633182262800,3.3092626953125,-0.0002817395508289337,-0.02121465573059395,-0.02829378207027912
1686445633192279800,3.31927978515625,-0.011001286485791205,-0.019839275724161415,-0.02441080315709114
1686445633202296800,3.329296875,-0.031062077739834784,-0.026845062832999974,-0.028005028256773947
1686445633212313900,3.33931396484375,-0.03488952707350254,-0.018830098681617526,-0.030671617117524145
1686445633222331000,3.349330810546875,-0.028279169023036954,-0.021598083823919294,-0.028742694881558416
1686445633232347000,3.359346923828125,-0.00902560249865055,-0.02814153238432482,-0.03613689678609371
1686445633242364000,3.369364013671875,0.011170797833800315,-0.0352639133438468,-0.03377192122042179
1686445633252381000,3.379380859375,0.024233108502626416,-0.04320084382295608,-0.03785539114177227
1686445633262397700,3.389397705078125,0.03234568780958652,-0.0449561630576849,-0.035900165420770645
1686445633272415000,3.3994150390625,0.0179553434073925,-0.04841682490557432,-0.02599193486869335
1686445633282431700,3.409431640625,0.005579261437058449,-0.04811842648088932,-0.016720833176374433
1686445633292448800,3.41944873046875,-0.001644260075688362,-0.050531917363405225,-0.017737316742539404
1686445633302465800,3.4294658203125,-0.014441782328486441,-0.05746465750234201,-0.011944120293855666
1686445633312482800,3.43948291015625,-0.025347207224369048,-0.055590095802117136,-0.01428279237449169
1686445633322499800,3.449499755859375,-0.023164017966389654,-0.05070261602150276,-0.007549100205302238
1686445633332516900,3.459516845703125,-0.030960955452919006,-0.04329728993475437,0.00045534255206584927
1686445633342534000,3.469533935546875,-0.02986146977841854,-0.02869828948425129,0.015980243942141533
1686445633352550700,3.479550537109375,-0.01764379324018955,-0.027636797732580452,0.009841595056653022
1686445633362568000,3.48956787109375,-0.0018447510838508604,-0.04642596161561086,-0.0037871173232793807
1686445633372584000,3.499583984375,0.0003425298273563385,-0.03755143975913525,-0.003496609944105148
1686445633382600700,3.5096005859375,0.010112813213467598,-0.04233575142621994,-0.006170213067531585
1686445633392617700,3.51961767578125,0.011835399222373961,-0.052022174187470224,-0.009721183547377586
1686445633402634800,3.529634765625,0.012813888865709304,-0.04227788375914097,-0.02752396674156189
1686445633412651800,3.53965185546875,-0.0019406126737594603,-0.052065118280053134,-0.03183540019989013
1686445633422669000,3.5496689453125,-0.005793780970573425,-0.05035772984027862,-0.02354804884791374
1686445633432685800,3.559685791015625,-0.010851064360141754,-0.045314767237007614,-0.023038930281996727
1686445633442702800,3.569702880859375,-0.005178863942623138,-0.042913551314175125,-0.015031564915180205
1686445633452719900,3.579719970703125,-0.018359832555055616,-0.0274058933198452,-0.011316343784332274
1686445633462737000,3.58973681640625,-0.009924597164988518,-0.025647085220087316,-0.01783376285433769
1686445633472753700,3.599753662109375,-0.007368482941389084,-0.022536241456866262,-0.020935820522904394
1686445633482771000,3.60977099609375,-0.009770283386111259,-0.018221008606255053,-0.015825930163264272
1686445633492787700,3.61978759765625,0.003675473642349243,-0.03339022842645645,-0.01511281345784664
1686445633502804700,3.6298046875,0.01094751047194004,-0.040252533677686005,-0.028731004443764686
1686445633512820700,3.63982080078125,0.02042319482564926,-0.047366439069807524,-0.028358079478144643
1686445633522837800,3.649837646484375,0.02393792494833469,-0.05280046508358791,-0.03509294069111347
1686445633532854800,3.659854736328125,0.019136077624559402,-0.05994944178909063,-0.04762041383087635
1686445633542871800,3.669871826171875,0.019067104041576386,-0.05390227057933807,-0.04776771334707737
1686445633552888800,3.679888916015625,0.008806991311907767,-0.04542935179369524,-0.02727028424143791
1686445633562905900,3.68990576171875,-0.013337620478868484,-0.037253936383593825,-0.01773965483009815
1686445633572922600,3.699922607421875,-0.021340309670567513,-0.039521296793688085,-0.015095862323045729
1686445633582940000,3.70993994140625,-0.023094459861516953,-0.039875809319783,-0.007792845833301544
1686445633592956700,3.719956787109375,-0.023968320086598396,-0.04191343436092138,-0.0061871642023324964
1686445633602973700,3.7299736328125,-0.03392915760874748,-0.04416647398471832,0.010857494100928306
1686445633612991000,3.739990966796875,-0.04171265109181404,-0.04100888673663139,0.011092471900582313
1686445633623007700,3.7500078125,-0.022874679630994797,-0.04632628236711025,-0.008581950384378433
1686445633633025000,3.76002490234375,-0.017089081966876984,-0.04455401199758052,-0.01497252820432186
1686445633643041800,3.770041748046875,0.008892916029691696,-0.030192309167981147,-0.017865327036380767
1686445633653058800,3.780058837890625,0.0086661215364933,-0.022720950374007225,-0.02111760683059692
1686445633663074800,3.79007470703125,0.010260112729668617,-0.03216888820426538,-0.025051439148187638
1686445633673091800,3.800091796875,0.0070960957407951355,-0.03483723063068464,-0.025370003578066826
1686445633683108900,3.81010888671875,0.010512041664123534,-0.03769349684463814,-0.006387070688605308
1686445633693125600,3.820125732421875,-0.009859715235233307,-0.03920300635844469,-0.009543488892912864
1686445633703143000,3.830142822265625,-0.0021381810724735257,-0.033493981061875816,-0.012481880432367323
1686445633713159700,3.84015966796875,-0.005160159242153167,-0.03493424299806356,-0.011909048980474471
1686445633723176700,3.8501767578125,-0.006605097353458404,-0.04077098632752895,-0.010485153657197951
1686445633733194000,3.860194091796875,-0.010938742643594741,-0.041681086909770966,-0.013539865052700042
1686445633743210800,3.870210693359375,-0.0008896423161029815,-0.0281356688991189,-0.028311902248859405
1686445633753227800,3.880227783203125,0.02510053898692131,-0.03710574181824922,-0.029113866281509398
1686445633763244800,3.890244873046875,0.0387689988553524,-0.04512569267200306,-0.02225976260304451
1686445633773261800,3.90026171875,0.024992986959218977,-0.04171382013559341,-0.020675708281993863
1686445633783278600,3.910278564453125,0.022362638455629347,-0.048377369678020476,-0.02571837862432003
1686445633793296000,3.9202958984375,0.019554010775685308,-0.04874066829876974,-0.01869827072918415
1686445633803313000,3.93031298828125,0.005558218649029731,-0.050593310428131366,-0.011948796468973158
1686445633813328600,3.94032861328125,-0.010818331134319304,-0.045160161197185515,-0.01706570109128952
1686445633823346000,3.950345947265625,-0.0225040927529335,-0.03709346685856581,-0.017465514063835143
1686445633833363000,3.960363037109375,-0.033274493092298504,-0.042401510138809675,-0.013824527212977408
1686445633843380000,3.9703798828125,-0.0190489838629961,-0.03971300170719623,-0.02235737775862217
1686445633853397000,3.98039697265625,-0.016787468671798707,-0.0452586531355977,-0.018423545441031454
1686445633863414000,3.9904140625,-0.0220902512550354,-0.04381751441657543,-0.01877718118429184
1686445633873431000,4.00043115234375,-0.01590016444325447,-0.03997545203566551,-0.006290624576807022
1686445633883447800,4.01044775390625,-0.019039631512761116,-0.04120267400937155,-0.0119949736982584
1686445633893465000,4.020465087890625,-0.008983516922593117,-0.03609919512420893,-0.009942132821679115
1686445633903481900,4.03048193359375,-0.012190204009413718,-0.030519933687150478,-0.005696750336885452
1686445633913499000,4.040498779296875,-0.005560556736588478,-0.026346447394788263,-0.002825578814744949
1686445633923516200,4.05051611328125,-0.010343114838004111,-0.025642975300550458,-0.012255085939168929
1686445633933533000,4.060532958984375,-0.004839841246604919,-0.02748509603589773,-0.01393032567501068
1686445633943550000,4.070550048828125,0.008892916029691696,-0.05024667068123817,-0.025628946775197982
1686445633953567000,4.08056689453125,0.0011427402943372726,-0.0499035745983012,-0.029502573338150977
1686445633963583000,4.0905830078125,0.00032557869255542754,-0.05328006529407575,-0.027356793481111526
1686445633973600000,4.10060009765625,0.011857611054182052,-0.0659594958588481,-0.021417466560006142
1686445633983616800,4.11061669921875,0.007236380994319915,-0.06770107882916927,-0.01936053403019905
1686445633993634000,4.120634033203125,0.0077747256547212595,-0.06010085122482851,-0.012867080357670783
1686445634003650800,4.13065087890625,0.01934358289539814,-0.041389136492181566,-0.011387070932984352
1686445634013668000,4.140668212890625,0.006836568021774292,-0.012001403439044952,0.003375613912940025
1686445634023684900,4.150684814453125,0.004973696759343147,-0.010709317801892757,-0.01412204885482788
1686445634033702000,4.160701904296875,0.014025602743029594,-0.017364994565118103,-0.020391630643606183
1686445634043719200,4.17071923828125,0.00014788403809070586,-0.014763287634123115,-0.006484101322293281
1686445634053736000,4.18073583984375,-0.013104396244883536,-0.019952344177197663,0.01407236449420452
1686445634063753000,4.1907529296875,-0.014626491245627402,-0.029778467670083044,0.004684942945837974
1686445634073770000,4.20077001953125,-0.017674188378453255,-0.03475539756612852,-0.00921732567846775
1686445634083787000,4.210787109375,-0.026110592812299726,-0.04374678726792335,-0.01697860732972622
1686445634093803800,4.2208037109375,-0.02580196525454521,-0.04425239870250225,-0.016118191108107565
1686445634103821000,4.230821044921875,-0.019529460856318473,-0.044866457213927055,-0.012190788531303405
1686445634113837000,4.240837158203125,-0.011319266393780707,-0.051430345774162556,-0.02104746420383453
1686445634123853800,4.250853759765625,-0.002523380997776985,-0.05751843351619318,-0.0301724354237318
1686445634133870800,4.260870849609375,-0.002260346147418022,-0.05900485441535711,-0.022646131572127342
1686445634143888000,4.270887939453125,0.005843465331196784,-0.055905427095293996,-0.014976619857549667
1686445634153905000,4.28090478515625,0.007867664635181426,-0.05178542455583811,-0.009112696260213852
1686445634163922000,4.290921875,0.01793137800991535,-0.05368280087606981,-0.013994623082876205
1686445634173939000,4.30093896484375,0.027045827835798262,-0.04684329197853803,-0.028580197796225545
1686445634183956000,4.3109560546875,0.022187866410613058,-0.04504004194885492,-0.029624738413095472
1686445634193972700,4.32097265625,0.005728899040818214,-0.04650779468016698,-0.031413959917426106
1686445634203990000,4.330989990234375,0.011968085691332817,-0.03451340550379827,-0.04365735541880131
1686445634214006800,4.3410068359375,-0.01009177042543888,-0.024224340674281118,-0.041803836506605144
1686445634224024000,4.351024169921875,-0.022888708156347273,-0.017632705590594558,-0.03583177635967731
1686445634234041000,4.361041015625,-0.02527297294437885,-0.015026888740062713,-0.022375497937202452
1686445634244057900,4.371057861328125,-0.020670447584986686,-0.019337463681865483,-0.021779285609722136
1686445634254075100,4.3810751953125,-0.02154080067873001,-0.030626316671073434,-0.015400398227572441
1686445634264091100,4.391091064453125,-0.009415478599071502,-0.03415536758005619,-0.02718845117688179
1686445634274108000,4.40110791015625,0.0037041152149438856,-0.04307402083920315,-0.016804419806599614
1686445634284125000,4.411125,0.014434183543920516,-0.04131020777076483,-0.0203343474984169
1686445634294142000,4.421141845703125,0.01854629503786564,-0.03651332888305187,-0.01914659901857376
1686445634304159000,4.431158935546875,0.01943067665696144,-0.043430268664658066,-0.022353286105394363
1686445634314175700,4.44117578125,0.0017325228810310363,-0.04867079966664314,-0.022934885385632514
1686445634324193000,4.451193115234375,0.0027127660900354384,-0.04450989886121824,-0.02637713479399681
1686445634334209800,4.461209716796875,-0.0009060089290142059,-0.044460780756175516,-0.019914076259732245
1686445634344226800,4.471226806640625,-0.009895955592393875,-0.04368395116478205,-0.006605097353458404
1686445634354244000,4.481244140625,-0.011585223853588103,-0.03896364464461803,0.006273673442006111
1686445634364260900,4.4912607421875,-0.015938742887973784,-0.04065262064486742,0.008742693904042243
1686445634374278000,4.50127783203125,0.0001233341187238693,-0.03614012992279604,0.008519406542181968
1686445634384295000,4.511294921875,-0.008720482072234153,-0.039733478239644314,0.012388941451907156
1686445634394312000,4.52131201171875,-0.008950783696770668,-0.03199818954616785,0.0012046996146440505
1686445634404328700,4.53132861328125,-0.00784837541282177,-0.0391220500767231,-0.005349544334411621
1686445634414345000,4.541344970703125,-0.0009030863195657729,-0.03574380581527948,-0.018486673805117607
1686445634424362000,4.551362060546875,0.007412322083115578,-0.038327100306749344,-0.01888297964632511
1686445634434378800,4.561378662109375,-0.00466506920158863,-0.039661582047212866,-0.022106033346056937
1686445634444396000,4.57139599609375,-0.007434533914923667,-0.037659594575036315,-0.01587970617711544
1686445634454413000,4.5814130859375,-0.025524317356944083,-0.040895507756341244,-0.008149988707900046
1686445634464429800,4.591429931640625,-0.016354337951540947,-0.04314239163398743,-0.015320903250575064
1686445634474447000,4.601447021484375,-0.014438859719038008,-0.045405952651798726,-0.018245850786566733
1686445634484463900,4.6114638671875,-0.002485387074947357,-0.04008563441187143,-0.022965280523896216
1686445634494481000,4.62148095703125,0.00026771102547645565,-0.040781215460598465,-0.019649287843704222
1686445634504498000,4.631497802734375,0.004365209472179413,-0.02659837632924318,-0.015036241090297699
1686445634514515000,4.641514892578125,0.013684826481342316,-0.033781547565292565,-0.02214987248778343
1686445634524532000,4.651531982421875,0.005225625693798065,-0.03718172966390848,-0.028794717329740524
1686445634534549000,4.661549072265625,0.006302315014600753,-0.03228518979400396,-0.03236789964139462
1686445634544566000,4.67156591796875,0.009720014503598213,-0.0347583019092679,-0.03193476892113686
1686445634554582800,4.681582763671875,0.009205050718784332,-0.03498684996813536,-0.028286183285713196
1686445634564599000,4.69159912109375,0.005566401955485344,-0.0402960622921586,-0.0286649534702301
1686445634574616000,4.701615966796875,0.003700608083605766,-0.0419257093206048,-0.0283078105956316
1686445634584632800,4.7116328125,-0.004956161102652549,-0.04139848884241655,-0.021108254480361938
1686445634594650000,4.721650146484375,-0.00837561415731907,-0.046759139092732216,-0.02154255424439907
1686445634604667000,4.7316669921875,-0.0014455226331949232,-0.04347587963836267,-0.024610125121474265
1686445634614684000,4.741683837890625,-0.010503273835778235,-0.045008185505867,-0.010106967994570731
1686445634624701000,4.751700927734375,-0.018923311656713484,-0.035974107439815994,-0.0048538697719573975
1686445634634718000,4.761718017578125,-0.01071311719417572,-0.03804652979969978,-0.0006324526846408844
1686445634644735000,4.77173486328125,-0.020958032354712487,-0.03805297780679539,-0.004227262306213378
1686445634654752000,4.781751953125,-0.030669863551855085,-0.0378323207934387,0.004850362640619278
1686445634664769000,4.79176904296875,-0.021681670454144476,-0.04245910381125286,0.0008650923967361449
1686445634674785800,4.801785888671875,-0.009212064981460572,-0.028916297882795334,-0.00649286915063858
1686445634684803000,4.811802978515625,-0.008113748350739478,-0.028666414774954317,0.0007066869646310806
1686445634694819800,4.82181982421875,-0.006557751080393791,-0.04408902483433485,-0.003354571124911308
1686445634704836900,4.8318369140625,-0.00509469279050827,-0.040407121451199055,-0.022549685460329056
1686445634714854000,4.84185400390625,0.0017705168038606642,-0.031654490675032135,-0.01678279249668121
1686445634724870000,4.851869873046875,0.010272387689352035,-0.03234451876580715,-0.010769231295585631
1686445634734887000,4.861886962890625,0.0043909284353256224,-0.03753711897283792,-0.02236556106507778
1686445634744904000,4.871904052734375,0.00038519992530345915,-0.03742695486294106,-0.021039865419268607
1686445634754921000,4.8819208984375,-0.004874912559986114,-0.04435732038170099,-0.028328268861770627
1686445634764938000,4.89193798828125,-0.0002098433583974838,-0.044817357375193385,-0.0205740014731884
1686445634774955000,4.901955078125,-0.007186112111806869,-0.050452714647352695,-0.027718028008937835
1686445634784972000,4.911971923828125,-0.0024175825357437134,-0.04428308610171079,-0.0301724354237318
1686445634794988800,4.92198876953125,-0.0020867431461811066,-0.03664601535201072,-0.011039280408620834
1686445634805006000,4.932006103515625,-0.008683072671294211,-0.03621728681223467,-0.01138882449865341
1686445634815022800,4.94202294921875,-0.011425064855813979,-0.03732992422925308,-0.014205050963163376
1686445634825038800,4.952038818359375,-0.00443242948949337,-0.03668722414523363,-0.02082183875441551
1686445634835056000,4.96205615234375,0.0033130700707435607,-0.03631868309378624,-0.015058452922105788
1686445634845073000,4.972072998046875,0.013607085070014,-0.04120647340165451,-0.02440028176307678
1686445634855090000,4.98208984375,0.0017599954098463056,-0.04290217140363529,-0.024758593681454655
1686445634865107000,4.99210693359375,-0.004563362392783165,-0.046490843545366076,-0.02706862418949604
1686445634875123000,5.002123046875,-0.013320084822177886,-0.05476005645245313,-0.02162321826517582
1686445634885140000,5.012139892578125,-0.013794716596603392,-0.052454702119529246,-0.01983984197974205
1686445634895157000,5.022156982421875,-0.010724223110079764,-0.05208705611722544,-0.024224340674281118
1686445634905174000,5.032174072265625,-0.013457447466254234,-0.04118659965740516,-0.018708207601308823
1686445634915191000,5.04219091796875,-0.014110942938923834,-0.03616467984216287,-0.004375730866193771
1686445634925208000,5.0522080078125,-0.016404022312164306,-0.03322950317310169,-0.009089315384626389
1686445634935225000,5.06222509765625,-0.019756839871406553,-0.031070261046290397,-0.0033358664244413374
1686445634945241900,5.072241943359375,-0.011131634867191313,-0.02755348509699106,-0.007902735948562622
1686445634955259100,5.082259033203125,-0.011989128479361533,-0.03437195120649412,-0.011954641687870025
1686445634965276000,5.09227587890625,-0.020486323189735412,-0.03999152638763189,-0.0264864403873682
1686445634975293000,5.10229296875,-0.005199322208762168,-0.04986030171215534,-0.014544073659181594
1686445634985310000,5.11231005859375,-0.007893383598327636,-0.040160745474696155,-0.019631752187013626
1686445634995327000,5.122326904296875,-0.0013034838140010834,-0.04176993423700332,-0.02056874077618122
1686445635005344000,5.132343994140625,0.008585457515716552,-0.03944529068171978,-0.009380991807579994
1686445635015360000,5.142360107421875,0.004054828348755837,-0.038678982484340665,-0.012040566405653952
1686445635025377000,5.152376953125,0.011755904245376586,-0.02933132669078186,0.00004208557605743408
1686445635035394000,5.16239404296875,0.001726093140244484,-0.03031390798734501,0.00783610045313835
1686445635045410800,5.172410888671875,-0.007294248661398888,-0.037748989891540255,0.0004909983873367309
1686445635055428000,5.182427978515625,-0.005906009173393249,-0.039460780511796474,-0.009445873737335204
1686445635065444900,5.19244482421875,-0.015194062000513075,-0.04078561764108017,-0.010243746116757392
1686445635075462000,5.2024619140625,-0.010129764348268509,-0.03460983334928751,-0.018981763845682145
1686445635085479000,5.21247900390625,0.0019078794479370116,-0.034274902306497095,-0.009912322205305099
1686445635095496000,5.222495849609375,0.005201660296320915,-0.03966567370044067,-0.015896657311916352
1686445635105513200,5.23251318359375,0.012856558963656424,-0.031393227656651285,-0.021007716715335845
1686445635115530000,5.242530029296875,0.013446341550350188,-0.03564735970348119,-0.024238953721523283
1686445635125547000,5.252547119140625,0.00341243879199028,-0.030798750628530977,-0.030008184772729873
1686445635135564000,5.26256396484375,-0.0011176058530807495,-0.02759235580265522,-0.02447743865251541
1686445635145581000,5.2725810546875,-0.009548165068030356,-0.047592649041116236,-0.03680500530600547
1686445635155597800,5.282597900390625,-0.015695581781864164,-0.05339812044948339,-0.042726212048530575
1686445635165615000,5.292614990234375,-0.018214286604523656,-0.05557487996667623,-0.039947394984960555
1686445635175631000,5.302631103515625,-0.018496610677242276,-0.0615931173428893,-0.027103695502877233
1686445635185647900,5.31264794921875,-0.01556464887857437,-0.06351093366295099,-0.016864041039347646
1686445635195665000,5.322664794921875,-0.007164484801888466,-0.06077042104946449,-0.011349077010154723
1686445635205682000,5.332681884765625,-0.004025017732381821,-0.03922697175592184,-0.013479659298062325
1686445635215699000,5.342698974609375,-0.02085632554590702,-0.01876229414241388,-0.013209610185027122
1686445635225716000,5.352716064453125,-0.009673252752423285,-0.0021282624666579065,-0.018300795844197273
1686445635235733000,5.36273291015625,0.001685176607966423,0.002194276907574385,-0.027667174604535102
1686445635245750000,5.37275,-0.0005418517917394638,-0.015838515650201588,-0.009469839134812355
1686445635255766800,5.382766845703125,-0.007522796720266341,-0.013474398601055145,0.01937222446799278
1686445635265784000,5.3927841796875,-0.02916121255457401,-0.007950685009825974,0.032146365845203397
1686445635275800800,5.40280078125,-0.028899346747994423,-0.021482056228816507,0.012031798577308654
1686445635285818000,5.412818115234375,-0.01828092209994793,-0.040459436160326004,-0.010703764843940734
1686445635295835100,5.422835205078125,-0.016638415589928627,-0.04537557577984407,-0.014336568388342857
1686445635305852000,5.432851806640625,-0.014414309799671171,-0.05070259775519371,-0.012096095985174178
1686445635315869200,5.442869140625,-0.012442717465758323,-0.058009705898165696,-0.009780804780125617
1686445635325885200,5.45288525390625,-0.0026367782443761823,-0.06695466264234855,-0.026688100439310074
1686445635335902000,5.46290185546875,0.015219780963659285,-0.05887828715993091,-0.035790275305509565
1686445635345919000,5.4729189453125,0.020128011271357535,-0.05524404057711362,-0.024948563295602796
1686445635355936000,5.48293603515625,0.011882745495438576,-0.04808306290656328,-0.004761515313386917
1686445635365953000,5.492953125,0.010547112977504729,-0.04587620051205158,-0.011239186894893645
1686445635375969800,5.5029697265625,0.021890344768762587,-0.04425970522612333,-0.0030640637457370755
1686445635385987000,5.512987060546875,0.022865911802649498,-0.04234424525992945,-0.010825345396995544
1686445635396003800,5.52300390625,0.017839608073234557,-0.041349370737373825,-0.03445814991891384
1686445635406020900,5.533020751953125,0.00949614261984825,-0.026193028665054588,-0.04598024540841579
1686445635416038100,5.5430380859375,-0.0002624503284692764,-0.017184961823094636,-0.036707974672317505
1686445635426055000,5.553054931640625,-0.0064162967830896376,-0.018944664971996098,-0.028682489126920698
1686445635436072000,5.563072021484375,-0.02308276942372322,-0.019433288739155976,-0.027881694138050077
1686445635446089000,5.5730888671875,-0.013366262051463126,-0.025428145239781586,-0.020466449445486066
1686445635456106000,5.58310595703125,-0.014459902507066726,-0.03822015106724575,-0.011230419066548347
1686445635466122800,5.593122802734375,-0.008807575833797454,-0.034110067133605475,-0.020547113466262815
1686445635476140000,5.60314013671875,-0.0010375263541936874,-0.039421635811496526,-0.021656536012887955
1686445635486156000,5.613156005859375,0.0036316345006227493,-0.041978626817930485,-0.020639467924833295
1686445635496172800,5.6231728515625,0.014134908336400985,-0.0496332149580121,-0.027707506614923477
1686445635506190000,5.633190185546875,0.011497545570135116,-0.04915098439902067,-0.025517303094267845
1686445635516207000,5.64320703125,0.0028396073400974273,-0.046427112393081185,-0.0295364756077528
1686445635526224000,5.653223876953125,0.00277414088845253,-0.04077303215414285,-0.026281857725977895
1686445635536241200,5.6632412109375,0.0013005612045526504,-0.041537586785852905,-0.01942424691617489
1686445635546258000,5.6732578125,0.0013946692287921906,-0.04835632688999176,-0.003536357432603836
1686445635556275000,5.68327490234375,-0.014877251136302947,-0.040784430330991744,-0.0010948094993829727
1686445635566292000,5.6932919921875,-0.02161620400249958,-0.045196419820655136,0.01069265892803669
1686445635576309000,5.70330908203125,-0.013610007679462433,-0.032846623069047926,0.0011807342171669005
1686445635586325800,5.71332568359375,-0.02940788079202175,-0.026761476202774793,-0.002010170778632164
1686445635596343000,5.723343017578125,-0.03243044348359108,-0.033338205978274346,0.0016571195572614669
1686445635606360000,5.733360107421875,-0.00748889445066452,-0.02977729862630367,-0.00412438645362854
1686445635616376800,5.743376953125,-0.005049100083112716,-0.04235009047882631,0.002279050847887993
1686445635626394000,5.75339404296875,-0.013051204752922057,-0.03973959745317697,-0.006451368096470832
1686445635636411000,5.763410888671875,-0.010748773029446601,-0.03165743155078962,-0.005962707796692848
1686445635646427000,5.773427001953125,-0.013709376400709152,-0.03232144841747358,-0.0047451487004756925
1686445635656444200,5.783444091796875,-0.009057751202583312,-0.04832096331566572,-0.014413140755891798
1686445635666461000,5.7934609375,0.008185060021281242,-0.035932624651957304,-0.018529928424954413
1686445635676478000,5.80347802734375,0.002423427754640579,-0.03323445334285498,-0.015185294172167777
1686445635686495000,5.813494873046875,0.011025251883268356,-0.028887090054620056,0.009251227948069572
1686445635696512000,5.823511962890625,0.000761047500371933,-0.032327275370061394,-0.01225333237349987
1686445635706529000,5.833529052734375,0.013994623082876205,-0.049095747080445284,-0.02133154184222221
1686445635716546000,5.843546142578125,0.02015314571261406,-0.04991261642128229,-0.02909457705914974
1686445635726563000,5.85356298828125,0.020295769053697586,-0.034837796886265274,-0.02370879236757755
1686445635736579800,5.863579833984375,0.01250818391740322,-0.023935312866140156,-0.020851649370789527
1686445635746597000,5.87359716796875,0.009326046749949454,-0.025884090580046176,-0.022510522493720053
1686445635756614000,5.88361376953125,-0.007529226461052894,-0.029916122575104235,-0.028294951114058494
1686445635766631000,5.893630859375,-0.00016600421667099,-0.04055880488157272,-0.028916297882795334
1686445635776648000,5.90364794921875,-0.007236965516209602,-0.03502162902057171,-0.017810381978750227
1686445635786665000,5.9136650390625,-0.007139350360631943,-0.04528466435968875,-0.007711012768745422
1686445635796681000,5.923680908203125,-0.0022545009285211562,-0.052782344905007626,-0.011571779850125313
1686445635806698000,5.933697998046875,-0.015801964765787123,-0.0545087120398879,-0.012152794608473776
1686445635816715000,5.943715087890625,-0.01799625993967056,-0.053773091241717336,-0.022779402562975882
1686445635826732000,5.95373193359375,-0.015803133809566498,-0.04379997875988483,-0.010135609567165374
1686445635836749300,5.963749267578125,-0.02266834340393543,-0.033022874685097486,-0.0018897592693567274
1686445635846766300,5.973766357421875,-0.02121171485483646,-0.022679175325203686,-0.0056552492827177045
1686445635856783000,5.983783203125,-0.016249708533287048,-0.03316752558648586,-0.011125789648294448
1686445635866800400,5.99380029296875,-0.01782148789465427,-0.03273938156859949,-0.006045709905028343
1686445635876817200,6.003817138671875,-0.01134966153204441,-0.03976064024120569,-0.008473229312896728
1686445635886834200,6.013834228515625,-0.0001993219643831253,-0.04143063754634931,-0.007775310176610946
1686445635896851200,6.023851318359375,0.0014361702829599379,-0.044293607495725154,-0.003939677536487579
1686445635906868200,6.0338681640625,-0.0077723875671625135,-0.0548030188113451,-0.004235445612668991
1686445635916885200,6.04388525390625,0.009184592452645302,-0.0488032121409662,-0.02025894417464733
1686445635926902300,6.05390234375,0.011809095737338066,-0.041632882120180875,-0.031017069554328917
1686445635936919300,6.063919189453125,0.014674422040581702,-0.04234305794984102,-0.02505786888897419
1686445635946936000,6.07393603515625,0.010379939717054367,-0.032846038547158236,-0.015339607951045036
1686445635956952300,6.083952392578125,0.004870820906758308,-0.03991351098166778,-0.023737433940172192
1686445635966969300,6.09396923828125,-0.008284428742527961,-0.042282870461512356,-0.02411445055902004
1686445635976986000,6.103986083984375,-0.008266308563947677,-0.03831482534706592,-0.015312135422229766
1686445635987003400,6.11400341796875,-0.010826514440774917,-0.030925299617648123,-0.015212766700983047
1686445635997020200,6.124020263671875,-0.009235445857048033,-0.03154138568937778,-0.011550737062096595
1686445636007037200,6.134037109375,-0.013037176227569579,-0.030446283929049966,-0.008045359289646148
1686445636017054200,6.14405419921875,-0.006246200913190841,-0.03351034767478704,-0.014333061257004736
1686445636027071200,6.1540712890625,-0.0048012628018856045,-0.03990969332307577,-0.010265957948565482
1686445636037088300,6.164088134765625,-0.005531330642104149,-0.04123511497424915,-0.01303366909623146
1686445636047105300,6.174105224609375,-0.01367372056543827,-0.04967851540446281,-0.017201894691586492
1686445636057122300,6.184122314453125,0.006762918263673782,-0.04658551782518625,-0.01897708767056465
1686445636067139000,6.19413916015625,-0.0014338321954011917,-0.047854807108640665,-0.016453706672787664
1686445636077156400,6.20415625,-0.014603694891929626,-0.04232610681504011,-0.028912206229567528
1686445636087173000,6.214173095703125,-0.004870820906758308,-0.042840504344273354,-0.0260550632327795
1686445636097189000,6.224189208984375,0.006673486414551734,-0.04557371043413877,-0.02169511445760727
1686445636107206400,6.234206298828125,-0.01360182437300682,-0.0368234177455306,-0.01684825894832611
1686445636117223200,6.24422314453125,-0.02258475677371025,-0.03072626991420984,-0.011654781958460807
1686445636127240200,6.254240234375,-0.01728314323425293,-0.031713235124945637,-0.014143091642856598
1686445636137257200,6.26425732421875,-0.014758593192696571,-0.03295214753644541,-0.017889292433857916
1686445636147274200,6.274274169921875,-0.0030716625303030013,-0.03325257352143526,-0.009898878201842307
1686445636157291300,6.284291259765625,0.012652560824155806,-0.04049830686599016,-0.011684008052945137
1686445636167308300,6.294308349609375,0.02497837391197681,-0.054934243975579736,-0.02201309436559677
1686445636177325300,6.3043251953125,0.024392682978510855,-0.04568624916421249,-0.03700841892361641
1686445636187342000,6.314342041015625,0.023255203381180763,-0.042046997612714763,-0.030275311276316642
1686445636197359400,6.324359375,0.010668109008669853,-0.03866555674718693,-0.011177812096476555
1686445636207376100,6.334376220703125,0.0015577508360147476,-0.047236985737551,-0.0057733227044343945
1686445636217393200,6.34439306640625,0.003867196822166443,-0.04352262312322855,0.007853051587939261
1686445636227410400,6.354410400390625,-0.0029535891085863113,-0.039322541084885594,0.0006353752940893173
1686445636237427200,6.36442724609375,-0.020067805516719817,-0.032570436476171014,0.013128361642360687
1686445636247444200,6.3744443359375,-0.02952069351673126,-0.024767361509799957,0.010416180074214935
1686445636257460200,6.384460205078125,-0.029386253482103344,-0.03425212421910837,0.004122048366069793
1686445636267477200,6.394477294921875,-0.01753916382193565,-0.05565203685611486,0.00608545739352703
1686445636277494300,6.404494384765625,-0.03831307178139686,-0.07318272511065006,-0.010400982505083084
1686445636287511300,6.41451123046875,-0.03572539337575435,-0.07412497439682483,-0.024293314257264137
1686445636297528300,6.4245283203125,-0.02466916183233261,-0.08073270209878683,-0.020417349606752396
1686445636307545000,6.434545166015625,-0.02696925546824932,-0.06162555830776691,-0.026381226447224616
1686445636317562400,6.444562255859375,-0.011363105535507201,-0.04203355360925198,-0.014764438411593436
1686445636327579100,6.4545791015625,-0.007531564548611641,-0.02398936287462711,-0.004314940589666367
1686445636337596200,6.46459619140625,-0.004549918389320374,-0.009411094684898853,-0.007190203765034675
1686445636347613400,6.474613525390625,-0.00029459903240203856,0.005859539683163165,-0.021485855621099472
1686445636357630200,6.484630126953125,-0.006053308689594268,0.026044834099709986,-0.04654840068519115
1686445636367647200,6.494647216796875,-0.002845452558994293,0.022554069374501703,-0.061352586585283274
1686445636377664300,6.504664306640625,-0.009825228443741799,-0.004213544308114796,-0.05254325718581676
1686445636387681300,6.514681396484375,-0.017879355561733246,-0.012600830636918544,-0.031140988194942473
1686445636397698000,6.524697998046875,-0.010265957948565482,-0.016889467741549015,-0.018866028511524198
1686445636407714000,6.534714111328125,0.008216624203324318,-0.03650954775707796,-0.015910101315379142
1686445636417731300,6.5447314453125,0.03417641036808491,-0.03692222021119669,0.006060907474160194
1686445636427748000,6.554748046875,0.06636018561422824,-0.03172930947691202,0.018662614893913267
1686445636437765000,6.56476513671875,0.0662578942835331,-0.04809650691002607,0.011435586249828338
1686445636447782400,6.574782470703125,0.0815595083117485,-0.07131720523340628,-0.01020809028148651
1686445636457799200,6.584799072265625,0.07861117990016937,-0.0888467244441621,-0.014179332000017164
1686445636467816200,6.594816162109375,0.053148821863532064,-0.10204758506715297,-0.009662731358408927
1686445636477833200,6.604833251953125,0.03200198893845081,-0.08603813329683616,0.0031768764704465866
1686445636487850200,6.614850341796875,0.007361468678712844,-0.08252338490784168,0.013135375905036925
1686445636497867300,6.6248671875,-0.023004443490505216,-0.07288023503273725,0.020218612164258954
1686445636507884300,6.63488427734375,-0.030867431950569152,-0.06681291608409956,0.024793664994835853
1686445636517901000,6.644901123046875,-0.0470341383755207,-0.03920739027261734,0.022730887246131894
1686445636527918300,6.65491845703125,-0.05210837289988994,-0.014747487276792525,0.02038520090281963
1686445636537935400,6.664935302734375,-0.0459492657482624,0.014410802668333052,-0.007501169410347938
1686445636547952000,6.6749521484375,-0.053368017572164535,0.019625614707171914,-0.028690087911486625
1686445636557968100,6.684968017578125,-0.047533904591202734,0.01049041435420513,-0.04168634760677814
1686445636567985400,6.6949853515625,-0.038111996251344676,-0.002169471259880811,-0.0503892940223217
1686445636578002200,6.705002197265625,-0.04116904573440552,-0.011826631394028663,-0.04376549196839332
1686445636588019200,6.715019287109375,-0.049349429580569266,-0.03910102555500343,-0.0481365466594696
1686445636598036200,6.7250361328125,-0.03467208493053913,-0.05293899677144363,-0.061468906441330906
1686445636608053200,6.73505322265625,-0.028180384823679922,-0.06095220735715702,-0.06324117681086062
1686445636618070000,6.745070068359375,-0.011494038438796997,-0.06284048705548048,-0.06144844817519188
1686445636628087300,6.75508740234375,-0.004085808008909226,-0.066455754943192,-0.06368073727190494
1686445636638104300,6.765104248046875,-0.008453940090537071,-0.05466538217263296,-0.05964227553606033
1686445636648121000,6.77512109375,-0.006408697998523712,-0.04764730183780193,-0.041997313252091405
1686445636658138400,6.785138427734375,-0.00940378816127777,-0.049636429828405375,-0.032548516905307766
1686445636668155100,6.795155029296875,0.00007657236754894256,-0.04340749057726934,-0.013745616757869719
1686445636678172400,6.80517236328125,0.004601940837502479,-0.03573737607449293,0.003139467069506645
1686445636688189200,6.815189208984375,0.015668693774938583,-0.03386106080859899,0.0003232406049966812
1686445636698206200,6.825206298828125,0.011241524982452391,-0.03878244285881519,0.0012789338946342468
1686445636708223200,6.83522314453125,0.02872691279053688,-0.02872517749117687,0.002221183180809021
1686445636718239200,6.8452392578125,0.035384032592177386,-0.028127485592663287,-0.002364975565671921
1686445636728256300,6.85525634765625,0.05205225879848003,-0.03838818284422159,-0.0045651159584522245
1686445636738273000,6.86527294921875,0.05184241544008255,-0.043939679491519924,-0.005891980648040771
1686445636748290300,6.875290283203125,0.05613105254471302,-0.042602603935170916,-0.0005178863942623138
1686445636758307300,6.885307373046875,0.06107669225335121,-0.0401198289424181,-0.000689151307940483
1686445636768324000,6.895323974609375,0.04551496598422527,-0.04199236308233812,0.008523498195409774
1686445636778341400,6.90534130859375,0.04671089777052402,-0.03958703723996877,0.014146598774194717
1686445636788358100,6.915358154296875,0.028490765947103498,-0.03881985225975513,0.010216858109831809
1686445636798375200,6.925375244140625,0.017379004824161527,-0.029459026457369326,0.004846270987391471
1686445636808392200,6.93539208984375,0.00395838223695755,-0.016907295659184456,0.005478139150142669
1686445636818409200,6.9454091796875,-0.00980944635272026,-0.00807487764507532,0.011312836652994155
1686445636828426000,6.955426025390625,-0.01237315936088562,-0.003135375416278839,0.012346855875849723
1686445636838443000,6.965443115234375,-0.03187923934161663,-0.012301555429399013,0.006067337214946746
1686445636848460000,6.9754599609375,-0.04787234276533127,-0.012426643113791942,-0.0007587094128131866
1686445636858476800,6.985476806640625,-0.04239654170274734,-0.0010682137534022331,-0.003307224851846695
1686445636868492800,6.995492919921875,-0.042031800043582916,-0.02096650792211294,0.010643559089303017
1686445636878510000,7.005510009765625,-0.0438186834603548,-0.06172960320413112,-0.002921440404653549
1686445636888526800,7.01552685546875,-0.048481999096274375,-0.07283931850045919,-0.026682255220413207
1686445636898543900,7.0255439453125,-0.05519231038987636,-0.06453328071432188,-0.043677813684940336
1686445636908561000,7.035560791015625,-0.04951543379724026,-0.050478725871443746,-0.044940380966663356
1686445636918578000,7.045577880859375,-0.03949731312990189,-0.04802431845664978,-0.048504210928082464
1686445636928595000,7.055594970703125,-0.016229834789037705,-0.0529620671197772,-0.0513695372313261
1686445636938612000,7.065612060546875,-0.012772972333431243,-0.06264817935377359,-0.03336918563842773
1686445636948629000,7.07562890625,-0.0024602526336908338,-0.05674394201235845,-0.02890110031366348
1686445636958646000,7.08564599609375,0.00038169279396533964,-0.06721769749270752,-0.02786591204702854
1686445636968663000,7.0956630859375,0.004156535157561302,-0.07070612413035705,-0.03394493969976902
1686445636978679800,7.1056796875,0.018103227445483205,-0.06659576620208099,-0.03453121515512466
1686445636988697000,7.115697021484375,0.018164017722010612,-0.055854591957200314,-0.04596855497062206
1686445636998713900,7.1257138671875,0.011256138029694556,-0.04030307655483484,-0.039464579904079436
1686445637008731000,7.13573095703125,0.023569676157832144,-0.03389437855631113,-0.03530687570273876
1686445637018748200,7.145748046875,0.024081717333197594,-0.02703704174114391,-0.026554244926571845
1686445637028764000,7.155763916015625,0.031122868016362187,-0.015897552361059934,-0.015895488268136977
1686445637038781000,7.165781005859375,0.04004851727187633,-0.015525193651020525,-0.011457798081636428
1686445637048798000,7.1757978515625,0.03163958536684513,-0.02704701514588669,-0.010939911687374114
1686445637058815000,7.18581494140625,0.02171148107051849,-0.032253333351016045,-0.00265606746673584
1686445637068832000,7.19583203125,0.01923369278013706,-0.027493279342353343,0.0020125088661909103
1686445637078848800,7.205848876953125,0.018766075268387795,-0.023193244060873985,0.006322188758850098
1686445637088866000,7.215865966796875,0.008643909704685211,-0.025438684900104997,0.005597381615638733
1686445637098882800,7.2258828125,0.009871990194916724,-0.02352055805278942,0.015288170024752615
1686445637108899800,7.23589990234375,-0.004756254616379738,-0.016281290981639177,0.030024551385641095
1686445637118916900,7.245916748046875,-0.0006868132203817367,-0.024235446590185165,0.034677930149435994
1686445637128934000,7.255933837890625,-0.0007429273217916488,-0.029416356359422205,0.03563946865797043
1686445637138951000,7.265950927734375,-0.0029547581523656843,-0.03733458213806152,0.027981647381186484
1686445637148968000,7.275968017578125,-0.01030921256840229,-0.037839316789805885,0.013956629160046577
1686445637158985000,7.28598486328125,-0.012077391284704208,-0.042182898952066894,0.002766542103886604
1686445637169002000,7.296001953125,-0.0317582433104515,-0.04138151944130659,-0.0007663081973791122
1686445637179018000,7.30601806640625,-0.038085108244419096,-0.049358471403550354,-0.024829320830106735
1686445637189035000,7.316034912109375,-0.03033200989961624,-0.04282791885733604,-0.03891454480588436
1686445637199051800,7.3260517578125,-0.03204641260206699,-0.03474310434013605,-0.025453590208292007
1686445637209069000,7.336069091796875,-0.023348726883530617,-0.0338303916756995,-0.01253039574921131
1686445637219085800,7.3460859375,-0.017061024916172028,-0.03739069623947144,-0.007145780101418495
1686445637229102800,7.356102783203125,-0.008524667239189147,-0.057524844990670676,-0.02435410453379154
1686445637239120100,7.3661201171875,-0.022764789515733717,-0.05411474428623914,-0.023629297390580176
1686445637249137000,7.376136962890625,-0.016008885514736174,-0.05643646523207426,-0.028553309789299965
1686445637259154000,7.38615380859375,0.003942015624046325,-0.057065703046321865,-0.04408405639827251
1686445637269171000,7.3961708984375,0.0019259996265172958,-0.0587482493057847,-0.04687514842152595
1686445637279188000,7.40618798828125,0.007670680758357047,-0.050830315788090226,-0.04443944570720196
1686445637289204700,7.416204833984375,0.0024012159228324888,-0.0410737686663866,-0.048398412466049194
1686445637299222000,7.426221923828125,0.013924480456113815,-0.04037672631293535,-0.04790273790359497
1686445637309238800,7.43623876953125,0.006257891350984573,-0.047642333401739595,-0.048179216757416723
1686445637319255800,7.446255859375,0.017099603360891343,-0.044941550010442734,-0.03721826228201389
1686445637329273000,7.456273193359375,0.007723872250318527,-0.030126842716336248,-0.02736263870000839
1686445637339288800,7.466288818359375,0.012429857984185218,-0.03231324684470892,-0.011760580420494078
1686445637349305900,7.476305908203125,0.02139993090331554,-0.037976387172937394,-0.0056838908553123475
1686445637359323100,7.4863232421875,0.028114918372035023,-0.03222178743528202,-0.002097264540195465
1686445637369340000,7.49633984375,0.019999416455626487,-0.024408775596786288,0.007120645660161971
1686445637379357000,7.50635693359375,0.013078677281737327,-0.02014613144993782,0.014644611424207686
1686445637389374000,7.5163740234375,0.006707388684153557,-0.026095121248532086,0.007762450695037841
1686445637399391000,7.526390869140625,0.0083873045951128,-0.047137909277249125,-0.0036257892817258834
1686445637409407700,7.53640771484375,0.013084522500634193,-0.043844712950754906,0.006249123522639274
1686445637419425000,7.546425048828125,-0.008410685470700263,-0.04209786928342655,0.02165069079399109
1686445637429442000,7.556442138671875,-0.010796703824400901,-0.04841799394935369,0.013636895686388015
1686445637439458800,7.566458740234375,-0.012726210582256316,-0.05681231280714273,0.0057137014716863626
1686445637449476000,7.57647607421875,-0.017449731972813604,-0.04636429455624893,0.009541735327243804
1686445637459492900,7.586492919921875,-0.01735971560180187,-0.033550405690539624,0.01563654507100582
1686445637469510000,7.596510009765625,-0.006344400590658187,-0.02600656618224457,0.010166004705429077
1686445637479527000,7.60652685546875,0.003028407910466194,-0.01302813440458849,0.0010638298392295837
1686445637489543000,7.61654296875,-0.00689502021074295,-0.010675707793235779,-0.001793313157558441
1686445637499560000,7.626559814453125,0.004348842859268188,-0.018438743010163305,0.0015337854385375975
1686445637509577000,7.636576904296875,-0.013731588232517241,-0.03094283527433872,-0.0015261866539716719
1686445637519594000,7.646593994140625,-0.0320417364269495,-0.035843485063780094,-0.0027069208711385725
1686445637529610800,7.65661083984375,-0.024307342782616613,-0.04456864331113174,-0.023336451923847198
1686445637539628000,7.6666279296875,-0.009891863939166069,-0.045272097139060496,-0.034169980627298355
1686445637549645000,7.67664501953125,-0.013871873486042022,-0.04527677331417799,-0.03302081059217453
1686445637559661800,7.686661865234375,-0.005119242709875106,-0.04924774103807285,-0.013111410507559776
1686445637569679000,7.69667919921875,-0.01099018056988716,-0.04615940136760473,-0.024106851774454114
1686445637579695900,7.70669580078125,-0.003944353711605072,-0.059223465602099894,-0.03736906892955303
1686445637589713000,7.716712890625,0.014905308187007903,-0.06273614989817142,-0.05014905552566051
1686445637599730000,7.72672998046875,0.012674188134074211,-0.06832185934232547,-0.051095980986952776
1686445637609747000,7.736746826171875,-0.004173486292362213,-0.05828881510049105,-0.03704991997778415
1686445637619764000,7.746763916015625,0.015365911436080931,-0.060952773612737654,-0.025983167040348053
1686445637629781000,7.756781005859375,0.014202128353714942,-0.05987140811681747,-0.028317162945866583
1686445637639798000,7.766798095703125,0.014515432086586951,-0.05537321991473436,-0.030562311524152754
1686445637649814000,7.77681396484375,0.023134791871905324,-0.04555706982659176,-0.024370471146702766
1686445637659831000,7.7868310546875,0.018651508978009223,-0.03833440683037043,-0.02601297765672207
1686445637669848000,7.79684814453125,0.0027548516660928723,-0.029639935982227323,-0.030032734692096708
1686445637679864800,7.80686474609375,0.0008604162216186523,-0.023091829513013362,-0.02836100208759308
1686445637689882000,7.816882080078125,-0.010634206739068031,-0.016710311782360075,-0.02422024902105331
1686445637699899000,7.82689892578125,-0.001844166561961174,-0.029965514674782753,-0.012242810979485512
1686445637709916000,7.836916015625,0.0018014964640140532,-0.02792409024136141,-0.0026958149552345273
1686445637719933000,7.846932861328125,0.001606266152858734,-0.024820260740816592,-0.0003916296660900116
1686445637729950000,7.856949951171875,0.006944120049476623,-0.027952713547646998,0.007258008304238319
1686445637739967000,7.866967041015625,0.007776479220390319,-0.03673603172302246,0.002280219891667366
1686445637749984000,7.87698388671875,0.005385200169682502,-0.040523751834500576,-0.0021118775874376296
1686445637760001000,7.8870009765625,-0.0078045362710952755,-0.0435790294855833,-0.005127426016330719
1686445637770017800,7.897017822265625,-0.0016717326045036314,-0.0422068826158531,-0.006636661535501479
1686445637780035000,7.90703515625,0.012078560328483581,-0.05254910240471363,-0.011686346140503883
1686445637790051800,7.9170517578125,0.010211012890934944,-0.040650867079198356,-0.008682488149404526
1686445637800067800,7.92706787109375,0.015161328774690628,-0.043856385122239584,0.0003682487905025482
1686445637810085000,7.937085205078125,0.0038110827207565303,-0.04096358629018068,0.013763152414560317
1686445637820102000,7.947101806640625,0.008008534410595894,-0.03983927670167759,0.004901800566911697
1686445637830119700,7.95711962890625,-0.0029278701454401013,-0.03978140903459862,0.0018219547301530836
1686445637840136700,7.96713671875,-0.014033786049485205,-0.04136341752903536,-0.011297639083862304
1686445637850153700,7.97715380859375,-0.012322890478372574,-0.03968611370027065,-0.014523615393042564
1686445637860170500,7.98717041015625,-0.015459434938430786,-0.02898001076877117,-0.024338322442770004
1686445637870187800,7.997187744140625,-0.01250643035173416,-0.03486234680563211,-0.021974515920877454
1686445637880204800,8.007204833984375,-0.021423311778903005,-0.03488545368658379,-0.024238953721523283
1686445637890221600,8.0172216796875,-0.023202011889219283,-0.04428367062360048,-0.027536826223134993
1686445637900238800,8.02723876953125,-0.014283961418271063,-0.03934066126346588,-0.022957681739330292
1686445637910255600,8.037255615234375,-0.002171498820185661,-0.03968847005413845,-0.015049100571870803
1686445637920272600,8.047272705078125,0.012075637719035148,-0.05023382946597412,-0.019573299998044965
1686445637930289700,8.05728955078125,0.025318565651774406,-0.06331396805243567,-0.012632687079906463
1686445637940306700,8.067306640625,0.011001286485791205,-0.05646454054908827,-0.02196341000497341
1686445637950323500,8.077323486328124,0.006907879692316055,-0.04875935473293066,-0.030503274813294408
1686445637960339700,8.087339599609376,0.003022562691569328,-0.04247663946794346,-0.0398497798293829
1686445637970356700,8.097356689453125,-0.007071545821428299,-0.034708617548644544,-0.03354571124911308
1686445637980373500,8.10737353515625,-0.007480711144208908,-0.039325755955278874,-0.023336451923847198
1686445637990390800,8.117390869140625,-0.012600538375973701,-0.03575023555606603,-0.020855741024017334
1686445638000407800,8.12740771484375,-0.0032417584002017974,-0.024065058459341523,-0.013766659545898436
1686445638010424600,8.137424560546876,-0.00471475356221199,-0.02585544900745153,-0.005669862329959869
1686445638020441900,8.14744189453125,-0.022395956203341484,-0.032649639192223544,-0.0010503858357667922
1686445638030458600,8.157458740234375,-0.013440496331453323,-0.04220922070341185,-0.0001204115092754364
1686445638040475600,8.1674755859375,-0.005136778366565704,-0.03560850726412609,0.00526245057284832
1686445638050492700,8.17749267578125,0.007336334237456321,-0.03519261993961408,-0.0008902268379926681
1686445638060509700,8.187509765625,0.014359364742040633,-0.031991485810745506,-0.0015384616136550901
1686445638070526700,8.197526611328126,0.009354103800654412,-0.030196419087518005,0.002172667863965034
1686445638080543700,8.207543701171875,0.007694061633944511,-0.039256800638604906,0.007715688943862915
1686445638090560800,8.217560791015625,0.004594342052936554,-0.04135757231013849,-0.0013198504269123076
1686445638100577500,8.22757763671875,-0.008935586127638817,-0.04165743203954771,-0.00040273558199405667
1686445638110594800,8.2375947265625,-0.002526303607225418,-0.04490472513139248,-0.005703764599561691
1686445638120610800,8.24761083984375,-0.004235445612668991,-0.0335863355204463,-0.0122258598446846
1686445638130627600,8.257627685546876,0.0006458966881036758,-0.03560731995403767,-0.011366028144955635
1686445638140644900,8.267644775390625,-0.008358663022518158,-0.03477759113162756,-0.017177344772219657
1686445638150661600,8.27766162109375,-0.017459668844938277,-0.043881227302551264,-0.01706044039428234
1686445638160678700,8.2876787109375,-0.017843699726462364,-0.03764642456620931,-0.0058019642770290375
1686445638170695700,8.29769580078125,-0.006001286241412163,-0.036020266402792184,-0.0035550621330738066
1686445638180712700,8.307712646484376,0.0046855274677276605,-0.034818215402960775,-0.0014729951620101928
1686445638190729700,8.317729736328126,0.023420623075962065,-0.042239597575366494,-0.007584756040573119
1686445638200746800,8.327746826171875,0.010382277804613113,-0.05700052885562181,-0.009736381116509436
1686445638210763800,8.337763671875,0.016937106275558472,-0.04836392567455768,-0.02530044547319412
1686445638220780500,8.347780517578125,0.015333178210258484,-0.05293081346498802,-0.03577215512692928
1686445638230797800,8.3577978515625,0.004467500802874565,-0.05440963557958602,-0.04128828819990158
1686445638240814600,8.367814697265626,-0.012191957575082778,-0.05402122078388929,-0.04190262070596218
1686445638250831600,8.37783154296875,-0.0037894554108381267,-0.03742079911679029,-0.03150222272276878
1686445638260848600,8.3878486328125,-0.00485854594707489,-0.0369455828204751,-0.023920389291644095
1686445638270864600,8.39786474609375,-0.02024023947417736,-0.03188013439076021,-0.014012158739566802
1686445638280881700,8.407881591796874,-0.017998598027229307,-0.030276169792842117,0.0018120178580284117
1686445638290898700,8.417898681640626,-0.02718962022066116,-0.026387948448956013,0.009061258333921431
1686445638300915700,8.427915771484376,-0.027775895676016807,-0.03573359494851902,0.007982815447449684
1686445638310932700,8.4379326171875,-0.02031856540739536,-0.047024201503396035,-0.0011567688196897506
1686445638320949800,8.44794970703125,-0.00749240158200264,-0.04538169499337673,-0.008515314888954162
1686445638330966800,8.457966796875,-0.0012286650121212004,-0.03177548670619726,-0.012120645904541014
1686445638340983600,8.467983642578124,0.028698855739831924,-0.03296469649076462,-0.010620762735605239
1686445638351000800,8.478000732421876,0.02273322533369064,-0.03669864058839157,-0.02452010875046253
1686445638361017600,8.488017578125,0.04185118277966976,-0.03869595188545063,-0.022834932142496107
1686445638371034600,8.49803466796875,0.028640403550863263,-0.043172220516670495,-0.01636369030177593
1686445638381052000,8.508052001953125,0.013064064234495161,-0.048428807604312896,-0.020941081219911575
1686445638391068700,8.518068603515625,-0.0016413374662399291,-0.046944414265453815,-0.018503624939918518
1686445638401085700,8.528085693359374,0.004264087185263633,-0.03318769159168005,-0.00890928264260292
1686445638411102700,8.538102783203126,-0.011502806267142295,-0.028865462744701652,0.005384031125903129
1686445638421119700,8.54811962890625,-0.014396774142980575,-0.03709083651006222,0.00670329703092575
1686445638431136500,8.558136474609375,-0.018960721057653427,-0.03856032454073429,0.0013753800064325332
1686445638441152500,8.568152587890625,-0.012681786918640137,-0.03258563404530287,-0.004497895941138267
1686445638451169800,8.578169677734374,-0.005495674806833267,-0.028304595725238323,0.00029752164185047145
1686445638461186600,8.5881865234375,-0.009035539370775222,-0.04088993653208017,-0.018411855003237724
1686445638471203800,8.598203857421876,-0.008075754427909851,-0.04559299965649843,-0.02294599130153656
1686445638481220600,8.608220703125,-0.002153378641605377,-0.0439779656752944,-0.020581015735864638
1686445638491237600,8.618237548828125,0.0061047466158866874,-0.04576747944056987,-0.022888708156347273
1686445638501255000,8.6282548828125,-0.0011561842978000641,-0.051401704201567915,-0.03294540726840496
1686445638511271700,8.638271728515624,-0.003356324690580368,-0.039784605638682836,-0.023564415460824967
1686445638521288700,8.648288818359376,-0.0016056816309690475,-0.029662440074980256,-0.014735796838998793
1686445638531305700,8.6583056640625,-0.011444938600063324,-0.02472965984791517,-0.013337620478868484
1686445638541322800,8.66832275390625,-0.008496025666594504,-0.0363879489377141,-0.012298925080895423
1686445638551339500,8.678339599609375,-0.01915653589069843,-0.05420097953127697,-0.018242343655228612
1686445638561356800,8.688356689453125,-0.018580781829357147,-0.0540992727224715,-0.019050152906775475
1686445638571373800,8.698373779296874,-0.009803601133823394,-0.0558291469886899,-0.004912906482815742
1686445638581390600,8.708390625,0.0017985738545656202,-0.059883116820920256,-0.018474398845434187
1686445638591407900,8.718407958984375,-0.0011281272470951079,-0.05803220999091863,-0.020864508852362632
1686445638601423600,8.728423583984375,0.014073533537983893,-0.03979366572797298,-0.018988193586468697
1686445638611440600,8.738440673828125,0.014345336216688155,-0.022525135540962218,-0.016932430100440977
1686445638621457700,8.748457763671874,0.0149795424669981,-0.014705419967044144,-0.021866379371285438
1686445638631474700,8.758474609375,0.010910101071000098,-0.013183617227245122,-0.03013210341334343
1686445638641491700,8.76849169921875,0.011415127983689308,-0.009808277308940887,-0.008359247544407844
1686445638651508700,8.7785087890625,-0.004734627306461334,-0.02606470784395933,0.01058452237844467
1686445638661525800,8.78852587890625,-0.0246346750408411,-0.02414016952216625,0.016444938844442366
1686445638671542500,8.79854248046875,-0.018569091391563413,-0.031507501686085015,-0.005730652606487274
1686445638681559800,8.808559814453124,-0.02228372800052166,-0.04904228159384802,-0.026103578549623488
1686445638691576800,8.818576904296876,-0.015047347006201743,-0.04987990146176889,-0.022516952234506605
1686445638701593600,8.828593505859375,0.002410568273067474,-0.05778028105646372,-0.009465747481584548
1686445638711611000,8.83861083984375,-0.016012392646074295,-0.0683136577695608,-0.01086860001683235
1686445638721627600,8.848627685546875,-0.002782324194908142,-0.07347615509927273,-0.019352350723743438
1686445638731644700,8.858644775390625,0.008019055804610252,-0.06617578722434118,-0.018240590089559555
1686445638741661700,8.86866162109375,-0.0005552957952022552,-0.06033551849722862,-0.02316460248827934
1686445638751677700,8.878677734375,0.004708323821425438,-0.048106443782150746,-0.015517887127399444
1686445638761694700,8.88869482421875,0.02001812115609646,-0.04625115303797647,-0.007050503033399581
1686445638771711500,8.89871142578125,0.015227964270114898,-0.0341547830581665,-0.005499766460061073
1686445638781728800,8.908728759765625,0.012167407655715941,-0.025036241579055783,-0.015710779350996018
1686445638791745500,8.91874560546875,0.009560440027713776,-0.023935294599831104,-0.021513912671804428
1686445638801762600,8.928762451171876,-0.003750292444229126,-0.024134032042324543,-0.032307109364867206
1686445638811779800,8.93877978515625,-0.009468085569143294,-0.02505553080141544,-0.03480477139949798
1686445638821796600,8.948796630859375,-0.02437280923426151,-0.02304800863759592,-0.03445405826568603
1686445638831813000,8.958813232421875,-0.03980243355631828,-0.022228198421001433,-0.019297405666112898
1686445638841830000,8.968829833984374,-0.02497369773685932,-0.01628801298337057,-0.017655483677983284
1686445638851847200,8.97884716796875,-0.0032271453529596327,-0.018593951838184148,-0.01111000755727291
1686445638861864200,8.9888642578125,0.005928221005201339,-0.017162147203087806,-0.002085574102401733
1686445638871881000,8.998880859375,0.012359715357422828,-0.02803014443172142,-0.008196750459074973
1686445638881898200,9.008898193359375,0.023891163197159764,-0.031449634019006044,-0.022717443242669104
1686445638891915000,9.0189150390625,0.03334054406583309,-0.04339930727081373,-0.029641689547896383
1686445638901932000,9.02893212890625,0.033951953962445255,-0.05484220004426315,-0.02169628350138664
1686445638911949000,9.038948974609376,0.019677344894409178,-0.05786708255708217,-0.0167833770185709
1686445638921965000,9.048965087890625,0.00018529343903064726,-0.06246465774672105,-0.017631518280506134
1686445638931982000,9.058982177734375,0.003319499811530113,-0.05706162965940311,-0.014711831441521644
1686445638941999000,9.0689990234375,-0.011055647021532057,-0.048530222152173515,-0.008762567648291588
1686445638952016100,9.07901611328125,-0.021713234636187552,-0.03825255549950525,-0.01476210032403469
1686445638962033200,9.089033203125,-0.022581834164261818,-0.03079668653560802,-0.015542437046766281
1686445638972050200,9.09905029296875,-0.029388007047772405,-0.028663218170870093,-0.007971125009655952
1686445638982067200,9.109067138671875,-0.018806991800665855,-0.014201562098134309,0.003562660917639732
1686445638992084000,9.119083984375,-0.013085107022523879,-0.0251359208275564,0.0029816461592912674
1686445639002101200,9.129101318359375,-0.00485854594707489,-0.027310616251826285,0.0023345804274082184
1686445639012118000,9.139117919921874,-0.006993219888210296,-0.035392215898633,-0.006271919876337051
1686445639022135000,9.149135009765626,-0.010609072297811507,-0.039762686067819596,-0.011233926197886466
1686445639032152000,9.159152099609376,-0.011007131704688072,-0.0449035560876131,-0.01141454346179962
1686445639042169000,9.169169189453125,-0.014496727386116981,-0.05373891497747972,-0.01485270121693611
1686445639052186000,9.17918603515625,-0.004881342300772667,-0.044955889063049106,-0.012194880184531211
1686445639062203100,9.189203125,-0.010130933392047882,-0.04841010290384292,-0.011720832931995391
1686445639072219100,9.19921923828125,0.0015747019708156585,-0.0420435087476857,0.0037543840974569318
1686445639082236200,9.209236083984376,-0.000678045392036438,-0.03771364458352327,-0.0170142631649971
1686445639092253200,9.219253173828125,-0.0011205284625291825,-0.034491759927570816,-0.02265314583480358
1686445639102270200,9.229270263671875,0.014770868152379988,-0.03257454639570787,-0.025732991671562195
1686445639112287000,9.239286865234375,0.004731704697012901,-0.02989887917935848,-0.024548165801167487
1686445639122304300,9.24930419921875,0.008260463345050812,-0.026692776614427566,-0.018907529565691947
1686445639132321000,9.259321044921874,-0.005575169783830642,-0.035302784049510955,-0.02244797865152359
1686445639142338000,9.269338134765626,-0.00841302355825901,-0.028367742355633524,-0.011526187142729759
1686445639152355000,9.27935498046875,0.009181085321307183,-0.02897650363743305,-0.018158172503113745
1686445639162372000,9.2893720703125,0.007076806518435477,-0.031231004565954207,-0.009496727141737937
1686445639172389000,9.29938916015625,0.0006125789403915405,-0.03596855448186397,-0.014909984362125395
1686445639182406100,9.30940625,-0.00871580589711666,-0.038166649048030375,-0.011359598404169082
1686445639192423200,9.319423095703126,-0.014008067086338996,-0.036919279335439203,-0.010161328530311584
1686445639202440000,9.32943994140625,-0.016151508855819702,-0.0405053211286664,-0.006263152047991752
1686445639212457200,9.339457275390625,-0.012202478969097137,-0.04986263979971409,-0.00573123712837696
1686445639222474000,9.349473876953125,0.0003004442512989044,-0.043759080493915824,0.011285948646068572
1686445639232491000,9.359490966796875,-0.01843114422559738,-0.041652755864430215,0.0076268416166305536
1686445639242507300,9.36950732421875,-0.025010522615909574,-0.04689268407821655,-0.014924012887477875
1686445639252524000,9.37952392578125,-0.008980009791254996,-0.03980243355631828,-0.01961421653032303
1686445639262541000,9.389541015625,-0.014497896429896354,-0.03564794422537088,-0.012290741774439812
1686445639272558300,9.399558349609375,-0.004991816937923431,-0.027050211749970913,-0.00821954681277275
1686445639282575000,9.4095751953125,0.015517887127399444,-0.02532236504405737,-0.010123334607481957
1686445639292592000,9.419592041015624,0.01699906559586525,-0.031176936291158197,-0.014483867904543877
1686445639302609200,9.429609130859374,-0.0002665419816970825,-0.041779871109127995,-0.017529226949810982
1686445639312626200,9.439626220703126,-0.00039396775364875793,-0.04068126221746206,-0.022063363248109816
1686445639322643000,9.449642822265625,-0.00718085141479969,-0.04556554539399221,-0.018574352088570594
1686445639332660200,9.45966015625,-0.007709843724966049,-0.029569811621773988,-0.022442133432626722
1686445639342677000,9.469677001953125,-0.010114566779136656,-0.026962533466517925,-0.015437223106622695
1686445639352694000,9.479694091796874,-0.00390869787633419,-0.031173136898875235,-0.008275076392292975
1686445639362711300,9.489711181640626,0.015374094742536544,-0.02783405560404062,-0.018024901512265205
1686445639372728000,9.49972802734375,0.0028740941315889357,-0.038489889653027055,-0.0000263034850358963
1686445639382745000,9.5097451171875,0.00722878220975399,-0.04204261369854211,-0.010199322453141212
1686445639392762000,9.51976220703125,0.010316811352968216,-0.03829582838565111,-0.013728081101179122
1686445639402778000,9.529778076171874,0.01853226651251316,-0.035662867799866944,-0.0225695592045784
1686445639412795100,9.539795166015624,0.0034200375765562055,-0.028122243161965158,-0.030796120280027386
1686445639422812200,9.549812255859376,0.007860065850615501,-0.03850481322752312,-0.03413257122635841
1686445639432829200,9.5598291015625,-0.0008937339693307876,-0.03520107724070549,-0.02162321826517582
1686445639442846000,9.569845947265625,-0.009334230056405067,-0.04023644105941057,-0.006108253747224807
1686445639452863200,9.57986328125,-0.011202362015843391,-0.04011865989863872,-0.01210252572596073
1686445639462880300,9.58988037109375,-0.01137362692952156,-0.0457838460534811,-0.008583119428157806
1686445639472897000,9.59989697265625,-0.015295768809318542,-0.0455137969404459,-0.005820084455609322
1686445639482914300,9.609914306640626,-0.013550970968604087,-0.04006634518951177,0.0032107787400484085
1686445639492931000,9.61993115234375,-0.014898293924331665,-0.03886076879203319,0.008836801928281783
1686445639502948000,9.629947998046875,-0.011361351969838143,-0.040456513550877565,-0.0055716626524925225
1686445639512965000,9.639965087890625,-0.012023615270853041,-0.04130436255186796,-0.009807108265161514
1686445639522982100,9.649982177734374,-0.0009510171145200729,-0.035794677485991265,-0.01534369960427284
1686445639532999000,9.6599990234375,-0.0064209729582071304,-0.02805210053520277,-0.02109071882367134
1686445639543016200,9.67001611328125,-0.0014829320341348648,-0.031660354160238054,-0.012673019090294836
1686445639553033200,9.680033203125,0.01144201599061489,-0.03146307802246883,-0.00505202269256115
1686445639563050000,9.690050048828125,0.003918634748458862,-0.034683190846443175,-0.00038461540341377254
1686445639573066000,9.70006591796875,-0.008880056548118591,-0.028276830935478208,-0.009963760131597518
1686445639583083300,9.710083251953124,-0.016570611050724982,-0.020814842758048326,-0.01144552312195301
1686445639593100000,9.72010009765625,-0.011221651238203048,-0.024305881477892397,-0.023337036445736883
1686445639603117300,9.730117431640625,-0.006676409024000168,-0.03880408843504265,-0.026549568751454353
1686445639613134000,9.740134033203125,-0.006460720446705818,-0.03934884456992149,-0.029705986955761907
1686445639623151000,9.750151123046875,-0.002758358797430992,-0.03807811224805191,-0.021418635603785513
1686445639633168100,9.760168212890624,-0.0025976152777671814,-0.04639554821103811,-0.015535422784090041
1686445639643185200,9.77018505859375,0.017190788775682447,-0.06257365281283855,-0.025751696372032163
1686445639653202200,9.7802021484375,0.013712299010157584,-0.06928016471415757,-0.01899929950237274
1686445639663219200,9.79021923828125,0.00640226825773716,-0.05174333897978067,-0.016736615267395973
1686445639673236200,9.800236328125,0.005664017111063003,-0.03282762610763311,0.003233575093746185
1686445639683253000,9.8102529296875,0.0058604164659976955,-0.017949498188495634,-0.006143909582495689
1686445639693270300,9.820270263671874,0.002286649632453918,-0.020475217273831368,-0.0068622869849205015
1686445639703287000,9.830287109375,-0.0033399580776691433,-0.02627338215857744,-0.021564181554317472
1686445639713304000,9.840303955078125,-0.004039630779623985,-0.02405921324044466,-0.006150339323282242
1686445639723320000,9.850320068359375,-0.0247872352540493,-0.026126977691520004,0.004407879570126534
1686445639733337000,9.860337158203125,-0.024310849913954734,-0.026579105373192576,-0.016024083083868025
1686445639743354000,9.87035400390625,-0.012907996889948843,-0.03168694990621879,-0.014061258578300475
1686445639753371000,9.880370849609376,-0.023625790259242056,-0.029740473747253415,-0.0034013328760862348
1686445639763388200,9.89038818359375,-0.003509469425678253,-0.03721300158500671,0.002928454667329788
1686445639773405200,9.9004052734375,-0.013733341798186301,-0.04671734577761963,0.007782324439287185
1686445639783422000,9.910421875,-0.01764905393719673,-0.04646043014079332,-0.008312485793232917
1686445639793439200,9.920439208984375,0.0008703530937433242,-0.05068508036481216,-0.02332593052983284
1686445639803456000,9.9304560546875,0.009001052579283714,-0.042959162287879736,-0.020124504140019414
1686445639813473300,9.940473388671874,0.010932897424697875,-0.04291590766804292,-0.01421615687906742
1686445639823490000,9.950489990234376,0.010796703824400901,-0.04255114774256944,-0.02136076793670654
1686445639833506800,9.9605068359375,0.009638765960931777,-0.05060293677300214,-0.028082185146212576
1686445639843524000,9.970524169921875,0.015218611919879912,-0.054686406694352624,-0.028369185394048688
1686445639853540900,9.980540771484375,0.01880757632255554,-0.05370616348534822,-0.02613572725355625
1686445639863558100,9.99055810546875,0.01443009189069271,-0.041074937710165974,-0.019631752187013626
1686445639873575000,10.000574951171876,-0.008521744629740714,-0.024989187566936015,-0.023908698853850364
1686445639883592000,10.010592041015625,-0.016317513072490693,-0.019029110118746757,-0.008415361645817757
1686445639893608000,10.02060791015625,-0.02895779893696308,-0.00445464132130146,-0.0032920272827148436
1686445639903625000,10.030625,-0.016277765583992004,-0.020512334413826463,-0.012613982379436492
1686445639913642000,10.04064208984375,-0.012732640323042868,-0.02062458088295534,-0.023996377137303352
1686445639923658800,10.05065869140625,-0.008123100700974464,-0.02117868936806917,-0.02977729862630367
1686445639933676000,10.060676025390626,0.009337737187743186,-0.03684360201703384,-0.030035072779655454
1686445639943692800,10.07069287109375,0.029973113459348676,-0.04628711940050125,-0.039295068556070324
1686445639953709800,10.080709716796875,0.032545594295859334,-0.05451163464933634,-0.03797989430427551
1686445639963727000,10.09072705078125,0.024751579418778417,-0.04759062148081138,-0.030908348482847212
1686445639973743900,10.100743896484374,0.004698386949300765,-0.051125499342381954,-0.030757541835308072
1686445639983761000,10.110760986328126,-0.0006055646777153015,-0.04400660724788904,-0.0312964710175991
1686445639993778000,10.12077783203125,-0.02574351306557655,-0.042213878612220285,-0.018871873730421065
1686445640003795000,10.130794921875,-0.018455694144964216,-0.03938683849275112,0.00035480478703975673
1686445640013811700,10.140811767578125,-0.01837444560229778,-0.041675826212763785,0.006735445734858512
1686445640023829000,10.1508291015625,-0.013541618618369103,-0.043830666159093375,-0.003867196822166443
1686445640033846000,10.160845947265624,-0.016665888118743897,-0.04376695327311754,-0.011045710149407386
1686445640043863000,10.170863037109376,-0.005319733718037605,-0.03586334054172039,-0.0003454524368047714
1686445640053880000,10.180880126953125,-0.01288987671136856,-0.03756782463835552,-0.009743395379185676
1686445640063896000,10.19089599609375,-0.006701543465256691,-0.031477106547821314,-0.003285597541928291
1686445640073912800,10.200912841796875,0.007293079617619514,-0.034576515601575375,-0.005931728136539459
1686445640083930000,10.21093017578125,0.010149053570628166,-0.04120822696732357,-0.01925064391493797
1686445640093947000,10.22094677734375,0.004881926822662353,-0.047965866267681116,-0.02461246320903301
1686445640103964000,10.2309638671875,-0.0010673369705677031,-0.04457534704655409,-0.014473346510529518
1686445640113981000,10.24098095703125,-0.0012549684971570967,-0.04234424525992945,-0.006631985360383987
1686445640123998000,10.250998046875,-0.006522679767012596,-0.03575580678032711,0.00301028773188591
1686445640134014700,10.2610146484375,-0.0010725976675748825,-0.036903807771671564,0.0017968202888965605
1686445640144032000,10.271031982421874,-0.005644143366813659,-0.04247167103188112,-0.008303717964887618
1686445640154049000,10.281049072265626,0.0022509937971830368,-0.03913025164948776,-0.024160043266415594
1686445640164065800,10.291065673828125,0.005353635987639427,-0.03443011113451794,-0.028501287341117856
1686445640174083000,10.3010830078125,0.0310831205278635,-0.02744215194331482,-0.027325813820958136
1686445640184099800,10.311099853515625,0.03021510552167892,-0.032252748829126356,-0.01948211458325386
1686445640194116900,10.321116943359375,0.026672318348288534,-0.03478199331210926,-0.025482816302776334
1686445640204134000,10.3311337890625,0.016865794605016707,-0.04096300176829099,-0.03162088066637516
1686445640214151000,10.34115087890625,-0.0010065466940402984,-0.04595187783045694,-0.029318448942899703
1686445640224167000,10.3511669921875,0.00208440505862236,-0.037785540775954723,-0.02540799750089645
1686445640234184000,10.361183837890625,-0.007707505637407302,-0.032444179747998715,-0.009834580793976783
1686445640244201000,10.371200927734375,-0.012806290081143378,-0.04096154046356678,-0.003797638717293739
1686445640254218000,10.381218017578124,-0.020177695631980894,-0.026399638886749743,-0.01509761588871479
1686445640264235000,10.391235107421876,-0.019848609808087347,-0.033681028066575525,-0.020573416951298714
1686445640274252000,10.401251953125,-0.009468085569143294,-0.04695610470324754,-0.03780629130303859
1686445640284268800,10.411268798828125,-0.00621054507791996,-0.04471738586574792,-0.03030278380513191
1686445640294286000,10.4212861328125,-0.011479425391554832,-0.044397944653034205,-0.00978022025823593
1686445640304302800,10.431302734375,-0.025005261918902396,-0.04160714489072561,-0.02040624369084835
1686445640314320000,10.44131982421875,-0.012923778980970382,-0.04214461276829243,-0.016752981880307195
1686445640324337000,10.4513369140625,-0.011760580420494078,-0.04157236583828926,-0.008712883287668227
1686445640334354000,10.46135400390625,0.0024766192466020584,-0.03892420768337324,-0.008014379629492759
1686445640344371000,10.471370849609375,0.005445990446209907,-0.03688861020253971,0.002483048987388611
1686445640354388000,10.481387939453125,0.006655950757861137,-0.0326213081468828,-0.0031990883022546767
1686445640364405000,10.491405029296875,0.005315057542920112,-0.04172697187811136,-0.020403905603289602
1686445640374421800,10.501421875,0.0038917467415332794,-0.041105040587484834,-0.01896539723277092
1686445640384439000,10.51143896484375,0.007907412123680114,-0.035029520066082474,-0.019433014744520187
1686445640394455000,10.521455078125,0.020350714111328123,-0.03671937284916639,-0.02001812115609646
1686445640404471800,10.531471923828125,0.013563245928287506,-0.03204407451450825,-0.0225999543428421
1686445640414489000,10.541489013671875,0.005311550411581992,-0.03902445318745449,-0.018086276310682294
1686445640424505900,10.551505859375,0.005914192479848862,-0.036027591192722315,-0.015048516049981116
1686445640434523000,10.56152294921875,0.009047229808568953,-0.038494273567199706,-0.0066284782290458675
1686445640444540000,10.571539794921875,0.009058335724473,-0.029867607258260247,-0.007071545821428299
1686445640454557000,10.581556884765625,0.001332125386595726,-0.029170272643864154,-0.010372925454378127
1686445640464574000,10.591573974609375,0.014238953232765196,-0.024312603479623794,0.003331190249323845
1686445640474591000,10.601591064453125,0.003747369834780693,-0.028958986247051507,0.0016910218268632888
1686445640484608000,10.61160791015625,-0.003847907599806785,-0.037848395145405084,-0.013082184413075446
1686445640494624800,10.621624755859376,-0.005339022940397262,-0.037545886801183224,-0.015160159730911255
1686445640504642000,10.63164208984375,-0.010071896681189536,-0.04213789076656103,-0.017749591702222824
1686445640514658800,10.641658935546875,-0.001880406919121742,-0.03993833489567041,-0.022605799561738967
1686445640524675800,10.65167578125,-0.00741699825823307,-0.03962941507697105,-0.017967033845186234
1686445640534693000,10.661693115234375,-0.013846154522895813,-0.031229835522174832,-0.020204583638906478
1686445640544710000,10.6717099609375,-0.0019096330136060713,-0.0318415559460409,-0.020228549036383627
1686445640554727000,10.681726806640626,-0.014615385329723358,-0.0453895860388875,-0.00985036288499832
1686445640564743200,10.6917431640625,-0.01758592557311058,-0.04585048154890537,-0.007541501420736312
1686445640574760000,10.701760009765625,-0.0062087915122509,-0.047504678496718404,-0.010332593443989754
1686445640584777000,10.71177685546875,-0.0032078561305999755,-0.038622283861041065,-0.01641337466239929
1686445640594794000,10.7217939453125,-0.0036433249384164807,-0.04494156827675178,-0.012318798825144767
1686445640604811000,10.73181103515625,0.0066594578891992565,-0.03818712558047846,-0.02015782188773155
1686445640614827800,10.741827880859375,0.007502338454127311,-0.03338087607622146,-0.029010405907034874
1686445640624845000,10.751844970703125,0.0023848493099212645,-0.04165595246851444,-0.03380874609947204
1686445640634861800,10.76186181640625,0.0007779986351728439,-0.041485856598615645,-0.02798749260008335
1686445640644878800,10.77187890625,-0.004154197070002556,-0.031881595695484426,-0.013814005818963051
1686445640654896000,10.781896240234374,-0.015194062000513075,-0.027908892672229558,-0.006502221500873566
1686445640664913000,10.791912841796876,-0.0021340894192457198,-0.03324060908900574,0.0027127660900354384
1686445640674930000,10.801929931640625,-0.0004845686465501785,-0.029315836860705165,0.02743278132677078
1686445640684947000,10.811947021484375,-0.01272387249469757,-0.01165244387090206,0.07321312024891376
1686445640694964000,10.8219638671875,-0.019903554865717887,0.007548826210666448,0.08049860108196735
1686445640704980700,10.831980712890624,-0.009019757279753685,-0.002261515191197395,0.010537176105380058
1686445640714998000,10.841998046875,0.037226445588469506,-0.044996787329018115,-0.05739011269509792
1686445640725015000,10.85201513671875,0.05806055930256843,-0.05352759204804897,-0.07421089911460876
1686445640735030800,10.86203076171875,0.06213000069856643,-0.0359694312646985,-0.06110241121649742
1686445640745048000,10.872048095703125,0.0633382074445486,-0.037497389750648286,-0.05264379495084286
1686445640755065000,10.882065185546875,0.04642331300079822,-0.05509412897871807,-0.05694938319027423
1686445640765081900,10.892081787109374,0.028595979887247085,-0.06665010847151279,-0.05167115052640438
1686445640775099100,10.90209912109375,-0.013709376400709152,-0.06759849523752927,-0.020263620349764824
1686445640785116000,10.912115966796875,-0.06324585298597812,-0.051103598037827755,0.0019160627543926237
1686445640795133000,10.9221328125,-0.09432312829494476,-0.03591771934377029,0.019412556478381155
1686445640805150000,10.93214990234375,-0.09651508538126945,-0.04409662361890077,0.03079904288947582
1686445640815167000,10.9421669921875,-0.060822425231337546,-0.06401831692950799,0.03973930519223213
1686445640825183700,10.952183837890624,-0.02433364626765251,-0.056393795134127137,0.02727028424143791
1686445640835201500,10.962201416015626,0.007837269496917725,-0.027533319091796873,0.005147299760580063
1686445640845218600,10.972218505859376,0.01153086331784725,-0.01594606767790392,-0.018043021690845488
1686445640855235600,10.982235595703125,0.01194528933763504,-0.013547463837265968,-0.040325580647587775
1686445640865252600,10.992252685546875,0.013486673560738563,-0.032475762196350844,-0.049075873336195945
1686445640875269600,11.00226953125,0.03114332628250122,-0.04219634295552969,-0.04806289690136909
1686445640885286700,11.01228662109375,0.021493454405665396,-0.04315145172327756,-0.03691021924614906
1686445640895303400,11.022303466796876,0.0050970308780670165,-0.027685020788479595,-0.023318331745266912
1686445640905319400,11.0323193359375,-0.016574118182063103,-0.03430034727500751,-0.03145136931836605
1686445640915336700,11.042336669921875,-0.017029460734128952,-0.03189180656224489,-0.019806524232029915
1686445640925353500,11.052353515625,-0.033092122262716295,-0.03780658356398344,-0.004354103556275368
1686445640935370800,11.062370849609374,-0.03553483923971653,-0.04132922299848869,0.012125322079658508
1686445640945387500,11.072387451171876,-0.029006314253807067,-0.04268237290680408,0.0022445640563964844
1686445640955404500,11.082404541015626,-0.005044423907995223,-0.03880582373440265,-0.01807692396044731
1686445640965421600,11.092421630859375,0.011059154152870178,-0.04055442096740007,-0.03251578367948532
1686445640975438600,11.1024384765625,0.03218435976803303,-0.044152737720310684,-0.0375578694999218
1686445640985455600,11.11245556640625,0.044397944653034205,-0.03939531406015157,-0.02189151381254196
1686445640995472600,11.12247265625,0.05523907214105129,-0.043299335761368275,-0.011168459746241569
1686445641005489700,11.13248974609375,0.04358487470448017,-0.05289280127584934,-0.0014624737679958342
1686445641015506400,11.14250634765625,0.019259996265172958,-0.034741643035411836,-0.00912497121989727
1686445641025523700,11.152523681640625,0.0036859950363636014,-0.03230040562944487,-0.00845744722187519
1686445641035540500,11.16254052734375,-0.018538111731410026,-0.021631693832576272,-0.006201192727684974
1686445641045557500,11.1725576171875,-0.029877836391329765,-0.025763989598024634,-0.011125789648294448
1686445641055574500,11.182574462890624,-0.018382044386863708,-0.027965865290164947,-0.014160627299547195
1686445641065590500,11.192590576171876,-0.0019219079732894896,-0.032491526021063324,-0.02751695247888565
1686445641075607600,11.202607666015625,0.011179565662145613,-0.041012412134278566,-0.034977205356955525
1686445641085624600,11.21262451171875,0.014058335968852042,-0.03489831316815689,-0.03762216690778732
1686445641095641600,11.2226416015625,0.018040099081397056,-0.025459745954442767,-0.029047230786085128
1686445641105658600,11.23265869140625,0.01571720909178257,-0.025936715816427022,-0.01777764875292778
1686445641115675400,11.24267529296875,0.008512976801395416,-0.022947160345315933,-0.002963525980710983
1686445641125692700,11.252692626953126,0.004516600641608238,-0.02802024409221485,-0.0007236380994319916
1686445641135709400,11.26270947265625,-0.014184008175134658,-0.039055706842243666,-0.007194295418262481
1686445641145726700,11.272726806640625,-0.01709142005443573,-0.03777385033816099,-0.015811901637911796
1686445641155743500,11.282743408203125,-0.011508066964149475,-0.03649842357486486,-0.0235585702419281
1686445641165760500,11.292760498046874,-0.016400515180826185,-0.03534194701611996,-0.019784312400221823
1686445641175777800,11.30277783203125,-0.0050064299851655955,-0.04617401441484689,-0.006046294426918029
1686445641185794600,11.312794677734376,-0.00652034167945385,-0.053347285311389714,-0.010336100575327873
1686445641195811600,11.3228115234375,0.0017021277427673339,-0.05032032043933868,-0.014670330387353896
1686445641205828600,11.33282861328125,0.01261456690132618,-0.04309416857808828,-0.011717325800657272
1686445641215845600,11.342845703125,0.006359598159790039,-0.03809416833370924,-0.01756488278508186
1686445641225862400,11.3528623046875,-0.0013303718209266662,-0.03803657466126606,-0.011946458381414412
1686445641235879700,11.362879638671876,-0.0029342998862266537,-0.039616555595397944,-0.0172843122780323
1686445641245895700,11.372895751953125,-0.020591537129878996,-0.03353139046281576,-0.017773557099699973
1686445641255912400,11.382912353515625,-0.011588730984926222,-0.0406686949968338,-0.01471592309474945
1686445641265929500,11.392929443359375,-0.012397709280252456,-0.044533845992386335,-0.01571720909178257
1686445641275946500,11.402946533203124,-0.018625790014863013,-0.05352408491671085,-0.00412087932229042
1686445641285963500,11.412963623046876,-0.012100187638401984,-0.0529971384331584,0.006453121662139892
1686445641295980500,11.42298046875,-0.005257189875841141,-0.0463023169696331,-0.004660977548360824
1686445641305997600,11.43299755859375,0.010122165563702584,-0.04542087622629478,-0.011432663640379905
1686445641316014600,11.4430146484375,0.033142975667119025,-0.03664455404728651,-0.016593991926312446
1686445641326031600,11.453031494140625,0.040646483165025706,-0.03439794416427612,-0.01972176855802536
1686445641336048600,11.463048583984374,0.03868365865945816,-0.03197510093152523,-0.02270925993621349
1686445641346065400,11.4730654296875,0.03641805181503296,-0.031583179004490376,-0.025147300738096234
1686445641356082700,11.483082763671876,0.011592238116264343,-0.03580664191842079,-0.027857728740572928
1686445641366099700,11.493099609375,-0.012468436428904533,-0.0321112945318222,-0.017383680999279023
1686445641376116500,11.503116455078125,-0.024861469534039497,-0.017095511707663536,-0.014159458255767822
1686445641386133800,11.5131337890625,-0.02192424703836441,-0.0263230665192008,-0.010542436802387237
1686445641396150500,11.523150634765624,-0.017359131079912184,-0.03830839560627937,-0.013881225836277006
1686445641406167600,11.53316748046875,-0.008453355568647384,-0.04223199879080057,-0.019569208344817162
1686445641416183600,11.54318359375,0.008160510101914405,-0.03995791637897491,-0.021912556600570676
1686445641426200600,11.55320068359375,0.008837970972061156,-0.034219664987921714,-0.017021861949563025
1686445641436217600,11.563217529296875,0.009992986226081848,-0.04050590565055608,-0.0010217442631721496
1686445641446234400,11.573234375,0.004588496834039688,-0.03218289846330881,-0.0011076689809560775
1686445641456251600,11.583251708984376,-0.004812953239679336,-0.039003099872171876,-0.00479191045165062
1686445641466268400,11.593268310546875,-0.01851999155282974,-0.05265840799808502,-0.0007768295913934707
1686445641476285400,11.603285400390625,-0.033707039290666575,-0.046770811264216894,-0.010129764348268509
1686445641486302700,11.613302734375,-0.03977262293994426,-0.044037020652461796,-0.013707622835040092
1686445641496319500,11.623319580078125,-0.03300327493548393,-0.04531798210740089,-0.013631634989380836
1686445641506336500,11.63333642578125,-0.014244798451662063,-0.0410737686663866,-0.011361936491727828
1686445641516353500,11.643353515625,-0.015665186643600462,-0.042375791175663466,-0.01666004289984703
1686445641526370600,11.65337060546875,0.0007043488770723343,-0.038321255087852474,-0.0021188918501138685
1686445641536387600,11.6633876953125,0.0169575645416975,-0.03835342205809429,0.003023731735348701
1686445641546404600,11.673404541015625,0.0212362647742033,-0.04620090242177248,-0.0014607202023267745
1686445641556421600,11.683421630859375,0.019113281270861624,-0.04428368888990953,-0.007364975810050964
1686445641566438700,11.693438720703124,0.01799509089589119,-0.036329789009690285,-0.020369418811798094
1686445641576455700,11.70345556640625,0.016785130584239957,-0.038036008405685426,-0.02530044547319412
1686445641586472400,11.713472412109375,0.00993453403711319,-0.040891982358694075,-0.026968670946359633
1686445641596488400,11.723488525390625,0.008307809618115424,-0.03963087638169527,-0.0234060100287199
1686445641606505700,11.733505615234375,0.005852233159542084,-0.032013679376244546,-0.018151742762327193
1686445641616522500,11.7435224609375,-0.001201192483305931,-0.03632072892040014,-0.013015548917651176
1686445641626539500,11.75353955078125,-0.0027419921845197675,-0.036599545861780644,-0.012983984735608101
1686445641636556500,11.763556640625,0.01389934601485729,-0.039381870056688785,-0.012402969977259636
1686445641646573600,11.773573486328125,0.00841302355825901,-0.03267742224829271,-0.010458850172162056
1686445641656590300,11.78359033203125,0.010634791260957717,-0.03729923683004453,-0.015690321084856986
1686445641666607600,11.793607666015625,0.004424830704927444,-0.04147913459688425,-0.013520575830340385
1686445641676624600,11.803624755859374,0.0029267011016607283,-0.040700551439821715,-0.010507365489006042
1686445641686641400,11.813641357421876,-0.0023866028755903245,-0.0302794211958535,-0.020865677896142003
1686445641696658700,11.82365869140625,-0.011356091272830963,-0.02804272991865873,-0.01929506757855415
1686445641706675500,11.833675537109375,-0.01930734253823757,-0.027421401416230944,-0.009322539618611335
1686445641716692500,11.8436923828125,-0.004461655583977699,-0.03525894490778446,-0.009784896433353424
1686445641726709500,11.85370947265625,-0.010430793121457099,-0.038034273106325414,0.003954290583729743
1686445641736726500,11.8637265625,-0.019180501288175583,-0.04907209221022203,-0.006608604484796524
1686445641746743600,11.87374365234375,-0.02926584197282791,-0.05565729755312204,-0.009084639209508895
1686445641756759600,11.883759521484375,-0.014632920986413955,-0.05635258634090423,-0.011948211947083473
1686445641766776600,11.893776611328125,0.003344634252786636,-0.04860564374225214,-0.0026508067697286605
1686445641776793600,11.903793701171875,0.009272855257987975,-0.04586451007425785,-0.019443536138534546
1686445641786810600,11.913810546875,0.015030395871400832,-0.04719079024195671,-0.01953998225033283
1686445641796827600,11.92382763671875,0.01262801090478897,-0.04160509906411171,-0.013793547552824019
1686445641806844400,11.933844482421875,0.0078080434024333945,-0.04005173214226961,-0.020831191104650496
1686445641816861700,11.94386181640625,0.016191840866208076,-0.03509438372952863,-0.022500001099705694
1686445641826878500,11.95387841796875,0.00606850625872612,-0.03397621162086725,-0.020247838258743284
1686445641836895000,11.96389501953125,-0.008942600390315055,-0.03615032252324745,-0.021055647510290144
