time,seconds_elapsed,z,y,x
1686445395633484800,0.13948486328125,-0.003232406049966812,0.011382577420957387,-0.05918459489643573
1686445395643502000,0.149502197265625,0.011697452056407927,-0.011943681902438401,-0.0444376921415329
1686445395653518800,0.159518798828125,0.037951837253570556,-0.029251813447475433,-0.009870821151137351
1686445395663535900,0.169535888671875,0.03669102353751659,-0.04517239962425083,0.014828151297569274
1686445395673552000,0.1795517578125,-0.0036620296388864514,-0.031401831088215114,0.01626958227753639
1686445395683569000,0.18956884765625,-0.05022328980565071,0.0054563657097518444,0.008253449082374572
1686445395693586000,0.1995859375,-0.08211363506317138,0.047615153133869166,0.014957915157079695
1686445395703602000,0.209601806640625,-0.07595452791154385,0.05028013455942273,-0.01386369017958641
1686445395713619000,0.219618896484375,-0.02708206819295883,0.007551584423333406,-0.03572890050709247
1686445395723636000,0.229635986328125,0.015201660785079002,-0.015156798730045556,-0.04668108715415001
1686445395733652000,0.23965185546875,0.03010463088452816,-0.02845817885175347,-0.05464227529168129
1686445395743668700,0.249668701171875,0.025217443364858625,-0.05068944601267576,-0.07286474520266055
1686445395753686000,0.25968603515625,0.011680500921607016,-0.05886690724939107,-0.0889841053545475
1686445395763702800,0.269702880859375,0.001693359914422035,-0.050946781774610275,-0.08183598716557025
1686445395773718800,0.27971875,-0.02659457693696022,-0.04711626370102167,-0.04226151714622974
1686445395783736000,0.289736083984375,-0.04757423660159111,-0.02774783862531185,-0.00929272900223732
1686445395793752800,0.2997529296875,-0.07175006195902824,-0.016554061774723232,0.025583938589692115
1686445395803768800,0.309768798828125,-0.06852700825929642,-0.014684651173651218,0.03399871571362018
1686445395813785900,0.319785888671875,-0.05484510438740253,-0.010247655106894672,0.03299099997580051
1686445395823803000,0.329802978515625,-0.050261283728480335,-0.004265913816168904,0.028114918372035023
1686445395833819000,0.33981884765625,-0.04565934289097786,-0.007427227391302585,0.013375029879808426
1686445395843836000,0.3498359375,-0.043212534260749814,-0.011907879936695098,-0.0014203881919384001
1686445395853853000,0.35985302734375,-0.04485620981454849,-0.005411065263301134,-0.026885668838024138
1686445395863870000,0.369869873046875,-0.04072130196690559,-0.009553718025982379,-0.026495792737603188
1686445395873886000,0.379885986328125,-0.023942016601562498,-0.02210672746580094,-0.028870705175399778
1686445395883903000,0.389903076171875,0.015466449201107024,-0.035163777437619864,-0.03958499141335487
1686445395893920000,0.399919921875,0.03799509187340736,-0.02388619476109743,-0.03682429452836513
1686445395903936000,0.40993603515625,0.03471650859415531,-0.01604044969677925,-0.03160685214102268
1686445395913952800,0.419952880859375,0.02469312722980976,-0.005607903009653091,-0.03658230246603489
1686445395923970000,0.429969970703125,0.04299275403022766,-0.001188333001732826,-0.04109656502008438
1686445395933986800,0.43998681640625,0.039001054045557974,-0.0019176701895892618,-0.056097150275111196
1686445395944002800,0.4500029296875,0.060090019303560255,0.0010498013138771057,-0.04752630580663681
1686445395954020000,0.46002001953125,0.029806524720788,0.0029074484119191763,-0.04169862256646156
1686445395964036900,0.470036865234375,0.007191957330703735,-0.01643222549334168,-0.030281741017103195
1686445395974052900,0.480052978515625,-0.0017126491367816924,-0.02449263622164726,-0.026986791124939916
1686445395984070000,0.49006982421875,-0.005965045884251594,-0.020098785176873205,-0.017506430596113204
1686445395994087000,0.5000869140625,-0.018084522745013237,-0.023580891671590505,-0.006153846454620361
1686445396004103000,0.51010302734375,-0.03312544001042843,-0.01758282030057162,-0.008471475747227668
1686445396014120000,0.520119873046875,-0.03345218774676323,-0.017008271815627814,-0.00564063623547554
1686445396024137000,0.530136962890625,-0.03979483477175236,-0.01909921621289104,-0.012139935126900672
1686445396034154000,0.540154052734375,-0.04654080190062523,-0.02242766651585698,-0.027579496321082114
1686445396044170000,0.550169921875,-0.05891688387095928,-0.005918539861403406,-0.010466448956727981
1686445396054186800,0.560186767578125,-0.05351882421970367,0.02021309573892504,-0.009973697003722191
1686445396064204000,0.5702041015625,-0.04098375229537487,0.03785440476108342,0.012022446227073668
1686445396074220000,0.580219970703125,-0.017047580912709234,0.03526975856274366,0.03463759813904762
1686445396084236800,0.59023681640625,-0.0026917233020067213,0.03644380731079727,0.05259294154644012
1686445396094254000,0.600254150390625,0.006993804410099983,0.030991935113072393,0.058986441975831985
1686445396104270800,0.610270751953125,-0.005294014754891396,0.030669461693055927,0.05776011505126953
1686445396114286800,0.620286865234375,-0.018489596414566038,0.018612820935435592,0.02552314831316471
1686445396124304000,0.630303955078125,-0.004403203395009041,0.014673289529420435,0.023262802165746686
1686445396134321000,0.64032080078125,0.0019569792866706848,0.0011094225466251372,0.010150807136297225
1686445396144337000,0.6503369140625,0.005060790520906448,-0.007213840368948877,-0.0175806648761034
1686445396154354000,0.66035400390625,0.015161913296580313,0.00320423940140754,-0.027978140249848363
1686445396164371000,0.670370849609375,0.026793314379453658,0.03023702509254217,-0.029019173735380172
1686445396174387000,0.680386962890625,0.009238952988386154,0.021339725148677824,-0.040681554478406906
1686445396184404000,0.690404052734375,0.007031798332929611,-0.024992694698274136,-0.06781506059765816
1686445396194420700,0.700420654296875,0.04016717521548271,-0.06705898153334855,-0.09914952553808688
1686445396204438000,0.71043798828125,0.05705635069608688,-0.07535115519091487,-0.10412088420987128
1686445396214454000,0.7204541015625,0.03343406756818294,-0.07364288996830583,-0.08737374754846096
1686445396224470800,0.730470703125,-0.004350011903047561,-0.06399900944083929,-0.04407061239480972
1686445396234488000,0.740488037109375,-0.02997252893745899,-0.05965878827944398,0.0008960720568895339
1686445396244504000,0.750504150390625,-0.04160509906411171,-0.059129503708332774,0.04919920745491981
1686445396254520800,0.760520751953125,-0.05351999326348304,-0.034025457590073346,0.08405015608370303
1686445396264537900,0.770537841796875,-0.07659750199019909,-0.0015236659033223987,0.08036883722245693
1686445396274555000,0.780554931640625,-0.0652419952392578,0.02699281900692731,0.04755494737923145
1686445396284571000,0.79057080078125,-0.07785773118436336,0.05877762153074145,0.049452305433154105
1686445396294588000,0.800587890625,-0.07674187889695167,0.07003098308146,0.03983049060702323
1686445396304605000,0.81060498046875,-0.06855974148511886,0.07344009740520269,0.01591419296860695
1686445396314621000,0.820620849609375,-0.049751580640673636,0.08702891616616397,-0.0026087211936712262
1686445396324638000,0.830637939453125,-0.017029460734128952,0.0935261326983571,0.0011480009913444518
1686445396334654700,0.84065478515625,0.013661445605754852,0.07009283280391246,-0.015994856989383698
1686445396344671000,0.8506708984375,0.04598199897408485,0.03273337195292115,-0.03601064005792141
1686445396354688000,0.86068798828125,0.06609539719820022,0.0012353870138525963,-0.05043780933916568
1686445396364704800,0.870704833984375,0.07793079642057418,-0.03625248598977923,-0.060141457229852674
1686445396374722000,0.88072216796875,0.07910510089695454,-0.069760312913917,-0.06123275959789753
1686445396384738000,0.890738037109375,0.06558744767606257,-0.08841985906790942,-0.06385375575125217
1686445396394754800,0.9007548828125,0.039088147807121276,-0.09234116069748997,-0.0613514175415039
1686445396404771800,0.910771728515625,0.014065934753417967,-0.09371741748675703,-0.051364861056208605
1686445396414788000,0.9207880859375,-0.0031347908943891523,-0.08770034915432333,-0.03985094887316227
1686445396424804900,0.930804931640625,-0.017588263660669325,-0.06217150175273418,-0.030083003574609756
1686445396434822000,0.94082177734375,-0.01628010367155075,-0.03969148399513214,-0.019669746109843254
1686445396444838000,0.950837890625,-0.055281157717108724,-0.01744253504704684,-0.01426233410835266
1686445396454855000,0.96085498046875,-0.07462474061250686,0.0021015023238956927,-0.015230302357673644
1686445396464872000,0.970871826171875,-0.09706453595757483,0.003642886546999216,-0.032006080591678615
1686445396474888700,0.980888671875,-0.12024725862443446,-0.0013595979154109954,-0.0400759898006916
1686445396484905000,0.990905029296875,-0.1219406185388565,0.006411474477499723,-0.03499298744797706
1686445396494922000,1.000921875,-0.11188742655813694,0.011300123301893472,-0.03536298980414867
1686445396504938800,1.010938720703125,-0.07768529722690581,0.019069442129135132,-0.02294774486720562
1686445396514954800,1.020954833984375,-0.015473463463783263,0.01513926307335496,-0.0009434183299541472
1686445396524972000,1.030971923828125,0.014447627547383308,0.020109635364450512,0.018984686455130576
1686445396534988800,1.04098876953125,0.03407528808116913,0.012368337055295706,0.02907061166167259
1686445396545005800,1.051005859375,0.054712417918443675,0.004972819976508617,0.023829788398742675
1686445396555022000,1.06102197265625,0.0865220991551876,-0.001209814181178808,0.014041969355940818
1686445396565038800,1.071038818359375,0.09294365663528442,0.004270809186995029,-0.004092237749695778
1686445396575056000,1.081055908203125,0.08717267201840877,0.008286803362704813,-0.012742577195167542
1686445396585071900,1.09107177734375,0.09552081364691258,0.008938691400177777,-0.005309212324023246
1686445396595090200,1.101090087890625,0.08584171567559241,-0.014054974967986345,0.0065343702048063276
1686445396605107000,1.11110693359375,0.0507335774153471,-0.01739946309030056,0.009577975684404372
1686445396615123000,1.121123046875,0.02187280911207199,-0.01765679885223508,0.010183540362119674
1686445396625140200,1.13114013671875,0.0024327801048755642,-0.018912790262699125,0.005980243453383445
1686445396635157000,1.141156982421875,-0.0366775795340538,-0.007649784100800752,-0.0026151509344577786
1686445396645174000,1.151174072265625,-0.035083588340878484,0.006058752049691975,-0.00239420166015625
1686445396655190300,1.161190185546875,-0.059120882010459896,0.004875350951403379,0.000810147339105606
1686445396665207000,1.17120703125,-0.0847317086070776,-0.004692505197785794,-0.0068313073247671125
1686445396675224000,1.18122412109375,-0.0820084211230278,-0.014965477409027516,-0.031922493961453434
1686445396685240000,1.191239990234375,-0.08605740425288677,-0.02372998128607869,-0.05541501322984695
1686445396695257000,1.201257080078125,-0.08731295727193356,-0.025680786560289562,-0.05110416429340839
1686445396705274000,1.211274169921875,-0.061197688284516334,-0.009658347444236277,-0.04393149618506431
1686445396715291100,1.221291015625,-0.04415127641558647,-0.002565430041216314,-0.023245851030945775
1686445396725307100,1.23130712890625,-0.009634089785814285,-0.008048574160039424,-0.008297872745990753
1686445396735324200,1.24132421875,0.005971475625038147,-0.008162263667583465,-0.0019499650239944457
1686445396745341200,1.251341064453125,0.01961187844276428,-0.012803513602167367,0.010953355690836906
1686445396755357000,1.26135693359375,0.02553308518528938,-0.012982523430883883,-0.008687748846411705
1686445396765374200,1.271374267578125,0.013032500052452087,-0.005751257003098726,-0.02311316456198692
1686445396775391000,1.281390869140625,0.016234510964155197,0.002422697102278471,-0.03333879050016403
1686445396785407000,1.291406982421875,0.02279693821966648,0.00011416443157941103,-0.039923429587483406
1686445396795424300,1.30142431640625,0.02658756267428398,-0.01692892296910286,-0.04821604163646698
1686445396805441000,1.31144091796875,0.032951252487301824,-0.021329203754663465,-0.04722293894588947
1686445396815458000,1.3214580078125,0.030083588096499442,-0.027402093927562234,-0.056388242176175114
1686445396825474000,1.33147412109375,0.019501988327503203,-0.013025047398358582,-0.05067454070448875
1686445396835491000,1.341490966796875,-0.002466682374477386,-0.004627952061593533,-0.02836684730648994
1686445396845508000,1.351508056640625,-0.032498248022794725,-0.01205222031082958,0.003394318613409996
1686445396855524000,1.361524169921875,-0.05368015226125717,-0.0155655256614089,0.008695932152867316
1686445396865541000,1.371541015625,-0.0670984367609024,-0.015265081410109996,0.03163900084495544
1686445396875558100,1.38155810546875,-0.07622223893702029,-0.01880359426718205,0.034653964751958845
1686445396885574100,1.39157421875,-0.06571896510124206,-0.009794541044533252,0.030367081212997436
1686445396895591000,1.4015908203125,-0.04877133743166923,0.004928725106455385,0.026403438279032704
1686445396905608200,1.411608154296875,-0.031603929531574246,0.007306815882027149,0.014285714983940124
1686445396915625200,1.421625244140625,-0.01681727928817272,0.0019826982498168944,0.002325228077173233
1686445396925641000,1.431640869140625,-0.0023690672188997268,0.004662475385703146,-0.01970832455456257
1686445396935658200,1.441658203125,-0.005222118562459945,-0.007477496273815632,-0.03721300158500671
1686445396945675000,1.451675048828125,-0.0023123685956001282,-0.01664879085347056,-0.04238192865550518
1686445396955691000,1.46169091796875,0.005585691177845001,-0.01442293149754405,-0.03285129924416542
1686445396965708000,1.4717080078125,0.016037527087330816,-0.011188187360018491,-0.009838087925314903
1686445396975725000,1.48172509765625,0.00951835445165634,-0.00016684446688741445,0.00637830286026001
1686445396985742000,1.4917421875,0.016140402939915657,0.011860716326721012,0.0037292496562004087
1686445396995758000,1.501758056640625,0.023959552258253095,0.014586488028801976,0.003181552645564079
1686445397005775000,1.511775146484375,0.03510696921646595,0.005291859330423176,-0.0003419453054666519
1686445397015792000,1.521792236328125,0.04746726909577846,-0.009673983404785393,-0.014629998376965521
1686445397025808100,1.53180810546875,0.03698854517936706,-0.030343261945992708,-0.02810848863124847
1686445397035825000,1.541824951171875,0.025967384949326513,-0.02442801002021879,-0.0336059170037508
1686445397045842200,1.55184228515625,-0.010436053818464278,-0.014785444667004047,-0.029898294657468794
1686445397055858200,1.561858154296875,-0.038621114817261694,-0.016985000537894666,-0.026338556349277495
1686445397065875000,1.571875,-0.05732698433101177,-0.019247136783599853,-0.02436813305914402
1686445397075892200,1.581892333984375,-0.06212415547966957,-0.010499620573967694,-0.03333528336882591
1686445397085909200,1.5919091796875,-0.05388882657587528,-0.0023986951721832153,-0.02149462344944477
1686445397095925000,1.601925048828125,-0.06176759712696075,-0.004011135337501764,-0.024102175599336622
1686445397105942000,1.61194189453125,-0.04131050003170967,-0.0016464520327746867,-0.0184434191852808
1686445397115959000,1.621958984375,-0.023605331993103027,-0.0070772449098527425,-0.010751111117005347
1686445397125975000,1.63197509765625,-0.005493921241164207,-0.007743453733623028,-0.012248071676492691
1686445397135992000,1.641991943359375,0.005700257468223571,-0.007756897737085819,-0.02217208431959152
1686445397146009000,1.652009033203125,0.005372340688109397,-0.00562383123114705,-0.03180500506162643
1686445397156025000,1.662025146484375,-0.00935936449766159,-0.004405541482567787,-0.03966916256546974
1686445397166042000,1.6720419921875,-0.021656536012887955,0.001329202777147293,-0.036841830185055734
1686445397176059000,1.682058837890625,-0.018843232157826423,0.00045906887911260127,-0.014991817426681518
1686445397186076200,1.692076171875,-0.010265957948565482,-0.020921024812571704,-0.009684943190217017
1686445397196092200,1.702092041015625,-0.0003004442512989044,-0.02518836340084672,-0.0026636662513017653
1686445397206109000,1.71210888671875,0.0007528641939163207,-0.02281111287549138,-0.0006616787791252136
1686445397216126200,1.722126220703125,0.0027706337571144104,-0.00849105723053217,0.007522796720266341
1686445397226142200,1.73214208984375,0.027143442991375923,-0.008307809618115424,0.009898878201842307
1686445397236159000,1.742158935546875,0.03588672141730785,-0.003251951000653207,0.012914426630735396
1686445397246176000,1.752176025390625,0.02318915240764618,0.0015991057597100735,0.006149170279502869
1686445397256192300,1.762192138671875,0.005502104547619819,0.011710786462016403,0.0021878654330968854
1686445397266209000,1.772208984375,-0.01742518205344677,0.0260240105073899,-0.017605214795470236
1686445397276226000,1.78222607421875,-0.048291444960236546,0.013217245502211152,-0.004917582657933235
1686445397286243300,1.792243408203125,-0.06651625295877456,0.0026698037311434744,0.0012684125006198882
1686445397296259000,1.802259033203125,-0.07046937449872494,0.003797638717293739,-0.0023328268617391584
1686445397306276000,1.812276123046875,-0.05847673888802528,0.013318185126036405,-0.007195464462041855
1686445397316293000,1.822293212890625,-0.04409808492362499,0.01637581913098693,-0.01163023203909397
1686445397326309000,1.83230908203125,-0.031987960413098336,0.0017319748917594552,-0.010562310546636582
1686445397336326100,1.842326171875,0.00002864157259464264,-0.026357845571637152,-0.007438041046261787
1686445397346343200,1.85234326171875,0.0033949031352996824,-0.046641631926596164,-0.018139467802643774
1686445397356359000,1.86235888671875,0.014807693031430244,-0.04326978087332099,-0.010770984861254692
1686445397366376200,1.872376220703125,0.005983166062831878,-0.03660027651414275,-0.0047667760103940965
1686445397376393000,1.88239306640625,0.00230009363591671,-0.04433814075719565,-0.005729483562707901
1686445397386410200,1.89241015625,-0.006225158125162124,-0.03771890528053045,-0.017655483677983284
1686445397396426200,1.90242626953125,-0.0008428805649280548,-0.04315203624516725,-0.034681437280774115
1686445397406443000,1.912443115234375,0.0023491934746503827,-0.027397965741716324,-0.06814589998722076
1686445397416460000,1.9224599609375,0.011863456273078919,-0.022549539329856632,-0.06253448984622954
1686445397426476000,1.93247607421875,0.020693243938684464,-0.015609510933607816,-0.05987725333571434
1686445397436493000,1.9424931640625,0.0076028762191534035,-0.001944850457459688,-0.041138650596141815
1686445397446510000,1.952510009765625,-0.0054214405268430705,0.01759293983578682,-0.013933248284459113
1686445397456527400,1.96252734375,-0.018427052572369575,0.03646514235977083,0.007006663891673088
1686445397466543000,1.972543212890625,-0.02582943778336048,0.030005408293753862,0.015009353083372114
1686445397476560100,1.98256005859375,-0.010239654463529587,0.03227686035707593,0.014742811101675033
1686445397486577200,1.9925771484375,-0.009318447965383529,0.02329158986881375,0.0032429274439811705
1686445397496593200,2.00259326171875,-0.005693827727437019,0.01007671898677945,-0.007639701098203658
1686445397506610200,2.012610107421875,0.0018348142117261886,-0.007410276256501674,-0.02660451380908489
1686445397516627200,2.022627197265625,-0.009724106156826019,-0.021627456048876045,-0.05657119752764701
1686445397526643000,2.032642822265625,-0.010941665253043175,-0.020474925012886523,-0.05329904398918152
1686445397536660200,2.04266015625,-0.022797522741556168,-0.018728373606503007,-0.03027764936387539
1686445397546677000,2.052677001953125,-0.02509820089936256,-0.027055764707922935,-0.022554361635446548
1686445397556694000,2.062694091796875,-0.008635726398229598,-0.028755992754548786,-0.016287117934226988
1686445397566710300,2.072710205078125,-0.008795300874114035,-0.02084375832527876,0.007767126870155334
1686445397576727000,2.08272705078125,-0.02465513330698013,-0.011338372953049838,0.029288638326525687
1686445397586744000,2.092744140625,-0.04139759379327297,-0.008830518317967653,0.02824409770965576
1686445397596759000,2.102759033203125,-0.033922727867960925,-0.003292319543659687,0.02646422855556011
1686445397606776000,2.112776123046875,-0.0028635727375745774,-0.004110467526130378,-0.0003793547064065933
1686445397616792800,2.122792724609375,0.011363105535507201,-0.0026152970649302005,-0.016513327905535696
1686445397626808800,2.132808837890625,0.021996143230795857,-0.010948825646191835,-0.024862054055929183
1686445397636826000,2.142826171875,0.019177578678727148,-0.006610358050465583,-0.023480828830599782
1686445397646843000,2.1528427734375,-0.01124678567945957,-0.01200388765707612,-0.02187456267774105
1686445397656860000,2.16285986328125,-0.027603461718559263,-0.021655513099581,-0.022500585621595383
1686445397666876200,2.172876220703125,-0.041003041517734526,-0.03629047991260886,-0.05190320571660995
1686445397676893000,2.182892822265625,-0.015341361516714095,-0.05066124283149838,-0.0694903003334999
1686445397686910000,2.192909912109375,-0.015009353083372114,-0.03709989659935236,-0.04941255794465541
1686445397696926000,2.202926025390625,-0.01973696612715721,0.004364332689344883,-0.00803834502696991
1686445397706943000,2.21294287109375,-0.027348025652766225,0.02358458146601915,0.02791384284198284
1686445397716960000,2.2229599609375,-0.01655015278458595,0.015639211952127516,0.03722527654469013
1686445397726976000,2.23297607421875,0.011428571987152098,0.00895282952338457,0.02239654072523117
1686445397736993000,2.242992919921875,-0.007111877831816673,0.005908968315459787,0.017305939587950705
1686445397747010000,2.253010009765625,-0.030846389162540434,0.0032734687127172943,0.0009212064981460571
1686445397757026800,2.26302685546875,-0.03849602713286877,0.011168167485296726,-0.02628127320408821
1686445397767042800,2.273042724609375,-0.017878771039843557,0.008898797781206667,-0.06226444073319435
1686445397777060000,2.28306005859375,0.006536708292365074,0.006048486384004354,-0.07589315311312675
1686445397787076900,2.293076904296875,0.03312193287909031,-0.0029500089120119808,-0.07135375611782073
1686445397797092900,2.3030927734375,0.056579965355992315,0.001975720519758761,-0.039459319207072255
1686445397807110100,2.313110107421875,0.07538403454720974,-0.006755904000997543,-0.0025368250012397764
1686445397817127000,2.323126953125,0.07357786190807819,-0.012471359038352966,0.026451369073987006
1686445397827144000,2.33314404296875,0.048054129073023796,-0.02124853973388672,0.038567338803410525
1686445397837160200,2.34316015625,0.006523264288902282,-0.027721973531693218,0.030046763217449188
1686445397847177000,2.353177001953125,-0.016654197680950163,-0.026692776614427566,-0.0014203881919384001
1686445397857194000,2.363194091796875,-0.046288872966170305,-0.03146784552913159,-0.032442718443274496
1686445397867210000,2.3732099609375,-0.0784656339496374,-0.03236011819373816,-0.03828618377447128
1686445397877227000,2.38322705078125,-0.0940811362326145,-0.016924794783256945,-0.03665887483358383
1686445397887244000,2.393244140625,-0.07408639595210552,0.009093881961889564,-0.025430209332704543
1686445397897260000,2.403260009765625,-0.048721068549156185,0.003992905561067164,-0.011662380743026732
1686445397907277000,2.413277099609375,-0.015828852772712707,0.006953947323746979,0.004673252508044242
1686445397917294000,2.423294189453125,0.006997311541438103,0.011864771447330712,0.022162731969356534
1686445397927310800,2.433310791015625,0.003129530197381973,0.01654649952277541,0.02655307588279247
1686445397937326800,2.443326904296875,0.018783026403188706,0.013298603642731905,0.02890285387933254
1686445397947344100,2.45334423828125,0.03310147461295128,0.01335954004973173,0.013450433203577994
1686445397957361000,2.46336083984375,0.031000702941417692,0.004894384445436299,0.0028267478585243225
1686445397967377000,2.473376953125,0.016959902629256247,-0.007247779171168804,-0.009728197810053825
1686445397977394200,2.483394287109375,0.0021200608938932415,-0.014504764562100172,-0.026964579293131827
1686445397987411000,2.493410888671875,0.0036287118911743164,-0.02660349089577794,-0.04130582385659218
1686445397997427000,2.503427001953125,-0.008178045758605004,-0.0193777408933267,-0.04277355832159519
1686445398007444000,2.51344384765625,-0.008846738800406456,-0.00976326912343502,-0.027114801418781278
1686445398017461000,2.5234609375,-0.01161678803563118,-0.0008779518783092498,-0.024192191970348356
1686445398027478000,2.53347802734375,-0.0026093057155609127,-0.004074848223477602,-0.019064765954017637
1686445398037494000,2.543493896484375,0.010071896681189536,-0.019259557873755693,-0.02257072824835777
1686445398047511000,2.553510986328125,0.007146364623308182,-0.01805047434493899,-0.03437456328868866
1686445398057528000,2.563528076171875,-0.02289104624390602,-0.020852526153624058,-0.021958149307966232
1686445398067544000,2.5735439453125,-0.03684709088206291,-0.012217640005610883,-0.014994740036129951
1686445398077560800,2.583560791015625,-0.03297521788477897,-0.02465250295847654,-0.021458967614173888
1686445398087578000,2.593578125,-0.03780044608414173,-0.027583405311219392,-0.016115268498659133
1686445398097594000,2.603593994140625,-0.031840076375007624,-0.030397476351261138,-0.0058270987182855605
1686445398107611000,2.61361083984375,-0.015175941821932791,-0.03012435849830508,0.000045008185505867
1686445398117628200,2.623628173828125,-0.02730652459859848,-0.02493731124922633,0.00897591813802719
1686445398127645000,2.63364501953125,-0.02831599390208721,-0.012980733332596719,0.00047112464308738706
1686445398137661000,2.643660888671875,-0.03433656936585903,-0.013236169398389756,0.00849836375415325
1686445398147678000,2.653677978515625,-0.038404841718077655,-0.003516593286208808,-0.009340075275301932
1686445398157695000,2.663695068359375,-0.026211130577325818,-0.008219400682300329,-0.018232991304993628
1686445398167711000,2.6737109375,-0.016440262669324874,-0.009220394418388605,-0.033875966116786
1686445398177728000,2.68372802734375,-0.015129764592647551,0.0006909048736095428,-0.051831309524178505
1686445398187745000,2.6937451171875,-0.009044307199120522,0.00871295635290444,-0.054255906322598454
1686445398197762000,2.703761962890625,0.0080126260638237,0.017574089004844425,-0.0671329235523939
1686445398207778000,2.713778076171875,0.0023357494711875914,0.01138476937804371,-0.046643677753210065
1686445398217794800,2.723794921875,-0.0019505495458841324,0.025978198604285716,-0.014593173497915267
1686445398227812000,2.73381201171875,0.0145873282790184,0.034099984131008385,0.024345921227335927
1686445398237828000,2.743828125,0.016027590215206146,0.030022651689499615,0.04606792369186878
1686445398247844900,2.753844970703125,0.00606850625872612,0.010902648416906595,0.053093876805901524
1686445398257862100,2.763862060546875,-0.005958616143465042,-0.005784136359393596,0.024995325046777723
1686445398267878100,2.773878173828125,-0.0350175373673439,-0.0021545476853847504,-0.00931494083404541
1686445398277895000,2.78389501953125,-0.0736427438378334,-0.011720979062467813,-0.04476151726841926
1686445398287912000,2.793911865234375,-0.09035831631720065,-0.023281762594543395,-0.06873626709580422
1686445398297929000,2.803928955078125,-0.04624620286822319,-0.03312178674861788,-0.07290566173493862
1686445398307945000,2.813945068359375,0.011422726768255233,-0.04159589284434914,-0.04096563211679458
1686445398317962000,2.8239619140625,0.04249240329265594,-0.03258252877276391,-0.0018500117808580398
1686445398327979000,2.83397900390625,0.042002573949098586,0.007481003405153751,0.045191140857338906
1686445398337995000,2.8439951171875,0.02359481059908867,0.012804098124057054,0.05379121142029762
1686445398348012000,2.854011962890625,-0.005294014754891396,-0.01046805639192462,0.03995440924763679
1686445398358028800,2.86402880859375,-0.023016718450188635,-0.00987608184814453,0.031904373782873155
1686445398368045000,2.874045166015625,-0.05761807623207569,-0.006743336780369281,0.0035813656181097027
1686445398378062000,2.88406201171875,-0.10393909790217876,-0.005638846137188375,-0.03717091600894928
1686445398388078800,2.894078857421875,-0.10664134259819984,0.007303893272578716,-0.06990355730950831
1686445398398096100,2.90409619140625,-0.06088730716109275,0.013521744874119758,-0.08334054650962353
1686445398408112000,2.914112060546875,-0.0035223289072513577,0.01708981261923909,-0.06304068580269813
1686445398418129000,2.92412890625,0.019835750326514242,-0.0017862623622640966,-0.024092238727211952
1686445398428146000,2.93414599609375,0.03987257618308067,-0.018100304836034774,0.012420505633950233
1686445398438162200,2.944162109375,0.04930091426372528,-0.03207052413001656,0.020781506744027137
1686445398448179000,2.954178955078125,0.04264145637452602,-0.03379000486638397,0.010941665253043175
1686445398458196000,2.964196044921875,0.02570961079597473,-0.030487638852745292,0.00011339724659919739
1686445398468212000,2.9742119140625,0.0016407529443502424,-0.0119315165406093,-0.010379939717054367
1686445398478229000,2.98422900390625,-0.02428220834136009,-0.01685191221013665,-0.014766191977262496
1686445398488246000,2.99424609375,-0.045987844192981714,-0.020412235040217636,-0.022563713985681532
1686445398498262800,3.0042626953125,-0.044103345620632166,-0.003841039467602968,-0.042808045113086696
1686445398508279000,3.014279052734375,-0.03079904288947582,-0.0037836101919412612,-0.05208440750241279
1686445398518296000,3.024296142578125,-0.01710194144845009,0.011822832001745701,-0.035977322310209274
1686445398528312800,3.034312744140625,-0.0017395371437072752,0.006923077261447906,-0.027490648993849752
1686445398538328800,3.044328857421875,0.00970657050013542,0.00628872488066554,-0.011713234147429466
1686445398548346000,3.05434619140625,0.012445640075206757,0.0048981473051011555,0.0017903905481100081
1686445398558363000,3.06436279296875,0.0034878421157598493,0.005412234307080507,-0.0007505261063575744
1686445398568379000,3.07437890625,-0.00630114597082138,-0.0035047932505607605,-0.008472060269117355
1686445398578396200,3.084396240234375,-0.018653262543678283,-0.01598345881253481,-0.022210662764310836
1686445398588413000,3.094412841796875,-0.03691021924614906,-0.016975100198388098,-0.03183773828744888
1686445398598430200,3.10443017578125,-0.05881693062782287,-0.008728665378689765,-0.02443126142323017
1686445398608446500,3.114446533203125,-0.05273790297508239,-0.0026992855539545416,-0.01849427258968353
1686445398618463200,3.124463134765625,-0.0018956044882535933,-0.011835983744263649,-0.028262217888236043
1686445398628480300,3.134480224609375,0.019516016852855683,-0.014812515337020158,-0.014656301862001418
1686445398638496300,3.144496337890625,0.03946808703541756,-0.007754998040944337,0.005127426016330719
1686445398648513300,3.15451318359375,0.0306605112016201,0.007997136233747005,0.008432312780618668
1686445398658530300,3.1645302734375,0.018771920487284658,0.0009274901084601879,0.005224456650018691
1686445398668547000,3.174547119140625,0.005913607957959175,-0.0008998714491724967,-0.010333762487769127
1686445398678563300,3.184563232421875,-0.014984218642115592,-0.0021557167291641234,-0.011035773277282715
1686445398688580400,3.194580322265625,-0.025940496942400932,-0.007191665069758891,-0.018718144473433493
1686445398698597000,3.20459716796875,-0.025969138514995573,-0.01512085063382983,-0.014420739540457724
1686445398708613000,3.214613037109375,-0.024960838255286215,-0.014055413359403609,-0.0173234752446413
1686445398718630400,3.22463037109375,-0.035545360633730885,-0.008219839073717594,-0.028511808735132215
1686445398728647200,3.234647216796875,-0.04466097950339317,-0.005070435132086277,-0.026239187628030774
1686445398738663200,3.2446630859375,-0.0347778833925724,-0.00901182970162481,-0.01949906571805477
1686445398748680400,3.254680419921875,-0.022632687568664548,-0.008935111203603446,-0.012720949885249137
1686445398758697200,3.264697265625,-0.01869651716351509,-0.00550751137509942,0.004411971223354339
1686445398768714200,3.27471435546875,-0.0016086042404174804,0.00017097265273332594,0.012542086187005043
1686445398778730200,3.284730224609375,0.01581073259413242,-0.004448503841459751,0.001994388687610626
1686445398788747300,3.294747314453125,0.0117944826900959,0.002031213566660881,-0.00025718963146209714
1686445398798764300,3.304764404296875,0.009738134682178497,-0.014174655824899672,-0.024490298134088515
1686445398808780300,3.3147802734375,0.00032382512688636776,-0.017178659946471452,-0.037381343889236446
1686445398818797300,3.32479736328125,-0.021833646145462987,-0.0073671312345191834,-0.04085398843586445
1686445398828814300,3.334814453125,-0.04200725012421608,0.0013530220441520214,-0.035731823116540905
1686445398838830300,3.344830322265625,-0.04557575626075268,-0.0021007716715335844,-0.03299099997580051
1686445398848847000,3.35484716796875,-0.034142508098483085,0.005290799884498119,-0.024648119044303893
1686445398858864400,3.364864501953125,-0.015413842231035231,0.008382482289522885,-0.011284195080399512
1686445398868881200,3.374881103515625,0.009052490505576133,0.0008813494117930531,-0.00807400086224079
1686445398878897200,3.384897216796875,0.029039047479629515,0.0034616847611963746,-0.0030880291432142256
1686445398888914400,3.39491455078125,0.02680675838291645,-0.0016604805581271647,0.001062076273560524
1686445398898931200,3.40493115234375,0.013897592449188232,-0.006086188045889139,-0.011721417453885078
1686445398908947200,3.414947265625,-0.00790975021123886,-0.015951456239074468,-0.020395137774944304
1686445398918964200,3.424964111328125,-0.030466449934244154,-0.014008067086338996,-0.041182489737868304
1686445398928981200,3.434981201171875,-0.03077683105766773,-0.019582944609224794,-0.035817163312435146
1686445398938997200,3.444997314453125,-0.028206103786826132,-0.010764408989995717,-0.021740122643113136
1686445398949014300,3.45501416015625,-0.029939211189746854,-0.00846533826738596,-0.008073416340351105
1686445398959031300,3.46503125,-0.033600071784853934,-0.006416844772361219,0.016695114213228224
1686445398969048300,3.47504833984375,-0.022044658547639845,-0.0017076807007193565,0.010299275696277617
1686445398979064300,3.485064208984375,-0.016585224097967147,-0.009254735079407692,-0.009095745125412941
1686445398989081000,3.4950810546875,-0.01322188514471054,-0.015061813922971486,-0.016820201897621154
1686445398999098400,3.505098388671875,-0.004599018228054046,-0.002062010563723743,-0.016737784311175345
1686445399009114400,3.5151142578125,-0.01061725560426712,0.00030322073027491567,-0.015600889235734938
1686445399019131100,3.525131103515625,-0.014348258826136589,-0.01454451205059886,-0.012611644291877746
1686445399029148400,3.5351484375,-0.01988894181847572,-0.017563823339156806,-0.0157680624961853
1686445399039164400,3.545164306640625,-0.01821545564830303,-0.00040328357126563787,-0.0286170226752758
1686445399049181200,3.55518115234375,-0.017637363499402998,0.006659640552289784,-0.016951719322800634
1686445399059198200,3.5651982421875,-0.01444704302549362,0.0013720190055668353,-0.014198621222376823
1686445399069215200,3.57521533203125,0.004016834425926208,0.001679331389069557,-0.02011865892112255
1686445399079231200,3.585231201171875,0.00997018987238407,-0.029216888264566657,-0.032443302965164185
1686445399089248300,3.595248291015625,0.023345804274082182,-0.05428484015613794,-0.04500935454964637
1686445399099265300,3.605265380859375,0.010010521882772445,-0.019292583360522985,-0.03832943839430809
1686445399109281300,3.61528125,-0.01443710615336895,0.025651304737478495,-0.0045651159584522245
1686445399119298300,3.62529833984375,-0.03163841632306576,0.019780257279612124,0.0038531682968139646
1686445399129315000,3.635315185546875,-0.008386135551333426,-0.007171608662419021,0.014099252501130104
1686445399139332400,3.645332275390625,-0.005970306581258774,-0.00987520506531,0.016210545566678045
1686445399149348400,3.655348388671875,-0.021928338691592216,-0.01415971398409456,0.006225158125162124
1686445399159365000,3.665365234375,-0.014331892213225363,0.0052265390092507006,-0.0007166238367557525
1686445399169382400,3.67538232421875,-0.011878069320321082,0.008271898054517805,-0.02567746209204197
1686445399179398400,3.6853984375,0.003878887259960174,-0.011848112573474645,-0.029411972445249557
1686445399189415200,3.695415283203125,0.024307342782616613,-0.012481295910477638,-0.025956863555312154
1686445399199432200,3.70543212890625,0.02257598894536495,-0.011617957079410553,-0.02489011110663414
1686445399209448400,3.715448486328125,-0.007291910573840141,-0.0008658230490982532,-0.005879121166467666
1686445399219465200,3.72546533203125,-0.022799860829114914,0.009281623086333275,-0.009905892464518546
1686445399229482200,3.735482177734375,-0.032818566018342966,-0.0024414018027484417,-0.021744214296340943
1686445399239499300,3.745499267578125,-0.03541910390555859,0.001383271051943302,-0.027186113089323043
1686445399249515300,3.755515380859375,-0.05103051453530788,0.009132752667553722,-0.028100889846682547
1686445399259532300,3.7655322265625,-0.03088847473859787,0.01777078062072396,-0.02736439226567745
1686445399269549000,3.775549072265625,-0.0032370822250843046,-0.011257014812529087,-0.010600888991355896
1686445399279565300,3.7855654296875,0.007191957330703735,-0.017766981228441,0.0034364041894674297
1686445399289582300,3.795582275390625,0.023414777857065198,-0.027239596842229364,0.004388005825877189
1686445399299599000,3.80559912109375,0.014371055179834365,-0.03290346782281994,0.005645312410593032
1686445399309616400,3.815616455078125,0.0016156185030937193,-0.023550642663799224,0.0075146134138107295
1686445399319632400,3.82563232421875,-0.031123452538251876,-0.008045213159173727,-0.005357727640867233
1686445399329649200,3.835649169921875,-0.048043023157119745,0.0179688239434734,-0.015557634615898132
1686445399339666200,3.845666259765625,-0.0595610269933939,0.024874073287285862,-0.023339959055185315
1686445399349682400,3.855682373046875,-0.024684943923354147,0.020077303997427225,-0.033033670073747634
1686445399359699200,3.86569921875,-0.008896423161029815,0.02595554838106036,-0.005280570751428603
1686445399369716200,3.87571630859375,0.010450082343816756,0.03407587260305881,0.013025485789775847
1686445399379732200,3.885732177734375,0.008079846081137657,0.030635084499418732,0.012322305956482886
1686445399389749200,3.895749267578125,0.0009311433702707291,0.015052753833681345,0.008625789526104927
1686445399399766300,3.905766357421875,0.004924012398719787,-0.010744937104545533,-0.002492401337623596
1686445399409783000,3.915782958984375,0.0022428104907274244,-0.04047488945778459,-0.024963760864734647
1686445399419799300,3.92579931640625,-0.0091454294860363,-0.054587037973105906,-0.031898528563976285
1686445399429816300,3.93581640625,-0.032255086916685105,-0.0633469752728939,-0.04050912052094936
1686445399439833000,3.9458330078125,-0.05573240861594676,-0.040686194120906294,-0.03135726129412651
1686445399449849000,3.95584912109375,-0.04341419431269169,-0.03478402087241411,-0.009738134682178497
1686445399459866400,3.965866455078125,-0.010423194336891173,-0.026519612004607913,0.004579144483804702
1686445399469883100,3.975883056640625,0.005462941581010818,-0.021857319281995295,0.0032873511075973507
1686445399479899100,3.985899169921875,0.024151275438070295,-0.008617606219649314,0.01782148789465427
1686445399489916400,3.99591650390625,0.03349778045415878,0.012614895694889128,0.01222936697602272
1686445399499933200,4.00593310546875,0.025659341913461683,0.01956497056111693,-0.003810498198866844
1686445399509950200,4.0159501953125,0.02686170344054699,0.016440993321686984,-0.03597381517887115
1686445399519966200,4.02596630859375,0.013434651112556456,0.007119768877327442,-0.054930444583296774
1686445399529983200,4.035983154296875,-0.013636895686388015,0.002333411383628845,-0.06329787543416023
1686445399540000300,4.046000244140625,-0.03256196090877056,0.006039901218749582,-0.06650397799909115
1686445399550016300,4.056016357421875,-0.04087444670200348,0.01046907930523157,-0.04471884717047214
1686445399560033300,4.066033203125,-0.02848024455308914,0.013592325892299412,-0.029331892946362494
1686445399570050300,4.07605029296875,-0.01370119309425354,0.005610971749573946,0.0012906243324279784
1686445399580066300,4.08606640625,-0.011425649377703666,-0.011272468109987676,0.011453706428408622
1686445399590083300,4.096083251953125,-0.00696516283750534,-0.003877973944507539,0.0019441198050975798
1686445399600100400,4.106100341796875,-0.024148352828621863,-0.005156359849870205,-0.009143091398477554
1686445399610117400,4.116117431640625,-0.016960487151145932,-0.0062679743535816665,-0.019037877947092056
1686445399620133400,4.12613330078125,-0.011063245806097983,-0.0054386839225888245,-0.020182956328988075
1686445399630150400,4.136150390625,0.007291910573840141,-0.004905526893958449,-0.021878654330968854
1686445399640167400,4.14616748046875,0.005350128856301308,-0.008306604041717945,-0.0046498716324567795
1686445399650183400,4.156183349609375,0.003113748106360435,0.000462064553797245,0.0010772738426923752
1686445399660200400,4.166200439453125,0.002650222247838974,-0.013187544483691454,-0.0010088847815990446
1686445399670217200,4.17621728515625,0.012846037569642066,-0.023389351154863833,0.0011257891595363616
1686445399680234500,4.186234375,-0.0033732758253812787,-0.0189321890829131,-0.001471241596341133
1686445399690250500,4.19625048828125,-0.006600421178340912,-0.005514087246358395,0.0008364508241415023
1686445399700267300,4.206267333984375,-0.013034253618121147,-0.0032719708753749725,-0.0036561844199895855
1686445399710284500,4.216284423828125,-0.01161678803563118,-0.008896277030557393,-0.004041968867182732
1686445399720300500,4.226300537109375,-0.027659575819969175,-0.01680485819801688,-0.024418401941657064
1686445399730317300,4.2363173828125,-0.03393324926197529,-0.01021335097849369,-0.01811491788327694
1686445399740334300,4.246334228515625,-0.03837386205792427,-0.006736030256748199,-0.0240203425347805
1686445399750350600,4.2563505859375,-0.033492519757151604,0.0007623626746237278,-0.013708791878819465
1686445399760367400,4.266367431640625,-0.017418752312660216,-0.0033460955575108525,-0.005082417830824851
1686445399770384400,4.27638427734375,-0.0022398878812789915,-0.0052409693934023375,-0.012481880432367323
1686445399780401400,4.2864013671875,-0.011511574095487594,0.004914221657067537,-0.0016916063487529753
1686445399790417400,4.29641748046875,-0.021204116070270538,0.01447499047834426,-0.0002916764229536056
1686445399800434400,4.306434326171875,-0.004305003717541694,0.008135083399713038,-0.018688333857059477
1686445399810451200,4.316451171875,0.0021884499549865723,0.00007642623707652092,-0.024303835651278496
1686445399820467500,4.326467529296875,0.0019166472762823105,-0.001681632944010198,-0.02727203780710697
1686445399830484500,4.336484375,0.0026981530427932737,0.008947861087322234,-0.0173585465580225
1686445399840501200,4.346501220703125,-0.003991699984669685,0.00977305986508727,-0.009818214181065559
1686445399850518500,4.3565185546875,-0.0034147768795490265,0.023563392547518013,-0.016852350601553916
1686445399860534500,4.366534423828125,0.011146832436323166,0.011364566840231419,-0.023513562056422233
1686445399870551300,4.37655126953125,0.013590718457102774,-0.016579963400959966,-0.026005963394045827
1686445399880568300,4.386568359375,0.010335516053438186,-0.012315401291660965,-0.03511515252292156
1686445399890584600,4.39658447265625,0.003717559218406677,-0.012983838605135679,-0.03845920225381851
1686445399900601300,4.406601318359375,-0.004531213688850402,-0.021459552136063573,-0.03758709559440612
1686445399910618400,4.416618408203125,-0.009798340436816214,-0.018534129676036536,-0.02339431959092617
1686445399920635400,4.426635498046875,-0.014272270980477331,-0.01929419079571962,-0.013493103301525115
1686445399930651400,4.4366513671875,-0.01501344473659992,-0.018859306509792804,-0.011073767200112342
1686445399940668400,4.44666845703125,-0.02669336113631725,-0.00713204383701086,-0.0006248539000749588
1686445399950685200,4.456685302734375,-0.037224692022800446,-0.009576660510152577,-0.0018821604847908018
1686445399960701400,4.466701416015625,-0.038891748452186584,-0.00140972066745162,-0.008632803788781165
1686445399970718500,4.476718505859375,-0.05746376245319843,-0.0015121581286191938,-0.012245733588933943
1686445399980735200,4.4867353515625,-0.053415363845229144,-0.000252915315143764,-0.016273673930764197
1686445399990751200,4.496751220703125,-0.04845978726446628,-0.0013220423839986324,-0.01532324133813381
1686445400000768500,4.5067685546875,-0.03471826215982437,-0.007571312037110328,-0.02115092457830906
1686445400010785300,4.516785400390625,0.0037491234004497524,-0.0016457213804125786,-0.02170972750484943
1686445400020801300,4.52680126953125,0.007889876466989517,0.002105338248796761,-0.010672785183787345
1686445400030818600,4.536818603515625,0.0008060556858777999,-0.0061028469197452065,-0.015639467680454253
1686445400040835300,4.54683544921875,-0.018638064974546432,-0.005302782583236694,-0.014856792870163917
1686445400050852400,4.556852294921875,-0.017954758885502815,-0.0006308087168261408,-0.006512158372998237
1686445400060868400,4.566868408203125,-0.01018938558101654,-0.00837663707062602,-0.023994039049744606
1686445400070885400,4.576885498046875,0.0097118311971426,-0.014860153871029614,-0.032201895424723626
1686445400080902400,4.58690234375,0.02443769116401672,-0.012622859805636107,-0.014478607207536697
1686445400090918400,4.59691845703125,0.028825112468004226,0.0028457448199391364,0.009040215545892715
1686445400100935400,4.606935302734375,0.037038229539990426,-0.001018931251578033,-0.0026776947766542435
1686445400110952400,4.616952392578125,0.016987959679961202,-0.009320457259379326,-0.013773673808574676
1686445400120969200,4.62696923828125,0.00016366612911224363,-0.002932071396522224,-0.0145960961073637
1686445400130985200,4.636985107421875,-0.015767477974295615,-0.00314165902659297,-0.014806523987650871
1686445400141002500,4.64700244140625,-0.031151509588956832,-0.006995411845296621,-0.011626140385866164
1686445400151019300,4.657019287109375,-0.036378888848423954,-0.010578823290020228,-0.01188859071433544
1686445400161035300,4.66703515625,-0.0466898549824953,-0.009508527177385985,-0.019931611916422842
1686445400171052500,4.677052490234375,-0.038083354678750035,-0.0015641805768013,-0.023255203381180763
1686445400181069300,4.6870693359375,-0.025821254476904868,-0.007565722546540201,-0.013658522996306419
1686445400191086300,4.69708642578125,-0.021288287222385405,-0.006745601802691817,-0.010294599521160125
1686445400201102300,4.707102294921875,-0.00488251134455204,0.0011435440119355916,-0.007791092267632484
1686445400211119400,4.717119384765625,-0.0016050971090793608,0.0007584171518683433,-0.011979191607236862
1686445400221136400,4.727136474609375,0.012770634245872497,-0.006134411101788282,-0.004645195457339287
1686445400231152400,4.73715234375,0.012280804902315139,-0.0024155001765117047,-0.005296352842450142
1686445400241169400,4.74716943359375,0.010680968490242958,-0.001331504332087934,-0.011844167050719261
1686445400251186400,4.7571865234375,0.01241407589316368,0.0038956922642886635,-0.01923369278013706
1686445400261202400,4.767202392578125,-0.006560673689842224,-0.003455108889937401,-0.020097616133093833
1686445400271219200,4.77721923828125,-0.021733692902326584,-0.006159399412572384,-0.030765140619874
1686445400281236500,4.787236572265625,-0.025077742633223533,-0.020841529835574326,-0.03842763807177543
1686445400291253200,4.797253173828125,-0.04078969102799892,-0.020415011519193647,-0.030762802532315253
1686445400301269200,4.807269287109375,-0.029776129582524298,-0.018888496071659027,-0.028974165549874305
1686445400311286500,4.81728662109375,-0.01115267765522003,-0.012301409298926591,-0.019150106149911878
1686445400321303300,4.82730322265625,0.004476268631219864,-0.00782806327715516,-0.006815525233745574
1686445400331319300,4.8373193359375,-0.0020095862567424774,0.007652560579776763,0.012256254982948302
1686445400341336300,4.84733642578125,0.006045709905028343,0.021099669315107164,0.006348492243885994
1686445400351353300,4.857353271484375,0.0010468787044286727,0.014207827442139387,0.005812485671043395
1686445400361370400,4.867370361328125,0.004775543838739395,0.007406915255635976,0.012345102310180663
1686445400371386400,4.877386474609375,-0.019053660038113592,-0.004851787412725388,0.014969021072983741
1686445400381403400,4.8874033203125,-0.03995791637897491,-0.0024294191040098666,0.004850947162508964
1686445400391420400,4.89742041015625,-0.05972177051305771,0.0027465222291648385,-0.02220832467675209
1686445400401436400,4.9074365234375,-0.06909165640473365,-0.0012143442258238791,-0.030327918246388433
1686445400411453400,4.917453369140625,-0.04517302067875862,0.005369271948188543,-0.010729483807086944
1686445400421470500,4.927470458984375,-0.03931026612520218,-0.005118365927040577,-0.008133037573099135
1686445400431486500,4.937486572265625,-0.04063245463967323,-0.008509908061474562,0.0008989946663379669
1686445400441503200,4.947503173828125,-0.007691723546385765,-0.01108954929113388,0.008735095119476318
1686445400451520500,4.9575205078125,0.01819850451350212,-0.016362959649413825,0.0026350246787071228
1686445400461537300,4.967537353515625,0.038814591562747955,-0.01697100854516029,-0.006975684231519699
1686445400471553300,4.97755322265625,0.052824996736645695,-0.02327226411383599,-0.009276946911215781
1686445400481570600,4.987570556640625,0.046532618594169614,-0.023282383649051188,-0.015116905111074446
1686445400491587300,4.99758740234375,0.035112229913473125,-0.019674276154488322,-0.01919920598864555
1686445400501603300,5.007603271484375,0.024026772275567054,-0.022137816723808646,-0.04555646703839302
1686445400511620400,5.017620361328125,0.004876666125655174,-0.018374409069679676,-0.0470563502073288
1686445400521637400,5.027637451171875,-0.032382512688636775,-0.0015299860462546348,-0.0488555085837841
1686445400531653400,5.0376533203125,-0.04554243851304054,0.013931786979734897,-0.04166121316552162
1686445400541670400,5.04767041015625,-0.04658639460802078,0.024938772553950547,-0.036416882771253586
1686445400551687400,5.0576875,-0.04231646220386028,0.03040419835299253,-0.027339257824420926
1686445400561704400,5.067704345703125,-0.022440379866957662,0.020431670393049717,-0.007462006443738937
1686445400571720400,5.077720458984375,-0.0008855506628751755,0.018043898473680018,-0.005662263545393943
1686445400581737200,5.0877373046875,0.01884206311404705,0.01563161316756159,0.0008773673564195632
1686445400591754500,5.09775439453125,0.015271218889951706,-0.00015387538745999336,-0.008097966259717941
1686445400601770200,5.107770263671875,-0.008338204756379128,-0.015855119725130498,-0.03382569723427296
1686445400611787000,5.117787109375,-0.010561141502857207,-0.015436346323788165,-0.045049102038145064
1686445400621804300,5.12780419921875,-0.021683424019813536,-0.022273644997924565,-0.0416664738625288
1686445400631821000,5.137821044921875,-0.029103929409384725,-0.03003828765004873,-0.04579845910072326
1686445400641837000,5.147837158203125,-0.019925766697525975,-0.013494528073631227,-0.03138590286672115
1686445400651854300,5.157854248046875,-0.030718378868699072,-0.002505260819196701,-0.016442016234993934
1686445400661871000,5.16787109375,-0.02357552137672901,-0.012449402934871612,0.004314356067776679
1686445400671887000,5.17788720703125,-0.01269815353155136,-0.019106267008185386,0.012656652477383613
1686445400681904000,5.187904052734375,-0.01919920598864555,-0.005700257468223571,0.009148352095484733
1686445400691921200,5.197921142578125,-0.017988661155104637,0.0039048984840512274,0.011585223853588103
1686445400701938200,5.207938232421875,-0.011123451560735702,0.0013319792561233043,0.004561608827114105
1686445400711954200,5.2179541015625,0.014651625686883926,-0.008751315601915121,0.001017068088054657
1686445400721971200,5.22797119140625,0.022846038058400152,-0.009357866660319267,-0.012943068203330039
1686445400731988200,5.23798828125,0.0037841947138309477,0.006580985825508832,-0.008669044145941733
1686445400742004200,5.248004150390625,-0.02382745031118393,0.00035158991664648053,-0.007361468678712844
1686445400752021000,5.25802099609375,-0.045481648236513135,-0.010075221149437128,-0.010712532672286033
1686445400762038300,5.268038330078125,-0.02797346407473087,-0.017513992848061023,-0.022039397850632667
1686445400772054300,5.27805419921875,-0.014156535646319388,-0.011369352613203227,-0.014922259321808814
1686445400782071000,5.288071044921875,-0.0034720600247383116,-0.00488075777888298,-0.008251695516705513
1686445400792088300,5.29808837890625,-0.00658171647787094,-0.008751315601915121,-0.013892916274070738
1686445400802105000,5.30810498046875,0.0058580783784389495,0.0006643456602469086,-0.015984920117259025
1686445400812121000,5.31812109375,0.020800795966386794,0.004465747237205505,-0.021704466807842254
1686445400822138000,5.32813818359375,0.01391337454020977,-0.00046378158684819935,-0.026669395738840102
1686445400832155100,5.338155029296875,0.01097498300075531,0.004898877957463264,-0.025447160467505454
1686445400842171100,5.348171142578125,-0.005526069945096969,0.003890577697753906,-0.020703765332698822
1686445400852188200,5.358188232421875,-0.016164368337392807,0.0016622341237962244,-0.026698621833324433
1686445400862205200,5.368205078125,-0.0328957229077816,-0.003781418234854936,-0.01528057124018669
1686445400872222200,5.37822216796875,-0.04122340627014637,-0.009891425547748803,-0.023576690420508382
1686445400882238200,5.38823828125,-0.04025719158649444,-0.013773966069519519,-0.02136836672127247
1686445400892255000,5.3982548828125,-0.018558569997549054,-0.01049655183404684,-0.02299509114027023
1686445400902272300,5.408272216796875,-0.001889174747467041,-0.013774075667373835,-0.014549334356188773
1686445400912288300,5.418288330078125,0.007115384963154793,-0.02324508384596556,-0.01422317114174366
1686445400922305000,5.428304931640625,0.009252981513738632,-0.031931700181216,-0.013756138151884078
1686445400932322300,5.438322265625,-0.006674070936441421,-0.02224456503391266,-0.007840776628255844
1686445400942338300,5.44833837890625,-0.022298341047763823,-0.017358400427550075,0.000013444003462791442
1686445400952355000,5.45835498046875,-0.027023616003990173,-0.0069321373507380485,0.0068085109710693354
1686445400962372000,5.4683720703125,-0.04903495680391788,-0.011312836652994155,-0.009500818794965744
1686445400972389000,5.47838916015625,-0.05105798706412315,-0.0053531975962221616,-0.010759878945350645
1686445400982405000,5.488405029296875,-0.05629705676138401,-0.00022767127603292464,-0.018064064478874205
1686445400992422100,5.498422119140625,-0.04921674311161041,0.0022371114023029804,-0.022915596163272857
1686445401002439200,5.508439208984375,-0.022481296399235726,0.0006312836408615112,-0.02081833162307739
1686445401012455200,5.518455078125,0.016422727012634277,0.005724807387590408,-0.01494505567550659
1686445401022472200,5.52847216796875,0.0270528420984745,-0.00035027474239468574,-0.009083470165729522
1686445401032489000,5.538489013671875,0.03087152360379696,0.009002952275425195,0.004184592208266258
1686445401042506200,5.54850634765625,0.017838439029455182,-0.003140636113286018,0.001332125386595726
1686445401052522200,5.558522216796875,0.003545125260949135,-0.008238361111097037,-0.019549334600567816
1686445401062539000,5.5685390625,-0.009061842855811119,-0.006702091454528272,-0.022422844210267065
1686445401072556300,5.578556396484375,-0.015011106649041175,-0.006352108973078429,-0.03345686392188072
1686445401082572300,5.588572265625,-0.007526888373494148,-0.003840966402366757,-0.027923195192217826
1686445401092589000,5.598589111328125,-0.006173720198869705,-0.010593399804644287,-0.03256839064955711
1686445401102606000,5.608606201171875,0.0019347674548625944,-0.010442921950668095,-0.018784195446968077
1686445401112623000,5.618623046875,0.00003857844471931457,-0.001997019036114216,-0.0064794251471757885
1686445401122639000,5.62863916015625,-0.009428338080644607,0.0044917584612965585,0.01113923365175724
1686445401132656000,5.63865625,-0.01457388427555561,0.0034724984161555767,0.007054594686627388
1686445401142673200,5.648673095703125,-0.013487842604517936,-0.0075879709109663955,-0.011308160477876663
1686445401152689200,5.658689208984375,-0.01025952820777893,-0.024225034794025123,-0.02394669277667999
1686445401162706200,5.6687060546875,-0.007207154899835586,-0.02629997790455818,-0.03242284469902515
1686445401172723000,5.678722900390625,-0.008372107025980948,-0.019870675509423015,-0.031659459111094475
1686445401182739200,5.6887392578125,-0.020122750574350357,-0.012471943560242652,-0.02215688675045967
1686445401192756200,5.698756103515625,-0.016879823130369186,-0.014213782258890568,-0.01052840827703476
1686445401202773000,5.70877294921875,-0.009365209716558456,-0.012495982022956013,-0.002409399229288101
1686445401212790300,5.718790283203125,-0.006676409024000168,-0.014365940613299608,-0.0019891279906034467
1686445401222806300,5.72880615234375,-0.00447860671877861,-0.0074978084094822406,0.00706102442741394
1686445401232823000,5.738822998046875,-0.010787935996055603,-0.007201309680938721,0.006698620855808257
1686445401242840000,5.748840087890625,-0.03729132751822471,-0.004515723858773708,-0.013232406538724898
1686445401252856300,5.758856201171875,-0.04976385560035705,0.010964315476268529,-0.019118541967868805
1686445401262873000,5.768873046875,-0.03550619766712188,0.010320610745251178,-0.031635493713617326
1686445401272890000,5.77889013671875,-0.021986790880560873,0.011816694521903991,-0.028139468291401862
1686445401282907100,5.7889072265625,-0.007447393396496772,0.009198036456108092,-0.02228548156619072
1686445401292923100,5.798923095703125,-0.014884849920868873,0.009907646030187607,-0.018975918626785278
1686445401302940200,5.808940185546875,-0.030740006178617475,0.00948141997475177,-0.010599719947576523
1686445401312957000,5.81895703125,-0.03477145365178585,0.013916333682276308,-0.012663082218170165
1686445401322973200,5.82897314453125,-0.016072598400712013,0.010617401734739542,-0.016233341920375823
1686445401332990200,5.838990234375,0.009923428121209143,0.0017076807007193565,-0.010585691422224043
1686445401343007000,5.849007080078125,0.03134966250956058,-0.008765490257740021,-0.01835924803316593
1686445401353023000,5.85902294921875,0.022977555483579635,-0.021336218017339707,-0.017350363251566886
1686445401363040300,5.869040283203125,0.006522095245122909,-0.02382569674551487,-0.014556933140754699
1686445401373057000,5.87905712890625,-0.0020639467924833295,-0.025848836603574454,-0.01779459988772869
1686445401383074000,5.889073974609375,-0.015087679016590118,-0.020949995178729294,-0.00135024556517601
1686445401393090300,5.89909033203125,-0.02935468930006027,-0.01625248501226306,-0.0030728315740823743
1686445401403107000,5.909107177734375,-0.021648937228322028,-0.012726174049638212,-0.001076104798913002
1686445401413124000,5.9191240234375,-0.024026772275567054,0.0014364625439047814,0.004449965146183967
1686445401423140000,5.92914013671875,-0.024478023174405096,0.00850347832068801,-0.012787585380673408
1686445401433157000,5.9391572265625,-0.021377719071507453,0.011180004053562878,-0.011355506750941276
1686445401443174100,5.949174072265625,-0.03531564353108406,0.00035217443853616714,-0.017676526466012
1686445401453191200,5.959191162109375,-0.011427987465262412,-0.015879998438060282,-0.028355741390585897
1686445401463207200,5.969207275390625,0.006513911938667297,-0.01660860497355461,-0.043780105015635486
1686445401473224200,5.97922412109375,0.004991232416033745,-0.01250405573155731,-0.037657822743058206
1686445401483241000,5.989240966796875,0.009942717343568802,-0.02408548019286245,-0.02014554692804813
1686445401493257000,5.999257080078125,0.011297639083862304,-0.028396511792391537,-0.00341068522632122
1686445401503274200,6.009274169921875,-0.009908230552077292,-0.0167354462236166,0.0013689502656459808
1686445401513291000,6.019291015625,-0.015483984857797622,-0.002765373060107231,-0.005459434449672698
1686445401523308300,6.029308349609375,-0.04706394899189472,0.02059095260798931,-0.024061843588948247
1686445401533324300,6.03932421875,-0.04623217434287071,0.03427124904468656,-0.01203764379620552
1686445401543341000,6.049341064453125,-0.039864977398514745,0.021502989418990908,0.002680617386102676
1686445401553358000,6.059358154296875,-0.03207271608710289,0.010893149936199187,0.021236849296092986
1686445401563374000,6.0693740234375,-0.03275017695724964,0.015263948898948727,0.00785831228494644
1686445401573391000,6.07939111328125,-0.0119949736982584,0.011701872503198683,-0.009967851784825324
1686445401583408000,6.089408203125,-0.002049333745241165,0.0074063307337462895,-0.016020575952529908
1686445401593424100,6.099424072265625,0.009742226335406303,0.010111242310889064,-0.02609481072127819
1686445401603441000,6.10944091796875,-0.012264438289403915,-0.009283668912947178,-0.012663082218170165
1686445401613458200,6.119458251953125,-0.019857377636432645,-0.02628200385645032,-0.01204115092754364
1686445401623475200,6.12947509765625,-0.012947744378447533,-0.03633954321872443,-0.016368366476893423
1686445401633491000,6.139490966796875,-0.028460370808839796,-0.04080163719411939,-0.021409867775440215
1686445401643508200,6.14950830078125,-0.005263619616627693,-0.03372939725294709,-0.013490765213966369
1686445401653525000,6.15952490234375,-0.002723287484049797,-0.026313714168965815,-0.008266308563947677
1686445401663541000,6.169541015625,0.01630582263469696,-0.018450871839374303,-0.00615910715162754
1686445401673558300,6.179558349609375,0.018514146333932877,-0.006154430976510048,-0.007090835043787956
1686445401683575000,6.189574951171875,0.022034137153625486,0.0010850187577307224,-0.013608838635683058
1686445401693592000,6.199592041015625,0.03200198893845081,-0.0029278701454401013,-0.03165069128274917
1686445401703608000,6.209608154296875,-0.0018114333361387252,-0.000009352350234985351,-0.04363397454321384
1686445401713625000,6.219625,-0.013678981262445449,0.012051964582502841,-0.05327157146036625
1686445401723642000,6.22964208984375,-0.018913374784588814,0.0164012823658064,-0.06223872177004814
1686445401733658000,6.239658203125,-0.022231705552339553,0.01884619129989296,-0.04983341370522976
1686445401743675100,6.249675048828125,-0.038974750560522076,0.013629735293239355,-0.027220015358924866
1686445401753692200,6.259692138671875,-0.040210429835319514,0.017043196998536587,-0.015568740531802176
1686445401763708200,6.269708251953125,-0.026926585370302198,0.0030396599568426608,-0.012470189994573593
1686445401773725000,6.279724853515625,-0.023460370564460754,-0.002304477550089359,-0.014260580542683601
1686445401783742200,6.2897421875,-0.015501520514488219,0.002044365309178829,-0.003192074039578438
1686445401793759200,6.29975927734375,0.0005523731857538223,-0.0016319485833868384,-0.011267828467488288
1686445401803775000,6.30977490234375,0.008537526720762252,-0.015471673365496099,-0.015136778855323791
1686445401813792300,6.319792236328125,0.009036123892664909,-0.022689678452908993,-0.019310265147686002
1686445401823809000,6.32980908203125,0.014296820899844168,-0.024393084837310015,-0.025895488756895065
1686445401833825000,6.339824951171875,-0.012127660167217254,-0.0116594581335783,-0.02809329106211662
1686445401843842000,6.349842041015625,-0.02407178046107292,-0.01010316860228777,-0.018781272837519646
1686445401853859000,6.359859130859375,-0.02680968099236488,-0.011420388680696487,-0.01102291379570961
1686445401863876000,6.3698759765625,-0.031845337072014805,-0.0084156539067626,0.0034019173979759213
1686445401873892000,6.37989208984375,-0.03537643380761146,-0.012144611302018165,0.008261047866940497
1686445401883909000,6.3899091796875,-0.019379238730669022,-0.0017668635420501231,0.011838906353712082
1686445401893926100,6.399926025390625,-0.005513794985413551,0.005435505584813654,0.005479308193922043
1686445401903942100,6.409942138671875,-0.016437924581766128,0.00759765205476433,0.0008300210833549499
1686445401913959000,6.419958984375,-0.03575111233890056,0.0008369257481768726,-0.0008393734335899353
1686445401923976200,6.42997607421875,-0.017254501661658286,0.004566723393648863,-0.015535422784090041
1686445401933992200,6.4399921875,-0.02076046395599842,-0.007221475686132907,-0.02230243270099163
1686445401944009000,6.450009033203125,-0.013496025910973548,-0.008904862195812165,-0.025188801792263984
1686445401954026200,6.460026123046875,0.005487491500377655,0.0037160979136824607,-0.028178046736121176
1686445401964043300,6.470043212890625,0.00018237082958221434,-0.007063216384500265,-0.012827917391061781
1686445401974059000,6.48005908203125,-0.004487959069013595,-0.0040410555517300965,-0.01988601920902729
1686445401984076000,6.490075927734375,-0.004521276816725731,-0.0043152328506112095,-0.017989245676994323
1686445401994093000,6.500093017578125,-0.0045019875943660735,-0.0013781564854085445,-0.02682897021472454
1686445402004109000,6.510109130859375,0.001121112984418869,0.006465396621823311,-0.029160628032684325
1686445402014126000,6.5201259765625,0.0032236382216215133,-0.0044086102224886415,-0.019291560447216034
1686445402024143000,6.53014306640625,0.006259060394763946,0.004712561605125665,-0.015797873112559317
1686445402034160000,6.54016015625,0.0020434885263442993,0.00825593330040574,-0.005651157629489898
1686445402044176100,6.550176025390625,0.004248305094242096,-0.000786181941628456,-0.014971943682432173
1686445402054193000,6.56019287109375,-0.00843698895573616,-0.0038631051689386364,-0.03140285400152206
1686445402064210200,6.570210205078125,-0.014674422040581702,-0.019393851777911184,-0.03631400691866875
1686445402074226200,6.58022607421875,-0.01826514000892639,-0.0074698974892497055,-0.034540567505359644
1686445402084243000,6.590242919921875,-0.011192425143718718,-0.008342588670551777,-0.022104864302277562
1686445402094260200,6.60026025390625,-0.02124620164632797,-0.008780687826871872,-0.014683189868927
1686445402104276200,6.610276123046875,-0.030554712739586827,-0.0096429672120139,0.0027700492352247235
1686445402114293000,6.62029296875,-0.03164426154196262,-0.007713314323686063,0.0007528641939163207
1686445402124310000,6.63031005859375,-0.03691489542126655,-0.013542933792620896,-0.010804887130856514
1686445402134327300,6.640327392578125,-0.048880058503150935,-0.016673048511892555,-0.02233165879547596
1686445402144343000,6.650343017578125,-0.0198071087539196,-0.013417553847283124,-0.013459201031923293
1686445402154360000,6.660360107421875,-0.011519757401943206,-0.0020874737985432145,-0.016840660163760183
1686445402164377000,6.670377197265625,-0.012471943560242652,0.007358253808319568,-0.009110942694544792
1686445402174393000,6.68039306640625,-0.021329203754663465,0.010180763883143663,0.002527472651004791
1686445402184410000,6.69041015625,-0.034090485650300976,0.004124678714573383,-0.00469429529607296
1686445402194427100,6.70042724609375,-0.0273404268682003,-0.004787964928895235,0.000702010789513588
1686445402204444200,6.710444091796875,-0.027432196804881095,-0.015339169559627771,-0.021538462591171263
1686445402214460200,6.720460205078125,-0.025149054303765295,-0.01536313495710492,-0.023750877943634986
1686445402224477000,6.730476806640625,-0.014824644166231155,0.006293547186255455,-0.032571313259005544
1686445402234494200,6.740494140625,0.0030465280890464783,0.007741261776536702,-0.030110476103425023
1686445402244510200,6.75051025390625,0.020008184283971785,0.005239946480095386,-0.011043956583738326
1686445402254527000,6.76052685546875,0.008312485793232917,0.0024882000865414735,-0.013006781089305877
1686445402264544000,6.7705439453125,0.0032370822250843046,-0.002861526910960674,-0.014787234765291214
1686445402274561300,6.780561279296875,-0.005598550659418106,-0.001375818397849798,-0.005682137289643287
1686445402284577000,6.790576904296875,0.0120429044932127,-0.002785539065301418,-0.00990706150829792
1686445402294594000,6.800593994140625,0.017574819657206534,-0.010225041416287422,-0.013978840991854667
1686445402304611300,6.810611328125,-0.00663490796983242,-0.006763320122472941,-0.015772154149413107
1686445402314627000,6.820626953125,-0.024186931273341178,-0.003628967619501054,-0.006695698246359825
1686445402324644000,6.83064404296875,-0.038222470888495445,-0.013320486680977045,-0.009207388806343078
1686445402334661000,6.8406611328125,-0.02411971125602722,-0.011717143137566744,-0.029521862560510634
1686445402344677000,6.850677001953125,-0.026367197921872136,-0.003144435505568981,-0.025922376763820646
1686445402354694100,6.860694091796875,-0.01011748938858509,-0.008572451903671025,-0.019396189865469933
1686445402364711200,6.870711181640625,0.008100304347276687,0.0024029694885015487,-0.015553542962670325
1686445402374728200,6.880728271484375,0.0073503627628088,-0.005035363818705081,-0.011680500921607016
1686445402384744200,6.890744140625,0.0016927753925323485,-0.004481967719644308,-0.0036059155374765393
1686445402394761000,6.900760986328125,-0.014776713371276855,-0.008032938199490308,-0.008740355816483497
1686445402404778000,6.910778076171875,-0.01872691230177879,-0.009499357490241526,-0.02229366487264633
1686445402414794200,6.920794189453125,-0.015856909823417663,-0.00955649450495839,-0.020939327654242515
1686445402424811000,6.93081103515625,-0.015135609811544418,-0.0006394669473171234,-0.013805822512507438
1686445402434828000,6.940828125,-0.019953823748230935,-0.0022382439134642483,-0.008030161720514297
1686445402444845300,6.95084521484375,-0.011936521509289741,0.0006957637118175625,-0.002570142748951912
1686445402454861000,6.960861083984375,0.0025537761360406876,2.922609448432922e-7,-0.010718962413072585
1686445402464878000,6.970878173828125,0.015621932023763656,0.0008611468739807605,-0.003680734339356422
1686445402474895000,6.98089501953125,0.011263736814260482,-0.0022642916701734067,0.00029401451051235195
1686445402484911000,6.9909111328125,-0.0070709612995386115,-0.011390541531704365,-0.0022287819653749466
1686445402494928100,7.00092822265625,-0.034087563040852545,-0.003324468247592449,-0.0056336219727993
1686445402504945200,7.010945068359375,-0.041647184640169144,-0.0007139934882521629,-0.025628946775197982
1686445402514961000,7.0209609375,-0.06889058087468147,0.0016008958579972385,-0.043724575436115264
1686445402524978200,7.030978271484375,-0.052445642030239104,0.007697568765282631,-0.055979076853394504
1686445402534995200,7.0409951171875,-0.016171382600069045,-0.006512012242525816,-0.055900166398286814
1686445402545012200,7.05101220703125,0.02681201907992363,-0.010313158091157675,-0.03294014657139778
1686445402555028200,7.0610283203125,0.03661854282319545,-0.013624693791940808,0.003360416343808174
1686445402565045000,7.071044921875,0.02597498373389244,-0.023757892206311224,0.038648002824187275
1686445402575062000,7.08106201171875,0.03400982162952423,-0.03778667328711599,0.047857145196199415
1686445402585078000,7.091078125,0.012844284003973007,-0.03314545988515019,0.019310265147686002
1686445402595095000,7.101094970703125,-0.006522679767012596,-0.013612199636548757,-0.0005570493608713149
1686445402605112300,7.1111123046875,-0.03464052074849605,0.0128881231456995,-0.023632804521918297
1686445402615129300,7.12112939453125,-0.053413610279560084,0.03110255588069558,-0.03718494453430175
1686445402625145000,7.13114501953125,-0.055039750176668165,0.028623342818208036,-0.04314706780910492
1686445402635162400,7.141162353515625,-0.05358896684646606,0.017179682859778403,-0.033141222101449964
1686445402645179400,7.151179443359375,-0.04776479073762893,0.012431465419381857,-0.009901216289401054
1686445402655195100,7.161195068359375,-0.05132219095826149,0.022072277206927535,-0.0008194996893405913
1686445402665212200,7.171212158203125,-0.014933365237712859,0.020334932020306586,0.0039010990917682647
1686445402675229200,7.181229248046875,0.008628127613663673,0.007124152791500091,0.005939326921105385
1686445402685245200,7.1912451171875,0.020519640937447545,-0.012801906166970729,0.00599485650062561
1686445402695262200,7.20126220703125,-0.00014846855998039245,-0.02278817039132118,0.007148118188977241
1686445402705279200,7.211279296875,-0.0023819267004728316,-0.03850041104704141,-0.0036550153762102125
1686445402715296300,7.221296142578125,-0.012988660910725593,-0.04671962906625122,-0.019072364738583564
1686445402725312300,7.231312255859375,-0.028499533775448796,-0.04039601553529501,-0.037252164551615716
1686445402735329000,7.2413291015625,-0.03835983353257179,-0.03206833217293024,-0.0297106631308794
1686445402745346300,7.25134619140625,-0.010438976427912711,-0.031689561988413335,-0.03302022607028484
1686445402755362300,7.2613623046875,0.010710779106616974,-0.026196955921500918,-0.03145546097159385
1686445402765379000,7.271379150390625,0.02396072130203247,-0.013571575365215539,-0.006086041915416717
1686445402775396400,7.281396240234375,0.02758358797430992,0.014152663188800214,-0.017139935371279714
1686445402785413400,7.291413330078125,0.019243045130372047,0.026286424303241074,-0.01279050799012184
1686445402795429000,7.30142919921875,0.024416063854098318,0.028229813455976544,-0.011550152540206908
1686445402805446100,7.311446044921875,-0.00010462941825389861,0.029075908891297877,-0.014727613532543182
1686445402815463400,7.32146337890625,-0.01747135928273201,0.017624065626412628,-0.011499299135804176
1686445402825479200,7.331479248046875,-0.033116672182083126,0.014197598309069871,-0.017315876460075378
1686445402835496200,7.34149609375,-0.033793548530340195,0.013678396740555763,-0.00769581519961357
1686445402845513200,7.35151318359375,-0.03925649011135101,0.007644961795210838,-0.0125613754093647
1686445402855530200,7.3615302734375,-0.03598258300721645,-0.004992109198868274,-0.02964928833246231
1686445402865546200,7.371546142578125,-0.025217443364858625,-0.014935264933854341,-0.028176293170452116
1686445402875563300,7.381563232421875,-0.012025953358411789,-0.0032440964877605435,-0.020392215165495872
1686445402885580300,7.391580322265625,-0.015820669466257094,0.006450235585309565,-0.012815057909488677
1686445402895596300,7.40159619140625,-0.010289923346042633,0.003289396934211254,-0.0023375030368566513
1686445402905613000,7.411613037109375,0.016880407652258872,-0.001874086776189506,-0.007805120792984962
1686445402915630300,7.42163037109375,0.029472178199887275,-0.0016591653838753698,-0.033396658167243
1686445402925647400,7.4316474609375,0.03391863621473312,-0.018594079702347516,-0.03526303656101227
1686445402935663000,7.4416630859375,0.016952303844690323,-0.022019085714966056,-0.02756312970817089
1686445402945680100,7.45168017578125,-0.013456862944364547,-0.021581424950063228,-0.024031448450684546
1686445402955697400,7.461697509765625,-0.02734218043386936,-0.032594803732447324,-0.01444704302549362
1686445402965713200,7.471713134765625,-0.03777472712099552,-0.026006255654990672,-0.009647533789277076
1686445402975730200,7.481730224609375,-0.05072773219645023,-0.022709661795012652,-0.0030360066950321195
1686445402985747500,7.49174755859375,-0.06466039595901965,-0.010880400052480399,0.0030617256581783295
1686445402995763200,7.50176318359375,-0.0708323625922203,-0.0019515724591910838,0.0031646015107631683
1686445403005780200,7.5117802734375,-0.09181319130063056,0.016917232531309126,0.004811784195899963
1686445403015797200,7.52179736328125,-0.09597031098008155,0.019700871900469062,0.0038689503878355023
1686445403025814300,7.531814208984375,-0.06627426089644432,0.0034044016160070896,-0.012258593070507048
1686445403035830300,7.541830322265625,-0.03934650648236274,-0.004652355850487947,-0.02979132715165615
1686445403045847300,7.551847412109375,0.014112696504592894,-0.01791983370259404,-0.038057051193714136
1686445403055864300,7.5618642578125,0.06543956363797188,-0.013918050715327262,-0.04310147510170936
1686445403065880300,7.57188037109375,0.06504910301566123,-0.01013659594785422,-0.034221418553590774
1686445403075897300,7.5818974609375,0.05783902550637722,0.0019028014140203594,-0.016608020451664925
1686445403085914000,7.5919140625,0.04319441408216953,-0.0004484378872439265,-0.008259878823161124
1686445403095931400,7.601931396484375,0.017812135544419287,-0.006689962625317275,-0.003905775266885757
1686445403105947100,7.611947021484375,-0.015521394258737563,-0.00274929870814085,-0.00029985972940921784
1686445403115964200,7.621964111328125,-0.02439034489095211,0.006557751080393791,-0.017405308309197426
1686445403125981400,7.6319814453125,-0.01488894157409668,0.011869593752920626,-0.02435235096812248
1686445403135997200,7.6419970703125,-0.0058604164659976955,0.010960077692568302,-0.0198071087539196
1686445403146014200,7.65201416015625,-0.0016179565906524658,0.005752608709968626,-0.025443068814277648
1686445403156031200,7.66203125,0.011942951250076293,0.0016281857237219809,-0.02595978616476059
1686445403166047200,7.672047119140625,0.003356324690580368,-0.010933774207532405,-0.026214053186774253
1686445403176064300,7.682064208984375,-0.004248305094242096,-0.02058554578050971,-0.019209142860770224
1686445403186081300,7.692081298828125,-0.027061025404930113,-0.014891133531183003,-0.011392916151881217
1686445403196098300,7.702098388671875,-0.05665244607031345,-0.016101641832105815,-0.015560557225346563
1686445403206114300,7.7121142578125,-0.07925006232559681,-0.009674677524529397,-0.0022270283997058867
1686445403216131300,7.72213134765625,-0.0888882437646389,-0.007652998971194028,-0.017651392024755477
1686445403226148000,7.732148193359375,-0.07602759314775466,-0.005544043993204832,-0.030898996132612228
1686445403236164400,7.742164306640625,-0.04973930568099021,0.0014024141438305378,-0.023998130702972412
1686445403246181400,7.752181396484375,-0.0027080899149179456,0.008646101661771535,-0.02391279050707817
1686445403256198100,7.7621982421875,0.022142273703217506,-0.0035680312125012277,-0.004875497081875801
1686445403266215400,7.77221533203125,0.018548633125424385,0.010213643239438533,0.003962473890185356
1686445403276231200,7.782231201171875,0.011417466071248054,-0.005249444960802793,0.014037877702713012
1686445403286248200,7.792248291015625,0.011531447839736938,-0.018689795161783693,0.00291442614197731
1686445403296265200,7.80226513671875,0.009703063368797301,-0.014212795878201722,-0.009107435563206673
1686445403306281200,7.81228125,0.003737432962656021,-0.0027345029978081583,-0.02405833645761013
1686445403316298200,7.82229833984375,-0.019001053068041802,-0.00047956367786973714,-0.02044891378879547
1686445403326315300,7.832315185546875,-0.03245616244673729,0.00466857633292675,-0.02606733819246292
1686445403336331000,7.8423310546875,-0.02775660645365715,0.010756810205429792,-0.024445874470472334
1686445403346348300,7.852348388671875,-0.028985855987668036,-0.00042830841466784473,-0.027858313262462613
1686445403356365300,7.862365234375,-0.018735095608234404,0.0039024507986381647,-0.042538580521941184
1686445403366382300,7.87238232421875,-0.004090484184026718,-0.0018491349980235099,-0.034898294901847836
1686445403376398300,7.8823984375,0.01333995856642723,0.01079392734542489,-0.030461773759126662
1686445403386415400,7.892415283203125,0.009592588731646538,0.011917159221693873,-0.013388473883271216
1686445403396432100,7.90243212890625,-0.007849544456601142,-0.004105535622686148,-0.004777881926298141
1686445403406448000,7.9124482421875,-0.0005851064115762711,-0.013502163390815258,-0.003333528336882591
1686445403416465400,7.92246533203125,-0.00025017536878585813,-0.02179214509129524,-0.010181202274560928
1686445403426482200,7.932482177734375,-0.005358896684646606,-0.01952010850608349,-0.01664133819937706
1686445403436499500,7.94249951171875,-0.01111526825428009,-0.022076514990627766,-0.02883797194957733
1686445403446515200,7.95251513671875,-0.02139876185953617,-0.0019838307609781622,-0.026846505871415138
1686445403456532200,7.9625322265625,-0.03695756551921368,0.006518916907347738,-0.0354880774885416
1686445403466549200,7.97254931640625,-0.04513502675592899,0.0012872998641803859,-0.03928396264016628
1686445403476565200,7.982565185546875,-0.02168400854170322,0.00150781074706465,-0.027324644777178764
1686445403486582300,7.992582275390625,-0.012364391532540321,-0.006136712656728923,-0.01934007576406002
1686445403496599300,8.002599365234374,-0.00006838906109333039,-0.007005312184803187,-0.007039397117495536
1686445403506616300,8.0126162109375,0.013882394880056381,0.0027422844454646107,0.0036240357160568235
1686445403516632300,8.02263232421875,0.008978840747475623,0.0028104177782312034,0.012333411872386933
1686445403526649300,8.0326494140625,-0.0027209493964910503,-0.0016048048481345175,0.014090484672784804
1686445403536666000,8.042666015625,0.003296703457832336,-0.017147826416790485,0.003171615773439407
1686445403546682400,8.052682373046874,-0.009718260937929152,-0.020066636472940443,-0.014950900894403457
1686445403556699400,8.062699462890626,-0.03776654381453991,-0.01315627256259322,-0.02982347585558891
1686445403566716200,8.072716064453125,-0.05210018959343433,-0.0013589768609032033,-0.04486790025234222
1686445403576732200,8.082732177734375,-0.04819032267332077,-0.007511836934834718,-0.04614508058130741
1686445403586749400,8.09274951171875,-0.019991233149170874,0.0007035086268559098,-0.04019114061295986
1686445403596766200,8.10276611328125,-0.006913140389323234,0.012262136734463273,-0.01988894181847572
1686445403606783700,8.11278369140625,0.0063327101528644555,0.02065934166908264,-0.00019873744249343872
1686445403616799700,8.1227998046875,0.005534837773442268,0.009277239172160626,0.0156330379396677
1686445403626816800,8.132816650390625,0.010365911191701889,0.0017519582338631151,0.01595686306655407
1686445403636833800,8.142833740234375,0.01300619656741619,-0.005484970749728381,0.009283376652002334
1686445403646849500,8.152849609375,-0.017453239104151724,-0.004223572511784732,-0.0010077157378196716
1686445403656866800,8.16286669921875,-0.03505494676828384,0.010038725063949823,-0.03193886057436466
1686445403666883600,8.172883544921875,-0.04211480215191841,0.0017936419511213897,-0.03990530940890312
1686445403676900600,8.182900634765625,-0.05005903915464878,0.0032404432259500026,-0.04273965605199337
1686445403686916900,8.192916748046875,-0.031655951979756354,-0.01361026340778917,-0.03969078987538814
1686445403696933600,8.20293359375,-0.02247720474600792,-0.013097345449589192,-0.028957214415073394
1686445403706950700,8.21295068359375,-0.0065676879525184625,-0.009708908587694168,-0.03080781071782112
1686445403716966700,8.222966552734375,0.010959785431623459,-0.014143237773329018,-0.017444471275806426
1686445403726983700,8.232983642578125,0.030161329507827756,-0.023227584721893072,-0.0030260698229074476
1686445403737000700,8.243000732421875,0.038783027380704875,-0.025451982773095367,0.008553893333673476
1686445403747018000,8.25301806640625,0.023079846814274788,-0.002443849488161504,0.0016220482438802717
1686445403757033700,8.26303369140625,0.007691723546385765,-0.0000763897044584155,-0.016528525474667547
1686445403767050800,8.27305078125,-0.030397476351261138,0.010925883162021637,-0.018149404674768447
1686445403777067800,8.28306787109375,-0.05079378316998481,0.009912322205305099,-0.01267243456840515
1686445403787083500,8.29308349609375,-0.07318681676387787,0.002322013206779957,-0.015895488268136977
1686445403797100800,8.303100830078124,-0.06085691202282905,0.011870032144337891,-0.013685411003232001
1686445403807117800,8.313117919921876,-0.04778700256943703,0.009500672664493321,-0.0117640875518322
1686445403817134800,8.323134765625,-0.02981120089590549,0.019743103606998918,-0.010188216537237166
1686445403827150800,8.33315087890625,0.012740239107608794,0.01864230275824666,-0.006663549542427063
1686445403837167600,8.343167724609375,0.0012567220628261564,0.009619915129989385,-0.006475333493947982
1686445403847184600,8.3531845703125,-0.005061959564685821,-0.011823562654107809,-0.00637304216325283
1686445403857201000,8.363200927734376,-0.0142693483710289,-0.024160920049250124,-0.007521627676486968
1686445403867217700,8.3732177734375,-0.025968553993105888,-0.02418733313214034,-0.014296236377954482
1686445403877234700,8.383234619140625,-0.0303992299169302,-0.022250373720191417,-0.0175239662528038
1686445403887250700,8.393250732421874,-0.03604746493697166,-0.018989801021665333,-0.020445406657457352
1686445403897267700,8.403267822265626,-0.029008067819476124,-0.011682108356803654,-0.023535189366340636
1686445403907284700,8.41328466796875,0.0019248305827379226,-0.01324234341084957,-0.02263970183134079
1686445403917301800,8.4233017578125,0.015880290699005126,-0.00501300585642457,-0.028725743746757505
1686445403927317800,8.43331787109375,0.02287058797776699,-0.000056990884244441985,-0.02893383353948593
1686445403937334800,8.443334716796874,0.03320025881230831,0.0014886311225593089,-0.030594460228085516
1686445403947351800,8.453351806640624,0.003834463596343994,0.006887275295704603,-0.02510755324959755
1686445403957367600,8.463367431640625,-0.021110592567920684,0.014069441884756088,-0.01504617796242237
1686445403967384800,8.473384765625,-0.028053543573617935,0.015386223571747541,-0.017336334726214406
1686445403977401900,8.48340185546875,-0.020605565655231476,0.008095226313360035,-0.015406827968358993
1686445403987418600,8.493418701171874,-0.017303016978502273,-0.0024780805513262747,-0.019716507861018178
1686445403997435000,8.503434814453126,-0.014717676660418509,0.005977613104879855,-0.02550269004702568
1686445404007451600,8.51345166015625,-0.01144026242494583,-0.0031033728428184982,-0.02595101833641529
1686445404017468700,8.52346875,-0.006409282520413399,0.0016498130336403845,-0.03571662554740906
1686445404027484700,8.533484619140625,-0.002622165197134018,-0.0068956047326326365,-0.04911795891225338
1686445404037501700,8.543501708984374,0.004437105664610862,-0.016681524079293013,-0.041918402796983716
1686445404047518700,8.553518798828126,-0.008660276317596435,-0.01915799719542265,-0.04995499425828456
1686445404057535700,8.56353564453125,-0.014323124384880065,-0.011075082374364137,-0.04231529316008091
1686445404067551700,8.5735517578125,-0.006263152047991752,-0.004815437457710505,-0.023640987828373906
1686445404077568800,8.58356884765625,-0.00625496874153614,0.010736863395944237,-0.00014379238486289978
1686445404087585800,8.593585693359374,-0.016743045008182526,0.0012143442258238791,0.025431378376483914
1686445404097601500,8.6036015625,-0.01698854420185089,-0.0059514557503163815,0.025638299125432966
1686445404107618800,8.613618896484375,-0.02497545130252838,0.00029942133799195286,0.003887655088305473
1686445404117635800,8.6236357421875,-0.018666706547141074,-0.006475333493947982,-0.0034317280143499372
1686445404127651600,8.633651611328125,-0.0062742579638957975,-0.013043313707411288,-0.004960837277770042
1686445404137668900,8.6436689453125,-0.0280506209641695,-0.010106493070535362,-0.021944120782613753
1686445404147686000,8.653685791015626,-0.06053600950539112,-0.00998651995267719,-0.026131635600328443
1686445404157702700,8.66370263671875,-0.044295068800449366,-0.00607113660722971,-0.02928279310762882
1686445404167718700,8.67371875,-0.03272036634087563,-0.006764671829342842,-0.0258721078813076
1686445404177735700,8.683735595703125,-0.02400689853131771,-0.006491225182823837,-0.016349661776423455
1686445404187752700,8.693752685546874,-0.009320786052942275,-0.0010904255852103232,-0.013300795599818229
1686445404197768700,8.703768798828126,0.0016208792001008987,-0.001649045848660171,0.0030523733079433437
1686445404207785700,8.71378564453125,0.014001637345552443,-0.003151011376827955,-0.001471241596341133
1686445404217802800,8.723802734375,0.025924714851379392,-0.0018105565533041953,-0.0034790742874145505
1686445404227819800,8.73381982421875,0.016342062991857528,-0.0058043023645877835,0.0015840543210506439
1686445404237835500,8.74383544921875,0.0037760114073753354,-0.003745908530056476,-0.0048643911659717555
1686445404247852800,8.753852783203126,-0.0017079729616641998,-0.006721709470450878,-0.022779402562975882
1686445404257869800,8.763869873046875,-0.03831950152218341,-0.008629150526970624,-0.03528641743659973
1686445404267885600,8.773885498046875,-0.044103930142521855,-0.00010346037447452545,-0.057955345362424845
1686445404277902800,8.78390283203125,-0.04322364017665386,0.003252279794216156,-0.0648024347782135
1686445404287919900,8.793919921875,-0.024251228681206702,0.01427548585087061,-0.05296645103394985
1686445404297936600,8.8039365234375,-0.013750292932987213,0.013652823907881974,-0.02401683540344238
1686445404307952600,8.81395263671875,-0.002042904004454613,0.015312354617938399,-0.01319090548455715
1686445404317970000,8.823969970703125,0.012756021198630332,0.00503434090539813,-0.0043920974791049954
1686445404327986700,8.833986572265625,-0.0011795651733875275,-0.009347381798923015,-0.007120645660161971
1686445404338002700,8.844002685546876,-0.017441548666357994,-0.012720803754776716,0.006518003591895103
1686445404348019700,8.854019775390626,-0.01575987918972969,-0.01924596773982048,0.0029319617986679077
1686445404358036700,8.86403662109375,-0.005520224726200103,-0.02583685390483588,-0.015292846199870109
1686445404368053800,8.8740537109375,-0.027014263653755186,-0.02946750202476978,-0.01945113492310047
1686445404378069800,8.88406982421875,-0.03962123177051544,-0.0141734867811203,-0.022927286601066587
1686445404388086800,8.894086669921874,-0.04863105217814445,0.002917202620953321,-0.04852817632555961
1686445404398103800,8.904103759765626,-0.04060556663274765,-0.0006454582966864109,-0.031048633736371994
1686445404408119600,8.91411962890625,-0.0226087221711874,-0.013741817365586757,-0.02514846978187561
1686445404418136800,8.92413671875,-0.002053425398468971,0.00493131892234087,-0.015198738175630569
1686445404428153900,8.93415380859375,0.002611643803119659,-0.0018099720314145088,0.0027870003700256347
1686445404438170600,8.944170654296874,0.007417582780122756,0.0028453064285218713,0.010122165563702584
1686445404448186600,8.9541865234375,-0.009468085569143294,0.008621990133821963,0.01476034675836563
1686445404458204000,8.964203857421875,-0.010861585754156113,0.006458382359147072,0.008861936369538307
1686445404468220700,8.974220703125,-0.016709142738580703,-0.008037760505080222,-0.008963058656454085
1686445404478236700,8.984236572265624,-0.01994096426665783,-0.005743365957587957,-0.020886136162281035
1686445404488254000,8.99425390625,-0.02372808158993721,-0.0034051322683691975,-0.020498013627529142
1686445404498270700,9.004270751953126,-0.043045945522189134,0.005407412001490593,-0.021702713242173193
1686445404508286700,9.01428662109375,-0.030638299369812008,0.0044109483100473875,-0.026449615508317946
1686445404518303700,9.0243037109375,-0.01210252572596073,0.006861008343286812,-0.01641571274995804
1686445404528320800,9.03432080078125,0.006215221253037452,0.0018091317811980841,-0.009749825119972228
1686445404538337800,9.044337890625,0.004121463844180107,0.002680946179665625,-0.0033200843334197996
1686445404548353800,9.054353759765625,0.013507131826877593,-0.00009805354699492454,-0.004440612795948982
1686445404558370800,9.064370849609375,0.011722586497664451,0.011660334916412829,-0.0073047700554132455
1686445404568387800,9.074387939453125,0.0005962123274803161,0.004581044179946184,-0.02056698721051216
1686445404578403600,9.084403564453124,-0.02128770270049572,0.000030541268736124036,-0.028567922836542126
1686445404588420600,9.094420654296876,-0.026052725145220754,-0.015526654955744743,-0.02963701337277889
1686445404598438000,9.10443798828125,-0.03506897529363632,-0.024376024104654788,-0.033607086047530176
1686445404608454400,9.114454345703125,-0.02297697096168995,-0.010025829049758612,-0.018987024542689322
1686445404618470400,9.124470458984375,-0.02995850041210651,-0.0033726913034915922,-0.021302315747737884
1686445404628487400,9.1344873046875,-0.03802139535844326,-0.007938245653361082,-0.016457213804125785
1686445404638504200,9.144504150390626,-0.022091420298814772,-0.00020513065066188574,-0.010973813956975937
1686445404648520400,9.1545205078125,-0.011820786175131798,-0.0025749285219237206,-0.014163549908995628
1686445404658537500,9.164537353515625,0.008381459376215934,-0.0059447337485849855,-0.012847206613421439
1686445404668554200,9.17455419921875,0.011868716970086096,0.0035009938582777973,-0.004317863199114799
1686445404678571500,9.184571533203124,-0.014016834914684294,0.0037801030606031414,-0.013329437172412872
1686445404688587500,9.19458740234375,-0.013919804280996323,-0.007526851840876043,-0.016122867283225057
1686445404698604300,9.204604248046875,-0.03495440900325775,-0.01643964161481708,-0.025965046861767767
1686445404708621300,9.214621337890625,-0.028111995762586592,-0.020315935058891774,-0.034274025523662564
1686445404718637600,9.224637451171875,-0.03890460793375969,-0.0070038874126970765,-0.02908113305568695
1686445404728654300,9.234654296875,-0.029542320826649666,-0.00016658873856067658,-0.01253390288054943
1686445404738671400,9.24467138671875,-0.03799859900474548,0.013066694582998752,0.00011573533415794372
1686445404748687400,9.254687255859375,-0.023064649245142937,0.00902282601967454,-0.009501987838745117
1686445404758704400,9.264704345703125,-0.009625321957468985,0.009292217545583844,-0.006250292566418647
1686445404768721400,9.274721435546875,0.0007476034969091414,0.007355477329343557,0.0018657938718795776
1686445404778738200,9.28473828125,-0.004005143988132477,0.002338087558746338,0.004725859478116035
1686445404788754400,9.29475439453125,-0.0003156418204307556,-0.00733706488981843,-0.007022445982694626
1686445404798771500,9.304771484375,-0.006229249778389931,-0.012041552786342799,-0.021495792493224142
1686445404808788200,9.314788330078125,-0.016944705060124396,-0.021824841784499584,-0.03837853823304176
1686445404818804200,9.32480419921875,-0.021370704808831215,-0.01185030453056097,-0.04701426463127136
1686445404828821500,9.334821533203124,0.0010813654959201812,0.0009659589553251862,-0.028752047231793403
1686445404838838300,9.34483837890625,0.013751461976766586,0.0009527706801891326,-0.007555529946088791
1686445404848855300,9.354855224609375,-0.0017114800930023192,-0.009758154556900262,0.004053074783086776
1686445404858871600,9.36487158203125,-0.016948212191462517,-0.01415580499395728,-0.0020797288835048672
1686445404868888300,9.374888427734374,-0.02360065581798553,-0.004072510135918856,-0.022384850287437436
1686445404878905300,9.3849052734375,-0.014227847316861152,0.010572868473269045,-0.029778467670083044
1686445404888921300,9.39492138671875,-0.018248773396015164,0.01121829023733735,-0.035599136647582054
1686445404898938400,9.4049384765625,-0.02737316009402275,0.002223850061930716,-0.027820319339632988
1686445404908955400,9.414955322265625,-0.025509119787812232,-0.006288542217575013,-0.023711714977025983
1686445404918972200,9.42497216796875,0.00982815105319023,-0.01617284390479326,-0.020996026277542112
1686445404928988400,9.434988525390626,0.014034370571374893,-0.03275280730575323,-0.01948153006136417
1686445404939005400,9.44500537109375,0.0032920272827148436,-0.03487195488419383,-0.017526888862252236
1686445404949022200,9.455022216796875,-0.0012076222240924835,-0.021174159323424098,-0.013543372184038161
1686445404959038200,9.4650380859375,-0.0073345806717872615,-0.0007404431037604808,-0.00863221926689148
1686445404969055500,9.475055419921874,-0.027644378250837324,0.013645663514733314,-0.024040216279029844
1686445404979072300,9.485072265625,-0.04290858287811279,0.017814473631978033,-0.03304711407721042
1686445404989089300,9.49508935546875,-0.05800210711359977,0.01623845648691058,-0.0236368961751461
1686445404999105500,9.50510546875,-0.054205052918195724,0.015110036978870629,0.001975099465250969
1686445405009122300,9.515122314453125,-0.05342763880491257,0.024453180994093417,0.021146832925081252
1686445405019139300,9.525139404296874,-0.05381050064265728,0.022545155415683985,0.031842414462566374
1686445405029155300,9.5351552734375,-0.05219429761767387,0.02379559386819601,0.018229484173655507
1686445405039172400,9.54517236328125,-0.018560908085107804,0.01705328000113368,0.007877601507306098
1686445405049189400,9.555189453125,0.006081365740299225,-0.008784633349627256,-0.0017471359282732008
1686445405059206400,9.565206298828125,-0.007239303603768349,-0.030788959886878728,-0.014458148941397667
1686445405069222400,9.575222412109374,0.0014969605594873428,-0.045669097100012004,-0.027272622328996656
1686445405079239400,9.585239501953126,0.00920037454366684,-0.042089521580189464,-0.024501988571882245
1686445405089256200,9.595256103515625,0.004042553389072418,-0.03985679409205913,-0.02831599390208721
1686445405099272200,9.605272216796875,-0.0036620296388864514,-0.031215953127294777,-0.0370697937220335
1686445405109289500,9.61528955078125,-0.0028998130947351453,-0.03084474519472569,-0.030623686322569846
1686445405119306200,9.62530615234375,-0.012175590962171554,-0.011716595148295164,-0.024035540103912352
1686445405129323500,9.635323486328126,-0.01038110876083374,-0.003073708356916904,-0.023586627292633056
1686445405139339500,9.645339599609375,0.0022650223225355146,0.0064558981411159035,-0.016179565906524657
1686445405149356300,9.655356201171875,0.0017564882785081862,0.022337504014372823,-0.02328442947566509
1686445405159373300,9.665373291015625,-0.010339023184776306,0.03422653312012553,-0.022360884889960287
1686445405169389600,9.6753896484375,-0.024812369695305824,0.029253128621727225,-0.028906945532560346
1686445405179406300,9.68540625,-0.019461071795225143,0.020502397541701793,-0.041491117295622826
1686445405189423400,9.69542333984375,-0.019835165804624556,0.010320318484306335,-0.04932663322687149
1686445405199439400,9.705439453125,-0.023819267004728317,0.0026356092005968093,-0.04700549680292606
1686445405209456400,9.715456298828125,-0.007658405798673629,0.0011914017416536807,-0.04327157097160816
1686445405219473400,9.725473388671874,-0.007398293557763099,-0.004060965828597545,-0.03106266226172447
1686445405229490200,9.735490234375,-0.0024929858595132827,-0.005220072735846042,-0.028135376638174055
1686445405239506400,9.74550634765625,-0.0033837972193956375,-0.006672280838154256,-0.013801146337389944
1686445405249523500,9.7555234375,0.0007253916651010513,-0.012700272423401474,-0.009718260937929152
1686445405259540200,9.765540283203125,-0.009569207856059074,-0.018996230762451886,-0.013624620726704596
1686445405269556200,9.77555615234375,-0.011706804406642913,-0.02307327094301581,-0.015950433325767517
1686445405279573500,9.785573486328126,-0.017018939340114593,-0.011093348683416843,-0.005427870267629623
1686445405289590300,9.79559033203125,-0.011752981635928153,-0.0009106485715135932,0.00027180267870426176
1686445405299607300,9.805607177734375,-0.010657587614655495,-0.003238799258135259,-0.00880816035568714
1686445405309623600,9.81562353515625,-0.02320084284543991,-0.016523995430022476,-0.002331073296070099
1686445405319640300,9.825640380859374,-0.030299861195683477,-0.008149952175281942,0.0018079262048006056
1686445405329657300,9.8356572265625,-0.04733166001737117,0.0034324951993301507,-0.006828969237208366
1686445405339673300,9.84567333984375,-0.045211599123477934,0.00804462863728404,-0.004258826488256455
1686445405349690400,9.8556904296875,-0.04222761487662792,0.0033475933948531743,-0.015479893204569816
1686445405359707400,9.865707275390625,-0.030001170510053632,-0.006194470725953578,-0.010450666865706443
1686445405369724200,9.87572412109375,-0.02016834328174591,-0.003073416095972061,-0.004976034846901893
1686445405379740400,9.885740478515626,-0.020797873356938362,-0.003168693163990974,-0.0060679217368364334
1686445405389757400,9.89575732421875,-0.01853226651251316,-0.006351999375224113,-0.007864157503843307
1686445405399774200,9.905774169921875,-0.015247838014364242,-0.004719429737329483,-0.008781272348761558
1686445405409790200,9.915790283203124,-0.02259527816772461,-0.005276040706783533,-0.018242343655228612
1686445405419807500,9.925807373046876,-0.01760170766413212,-0.007771766512654721,-0.02986439238786697
1686445405429824300,9.93582421875,-0.014371639701724052,0.004481967719644308,-0.03306348069012165
1686445405439841300,9.94584130859375,0.0029459903240203855,-0.007794562866352498,-0.027402970710396764
1686445405449857500,9.955857421875,0.01080196452140808,-0.008464424951933324,-0.03014905454814434
1686445405459874300,9.965874267578124,0.01830605654120445,0.004048252477496862,-0.03355447907745838
1686445405469891300,9.975891357421874,0.004014496338367462,0.0012141980953514575,-0.0373573784917593
1686445405479907300,9.9859072265625,0.0010153145223855973,0.020808577414043246,-0.03810147485733032
1686445405489924400,9.99592431640625,-0.0014835165560245513,0.01038388523980975,-0.01532324133813381
1686445405499941400,10.00594140625,0.005297521886229515,-0.0009285130217671394,-0.02276946569085121
1686445405509958100,10.015958251953125,-0.0025759879678487778,0.0043104470776394,-0.008075754427909851
1686445405519974400,10.025974365234376,-0.025061376020312307,-0.001305675771087408,-0.0021527941197156905
1686445405529991400,10.035991455078126,-0.009677928927540779,-0.010442008635215461,-0.017175591206550597
1686445405540008200,10.04600830078125,-0.01657587174773216,-0.01895283001214266,-0.032038813817501066
1686445405550024200,10.056024169921875,-0.025343700093030927,-0.022487433879077433,-0.02871639139652252
1686445405560041500,10.06604150390625,-0.040027474483847615,-0.01710701948236674,-0.011240355938673018
1686445405570058200,10.076058349609376,-0.05702887816727161,-0.003953231137804687,-0.01657937887907028
1686445405580074200,10.08607421875,-0.03752162914276123,-0.007454115398228168,-0.01909165396094322
1686445405590091500,10.096091552734375,-0.023439327776432036,-0.0014275485850870609,-0.014324293428659438
1686445405600108300,10.1061083984375,-0.02218377475738525,0.0052570437453687184,-0.00006312836408615112
1686445405610125300,10.116125244140624,-0.02786065135002136,0.012690847007930278,0.010716624325513839
1686445405620141300,10.126141357421876,-0.0027928455889225006,0.0020049100816249845,0.01002513493001461
1686445405630158300,10.136158447265625,-0.005648819541931152,-0.0065974985688924785,-0.002128244200348854
1686445405640175400,10.14617529296875,-0.019553426253795622,0.002572919227927923,-0.012617489510774611
1686445405650191400,10.15619140625,-0.028318331989645958,0.005518507693149149,-0.03516483688354492
1686445405660208400,10.16620849609375,-0.024262334597110746,0.006083411566913128,-0.035300445961952205
1686445405670225400,10.176225341796876,-0.017715104910731316,0.009245821120589972,-0.015578677403926848
1686445405680242200,10.1862421875,-0.006535539248585701,0.010413878519274293,0.002496492990851402
1686445405690258200,10.196258056640625,-0.013452186769247055,-0.009794541044533252,-0.0024736966371536255
1686445405700275500,10.206275390625,-0.002769464713335037,-0.009486351878196,-0.0061550154983997345
1686445405710292200,10.216292236328124,0.012770634245872497,-0.014146160382777452,-0.02221826154887676
1686445405720308200,10.22630810546875,0.030067221483588216,-0.018931750691495833,-0.03310322817862034
1686445405730325500,10.236325439453125,0.011006547182798384,-0.004779197100549936,-0.029174072036147115
1686445405740342300,10.24634228515625,-0.015732991182804107,0.01473813492655754,-0.017643208718299865
1686445405750359300,10.256359375,-0.029152444726228712,0.011407090807706117,-0.009233692291378975
1686445405760375300,10.266375244140624,-0.028237083446979522,-0.001967646811157465,-0.005928805527091026
1686445405770392300,10.276392333984376,-0.033093291306495666,0.00784136115014553,-0.008061725902557373
1686445405780409300,10.286409423828125,-0.023353987580537795,0.010667707149870692,-0.004576806396245956
1686445405790425300,10.29642529296875,-0.006265490135550498,0.006577917085587978,-0.008135375660657883
1686445405800442400,10.3064423828125,0.0009615385085344314,0.00016008593253791331,-0.023656185397505757
1686445405810459400,10.31645947265625,0.01579904215633869,-0.017179682859778403,-0.03355623264312744
1686445405820476400,10.326476318359376,-0.006762333741784096,-0.016090243655256926,-0.04057867862582207
1686445405830492200,10.3364921875,-0.027030045744776725,-0.020225151502899823,-0.04141279136240482
1686445405840509400,10.346509521484375,-0.03226853092014789,-0.016094043047539888,-0.03469137415289879
1686445405850526200,10.356526123046875,-0.04373860396146774,-0.013483020298928021,-0.03868658126890659
1686445405860542200,10.366542236328126,-0.03567453997135162,-0.00612535101249814,-0.024207974061369895
1686445405870559500,10.3765595703125,-0.026075521498918532,0.005407850392907858,-0.006216974818706512
1686445405880576300,10.386576171875,-0.017352116817235946,0.010916750007495283,0.013280921855568884
1686445405890593300,10.39659326171875,-0.01234042613506317,0.004357318426668644,0.010507365489006042
1686445405900609300,10.406609375,-0.005284077882766723,0.005438099400699138,-0.0024970775127410886
1686445405910626300,10.416626220703124,-0.007612813091278076,-0.009267302300035953,-0.0031967502146959302
1686445405920643300,10.426643310546876,-0.013674889609217642,-0.006245141467265784,-0.011363690057396889
1686445405930659300,10.436659423828125,-0.015334931775927542,0.0039268911201506855,-0.026800913164019582
1686445405940676400,10.44667626953125,-0.031281273448467255,0.0021248831994831563,-0.040946342894434926
1686445405950693400,10.456693359375,-0.04449029911160469,-0.001627747332304716,-0.047396541947126385
1686445405960710400,10.46671044921875,-0.049313773745298384,0.001933744541555643,-0.04827566286921501
1686445405970726100,10.47672607421875,-0.04053308591842651,-0.008711860374361276,-0.03585340366959572
1686445405980743400,10.486743408203125,0.00024199206233024596,-0.014671499431133269,-0.024366964015364645
1686445405990760400,10.496760498046875,0.022903321203589438,-0.021954934437572956,-0.005286415970325469
1686445406000776200,10.506776123046874,0.02980477115511894,-0.020120120225846767,0.025226795715093613
1686445406010793500,10.51679345703125,0.021433248651027678,-0.011967062778025865,0.03250584680736065
1686445406020810200,10.526810302734376,0.011675240224599837,-0.001234656361490488,0.015654665249586103
1686445406030827300,10.5368271484375,-0.01865910776257515,0.003846300164610147,-0.006651859104633331
1686445406040843500,10.546843505859375,-0.039509003567695614,0.012834201001375913,-0.034091070172190666
1686445406050860300,10.5568603515625,-0.040785599374771116,0.030785635418631135,-0.04927928695380687
1686445406060877300,10.566877197265624,-0.028840894559025762,0.03345880015064031,-0.03658756316304207
1686445406070893300,10.576893310546875,-0.030064298874139785,0.024906623850017785,-0.01011748938858509
1686445406080910300,10.586910400390625,-0.02887245874106884,0.021901925608702,-0.0018716390907764435
1686445406090927400,10.59692724609375,-0.034525954458117486,0.02491089816633612,-0.002707505393028259
1686445406100944400,10.6069443359375,-0.0050040918976068495,0.002734576063044369,0.012628595426678657
1686445406110960400,10.61696044921875,0.0007002572238445281,-0.014210567388497292,0.006818447843194008
1686445406120977400,10.626977294921875,0.011523849055171013,-0.027415793659351765,-0.0062970543175935745
1686445406130994400,10.636994384765625,0.005780336967110633,-0.04491831526532769,-0.012194880184531211
1686445406141010200,10.64701025390625,-0.006932429611682891,-0.04257014470398426,-0.016820201897621154
1686445406151027500,10.65702734375,-0.01315174251794815,-0.04034925378412008,-0.03318856837451458
1686445406161044500,10.66704443359375,-0.0057446811318397515,-0.035952005205862225,-0.03383855671584606
1686445406171060200,10.677060302734375,-0.010900748720765113,-0.027189181829243896,-0.03852233061790466
1686445406181077500,10.687077392578125,-0.01745908432304859,-0.01124806432109326,-0.013185644787549971
1686445406191094300,10.69709423828125,-0.02068330706655979,0.003890723828226328,-0.012189619487524032
1686445406201111300,10.707111328125,-0.01693184557855129,0.015001462037861346,-0.00184825821518898
1686445406211127300,10.717127197265626,-0.0005360065728425979,0.008802461267262697,-0.0014595511585474012
1686445406221144300,10.727144287109375,-0.00739478642642498,0.012461276035755873,-0.019988895061612128
1686445406231161300,10.737161376953125,-0.0017050503522157668,0.019589958871901035,-0.027613983112573622
1686445406241177300,10.74717724609375,-0.026728432449698445,0.023973434653133154,-0.04214402824640274
1686445406251194400,10.7571943359375,-0.03418400915265083,0.014340075519680976,-0.0539227288454771
1686445406261211400,10.76721142578125,-0.030351299121975896,0.011916647765040396,-0.03763327282369137
1686445406271228400,10.777228515625,-0.04174538431763649,0.020590660347044466,-0.027450316983461377
1686445406281244200,10.787244140625,-0.02646598212122917,0.006046477090008557,-0.023093875339627264
1686445406291261400,10.797261474609375,-0.009676175361871719,-0.0031809681236743925,-0.021110592567920684
1686445406301278500,10.807278564453124,-0.003065232789516449,0.0034161285864189265,-0.0202080907702446
1686445406311294200,10.817294189453126,0.0117640875518322,-0.0014544365920126437,-0.015136194333434104
1686445406321311500,10.8273115234375,0.010963292562961578,-0.006786883661150932,-0.023303718698024747
1686445406331328500,10.83732861328125,0.025516718572378156,-0.011878069320321082,-0.021796236744523047
1686445406341345300,10.84734521484375,0.026169045001268387,-0.008232260163873434,-0.019075871869921684
1686445406351361300,10.857361328125,-0.0009568623334169388,-0.009660101009905338,-0.01973871969282627
1686445406361378300,10.86737841796875,-0.010926467683911322,-0.004723740586265921,-0.012344517788290977
1686445406371395300,10.877395263671875,-0.01741992135643959,0.0033360125549137592,0.0036328035444021223
1686445406381411300,10.887411376953125,-0.037224692022800446,0.0000827098473906517,0.010343114838004111
1686445406391428400,10.897428466796875,-0.03393383378386497,0.0028510055169463154,0.00767184980213642
1686445406401445400,10.9074453125,-0.0397100790977478,0.006953180138766765,0.007147533667087555
1686445406411462400,10.91746240234375,-0.04137129030823707,-0.005265957704186439,-0.001827215427160263
1686445406421478100,10.92747802734375,-0.041428573453426355,0.0031292379364371297,-0.015790274327993393
1686445406431495400,10.937495361328125,-0.03610474808216095,0.007982669316977262,-0.015690321084856986
1686445406441512400,10.947512451171875,-0.023268062862753867,0.0007847206369042396,-0.020040332987904547
1686445406451528200,10.957528076171876,-0.0035842882275581357,-0.009468377830088137,-0.022029460978507994
1686445406461545500,10.96754541015625,-0.0034141923576593396,-0.008789820981398225,-0.017787001103162763
1686445406471562500,10.9775625,-0.0013771335721015929,-0.008117693873494864,-0.030685061120986935
1686445406481579300,10.987579345703125,0.002969371199607849,-0.013673136043548584,-0.021080781951546668
1686445406491595300,10.99759521484375,0.00135024556517601,-0.01052051723152399,-0.026437340548634527
1686445406501612500,11.007612548828124,-0.015316227075457572,-0.0009166399208828806,-0.03083352968096733
1686445406511629300,11.01762939453125,-0.016593991926312446,0.008870119675993918,-0.038078093981742854
1686445406521645300,11.027645263671875,-0.016482932767271995,0.0033022564157843587,-0.025537761360406874
1686445406531662600,11.03766259765625,-0.012895721930265426,0.019358195942640304,-0.02835866400003433
1686445406541679400,11.047679443359375,-0.014993570992350578,0.018015549162030218,-0.02235737775862217
1686445406551696400,11.0576962890625,-0.006669394761323929,0.007979600577056408,-0.022849545189738273
1686445406561712400,11.06771240234375,0.01160977377295494,0.012949059552699326,-0.015036241090297699
1686445406571729400,11.0777294921875,0.01445405728816986,-0.006923223391920328,-0.01696808593571186
1686445406581746400,11.087746337890625,0.002727379137277603,-0.008353402325510979,-0.02748889542818069
1686445406591762400,11.097762451171874,-0.016409867531061172,-0.009395604854822158,-0.03420622098445892
1686445406601779700,11.10777978515625,-0.017758944052457808,-0.016087649839371443,-0.035844051319360734
1686445406611796700,11.117796630859376,-0.032499417066574096,-0.012731471279263495,-0.029628245544433593
1686445406621813800,11.127813720703125,-0.041138066074252126,-0.004030680288188159,-0.008795885396003723
1686445406631829800,11.137829833984375,-0.04323123896121978,-0.0015140212921425698,0.002131166809797287
1686445406641846800,11.1478466796875,-0.05604571234881878,0.0025535204077139495,-0.0009486790269613265
1686445406651863800,11.15786376953125,-0.03442366312742233,-0.0006971884839236735,-0.004007482075691223
1686445406661879800,11.1678798828125,-0.021281857481598852,-0.011912117720395327,-0.0011854103922843931
1686445406671896600,11.177896484375,-0.013706453791260719,0.005325286675989627,-0.011110592079162597
1686445406681913900,11.187913818359375,-0.003584872749447822,-0.005270158955268562,-0.013551555490493774
1686445406691931000,11.197930908203125,-0.016720833176374433,-0.00784000944327563,-0.022799276307225225
1686445406701946600,11.207946533203126,-0.019737550649046896,-0.004546959247253835,-0.010095277556777
1686445406711964000,11.2179638671875,-0.03466974684298038,0.01634644690603018,-0.027236381971836088
1686445406721981000,11.22798095703125,-0.015775661280751228,0.007563713252544403,-0.0032218846559524533
1686445406731996700,11.23799658203125,0.0015717793613672256,-0.013545381478033958,-0.013816928428411483
1686445406742013700,11.248013671875,0.010323241093754768,0.002191262966580689,-0.003834463596343994
1686445406752031000,11.258031005859374,0.009375731110572815,0.025272717216052114,-0.011021744751930237
1686445406762047700,11.2680478515625,-0.0166308168053627,0.023575375246256587,-0.025596213549375534
1686445406772063700,11.278063720703125,-0.007900982382893561,0.006198708509653806,-0.022219430592656134
1686445406782080800,11.288080810546875,0.013642156383395195,-0.01755271742325276,-0.030327918246388433
1686445406792097800,11.298097900390625,0.004370470169186592,-0.014974537498317658,-0.03709434364140034
1686445406802113800,11.30811376953125,-0.00720832394361496,0.0006638707362115382,-0.022341011145710944
1686445406812130800,11.318130859375,-0.017992168286442754,-0.013201573009043932,-0.013990531429648399
1686445406822147800,11.32814794921875,-0.012798691296577453,-0.01231368425861001,-0.017494740158319474
1686445406832164900,11.338164794921875,-0.010880290454626082,-0.013579466410726307,-0.018909283131361008
1686445406842180600,11.3481806640625,-0.031028175470232962,0.006386084307916462,-0.014846271476149558
1686445406852198000,11.358197998046874,-0.054471594899892804,0.022144757921248672,-0.009697802671790122
1686445406862215000,11.36821484375,-0.04438040899634361,0.010284516518563032,-0.016486439898610115
1686445406872230700,11.378230712890625,-0.033144729232788085,0.010412380681931972,-0.017927286356687545
1686445406882247700,11.38824755859375,-0.030602059012651443,-0.009484306051582098,-0.019566285735368727
1686445406892265000,11.398264892578124,-0.016924831315875053,-0.008634228560887277,-0.01830313393175602
1686445406902281700,11.40828173828125,-0.017667758637666703,-0.00934065979719162,-0.03218728237748146
1686445406912297700,11.418297607421875,-0.014118541723489761,-0.006163491065800189,-0.018728081345558166
1686445406922315000,11.42831494140625,-0.0006973346143960953,-0.0006531666791066527,-0.006921323695778846
1686445406932331800,11.438331787109375,0.01585924791097641,-0.011469196258485316,-0.003523497951030731
1686445406942347800,11.44834765625,0.02141395942866802,-0.014901508794724941,-0.004258241966366767
1686445406952364800,11.45836474609375,0.004756254616379738,-0.01718256893660873,-0.007770049479603767
1686445406962381800,11.4683818359375,0.0052495910912752144,-0.01733951306398958,-0.03005319295823574
1686445406972398800,11.47839892578125,-0.008749123644828796,-0.013196896833926438,-0.0337538010418415
1686445406982414800,11.488414794921875,-0.014224340185523033,0.0034410803645849226,-0.03638824119865894
1686445406992431900,11.498431884765624,-0.03013210341334343,0.01612023693472147,-0.02324877364039421
1686445407002449000,11.508448974609376,-0.02886018378138542,0.023405169778503477,-0.008653846576809883
1686445407012464600,11.518464599609375,-0.014563947403430939,0.024009236618876457,-0.005434884530305862
1686445407022481700,11.528481689453125,0.0055669864773750305,0.024079233115166424,-0.011195932275056839
1686445407032499000,11.5384990234375,0.015568740531802176,0.01661697094310075,-0.015875614523887634
1686445407042514700,11.5485146484375,0.0036433249384164807,0.030251382411457597,-0.004607786056399345
1686445407052531700,11.55853173828125,0.0066512745827436446,0.018221337399818002,-0.0010065466940402984
1686445407062549000,11.568549072265625,-0.004248889616131782,-0.0046239700062200425,-0.0107183778911829
1686445407072565800,11.578565673828125,-0.017269699230790136,-0.023496574389003214,-0.024492051699757576
1686445407082581800,11.588581787109375,-0.016133388677239416,-0.029743798215501008,-0.030392215654253957
1686445407092598800,11.598598876953124,-0.03253916455507278,-0.022535328141413628,-0.017157471027970314
1686445407102615800,11.60861572265625,-0.02522913380265236,-0.01405979727357626,-0.0095288758456707
1686445407112632800,11.6186328125,-0.005762216788530349,-0.005100830270349979,0.005605564922094345
1686445407122648800,11.62864892578125,-0.008842062625288962,0.015751147894002497,-0.0036152678877115246
1686445407132665900,11.638665771484375,-0.011653028392791748,0.026654052039235827,-0.0058364510685205455
1686445407142683000,11.648682861328124,-0.014108604851365088,0.02860405359584838,0.00039922845065593716
1686445407152699000,11.658698974609376,-0.022110124999284744,0.014658055427670479,0.008139467313885687
1686445407162715600,11.668715576171875,-0.017225275567173955,0.01937883687186986,0.021432664129137993
1686445407172733000,11.67873291015625,-0.017850129467248916,0.02571852475479245,0.023718144717812535
1686445407182749700,11.688749755859375,-0.01749181754887104,0.014280088960751891,0.019198621466755866
1686445407192765700,11.698765625,-0.018687164813280106,-0.004182217588089406,-0.008581950384378433
1686445407202783000,11.708782958984376,-0.01956394764780998,-0.003328267639875412,-0.02094341930747032
1686445407212799700,11.7187998046875,-0.04536299029290676,-0.0042065848443657156,-0.01886953564286232
1686445407222815700,11.728815673828125,-0.045189387291669846,-0.01821545564830303,-0.03151975837945938
1686445407232832800,11.738832763671875,-0.034927520996332166,-0.02992310030516237,-0.016748305705189703
1686445407242849800,11.748849853515624,-0.006056815820932388,-0.03644417263697833,-0.010924129596352576
1686445407252865800,11.75886572265625,0.0046498716324567795,-0.05765826211199164,-0.01491933671236038
1686445407262882800,11.7688828125,-0.014480360773205756,-0.04925692899152636,-0.018370938470959663
1686445407272899800,11.77889990234375,-0.027438626545667647,-0.03508168864473701,-0.02669160757064819
1686445407282916900,11.788916748046875,-0.034927520996332166,-0.018876403775066136,-0.04898410339951515
1686445407292932900,11.798932861328124,-0.015296353331208228,0.001269727674871683,-0.05329202972650528
1686445407302949600,11.80894970703125,-0.003382628175616264,0.020236440081894395,-0.06951543477475643
1686445407312967000,11.818966796875,0.0003951367974281311,0.03549947566539049,-0.06947919441759585
1686445407322983700,11.828983642578125,0.0037409400939941405,0.04697159453332424,-0.06837210995852946
1686445407332999700,11.838999755859374,-0.013930910196900367,0.038932226593047375,-0.0625321517586708
1686445407343017000,11.849016845703124,-0.010987257960438727,0.014741678590513766,-0.055090603581070895
1686445407353033700,11.85903369140625,-0.00003974748849868774,-0.005135317061841488,-0.03995440924763679
1686445407363049700,11.8690498046875,0.006412789651751518,-0.016196480508707464,-0.02961830867230892
1686445407373067000,11.87906689453125,0.007182020458579063,-0.02427431729584932,-0.02588262927532196
1686445407383083800,11.889083740234375,0.010232640200853347,-0.020461773270368574,-0.008818097227811813
1686445407393099800,11.899099853515626,0.01175882685482502,-0.012690554746985435,0.0046188919723033905
1686445407403116800,11.90911669921875,0.004761515313386917,-0.008648147488385438,0.01371463709771633
1686445407413133800,11.9191337890625,-0.004106266275048256,-0.0027808628901839255,0.00870060832798481
1686445407423150800,11.92915087890625,-0.010647650742530821,0.003932955534756183,0.0012555530190467834
1686445407433166800,11.939166748046874,-0.004003974944353103,0.0021719372116029262,0.008185060021281242
