time,seconds_elapsed,z,y,x
1686445395633484800,0.13948486328125,-0.0014448389410972595,0.014021236449480057,-0.008321182802319527
1686445395643502000,0.149502197265625,-0.004099908750504255,0.0017424963880330324,-0.008018719032406807
1686445395653518800,0.159518798828125,-0.006955616641789675,-0.007246471010148525,-0.007994750514626503
1686445395663535900,0.169535888671875,-0.007618982810527086,-0.016646793112158775,-0.005871954374015331
1686445395673552000,0.1795517578125,-0.007076496724039316,-0.014814271591603756,-0.006703127175569534
1686445395683569000,0.18956884765625,0.002047204179689288,-0.00802688393741846,-0.006272794213145971
1686445395693586000,0.1995859375,0.0015963311307132244,0.001177000580355525,-0.0001658995170146227
1686445395703602000,0.209601806640625,0.005349020939320326,0.004102212842553854,0.0038756649009883404
1686445395713619000,0.219618896484375,0.004786294884979725,-0.00027522514574229717,0.003235441166907549
1686445395723636000,0.229635986328125,0.006893096026033163,-0.0007203419227153063,0.0010125063126906753
1686445395733652000,0.23965185546875,0.0030597420409321785,-0.0067143188789486885,-0.003825392108410597
1686445395743668700,0.249668701171875,-0.0014453618787229061,-0.008736863732337952,-0.003323350567370653
1686445395753686000,0.25968603515625,-0.001460541971027851,-0.0019681728444993496,-0.007069885265082121
1686445395763702800,0.269702880859375,-0.006432014983147383,-0.00039048411417752504,-0.00921924039721489
1686445395773718800,0.27971875,-0.005284458864480257,0.005886586848646402,-0.006988043896853924
1686445395783736000,0.289736083984375,-0.006767028942704201,0.004873144440352917,-0.0039367382414639
1686445395793752800,0.2997529296875,-0.009842180646955967,0.003444091649726033,-0.004070961847901344
1686445395803768800,0.309768798828125,-0.006535480730235577,0.0028775078244507313,0.0010865380754694343
1686445395813785900,0.319785888671875,-0.006204715929925442,0.0021025282330811024,0.0010250190971419215
1686445395823803000,0.329802978515625,-0.0070707653649151325,-0.00045762467198073864,-0.0025506652891635895
1686445395833819000,0.33981884765625,-0.0009606746025383472,-0.0016222249250859022,-0.006110512651503086
1686445395843836000,0.3498359375,-0.002808791119605303,0.002335954224690795,-0.005912063643336296
1686445395853853000,0.35985302734375,-0.0014833356253802776,0.003093091072514653,-0.002448622602969408
1686445395863870000,0.369869873046875,-0.00009994441643357277,0.008681919425725937,-0.0006709651206620038
1686445395873886000,0.379885986328125,0.0032625626772642136,0.0073844268918037415,-0.004741340409964323
1686445395883903000,0.389903076171875,0.00544674601405859,0.004266639240086079,-0.007259398698806763
1686445395893920000,0.399919921875,0.0021814443171024323,0.000012239441275596619,-0.007222646847367287
1686445395903936000,0.40993603515625,0.004760596435517073,-0.0006709976587444544,-0.009355861693620682
1686445395913952800,0.419952880859375,0.001965076196938753,-0.002769302111119032,-0.01142034400254488
1686445395923970000,0.429969970703125,0.0006465311162173748,-0.0031896522268652916,-0.0129341846331954
1686445395933986800,0.43998681640625,0.0007370784878730774,-0.001028763479553163,-0.017341185361146927
1686445395944002800,0.4500029296875,-0.0017620339058339596,-0.000687559018842876,-0.019237864762544632
1686445395954020000,0.46002001953125,0.0011879494413733482,-0.002629535971209407,-0.017021849751472473
1686445395964036900,0.470036865234375,-0.005527999252080917,-0.0016775111434981227,-0.014207546599209309
1686445395974052900,0.480052978515625,-0.00007198099046945572,-0.0007342195603996515,-0.010611480101943016
1686445395984070000,0.49006982421875,0.002168109407648444,-0.004174834582954645,-0.007009669207036495
1686445395994087000,0.5000869140625,0.002330828458070755,-0.005279779899865389,-0.002462588017806411
1686445396004103000,0.51010302734375,0.003692242782562971,-0.005964905023574829,0.0031382418237626553
1686445396014120000,0.520119873046875,-0.0003576260060071945,0.000420556403696537,0.001080416957847774
1686445396024137000,0.530136962890625,-0.0028548594564199448,0.004598202649503946,-0.0039008865132927895
1686445396034154000,0.540154052734375,-0.0026114466600120068,0.010228658095002174,-0.000016133300960063934
1686445396044170000,0.550169921875,-0.004739193245768547,0.01624348759651184,0.002909886185079813
1686445396054186800,0.560186767578125,-0.0034448960795998573,0.015857063233852386,0.005762131884694099
1686445396064204000,0.5702041015625,-0.0041572884656488895,0.014615925028920174,0.006436401512473822
1686445396074220000,0.580219970703125,-0.005799392703920603,0.007111402694135904,0.003636620007455349
1686445396084236800,0.59023681640625,-0.003851936198771,0.004551275633275509,0.0012985446956008673
1686445396094254000,0.600254150390625,-0.0034500649198889732,-0.0008331033168360591,0.003523349529132247
1686445396104270800,0.610270751953125,-0.00001818547025322914,-0.00929148867726326,0.0024742279201745987
1686445396114286800,0.620286865234375,-0.002890137955546379,-0.010484850965440273,-0.004338670521974564
1686445396124304000,0.630303955078125,-0.0027555362321436405,-0.002641546307131648,-0.0034666643477976322
1686445396134321000,0.64032080078125,0.0006003128364682198,-0.00051687634550035,-0.001620827242732048
1686445396144337000,0.6503369140625,-0.0009962394833564758,-0.0025225572753697634,0.0006525864591822028
1686445396154354000,0.66035400390625,0.004694403149187565,-0.005630199797451496,0.003450237214565277
1686445396164371000,0.670370849609375,0.006857279688119888,-0.0066230520606040955,0.004767398349940777
1686445396174387000,0.680386962890625,0.010290361009538174,-0.006145813502371311,0.005049959756433964
1686445396184404000,0.690404052734375,0.008711127564311028,-0.006031354423612356,0.004799659363925457
1686445396194420700,0.700420654296875,0.009053343906998634,-0.005565301515161991,-0.005880681797862053
1686445396204438000,0.71043798828125,0.004531145095825195,-0.004426290281116962,-0.008151494897902012
1686445396214454000,0.7204541015625,0.003247234970331192,-0.00018387497402727604,-0.009018885903060436
1686445396224470800,0.730470703125,-0.0015235324390232563,0.0025772866792976856,-0.004314886871725321
1686445396234488000,0.740488037109375,-0.008001938462257385,0.0034662499092519283,-0.003189701121300459
1686445396244504000,0.750504150390625,-0.009680822491645813,0.0009100986644625664,-0.0023337341845035553
1686445396254520800,0.760520751953125,-0.014253202825784683,0.000009417533874511719,0.0016932316357269883
1686445396264537900,0.770537841796875,-0.015986356884241104,0.000009891577064990997,0.0059616779908537865
1686445396274555000,0.780554931640625,-0.01509340014308691,0.002831244608387351,0.010619014501571655
1686445396284571000,0.79057080078125,-0.010540224611759186,0.003624658565968275,0.01108806487172842
1686445396294588000,0.800587890625,-0.009620634838938713,0.01161067932844162,0.014974148944020271
1686445396304605000,0.81060498046875,-0.004413871560245752,0.010769758373498917,0.015604617074131966
1686445396314621000,0.820620849609375,0.0006724996492266655,0.007968911901116371,0.010264446958899498
1686445396324638000,0.830637939453125,0.00019511207938194275,0.006337327882647514,0.006378920283168554
1686445396334654700,0.84065478515625,0.008638930507004261,0.007477693259716034,0.0009977365843951702
1686445396344671000,0.8506708984375,0.007951713167130947,0.004728218540549278,-0.007392269559204578
1686445396354688000,0.86068798828125,0.011617554351687431,0.008000977337360382,-0.005659350659698248
1686445396364704800,0.870704833984375,0.009803406894207,-0.002158396178856492,-0.007940326817333698
1686445396374722000,0.88072216796875,0.007112549617886543,-0.008763834834098816,-0.009159522131085396
1686445396384738000,0.890738037109375,0.005013196263462305,-0.013247482478618622,-0.006290952209383249
1686445396394754800,0.9007548828125,0.0072633009403944016,-0.016758594661951065,0.0012007859768345952
1686445396404771800,0.910771728515625,0.0016576133202761412,-0.017294155433773994,0.0026053371839225292
1686445396414788000,0.9207880859375,-0.003419436514377594,-0.020651869475841522,0.006261058151721954
1686445396424804900,0.930804931640625,-0.0005273818969726562,-0.01837792806327343,0.003458798862993717
1686445396434822000,0.94082177734375,-0.004490165039896965,-0.014846043661236763,0.002636414486914873
1686445396444838000,0.950837890625,-0.006295806262642145,-0.013588549569249153,0.0027375370264053345
1686445396454855000,0.96085498046875,-0.007452151272445917,-0.0073783244006335735,0.0009827803587540984
1686445396464872000,0.970871826171875,-0.005338521208614111,0.0038849548436701298,-0.0003676916239783168
1686445396474888700,0.980888671875,-0.00557554280385375,0.017580794170498848,0.0006797297392040491
1686445396484905000,0.990905029296875,-0.0008526928722858429,0.026515167206525803,0.0005777305923402309
1686445396494922000,1.000921875,-0.0037885610945522785,0.033256690949201584,0.0036853731144219637
1686445396504938800,1.010938720703125,-0.0027747047133743763,0.03186487406492233,0.0007045812672004104
1686445396514954800,1.020954833984375,-0.002143535763025284,0.029279209673404694,-0.0009465785697102547
1686445396524972000,1.030971923828125,-0.0007713534869253635,0.024837348610162735,0.0007644864963367581
1686445396534988800,1.04098876953125,-0.002505870535969734,0.016153845936059952,-0.001674968982115388
1686445396545005800,1.051005859375,0.0006389268673956394,0.00848759151995182,-0.0003297054208815098
1686445396555022000,1.06102197265625,0.00035902857780456543,0.005224153399467468,-0.003935359418392181
1686445396565038800,1.071038818359375,0.0008455924689769745,-0.00041572959162294865,-0.00501158507540822
1686445396575056000,1.081055908203125,0.003083446528762579,-0.006963910069316626,-0.0060723223723471165
1686445396585071900,1.09107177734375,0.002146961400285363,-0.01420491375029087,-0.0032840173225849867
1686445396595090200,1.101090087890625,0.0015173901338130236,-0.02088651806116104,0.0009322991827502847
1686445396605107000,1.11110693359375,0.0049544707871973515,-0.022977260872721672,0.0029716859571635723
1686445396615123000,1.121123046875,0.0025102216750383377,-0.02561858482658863,0.0004502050578594208
1686445396625140200,1.13114013671875,0.0037401902955025434,-0.01945701241493225,0.0011516836239024997
1686445396635157000,1.141156982421875,0.00041017355397343636,-0.015046285465359688,-0.002604438690468669
1686445396645174000,1.151174072265625,0.00336961867287755,-0.016390303149819374,-0.0019329957431182265
1686445396655190300,1.161190185546875,0.0032401890493929386,-0.011597146280109882,0.0036423318088054657
1686445396665207000,1.17120703125,0.00388240534812212,-0.003497274126857519,0.0005540495039895177
1686445396675224000,1.18122412109375,-0.0005056853406131268,0.005240557249635458,0.0009090489475056529
1686445396685240000,1.191239990234375,-0.0013411189429461956,0.014975476078689098,0.000726888538338244
1686445396695257000,1.201257080078125,-0.0003277859650552273,0.02477271482348442,0.001384955714456737
1686445396705274000,1.211274169921875,-0.0009359125979244709,0.02340845577418804,0.003243636107072234
1686445396715291100,1.221291015625,-0.0010288567282259464,0.015407785773277283,0.004749920219182968
1686445396725307100,1.23130712890625,-0.0026961416006088257,0.009413890540599823,0.004488400649279356
1686445396735324200,1.24132421875,-0.002372301183640957,0.0032279007136821747,0.0038271378725767136
1686445396745341200,1.251341064453125,-0.0019339383579790592,-0.0009105459321290255,0.00248910253867507
1686445396755357000,1.26135693359375,0.0007475987076759338,-0.001786725828424096,0.006781851407140493
1686445396765374200,1.271374267578125,0.0005614059045910835,0.00020457268692553043,0.0052399588748812675
1686445396775391000,1.281390869140625,0.004552685655653477,0.0028589454013854265,0.004721708130091429
1686445396785407000,1.291406982421875,0.0002206871286034584,0.005369587801396847,0.003896502312272787
1686445396795424300,1.30142431640625,0.0028561512008309364,0.001093883067369461,0.00444138515740633
1686445396805441000,1.31144091796875,-0.0012127519585192204,-0.0032025158870965242,-0.0009887407068163157
1686445396815458000,1.3214580078125,-0.0006913053803145885,-0.0028517774771898985,-0.0010726302862167358
1686445396825474000,1.33147412109375,0.0013000795152038336,-0.003701779991388321,-0.005087551195174456
1686445396835491000,1.341490966796875,0.001137093873694539,-0.003808306297287345,-0.0026659390423446894
1686445396845508000,1.351508056640625,0.0027938433922827244,-0.005239647813141346,-0.001342839328572154
1686445396855524000,1.361524169921875,0.0006079208105802536,-0.003638023044914007,-0.0019529694691300392
1686445396865541000,1.371541015625,0.0017045848071575165,0.0019531254656612873,0.0012761015677824616
1686445396875558100,1.38155810546875,-0.00014205090701580048,0.00309855118393898,0.0024119396694004536
1686445396885574100,1.39157421875,-0.001883460208773613,0.008573420345783234,0.0059445519000291824
1686445396895591000,1.4015908203125,-0.0006275135092437267,0.006891368422657251,0.005123499780893326
1686445396905608200,1.411608154296875,-0.0006886506453156471,0.008030645549297333,0.006198949180543423
1686445396915625200,1.421625244140625,-0.0009459122084081173,0.004937117453664541,0.0035658818669617176
1686445396925641000,1.431640869140625,-0.0025355489924550056,0.00619828375056386,0.005773866083472967
1686445396935658200,1.441658203125,-0.001661499496549368,0.01009422168135643,-0.002399907913058996
1686445396945675000,1.451675048828125,-0.0022565899416804314,0.010471779853105545,-0.0027754725888371468
1686445396955691000,1.46169091796875,-0.0013532456941902637,0.00711513077840209,0.00023310049436986446
1686445396965708000,1.4717080078125,-0.00030756276100873947,0.003589558182284236,-0.0030831261537969112
1686445396975725000,1.48172509765625,0.0008437219075858593,0.004085439257323742,-0.0001816122094169259
1686445396985742000,1.4917421875,0.000301919411867857,0.0005299313925206661,0.0014540542615577579
1686445396995758000,1.501758056640625,0.002821802394464612,-0.0009321440011262894,-0.0023489396553486586
1686445397005775000,1.511775146484375,0.0008751680143177509,-0.003643855219706893,-0.0013325756881386042
1686445397015792000,1.521792236328125,0.00293112825602293,-0.009455405175685883,-0.0024455105885863304
1686445397025808100,1.53180810546875,-0.0014979643747210503,-0.011097566224634647,-0.0018477548146620393
1686445397035825000,1.541824951171875,0.0020794598385691643,-0.012120752595365047,-0.000009108451195061207
1686445397045842200,1.55184228515625,0.002435233211144805,-0.01176265999674797,0.007377972826361656
1686445397055858200,1.561858154296875,0.001777432393282652,-0.008860080502927303,0.005443452391773462
1686445397065875000,1.571875,0.0020968839526176453,-0.00006166263483464718,0.004956706892699003
1686445397075892200,1.581892333984375,-0.001283466350287199,0.0058699967339634895,0.0017736966256052256
1686445397085909200,1.5919091796875,0.0007964754477143288,0.009187920019030571,0.0016161577077582479
1686445397095925000,1.601925048828125,0.0012004771269857883,0.011476107873022556,0.0017003134125843644
1686445397105942000,1.61194189453125,-0.0016839941963553429,0.011378955096006393,0.000692327506840229
1686445397115959000,1.621958984375,-0.0015369877219200134,0.009338974952697754,-0.0003891821252182126
1686445397125975000,1.63197509765625,-0.0024720528163015842,0.005403304006904364,-0.0001132480101659894
1686445397135992000,1.641991943359375,-0.003624402917921543,0.0020125671289861202,-0.0013859727187082171
1686445397146009000,1.652009033203125,-0.005671812687069178,0.00490166898816824,-0.003909860271960497
1686445397156025000,1.662025146484375,-0.0009417729452252388,0.006964819505810738,-0.0017300628824159503
1686445397166042000,1.6720419921875,0.001906729768961668,0.004942257422953844,0.0022528418339788914
1686445397176059000,1.682058837890625,-0.0003590877167880535,0.006749744992703199,0.0015630830312147737
1686445397186076200,1.692076171875,0.0008633192628622055,0.006459564436227083,0.0031474956776946783
1686445397196092200,1.702092041015625,0.0012742448598146439,0.006699781399220228,0.007710023783147335
1686445397206109000,1.71210888671875,0.002667344408109784,0.0034816181287169456,0.00470011867582798
1686445397216126200,1.722126220703125,0.0019104741513729095,-0.000555201550014317,0.0007929950952529907
1686445397226142200,1.73214208984375,-0.0004315110854804516,-0.0028534557204693556,-0.001333518186584115
1686445397236159000,1.742158935546875,-0.0018051695078611374,-0.013353501446545124,-0.005416676867753267
1686445397246176000,1.752176025390625,-0.00033165886998176575,-0.015172543935477734,-0.002011124277487397
1686445397256192300,1.762192138671875,-0.004355429206043482,-0.011663030833005905,0.002908267080783844
1686445397266209000,1.772208984375,-0.0012842491269111633,-0.00947135966271162,0.003987927921116352
1686445397276226000,1.78222607421875,-0.004508004989475012,-0.0008600283181294799,0.005617249757051468
1686445397286243300,1.792243408203125,-0.000827115960419178,0.00413763290271163,0.008199573494493961
1686445397296259000,1.802259033203125,-0.0017469716258347034,0.005793852265924215,0.00915165338665247
1686445397306276000,1.812276123046875,0.0013505553361028433,0.006668273359537125,0.0060793692246079445
1686445397316293000,1.822293212890625,0.0016171378083527088,0.009598283097147942,0.006285231560468674
1686445397326309000,1.83230908203125,-0.0026123635470867157,0.010946456342935562,-0.0022452417761087418
1686445397336326100,1.842326171875,0.0014905021525919437,0.011412243358790874,-0.0029107658192515373
1686445397346343200,1.85234326171875,-0.0026038484647870064,0.011216449551284313,-0.0025703315623104572
1686445397356359000,1.86235888671875,-0.0009814505465328693,0.006546064279973507,-0.0008099821279756725
1686445397366376200,1.872376220703125,0.0012161843478679657,0.004206904210150242,0.0029366151429712772
1686445397376393000,1.88239306640625,-0.0012592240236699581,0.0009892729576677084,0.00450281985104084
1686445397386410200,1.89241015625,0.0012826316524297,0.005207160487771034,0.007122694980353117
1686445397396426200,1.90242626953125,-0.0025137043558061123,0.006093194708228111,0.004714930430054665
1686445397406443000,1.912443115234375,-0.0028327531181275845,0.01187603548169136,-0.0030004926957190037
1686445397416460000,1.9224599609375,-0.0032644509337842464,0.00892258994281292,-0.0020329663529992104
1686445397426476000,1.93247607421875,-0.005337047856301069,0.00867195799946785,-0.007895097136497498
1686445397436493000,1.9424931640625,-0.0009409673511981964,0.0014609165955334902,-0.00980857852846384
1686445397446510000,1.952510009765625,-0.0037824446335434914,0.002069425769150257,-0.004467543680220842
1686445397456527400,1.96252734375,0.0022858339361846447,-0.0016102639492601156,-0.0021396747324615717
1686445397466543000,1.972543212890625,0.0015682524535804987,-0.0028152652084827423,-0.0002863215049728751
1686445397476560100,1.98256005859375,0.0019157950300723314,-0.00451702531427145,-0.002392082940787077
1686445397486577200,1.9925771484375,0.004386286251246929,-0.007134142331779003,-0.0014495712239295244
1686445397496593200,2.00259326171875,0.0014842397067695856,-0.005375923588871956,-0.0004988227738067508
1686445397506610200,2.012610107421875,-0.00048052798956632614,-0.0035670746583491564,0.0005100691923871636
1686445397516627200,2.022627197265625,0.0006478535942733288,0.0014830776490271091,-0.0002739654155448079
1686445397526643000,2.032642822265625,0.0005249711684882641,0.0025964616797864437,-0.0030898326076567173
1686445397536660200,2.04266015625,0.0026525703724473715,0.004549091216176748,0.001521963276900351
1686445397546677000,2.052677001953125,-0.0012512290850281715,0.003814193420112133,-0.002239034278318286
1686445397556694000,2.062694091796875,-0.0015468397177755833,0.005746582522988319,-0.004640140570700169
1686445397566710300,2.072710205078125,-0.0010863877832889557,0.005568419583141804,-0.004863741807639599
1686445397576727000,2.08272705078125,-0.003058191854506731,0.007337823510169983,-0.002651453949511051
1686445397586744000,2.092744140625,-0.0020874724723398685,0.008277705870568752,-0.00011903303675353527
1686445397596759000,2.102759033203125,-0.0015974505804479122,0.00823802500963211,0.0016381207387894392
1686445397606776000,2.112776123046875,-0.0011527258902788162,0.008333366364240646,-0.0001462495420128107
1686445397616792800,2.122792724609375,0.001232401467859745,0.00728621194139123,0.000737121095880866
1686445397626808800,2.132808837890625,-0.0013456419110298157,0.003359459340572357,0.0007809089729562402
1686445397636826000,2.142826171875,0.0017388311680406332,-0.001225172309204936,0.005379389505833387
1686445397646843000,2.1528427734375,-0.00024670641869306564,0.0035125131253153086,0.005398876499384642
1686445397656860000,2.16285986328125,-0.000396109651774168,0.013122263364493847,-0.0027613150887191296
1686445397666876200,2.172876220703125,-0.0028708279132843018,0.020073777064681053,-0.003519379999488592
1686445397676893000,2.182892822265625,-0.00863470695912838,0.02529224008321762,-0.003458926221355796
1686445397686910000,2.192909912109375,-0.004243838135153055,0.02054406702518463,-0.002206909004598856
1686445397696926000,2.202926025390625,-0.0028624567203223705,0.016906455159187317,0.0006916755810379982
1686445397706943000,2.21294287109375,-0.0036209276877343655,0.011071257293224335,0.0022949199192225933
1686445397716960000,2.2229599609375,0.00017594126984477043,0.0018841498531401157,0.0009990256512537599
1686445397726976000,2.23297607421875,-0.0022703036665916443,-0.004801476374268532,-0.0009433615487068892
1686445397736993000,2.242992919921875,0.0023505468852818012,-0.0054867081344127655,-0.0011731922859326005
1686445397747010000,2.253010009765625,0.002190363360568881,-0.0038420732598751783,0.0034120522905141115
1686445397757026800,2.26302685546875,0.003391981590539217,0.003270963439717889,0.011571178212761879
1686445397767042800,2.273042724609375,0.006585388910025358,0.011101135052740574,0.013938870280981064
1686445397777060000,2.28306005859375,0.005087360739707947,0.012659616768360138,0.010279953479766846
1686445397787076900,2.293076904296875,0.004705867730081081,0.009679671376943588,0.007896771654486656
1686445397797092900,2.3030927734375,0.0029412570875138044,0.0011397122871130705,0.0008564394665881991
1686445397807110100,2.313110107421875,0.004593588877469301,-0.010130328126251698,-0.0017202855087816715
1686445397817127000,2.323126953125,0.001590608386322856,-0.015970373526215553,-0.005929677747189999
1686445397827144000,2.33314404296875,-0.0019063749350607395,-0.018763018772006035,-0.0031044576317071915
1686445397837160200,2.34316015625,-0.003623314667493105,-0.015017283149063587,-0.001982201589271426
1686445397847177000,2.353177001953125,-0.0003109932877123356,-0.008468493819236755,-0.008187409490346909
1686445397857194000,2.363194091796875,-0.0008417614735662937,0.0006845244206488132,-0.0025532261934131384
1686445397867210000,2.3732099609375,-0.0005859695374965668,0.00910504162311554,0.001262202742509544
1686445397877227000,2.38322705078125,-0.0031287558376789093,0.011094955727458,0.007751794066280127
1686445397887244000,2.393244140625,0.0022795868571847677,0.014449101872742176,0.004347803071141243
1686445397897260000,2.403260009765625,-0.0007625417783856392,0.012444539926946163,0.009154808707535267
1686445397907277000,2.413277099609375,0.0020833120215684175,0.0038547806907445192,0.005132370628416538
1686445397917294000,2.423294189453125,0.001816196832805872,-0.0025914006400853395,0.0008388223359361291
1686445397927310800,2.433310791015625,0.0018822464626282454,-0.007361762225627899,0.004325657617300749
1686445397937326800,2.443326904296875,0.0018196620512753725,-0.013919795863330364,0.004183711018413305
1686445397947344100,2.45334423828125,0.005876428913325071,-0.01467064581811428,0.003506476990878582
1686445397957361000,2.46336083984375,0.003934984561055899,-0.015363866463303566,-0.0006832077633589506
1686445397967377000,2.473376953125,0.002680642530322075,-0.017552612349390984,0.0032701906748116016
1686445397977394200,2.483394287109375,0.0043970500119030476,-0.014883858151733875,0.0030616652220487595
1686445397987411000,2.493410888671875,0.0014758449979126453,-0.01398653443902731,0.0032151606865227222
1686445397997427000,2.503427001953125,0.0033773418981581926,-0.01395777240395546,0.0053174602799117565
1686445398007444000,2.51344384765625,0.003979877103120089,-0.014297191053628922,0.001534359180368483
1686445398017461000,2.5234609375,0.005213719792664051,-0.012341898865997791,0.0003159628249704838
1686445398027478000,2.53347802734375,0.004126356914639473,-0.012089591473340988,0.0017779755871742964
1686445398037494000,2.543493896484375,-0.0008044857531785965,-0.01168132945895195,-0.005635199602693319
1686445398047511000,2.553510986328125,-0.0006002378650009632,-0.0091162770986557,-0.006378585938364267
1686445398057528000,2.563528076171875,-0.0010939878411591053,-0.0025542478542774916,-0.0060419621877372265
1686445398067544000,2.5735439453125,0.0007933941669762135,-0.0001832356210798025,-0.006475524976849556
1686445398077560800,2.583560791015625,0.000005364883691072464,0.003326544538140297,-0.0019689234904944897
1686445398087578000,2.593578125,-0.0013095606118440628,-0.0009350201580673456,0.0005147784249857068
1686445398097594000,2.603593994140625,-0.0010509677231311798,-0.0008388800779357553,-0.0026850097347050905
1686445398107611000,2.61361083984375,-0.0027804160490632057,-0.0049268342554569244,-0.001432895427569747
1686445398117628200,2.623628173828125,-0.002800123766064644,-0.005544687621295452,-0.0034664850682020187
1686445398127645000,2.63364501953125,-0.0012267311103641987,-0.005186118651181459,0.002182919532060623
1686445398137661000,2.643660888671875,-0.0019873296841979027,-0.005385589320212603,-0.0003161906497552991
1686445398147678000,2.653677978515625,0.0008410909213125706,0.002792362356558442,-0.0006773159839212894
1686445398157695000,2.663695068359375,-0.0006793076172471046,0.005594540387392044,0.0012145935324952006
1686445398167711000,2.6737109375,-0.000842453446239233,0.008475793525576591,0.0035008201375603676
1686445398177728000,2.68372802734375,0.0007549109868705273,0.006318099796772003,0.005480081774294376
1686445398187745000,2.6937451171875,-0.0034009297378361225,0.007200560998171568,0.00022514734882861376
1686445398197762000,2.703761962890625,-0.002652580849826336,0.010428579524159431,-0.003563998267054558
1686445398207778000,2.713778076171875,-0.0018994598649442196,0.010582566261291504,-0.00721842423081398
1686445398217794800,2.723794921875,-0.002408124040812254,0.004786995239555836,-0.0033429921604692936
1686445398227812000,2.73381201171875,-0.00406245980411768,-0.0034799925051629543,-0.0055621471256017685
1686445398237828000,2.743828125,-0.00206588814035058,-0.016270622611045837,-0.005826333072036505
1686445398247844900,2.753844970703125,-0.00024363631382584572,-0.01593460887670517,-0.00747851375490427
1686445398257862100,2.763862060546875,0.002274914877489209,-0.013906877487897873,-0.0036049457266926765
1686445398267878100,2.773878173828125,0.003373223589733243,-0.0037717430386692286,-0.00008926959708333015
1686445398277895000,2.78389501953125,0.005299754440784454,0.006769315339624882,0.008948965929448605
1686445398287912000,2.793911865234375,0.0004130951128900051,0.0189819373190403,0.00529271736741066
1686445398297929000,2.803928955078125,0.0010706293396651745,0.024438487365841866,-0.003026198595762253
1686445398307945000,2.813945068359375,-0.0019584461115300655,0.021283334121108055,-0.006716050673276186
1686445398317962000,2.8239619140625,-0.002649536356329918,0.0020411959849298,-0.007129373028874397
1686445398327979000,2.83397900390625,-0.0021409927867352962,-0.010802246630191803,-0.0044425129890441895
1686445398337995000,2.8439951171875,-0.0054968418553471565,-0.017856959253549576,-0.00008371751755475998
1686445398348012000,2.854011962890625,-0.006424417719244957,-0.019320474937558174,-0.0007093353196978569
1686445398358028800,2.86402880859375,-0.00292129535228014,-0.011649505235254765,0.001998034305870533
1686445398368045000,2.874045166015625,-0.001050303690135479,-0.0012859980342909694,0.006509964354336262
1686445398378062000,2.88406201171875,-0.004552626516669989,0.010309139266610146,0.009750764816999435
1686445398388078800,2.894078857421875,-0.003444485832005739,0.023834533989429474,0.0025290707126259804
1686445398398096100,2.90409619140625,0.0004341420717537403,0.030151817947626114,-0.0002949453191831708
1686445398408112000,2.914112060546875,0.0010068686679005623,0.02107296697795391,0.0006496552377939224
1686445398418129000,2.92412890625,0.0023152795620262623,0.008700188249349594,-0.0026244348846375942
1686445398428146000,2.93414599609375,0.0029678798746317625,-0.004673966206610203,-0.0006880906876176596
1686445398438162200,2.944162109375,0.0003547864034771919,-0.014020595699548721,-0.0031698904931545258
1686445398448179000,2.954178955078125,0.0024364483542740345,-0.01963941380381584,-0.003691768040880561
1686445398458196000,2.964196044921875,0.002786121563985944,-0.014472082257270813,-0.002788690384477377
1686445398468212000,2.9742119140625,0.0024248468689620495,-0.013524075038731098,-0.0013830281095579267
1686445398478229000,2.98422900390625,0.0016517310868948698,-0.007070170249789953,0.002619702834635973
1686445398488246000,2.99424609375,-0.001921024639159441,-0.00020286371000111103,-0.00005911185871809721
1686445398498262800,3.0042626953125,-0.00015588151291012764,0.008397548459470272,-0.0008239717571996152
1686445398508279000,3.014279052734375,-0.0015818686224520206,0.013350947760045528,0.00029359234031289816
1686445398518296000,3.024296142578125,-0.0010540299117565155,0.011262230575084686,-0.0049323285929858685
1686445398528312800,3.034312744140625,-0.0006885062903165817,0.006945645436644554,-0.0034483345225453377
1686445398538328800,3.044328857421875,-0.001388118602335453,0.001271780813112855,0.0002705036895349622
1686445398548346000,3.05434619140625,0.0004116268828511238,-0.006877809762954712,0.0004105096450075507
1686445398558363000,3.06436279296875,-0.0011010486632585526,-0.005742770619690418,-0.0023402695078402758
1686445398568379000,3.07437890625,-0.0011824090033769608,-0.0021488082129508257,-0.002651982009410858
1686445398578396200,3.084396240234375,-0.003157142549753189,0.0017215637490153313,-0.007008114363998175
1686445398588413000,3.094412841796875,-0.003386836964637041,0.007156729698181152,-0.004859108477830887
1686445398598430200,3.10443017578125,-0.0012882663868367672,0.013321148231625557,-0.001938952598720789
1686445398608446500,3.114446533203125,-0.0020044995471835136,0.017018809914588928,-0.000569417083170265
1686445398618463200,3.124463134765625,-0.0025528441183269024,0.01276148110628128,-0.005723166279494762
1686445398628480300,3.134480224609375,-0.002957405522465706,0.005995404440909624,-0.003242138307541609
1686445398638496300,3.144496337890625,-0.000028993934392929077,-0.0015983327757567167,0.000466846046037972
1686445398648513300,3.15451318359375,0.002822999842464924,-0.0076480768620967865,0.0020507462322711945
1686445398658530300,3.1645302734375,0.00009299349039793015,-0.00881853699684143,0.0008390076691284776
1686445398668547000,3.174547119140625,0.0030357781797647476,-0.004040877800434828,-0.0008062086999416351
1686445398678563300,3.184563232421875,-0.002373900730162859,-0.0056776562705636024,-0.0006884970352984965
1686445398688580400,3.194580322265625,-0.00019690534099936485,-0.003590936306864023,-0.00256051286123693
1686445398698597000,3.20459716796875,-0.0021260990761220455,-0.0005677157314494252,-0.0028872827533632517
1686445398708613000,3.214613037109375,-0.0018250150606036186,0.0017147983890026808,-0.0032851635478436947
1686445398718630400,3.22463037109375,-0.00031953025609254837,0.003962239716202021,0.0003785471199080348
1686445398728647200,3.234647216796875,0.0012952468823641539,0.007762225344777107,0.0009723218390718102
1686445398738663200,3.2446630859375,-0.0017604641616344452,0.007123866118490696,-0.001494564232416451
1686445398748680400,3.254680419921875,0.0025545659009367228,0.005755503196269274,0.0005658884765580297
1686445398758697200,3.264697265625,-0.0012454986572265625,0.0022851377725601196,0.004061553627252579
1686445398768714200,3.27471435546875,0.00253232941031456,-0.0012395825469866395,0.003783110063523054
1686445398778730200,3.284730224609375,0.00015066470950841904,-0.005944322794675827,0.0022491291165351868
1686445398788747300,3.294747314453125,-0.004818788263946772,-0.003440368454903364,-0.00045539240818470716
1686445398798764300,3.304764404296875,-0.0004474753513932228,0.0011695635039359331,-0.004821378737688065
1686445398808780300,3.3147802734375,-0.000470141414552927,0.0021576564759016037,-0.005436503328382969
1686445398818797300,3.32479736328125,-0.0025324933230876923,0.007759348955005407,-0.003020483534783125
1686445398828814300,3.334814453125,-0.0013933246955275536,0.007833625189960003,0.004476437345147133
1686445398838830300,3.344830322265625,0.0003760792315006256,0.007423232309520245,0.0033283487427979708
1686445398848847000,3.35484716796875,0.002064137253910303,0.006728331558406353,0.006267143413424492
1686445398858864400,3.364864501953125,-0.0005348417907953262,0.003660103539004922,-0.00007837044540792704
1686445398868881200,3.374881103515625,-0.0003715897910296917,-0.0012241338845342398,-0.004221450071781874
1686445398878897200,3.384897216796875,0.0011927508749067783,-0.006874828599393368,-0.0077165826223790646
1686445398888914400,3.39491455078125,0.00020778831094503403,-0.008390676230192184,-0.006957008969038725
1686445398898931200,3.40493115234375,-0.0011387057602405548,-0.006764816120266914,-0.0040837242268025875
1686445398908947200,3.414947265625,-0.002418902236968279,-0.002813587198033929,-0.0051584099419415
1686445398918964200,3.424964111328125,0.0006029866635799408,0.0014828904531896114,-0.0028529115952551365
1686445398928981200,3.434981201171875,-0.0000911559909582138,0.004394495859742165,-0.0016310346545651555
1686445398938997200,3.444997314453125,-0.0006040805019438267,0.004114331677556038,-0.002115197479724884
1686445398949014300,3.45501416015625,-0.0023791352286934853,0.003313494846224785,-0.0049197059124708176
1686445398959031300,3.46503125,-0.00008056079968810081,-0.00165782799012959,0.0009216713951900601
1686445398969048300,3.47504833984375,0.0011081439442932606,0.0005272426642477512,-0.0006625574314966798
1686445398979064300,3.485064208984375,-0.0007893587462604046,0.003556055948138237,-0.0017722966149449348
1686445398989081000,3.4950810546875,-0.0010781344026327133,0.0033186613582074642,0.00018028996419161558
1686445398999098400,3.505098388671875,-0.0016746828332543373,0.000729802530258894,-0.0018679472850635648
1686445399009114400,3.5151142578125,-0.0027136649005115032,-0.0012089794036000967,-0.005409258883446455
1686445399019131100,3.525131103515625,-0.0013392074033617973,0.002063513034954667,0.00021800061222165823
1686445399029148400,3.5351484375,-0.0027004191651940346,0.0019362145103514194,0.000205323682166636
1686445399039164400,3.545164306640625,-0.0027811131440103054,0.005071287974715233,-0.0014128130860626698
1686445399049181200,3.55518115234375,-0.0010267524048686028,0.010118803940713406,0.0022946109529584646
1686445399059198200,3.5651982421875,-0.0032598129473626614,0.009750754572451115,0.0010184242855757475
1686445399069215200,3.57521533203125,-0.001107130665332079,0.00988572183996439,0.0000812942162156105
1686445399079231200,3.585231201171875,-0.00673785200342536,0.012125973589718342,-0.004409594461321831
1686445399089248300,3.595248291015625,-0.006878569722175598,0.009585185907781124,-0.005449163727462292
1686445399099265300,3.605265380859375,-0.002428161446005106,0.012817731127142906,-0.0060313306748867035
1686445399109281300,3.61528125,-0.004165202379226685,0.010468688793480396,0.0036693138536065817
1686445399119298300,3.62529833984375,-0.00017152633517980576,0.002185192657634616,0.006316229701042175
1686445399129315000,3.635315185546875,-0.001084058079868555,-0.00019729789346456528,0.0032814135774970055
1686445399139332400,3.645332275390625,-0.0012643537484109402,-0.002170966472476721,-0.0003556654555723071
1686445399149348400,3.655348388671875,0.00039358949288725853,-0.004126871004700661,-0.0028809336945414543
1686445399159365000,3.665365234375,-0.0027902196161448956,0.0008710832335054874,-0.0032596352975815535
1686445399169382400,3.67538232421875,-0.0012033525854349136,0.0003508839290589094,-0.007230515591800213
1686445399179398400,3.6853984375,-0.0022875252179801464,-0.0005159748252481222,-0.010028166696429253
1686445399189415200,3.695415283203125,-0.000040104612708091736,-0.0028341994620859623,-0.00859781913459301
1686445399199432200,3.70543212890625,0.000824357382953167,-0.006518149748444557,-0.010035660117864609
1686445399209448400,3.715448486328125,-0.0021406696178019047,-0.010569697245955467,-0.00512841809540987
1686445399219465200,3.72546533203125,-0.0010280013084411621,-0.006280410103499889,-0.0017374148592352867
1686445399229482200,3.735482177734375,-0.0028817038983106613,-0.0012124406639486551,-0.0007416964508593082
1686445399239499300,3.745499267578125,-0.0005852603353559971,0.006363986525684595,0.0022857850417494774
1686445399249515300,3.755515380859375,0.0007319631986320019,0.006881861947476864,0.005598771385848522
1686445399259532300,3.7655322265625,0.0007303650490939617,0.009398016147315502,0.003495406825095415
1686445399269549000,3.775549072265625,0.0034261380787938833,0.0017604187596589327,0.0017257386352866888
1686445399279565300,3.7855654296875,0.0002761511132121086,-0.0025839959271252155,-0.00045698811300098896
1686445399289582300,3.795582275390625,0.0006299549713730812,-0.004425119608640671,0.000596660072915256
1686445399299599000,3.80559912109375,-0.0010100197978317738,-0.009729603305459023,-0.002123492769896984
1686445399309616400,3.815616455078125,-0.00182827515527606,-0.012273481115698814,0.00011634849943220615
1686445399319632400,3.82563232421875,-0.002358510624617338,-0.007632923778146505,-0.0015510566299781203
1686445399329649200,3.835649169921875,-0.001655431929975748,-0.0011522284476086497,0.003758978098630905
1686445399339666200,3.845666259765625,-0.0029156398959457874,0.005940568633377552,0.0034370021894574165
1686445399349682400,3.855682373046875,-0.002837081905454397,0.005419015884399414,0.0010596610372886062
1686445399359699200,3.86569921875,-0.001563025638461113,0.004516470246016979,0.0006447405321523547
1686445399369716200,3.87571630859375,0.0011792222503572702,-0.0025388281792402267,0.0029652374796569347
1686445399379732200,3.885732177734375,-0.0004141470417380333,-0.013113174587488174,0.0062310718931257725
1686445399389749200,3.895749267578125,0.0033670268021523952,-0.013664132915437222,0.004699032753705978
1686445399399766300,3.905766357421875,0.002718280768021941,-0.01281698141247034,-0.003963164985179901
1686445399409783000,3.915782958984375,-0.000556236132979393,-0.00652187829837203,-0.005428284406661987
1686445399419799300,3.92579931640625,0.00217776489444077,-0.003917040303349495,-0.008086118847131729
1686445399429816300,3.93581640625,-0.0022421409375965595,0.006567584816366434,-0.0012966193025931716
1686445399439833000,3.9458330078125,0.00007480941712856293,0.007147620897740126,-0.0012633297592401505
1686445399449849000,3.95584912109375,-0.0013238652609288692,0.008990046568214893,0.0025922060012817383
1686445399459866400,3.965866455078125,-0.0001627267338335514,0.0065849460661411285,0.0049741375260055065
1686445399469883100,3.975883056640625,0.0016543478704988956,0.0009648771956562996,0.005773085635155439
1686445399479899100,3.985899169921875,0.0009038690477609634,-0.005627512000501156,0.005612763110548258
1686445399489916400,3.99591650390625,0.0026825913228094578,-0.012107674032449722,0.004184817895293236
1686445399499933200,4.00593310546875,0.00015818094834685326,-0.0111646493896842,0.003008765634149313
1686445399509950200,4.0159501953125,0.001521585276350379,-0.008925702422857285,0.0020019682124257088
1686445399519966200,4.02596630859375,0.0027881846763193607,-0.002513875951990485,0.0005590677028521895
1686445399529983200,4.035983154296875,0.0018005536403506994,0.004388158209621906,-0.0007519046193920076
1686445399540000300,4.046000244140625,0.0015606028027832508,0.009648166596889496,0.0007610372267663479
1686445399550016300,4.056016357421875,-0.0014940444380044937,0.007274812087416649,-0.0023433889728039503
1686445399560033300,4.066033203125,0.0001659039407968521,0.005005266517400742,-0.0023191540967673063
1686445399570050300,4.07605029296875,-0.002670764923095703,0.004098540171980858,-0.004213029518723488
1686445399580066300,4.08606640625,-0.003671580459922552,-0.002140180906280875,-0.006445291452109814
1686445399590083300,4.096083251953125,-0.0013105436228215694,0.0007556576747447252,-0.0064839087426662445
1686445399600100400,4.106100341796875,-0.00006338534876704216,0.0022230593021959066,-0.0053885504603385925
1686445399610117400,4.116117431640625,0.0010892231948673725,0.005260875914245844,-0.003633444895967841
1686445399620133400,4.12613330078125,0.0021201330237090588,0.006701113190501928,-0.004942920990288258
1686445399630150400,4.136150390625,0.0012608536053448915,0.002929306821897626,-0.0012994685675948858
1686445399640167400,4.14616748046875,0.0026946994476020336,0.005836945958435535,0.00491262087598443
1686445399650183400,4.156183349609375,0.0019488849211484194,-0.0029313256964087486,0.003909509629011154
1686445399660200400,4.166200439453125,0.0024927023332566023,-0.006771337240934372,0.004163042642176151
1686445399670217200,4.17621728515625,0.0018161204643547535,-0.0062897042371332645,0.004937409423291683
1686445399680234500,4.186234375,-0.000045429449528455734,-0.007292916998267174,-0.0007694783853366971
1686445399690250500,4.19625048828125,0.0003422447480261326,-0.002611081348732114,-0.0006824980373494327
1686445399700267300,4.206267333984375,0.0017771560233086348,-0.0016523433150723577,-0.0016244581202045083
1686445399710284500,4.216284423828125,-0.0007962328381836414,0.0021727026905864477,-0.003794583957642317
1686445399720300500,4.226300537109375,0.0022951646242290735,0.0034896356519311666,-0.00025044940412044525
1686445399730317300,4.2363173828125,0.0004386594519019127,0.00351104699075222,-0.00008273334242403507
1686445399740334300,4.246334228515625,0.0021132552064955235,0.004055130761116743,0.004101359285414219
1686445399750350600,4.2563505859375,-0.0014431970193982124,0.00327322818338871,0.005049124360084534
1686445399760367400,4.266367431640625,0.0016141117084771395,0.002457235474139452,0.003160676686093211
1686445399770384400,4.27638427734375,0.00206172582693398,0.002405250445008278,0.0009378740796819329
1686445399780401400,4.2864013671875,-0.0000962335616350174,-0.0005511248018592596,0.0011605144245550036
1686445399790417400,4.29641748046875,0.0008271085098385811,0.00011772569268941879,0.00300845829769969
1686445399800434400,4.306434326171875,0.0011706564109772444,0.0018288064748048782,0.002644137479364872
1686445399810451200,4.316451171875,0.0025424903724342585,-0.0014025105629116297,-0.0006523150950670242
1686445399820467500,4.326467529296875,-0.0012924615293741226,-0.0037018838338553905,0.00027047027833759785
1686445399830484500,4.336484375,0.0031817532144486904,-0.006769259460270405,0.0043503474444150925
1686445399840501200,4.346501220703125,0.004841168876737356,-0.007409483194351196,0.0001902235671877861
1686445399850518500,4.3565185546875,0.006698800250887871,-0.006572558544576168,0.00021574751008301973
1686445399860534500,4.366534423828125,0.006278553511947393,-0.005333656445145607,-0.0004809354431927204
1686445399870551300,4.37655126953125,0.0036416426301002502,-0.006187813822180033,-0.0022261077538132668
1686445399880568300,4.386568359375,0.0021076619159430265,-0.00769170094281435,-0.00373638654127717
1686445399890584600,4.39658447265625,0.0023288994561880827,-0.004887762479484081,-0.0019834854174405336
1686445399900601300,4.406601318359375,0.0034410355146974325,-0.007749062962830067,-0.001433542580343783
1686445399910618400,4.416618408203125,0.001779717393219471,-0.004893169272691011,0.0006895237602293491
1686445399920635400,4.426635498046875,0.002294506411999464,-0.011087682098150253,0.0016368101350963116
1686445399930651400,4.4366513671875,0.0028612776659429073,-0.0071673765778541565,0.0013034628937020898
1686445399940668400,4.44666845703125,-0.0010897880420088768,-0.0017819321947172284,-0.002881960943341255
1686445399950685200,4.456685302734375,0.00042472314089536667,0.00161008071154356,0.00045112683437764645
1686445399960701400,4.466701416015625,-0.0030621537007391453,0.007178217638283968,-0.0029454687610268593
1686445399970718500,4.476718505859375,-0.000508385244756937,0.01183550339192152,-0.004607677459716797
1686445399980735200,4.4867353515625,-0.000566176138818264,0.016235845163464546,-0.00015407311730086803
1686445399990751200,4.496751220703125,0.0006206976249814034,0.01477682963013649,0.0015202838694676757
1686445400000768500,4.5067685546875,-0.0006650765426456928,0.01062256470322609,0.004691842012107372
1686445400010785300,4.516785400390625,-0.0008840570226311684,0.003496454330161214,0.0004221698036417365
1686445400020801300,4.52680126953125,-0.00007552141323685646,-0.00008150259964168072,0.0027063628658652306
1686445400030818600,4.536818603515625,-0.0006665908731520176,-0.0012350247707217932,0.005057733505964279
1686445400040835300,4.54683544921875,0.0018634120933711529,0.002689142944291234,0.005208734422922134
1686445400050852400,4.556852294921875,0.0023117223754525185,0.007521447725594044,0.003330086823552847
1686445400060868400,4.566868408203125,-0.0006233472377061844,0.010160906240344048,0.00298840319737792
1686445400070885400,4.576885498046875,0.002724983496591449,0.006770198233425617,-0.001702290726825595
1686445400080902400,4.58690234375,0.004160161130130291,0.0041954535990953445,-0.002862363588064909
1686445400090918400,4.59691845703125,-0.0018710182048380375,-0.008585456758737564,-0.001667005941271782
1686445400100935400,4.606935302734375,0.0008744345977902412,-0.009915705770254135,-0.0007082679658196867
1686445400110952400,4.616952392578125,-0.00037979427725076675,-0.009221447631716728,-0.00021103722974658012
1686445400120969200,4.62696923828125,0.002427709987387061,-0.006860821507871151,0.00009069894440472126
1686445400130985200,4.636985107421875,0.0015793899074196815,-0.005392726510763168,0.003546212799847126
1686445400141002500,4.64700244140625,-0.00008508563041687012,0.0007463926449418068,0.002890542149543762
1686445400151019300,4.657019287109375,0.0009416099637746811,0.004470745101571083,0.0018993603298440576
1686445400161035300,4.66703515625,0.001513124443590641,0.006796749774366617,0.0016985581023618579
1686445400171052500,4.677052490234375,0.0022885589860379696,0.007819029502570629,0.0011482007103040814
1686445400181069300,4.6870693359375,-0.0017429343424737453,0.010812955908477306,0.00217325147241354
1686445400191086300,4.69708642578125,0.0012493801768869162,0.009060889482498169,-0.0011876748176291585
1686445400201102300,4.707102294921875,0.0010629589669406414,0.010170096531510353,-0.0005482498672790825
1686445400211119400,4.717119384765625,-0.0028564450331032276,0.0031989780254662037,0.0024760528467595577
1686445400221136400,4.727136474609375,-0.0010465607047080994,0.0018679299391806126,-0.0032012739684432745
1686445400231152400,4.73715234375,-0.0033096722327172756,-0.0007988790748640895,-0.0005342197837308049
1686445400241169400,4.74716943359375,-0.000531728845089674,-0.0003413480008020997,0.001262881327420473
1686445400251186400,4.7571865234375,0.0012225694954395294,-0.0027034380473196507,0.0018099213484674692
1686445400261202400,4.767202392578125,-0.0012179510667920113,-0.0022802616003900766,0.0035835865419358015
1686445400271219200,4.77721923828125,0.0007522245869040489,-0.004121892619878054,0.004402542021125555
1686445400281236500,4.787236572265625,-0.0003750915639102459,0.0027176374569535255,0.00464382441714406
1686445400291253200,4.797253173828125,0.0017142428550869226,0.009073777124285698,0.0031365975737571716
1686445400301269200,4.807269287109375,0.0059065911918878555,0.011540397070348263,0.003058300819247961
1686445400311286500,4.81728662109375,0.0006374791264533997,0.007344960700720549,-0.004038448911160231
1686445400321303300,4.82730322265625,-0.0028792251832783222,0.0021049249917268753,-0.0017923390259966254
1686445400331319300,4.8373193359375,-0.002578581217676401,-0.0028791800141334534,-0.004518511705100536
1686445400341336300,4.84733642578125,-0.002028105780482292,-0.005371366161853075,-0.0028513725847005844
1686445400351353300,4.857353271484375,-0.00151857640594244,-0.008943944238126278,-0.0011997647816315293
1686445400361370400,4.867370361328125,-0.004968701861798763,-0.011912037618458271,0.00003194715827703476
1686445400371386400,4.877386474609375,-0.0011390862055122852,-0.00994713231921196,0.0011995162349194288
1686445400381403400,4.8874033203125,-0.0010639848187565804,-0.004069002810865641,0.005774826742708683
1686445400391420400,4.89742041015625,-0.001755037810653448,-0.000828654388897121,0.012221971526741982
1686445400401436400,4.9074365234375,-0.0037888935767114162,0.0009141182526946068,0.008327098563313484
1686445400411453400,4.917453369140625,-0.0006827451288700104,0.006338899023830891,0.0014661505119875073
1686445400421470500,4.927470458984375,0.001004100777208805,0.008319757878780365,0.0022861380130052567
1686445400431486500,4.937486572265625,0.0016249101608991623,0.00692575192078948,0.0012749461457133293
1686445400441503200,4.947503173828125,0.0016289050690829754,0.006675415206700563,0.002064306987449527
1686445400451520500,4.9575205078125,0.00146475899964571,0.0047284564934670925,0.0016012439737096429
1686445400461537300,4.967537353515625,0.002312443219125271,-0.0008415449410676956,-0.003042510012164712
1686445400471553300,4.97755322265625,0.0005585514008998871,-0.009786354377865791,0.0036123855970799923
1686445400481570600,4.987570556640625,0.0030651185661554337,-0.008568757213652134,0.001216339529491961
1686445400491587300,4.99758740234375,0.00039045652374625206,-0.008998245000839233,0.0027962918393313885
1686445400501603300,5.007603271484375,-0.0004228726029396057,-0.0058679659850895405,0.0029829791747033596
1686445400511620400,5.017620361328125,-0.00047493958845734596,-0.002671959577128291,0.001090782112441957
1686445400521637400,5.027637451171875,-0.0028278427198529243,0.002722006756812334,0.00015255052130669355
1686445400531653400,5.0376533203125,-0.000839852262288332,0.008994017727673054,0.0013834635028615594
1686445400541670400,5.04767041015625,-0.0017453269101679325,0.012467578053474426,-0.0013180470559746027
1686445400551687400,5.0576875,-0.0034831068478524685,0.013567624613642693,-0.000012341653928160667
1686445400561704400,5.067704345703125,0.0009896717965602875,0.006615708116441965,-0.0030832327902317047
1686445400571720400,5.077720458984375,-0.000864814966917038,0.001448323018848896,-0.0020819571800529957
1686445400581737200,5.0877373046875,0.0010880809277296066,-0.003965883515775204,-0.002062516286969185
1686445400591754500,5.09775439453125,0.00007354607805609703,-0.0066535985097289085,-0.0026666508056223392
1686445400601770200,5.107770263671875,0.001786224776878953,-0.004155020695179701,-0.00482247956097126
1686445400611787000,5.117787109375,0.0009617703035473824,-0.0014253869885578752,-0.004881537519395351
1686445400621804300,5.12780419921875,0.00132369389757514,0.0028926623053848743,0.0007617010269314051
1686445400631821000,5.137821044921875,-0.0013831858523190022,0.00819738581776619,-0.002674027346074581
1686445400641837000,5.147837158203125,-0.0020284694619476795,0.008335071615874767,-0.0016705483430996537
1686445400651854300,5.157854248046875,-0.0014201849699020386,0.008527642115950584,0.000836486229673028
1686445400661871000,5.16787109375,-0.0005069868639111519,0.006471680942922831,-0.002412037691101432
1686445400671887000,5.17788720703125,-0.0010741068981587887,0.004789471160620451,-0.0024920532014220953
1686445400681904000,5.187904052734375,0.001795981777831912,0.00422967504709959,0.002859302796423435
1686445400691921200,5.197921142578125,0.0036812229081988335,0.0013296797405928373,0.004678981378674507
1686445400701938200,5.207938232421875,0.000914198812097311,-0.003637648420408368,0.002557773608714342
1686445400711954200,5.2179541015625,0.0009378748945891857,-0.004227831494063139,0.001038936199620366
1686445400721971200,5.22797119140625,0.0012846183963119984,-0.00470293965190649,-0.000562156259547919
1686445400731988200,5.23798828125,0.0021364863496273756,-0.008211283013224602,0.0017758242320269346
1686445400742004200,5.248004150390625,0.0023708443623036146,-0.005323351360857487,0.007174584548920393
1686445400752021000,5.25802099609375,0.0007861596532166004,0.0033614852000027895,0.009119701571762562
1686445400762038300,5.268038330078125,0.0034927302040159702,0.003484523156657815,0.004255704116076231
1686445400772054300,5.27805419921875,-0.001146403606981039,0.005640645045787096,0.0021659068297594786
1686445400782071000,5.288071044921875,0.002078950870782137,0.005555423442274332,0.004353427328169346
1686445400792088300,5.29808837890625,-0.0006728889420628548,0.005493424832820892,-0.003007476218044758
1686445400802105000,5.30810498046875,-0.0020579993724823,0.00406597089022398,-0.0014750934205949306
1686445400812121000,5.31812109375,-0.00281619094312191,0.003539569675922394,-0.003517268691211939
1686445400822138000,5.32813818359375,-0.0020982027053833008,-0.00010177050717175007,-0.0041162134148180485
1686445400832155100,5.338155029296875,-0.0008369726128876209,-0.00311780022457242,-0.0009744268609210849
1686445400842171100,5.348171142578125,-0.0005408292636275291,-0.0029348409734666348,-0.0008812162559479475
1686445400852188200,5.358188232421875,0.0005333735607564449,-0.0015834730584174395,0.0016433031996712089
1686445400862205200,5.368205078125,0.0005837068893015385,0.001648805569857359,0.004987700842320919
1686445400872222200,5.37822216796875,0.00003842869773507118,0.0062958355993032455,0.005029411055147648
1686445400882238200,5.38823828125,0.002317029284313321,0.004758126102387905,0.004141246899962425
1686445400892255000,5.3982548828125,0.0011392522137612104,0.0033425758592784405,-0.00040120549965649843
1686445400902272300,5.408272216796875,0.0000111372210085392,0.0028030192479491234,-0.001705888076685369
1686445400912288300,5.418288330078125,0.002695439849048853,-0.0002803080715239048,-0.003909222781658173
1686445400922305000,5.428304931640625,0.0012354948557913303,-0.0006664664251729846,-0.0025107967667281628
1686445400932322300,5.438322265625,0.0011567482724785805,-0.002336828038096428,-0.0012334221974015236
1686445400942338300,5.44833837890625,-0.002179127186536789,-0.00502741988748312,0.002881960477679968
1686445400952355000,5.45835498046875,0.0019802653696388006,-0.0019883003551512957,0.0015094688860699534
1686445400962372000,5.4683720703125,0.0009059463627636433,-0.000054845353588461876,0.0017685944912955165
1686445400972389000,5.47838916015625,-0.0023885956034064293,0.005812924355268478,0.001532888156361878
1686445400982405000,5.488405029296875,-0.0006679273210465908,0.012041259557008743,0.0017997367540374398
1686445400992422100,5.498422119140625,-0.002623956650495529,0.012825215235352516,0.0032195691019296646
1686445401002439200,5.508439208984375,0.0020882405806332827,0.01260656863451004,0.002354308031499386
1686445401012455200,5.518455078125,0.0033565955236554146,0.006681568454951048,0.00026132992934435606
1686445401022472200,5.52847216796875,0.000621262937784195,-0.00046795408707112074,0.0037404834292829037
1686445401032489000,5.538489013671875,0.0010036630555987358,-0.007089397870004177,0.005098924972116947
1686445401042506200,5.54850634765625,0.0002715601585805416,-0.008041744120419025,0.0036815910134464502
1686445401052522200,5.558522216796875,0.0021066032350063324,-0.004551991820335388,0.0003501145401969552
1686445401062539000,5.5685390625,-0.0016255509108304977,-0.0014462132239714265,0.0022329692728817463
1686445401072556300,5.578556396484375,0.0010857945308089256,0.003110375953838229,0.0005556519608944654
1686445401082572300,5.588572265625,-0.0028980281203985214,0.004334365017712116,-0.0013136208290234208
1686445401092589000,5.598589111328125,-0.0027901153080165386,0.007218220271170139,-0.0028678462840616703
1686445401102606000,5.608606201171875,-0.000021226704120635986,0.0042772917076945305,-0.002512580482289195
1686445401112623000,5.618623046875,-0.001592176966369152,-0.00013276864774525166,-0.0040468014776706696
1686445401122639000,5.62863916015625,0.0004227706231176853,-0.0037621245719492435,0.002980215009301901
1686445401132656000,5.63865625,0.0033479826524853706,-0.006322624161839485,0.0028285514563322067
1686445401142673200,5.648673095703125,0.00032502831891179085,-0.0012285294942557812,-0.001583773992024362
1686445401152689200,5.658689208984375,0.00263712159357965,0.0031688050366938114,-0.0023656333796679974
1686445401162706200,5.6687060546875,-0.0013688053004443645,0.004130738787353039,-0.0041496846824884415
1686445401172723000,5.678722900390625,0.0005314536392688751,0.006351281888782978,-0.006400960497558117
1686445401182739200,5.6887392578125,-0.0011103847064077854,0.004730481654405594,-0.001807273831218481
1686445401192756200,5.698756103515625,-0.00044605694711208344,0.0073332404717803,-0.0012957633007317781
1686445401202773000,5.70877294921875,-0.0015169139951467514,0.005047449376434088,-0.0010361052118241787
1686445401212790300,5.718790283203125,-0.004884622059762478,-0.0007651894120499492,-0.00022926111705601215
1686445401222806300,5.72880615234375,-0.0028843218460679054,-0.00703427055850625,-0.0031707226298749447
1686445401232823000,5.738822998046875,-0.0013692495413124561,-0.007086069323122501,-0.0013494134182110429
1686445401242840000,5.748840087890625,-0.0008573899976909161,-0.0018580182222649455,-0.0026061590760946274
1686445401252856300,5.758856201171875,0.00207428983412683,0.0014489891473203897,-0.0010739789577201009
1686445401262873000,5.768873046875,-0.00068714190274477,0.0022490029223263264,-0.0020396411418914795
1686445401272890000,5.77889013671875,-0.0016588405705988407,0.0015740508679300547,-0.0007568389410153031
1686445401282907100,5.7889072265625,0.0007585110142827034,-0.002365829423069954,-0.005149190314114094
1686445401292923100,5.798923095703125,-0.002738000825047493,0.00112384301610291,-0.001992675708606839
1686445401302940200,5.808940185546875,-0.0007174601778388023,0.00019147037528455257,0.0022236406803131104
1686445401312957000,5.81895703125,-0.0007616402581334114,0.0015610014088451862,0.005955126136541367
1686445401322973200,5.82897314453125,0.0013779436703771353,0.0012725810520350933,0.0008509114850312471
1686445401332990200,5.838990234375,0.0009415824897587299,-0.0030873860232532024,-0.0004076350014656782
1686445401343007000,5.849007080078125,0.0005644788034260273,-0.004314570687711239,-0.003266272135078907
1686445401353023000,5.85902294921875,-0.0010219737887382507,-0.005047233775258064,-0.007076439447700977
1686445401363040300,5.869040283203125,-0.000738081056624651,-0.004300749860703945,-0.005547252483665943
1686445401373057000,5.87905712890625,0.0006979932077229023,-0.0036506180185824633,-0.0030870558694005013
1686445401383074000,5.889073974609375,-0.003202205989509821,-0.0034628650173544884,0.0019918587058782578
1686445401393090300,5.89909033203125,-0.002668896224349737,-0.0036612707190215588,0.0005313808796927333
1686445401403107000,5.909107177734375,-0.0015050950460135937,0.0007435977458953857,-0.00034027162473648787
1686445401413124000,5.9191240234375,-0.001610764767974615,0.0004871622659265995,-0.0034225780982524157
1686445401423140000,5.92914013671875,-0.0010238043032586575,0.0036193060223013163,-0.0036159236915409565
1686445401433157000,5.9391572265625,-0.0023157382383942604,-0.00018432829529047012,-0.005015030037611723
1686445401443174100,5.949174072265625,0.0006869756616652012,0.0012726869899779558,0.0008620336884632707
1686445401453191200,5.959191162109375,-0.0006355969235301018,0.006267126649618149,-0.004868205636739731
1686445401463207200,5.969207275390625,0.0008890628814697266,0.006478315219283104,-0.0029198373667895794
1686445401473224200,5.97922412109375,0.002768423641100526,0.002832288620993495,0.00023951323237270117
1686445401483241000,5.989240966796875,-0.0009203208610415459,-0.005523113068193197,-0.0008550460333935916
1686445401493257000,5.999257080078125,-0.002433649729937315,-0.006832136772572994,-0.0036700651980936527
1686445401503274200,6.009274169921875,-0.0021233917213976383,-0.009107008576393127,-0.007020055316388607
1686445401513291000,6.019291015625,-0.003646263387054205,-0.005765913985669613,-0.005126697476953268
1686445401523308300,6.029308349609375,-0.0038049877621233463,-0.00351554318331182,-0.0006227593403309584
1686445401533324300,6.03932421875,-0.004191557876765728,-0.0027728676795959473,-0.0018288034480065107
1686445401543341000,6.049341064453125,-0.003940688446164131,0.0017403915990144014,-0.00078830640995875
1686445401553358000,6.059358154296875,-0.0003751092590391636,0.000334323151037097,0.003201646264642477
1686445401563374000,6.0693740234375,-0.0006472845561802387,-0.00499306432902813,0.00571460509672761
1686445401573391000,6.07939111328125,-0.0003637154586613178,-0.007110677659511566,0.00831702072173357
1686445401583408000,6.089408203125,0.00024588219821453094,-0.006553278304636478,0.002915330696851015
1686445401593424100,6.099424072265625,0.00331323966383934,-0.00953841395676136,-0.0017003545071929693
1686445401603441000,6.10944091796875,0.004029363859444857,-0.006218517664819956,-0.0015397658571600914
1686445401613458200,6.119458251953125,-0.0007485370151698589,-0.0018128248630091548,-0.0011389220599085093
1686445401623475200,6.12947509765625,0.0023942592088133097,0.0024093505926430225,-0.00403830548748374
1686445401633491000,6.139490966796875,-0.0004785284399986267,0.0041734022088348866,-0.0051849400624632835
1686445401643508200,6.14950830078125,-0.0005656136199831963,-0.000009624985978007317,-0.002391017507761717
1686445401653525000,6.15952490234375,0.0003170231357216835,-0.003667182754725218,-0.001647106371819973
1686445401663541000,6.169541015625,0.00024192174896597862,-0.002952656475827098,0.00006663776002824306
1686445401673558300,6.179558349609375,0.0014086444862186909,-0.007857240736484528,0.002282186644151807
1686445401683575000,6.189574951171875,-0.000771951861679554,-0.009027966298162937,0.0002741632051765919
1686445401693592000,6.199592041015625,0.0009300871752202511,-0.007651644758880138,-0.0006700358935631812
1686445401703608000,6.209608154296875,-0.0004057544283568859,-0.0026643427554517984,-0.0035624951124191284
1686445401713625000,6.219625,-0.001732933335006237,0.004385657142847776,-0.004306790418922901
1686445401723642000,6.22964208984375,0.0006356821395456791,0.004642385523766279,0.002102373167872429
1686445401733658000,6.239658203125,-0.0018309932202100754,0.00571571895852685,-0.002345313085243106
1686445401743675100,6.249675048828125,0.001917672110721469,0.0048920027911663055,0.002038782462477684
1686445401753692200,6.259692138671875,-0.0005332455039024353,0.0046836379915475845,-0.0003293959889560938
1686445401763708200,6.269708251953125,-0.0019670911133289337,0.005274593830108643,-0.004028792958706617
1686445401773725000,6.279724853515625,-0.00046442216262221336,0.005985577590763569,-0.007788116578012705
1686445401783742200,6.2897421875,-0.0029387655667960644,0.00575201865285635,-0.005543870851397514
1686445401793759200,6.29975927734375,0.0005069589242339134,0.00003056321293115616,-0.004446110688149929
1686445401803775000,6.30977490234375,0.0003202715888619423,-0.0018267253180965781,-0.005406445823609829
1686445401813792300,6.319792236328125,0.000059412792325019836,-0.006778608541935682,-0.0036281996872276068
1686445401823809000,6.32980908203125,0.0015835398808121681,-0.0021087555214762688,0.001113025937229395
1686445401833825000,6.339824951171875,-0.00008946191519498825,0.002167696366086602,0.0012749792076647282
1686445401843842000,6.349842041015625,0.0012000405695289373,0.0035775734577327967,0.0012254442553967237
1686445401853859000,6.359859130859375,-0.00022993981838226318,0.00569316279143095,0.0009326704312115908
1686445401863876000,6.3698759765625,-0.0017913510091602802,0.0015181244816631079,0.0022341571748256683
1686445401873892000,6.37989208984375,-0.0002642595209181309,-0.0026785109657794237,0.0018740602536126971
1686445401883909000,6.3899091796875,-0.0006347051821649075,-0.00034851126838475466,-0.002156633883714676
1686445401893926100,6.399926025390625,-0.0007007084786891937,-0.0017175092361867428,-0.003380010137334466
1686445401903942100,6.409942138671875,0.0005525751039385796,-0.000343850813806057,-0.0029232781380414963
1686445401913959000,6.419958984375,0.0009768926538527012,0.004432768560945988,-0.0018633768195286393
1686445401923976200,6.42997607421875,0.00166958081535995,0.0016708041075617075,0.004083195701241493
1686445401933992200,6.4399921875,0.00022343825548887253,0.0033098196145147085,0.004736246075481176
1686445401944009000,6.450009033203125,-0.0004223780706524849,0.0045151663944125175,0.002158306073397398
1686445401954026200,6.460026123046875,-0.0014502331614494324,0.002924832981079817,0.0007567793363705277
1686445401964043300,6.470043212890625,-0.0005910973995923996,0.002110438421368599,0.0011149743804708123
1686445401974059000,6.48005908203125,0.0001617036759853363,0.001038274960592389,-0.001776913763023913
1686445401984076000,6.490075927734375,-0.002647398505359888,0.004330208525061607,-0.0028967729303985834
1686445401994093000,6.500093017578125,0.00030013639479875565,0.006677013821899891,-0.005080741830170155
1686445402004109000,6.510109130859375,-0.0033459975384175777,0.0033821514807641506,-0.003878857009112835
1686445402014126000,6.5201259765625,0.00018688663840293884,0.003099936293438077,0.0001761299790814519
1686445402024143000,6.53014306640625,0.0000745011493563652,-0.0031417144928127527,0.000047765555791556835
1686445402034160000,6.54016015625,-0.00009819958359003067,-0.005419651046395302,0.004769525490701199
1686445402044176100,6.550176025390625,0.0006485511548817158,-0.005614860914647579,0.0007894310401752591
1686445402054193000,6.56019287109375,-0.0018709716387093067,-0.004000051412731409,-0.0020745075307786465
1686445402064210200,6.570210205078125,-0.0013777543790638447,0.002319097286090255,-0.003361346898600459
1686445402074226200,6.58022607421875,0.001027050893753767,0.0033135474659502506,-0.004309927113354206
1686445402084243000,6.590242919921875,-0.0008464832790195942,0.002416328527033329,-0.009160076268017292
1686445402094260200,6.60026025390625,0.0007488797418773174,-0.0016336995176970959,-0.006231248844414949
1686445402104276200,6.610276123046875,-0.0013571479357779026,-0.0035703503526747227,-0.0033062989823520184
1686445402114293000,6.62029296875,0.00035632308572530746,-0.003195670433342457,-0.004281000234186649
1686445402124310000,6.63031005859375,0.0002601831220090389,0.00013621035031974316,-0.0005893260822631419
1686445402134327300,6.640327392578125,-0.00182002829387784,0.0030267767142504454,0.00030897604301571846
1686445402144343000,6.650343017578125,0.0002777436748147011,0.0022406119387596846,0.0005643730983138084
1686445402154360000,6.660360107421875,-0.000733732245862484,0.006195434369146824,-0.002410129178315401
1686445402164377000,6.670377197265625,-0.0024868911132216454,0.0014528771862387657,0.0004104245454072952
1686445402174393000,6.68039306640625,-0.0006185448728501797,-0.00333756348118186,0.00003238359931856394
1686445402184410000,6.69041015625,-0.001060097012668848,0.0006601077038794756,-0.0016760341823101044
1686445402194427100,6.70042724609375,-0.0008633099496364594,0.0008814951870590448,-0.0018590406980365515
1686445402204444200,6.710444091796875,-0.0031549599952995777,0.004122295882552862,0.0017641898011788726
1686445402214460200,6.720460205078125,0.0006866957992315292,0.008002601563930511,-0.0032480331137776375
1686445402224477000,6.730476806640625,-0.0012028170749545097,0.003720239270478487,0.0004702722653746605
1686445402234494200,6.740494140625,0.00008272286504507065,0.005097759887576103,-0.0005904926802031696
1686445402244510200,6.75051025390625,0.0012246861588209867,0.0010862399358302355,0.0020228673238307238
1686445402254527000,6.76052685546875,-0.0007055690512061119,0.002029345603659749,0.0006802662974223495
1686445402264544000,6.7705439453125,-0.0013585761189460754,-0.002083906903862953,0.0008344632806256413
1686445402274561300,6.780561279296875,0.00007589999586343765,0.0007484178058803082,-0.0029758582822978497
1686445402284577000,6.790576904296875,-0.000812796875834465,-0.002726208418607712,-0.004653915762901306
1686445402294594000,6.800593994140625,-0.00029056333005428314,-0.004794285632669926,-0.0038607476744800806
1686445402304611300,6.810611328125,-0.0001507471315562725,-0.003394261933863163,-0.0019589841831475496
1686445402314627000,6.820626953125,0.002643230138346553,-0.002593983430415392,-0.00032055366318672895
1686445402324644000,6.83064404296875,-0.0016543129459023476,-0.000384092447347939,-0.001228158944286406
1686445402334661000,6.8406611328125,-0.0008339732885360718,0.00400477135553956,0.0002996581606566906
1686445402344677000,6.850677001953125,0.0010251794010400772,0.004543795250356197,-0.0028255614452064037
1686445402354694100,6.860694091796875,-0.0009936699643731117,0.00184926250949502,0.00145123025868088
1686445402364711200,6.870711181640625,0.0013065021485090256,-0.0025745145976543427,-0.004047132097184658
1686445402374728200,6.880728271484375,-0.0007677022367715836,-0.004979002755135298,-0.0032750749960541725
1686445402384744200,6.890744140625,-0.002836179453879595,-0.005230671726167202,-0.003203436266630888
1686445402394761000,6.900760986328125,-0.0011236974969506264,-0.0017289607785642147,-0.003300115466117859
1686445402404778000,6.910778076171875,-0.002553015947341919,-0.0019390842644497752,-0.0013946235412731767
1686445402414794200,6.920794189453125,-0.0006670532748103142,-0.000474745174869895,-0.001963821006938815
1686445402424811000,6.93081103515625,0.0005478807725012302,-0.0033267242833971977,-0.0030147044453769922
1686445402434828000,6.940828125,0.0008839881047606468,-0.00504219951108098,-0.0009948831284418702
1686445402444845300,6.95084521484375,-0.0008244295604526997,-0.0038917139172554016,-0.0022516287863254547
1686445402454861000,6.960861083984375,-0.0028364183381199837,-0.009135797619819641,-0.004467559512704611
1686445402464878000,6.970878173828125,-0.000005744863301515579,-0.012669812887907028,-0.0030869769398123026
1686445402474895000,6.98089501953125,-0.0025360705330967903,-0.016605937853455544,-0.004632638767361641
1686445402484911000,6.9909111328125,0.00005412008613348007,-0.01498460490256548,-0.0009169962140731514
1686445402494928100,7.00092822265625,-0.0016584862023591995,-0.007235659286379814,-0.001081334543414414
1686445402504945200,7.010945068359375,0.0002914802171289921,-0.002391635440289974,0.0012971345568075776
1686445402514961000,7.0209609375,0.0017266080249100924,0.00793711468577385,0.0007306592306122184
1686445402524978200,7.030978271484375,-0.0004944684915244579,0.015908222645521164,-0.002549822675064206
1686445402534995200,7.0409951171875,0.0030585317872464657,0.01463637687265873,-0.0025677671656012535
1686445402545012200,7.05101220703125,0.0007748710922896862,0.008575288578867912,-0.0013786659110337496
1686445402555028200,7.0610283203125,0.00143874017521739,0.0011448296718299389,-0.0016199639067053795
1686445402565045000,7.071044921875,0.0019964061211794615,-0.011980826035141945,-0.0005307309911586344
1686445402575062000,7.08106201171875,-0.0028190994635224342,-0.015502003952860832,0.00028597493655979633
1686445402585078000,7.091078125,-0.0028867442160844803,-0.013882003724575043,-0.005681104026734829
1686445402595095000,7.101094970703125,-0.003262684680521488,-0.010541414842009544,-0.0038508782163262367
1686445402605112300,7.1111123046875,-0.004662974737584591,-0.005551982205361128,-0.0009520275052636862
1686445402615129300,7.12112939453125,-0.002968179527670145,0.002373372670263052,0.0015268641291186213
1686445402625145000,7.13114501953125,-0.006725366692990065,0.007065595593303442,0.00468191085383296
1686445402635162400,7.141162353515625,-0.0014778608456254005,0.01179473102092743,0.003910883329808712
1686445402645179400,7.151179443359375,-0.0012544216588139534,0.013078641146421432,0.009381016716361046
1686445402655195100,7.161195068359375,0.00021153176203370094,0.006602231413125992,0.007990127429366112
1686445402665212200,7.171212158203125,0.004180707037448883,-0.00020161247812211514,0.005641752388328314
1686445402675229200,7.181229248046875,0.00404781149700284,-0.0056617846712470055,0.00022119644563645124
1686445402685245200,7.1912451171875,0.0021564343478530645,-0.006747554987668991,-0.0031524961814284325
1686445402695262200,7.20126220703125,0.00258758501149714,-0.0085506746545434,-0.003961681388318539
1686445402705279200,7.211279296875,0.0024903796147555113,-0.0072270832024514675,-0.009119159542024136
1686445402715296300,7.221296142578125,0.0031228954903781414,-0.0009085747878998518,-0.0009063860052265227
1686445402725312300,7.231312255859375,0.0020397878251969814,0.0008650904055684805,0.0035613328218460083
1686445402735329000,7.2413291015625,0.0009612119756639004,0.003428276162594557,0.008630617521703243
1686445402745346300,7.25134619140625,0.002069885842502117,0.002262077759951353,0.005562922917306423
1686445402755362300,7.2613623046875,-0.00026613660156726837,-0.002795077860355377,0.0020474400371313095
1686445402765379000,7.271379150390625,-0.000880261417478323,-0.0067749060690402985,0.00114436203148216
1686445402775396400,7.281396240234375,0.00000979844480752945,-0.011844979599118233,-0.0016791546950116754
1686445402785413400,7.291413330078125,-0.0014272434636950493,-0.010589031502604485,-0.0010613013291731477
1686445402795429000,7.30142919921875,-0.0015283282846212387,-0.01115370076149702,-0.007395050022751093
1686445402805446100,7.311446044921875,0.00014413706958293915,-0.00965141225606203,-0.007102635223418474
1686445402815463400,7.32146337890625,0.002157765906304121,-0.0077611543238162994,-0.007724078372120857
1686445402825479200,7.331479248046875,-0.0005623865872621536,-0.009430956095457077,-0.0068771932274103165
1686445402835496200,7.34149609375,0.005521842744201422,-0.004601473920047283,-0.003672353457659483
1686445402845513200,7.35151318359375,0.003252829425036907,-0.0038105149287730455,-0.0027359859086573124
1686445402855530200,7.3615302734375,0.0007578632794320583,-0.004985314793884754,-0.0006651197327300906
1686445402865546200,7.371546142578125,0.0008428185246884823,-0.007699608337134123,-0.00338873453438282
1686445402875563300,7.381563232421875,0.003370939753949642,-0.004248844459652901,-0.0035555625800043344
1686445402885580300,7.391580322265625,0.005940357688814402,-0.00821482390165329,-0.0004713557427749038
1686445402895596300,7.40159619140625,0.0038820309564471245,-0.01303210947662592,-0.0024168083909898996
1686445402905613000,7.411613037109375,0.004907348193228245,-0.014471015892922878,-0.002920145634561777
1686445402915630300,7.42163037109375,0.0018071490339934826,-0.009901775978505611,-0.0056534865871071815
1686445402925647400,7.4316474609375,0.0038058513309806585,-0.009327864274382591,-0.005211135372519493
1686445402935663000,7.4416630859375,0.0021295107435435057,-0.007109957747161388,-0.001456891535781324
1686445402945680100,7.45168017578125,0.00026529794558882713,-0.010190702974796295,-0.0028523877263069153
1686445402955697400,7.461697509765625,-0.000862418208271265,-0.00906628929078579,0.0005789730930700898
1686445402965713200,7.471713134765625,-0.00480496184900403,-0.004803101532161236,-0.0032317442819476128
1686445402975730200,7.481730224609375,-0.001563746016472578,-0.002426575869321823,-0.00476892851293087
1686445402985747500,7.49174755859375,0.0009670560248196125,0.0029855002649128437,-0.0028565125539898872
1686445402995763200,7.50176318359375,-0.0003781132400035858,0.0038591769989579916,0.001589699531905353
1686445403005780200,7.5117802734375,-0.0006694630719721317,0.009043818339705467,0.004794280976057053
1686445403015797200,7.52179736328125,0.0033758957870304585,0.015990780666470528,0.01380544900894165
1686445403025814300,7.531814208984375,0.004494689870625734,0.017291733995079994,0.014850739389657974
1686445403035830300,7.541830322265625,0.0008710455149412155,0.02047162875533104,0.013763908296823502
1686445403045847300,7.551847412109375,0.002029786817729473,0.01849902607500553,0.005198383238166571
1686445403055864300,7.5618642578125,-0.0019316459074616432,0.012818822637200356,-0.0006431850488297641
1686445403065880300,7.57188037109375,-0.0026206057518720627,0.005893005523830652,-0.0017601147992536426
1686445403075897300,7.5818974609375,-0.0004023411311209202,-0.001015633111819625,-0.002956381067633629
1686445403085914000,7.5919140625,-0.004775783978402615,-0.006692959927022457,-0.004564664326608181
1686445403095931400,7.601931396484375,-0.0017677592113614082,-0.009117715060710907,0.0005961393471807241
1686445403105947100,7.611947021484375,-0.0016031758859753609,-0.0061376383528113365,0.0031269413884729147
1686445403115964200,7.621964111328125,-0.0028524515219032764,-0.004026549868285656,0.0009222680237144232
1686445403125981400,7.6319814453125,0.004075229167938232,-0.005079563707113266,0.0011465062852948904
1686445403135997200,7.6419970703125,0.00012643728405237198,-0.0032004108652472496,-0.002046586712822318
1686445403146014200,7.65201416015625,0.0031467280350625515,-0.003145283553749323,-0.0017986464081332088
1686445403156031200,7.66203125,0.004467924125492573,-0.00712516438215971,-0.004228536039590836
1686445403166047200,7.672047119140625,-0.0024379189126193523,-0.010865041986107826,-0.0069020832888782024
1686445403176064300,7.682064208984375,-0.0005247215740382671,-0.010280318558216095,-0.008840693160891533
1686445403186081300,7.692081298828125,-0.0001119319349527359,-0.009160725399851799,-0.0030853357166051865
1686445403196098300,7.702098388671875,0.002462568460032344,-0.0051276348531246185,-0.0016988411080092192
1686445403206114300,7.7121142578125,0.003563252743333578,0.0016865956131368876,0.0038714264519512653
1686445403216131300,7.72213134765625,-0.0017885188572108746,0.012723668478429317,0.007761532440781593
1686445403226148000,7.732148193359375,0.00045146606862545013,0.018450796604156494,0.008822002448141575
1686445403236164400,7.742164306640625,-0.00008090445771813393,0.016840489581227303,0.007658244576305151
1686445403246181400,7.752181396484375,-0.0011120806448161602,0.0154950600117445,0.0006099225720390677
1686445403256198100,7.7621982421875,-0.0018020989373326302,0.010905208066105843,0.000969650805927813
1686445403266215400,7.77221533203125,-0.00024121999740600586,0.005244926083832979,0.002073797397315502
1686445403276231200,7.782231201171875,-0.002353778574615717,-0.0002652874682098627,-0.0015359303215518594
1686445403286248200,7.792248291015625,-0.0024432605132460594,-0.0018714398611336946,0.00009365798905491829
1686445403296265200,7.80226513671875,0.00009378278627991676,-0.0009174171136692166,-0.0014256666181609035
1686445403306281200,7.81228125,-0.0019166376441717148,-0.0010569667210802436,0.001228972221724689
1686445403316298200,7.82229833984375,-0.00045080017298460007,0.0024568617809563875,0.006750468630343676
1686445403326315300,7.832315185546875,0.0016762663144618273,0.006070504896342754,0.008432787843048573
1686445403336331000,7.8423310546875,0.0021445779129862785,0.00802992656826973,0.006931749638170004
1686445403346348300,7.852348388671875,0.0035485962871462107,0.007445096503943205,0.006886741612106562
1686445403356365300,7.862365234375,-0.0004625334404408932,0.008519388735294342,0.004132198169827461
1686445403366382300,7.87238232421875,0.001127107534557581,0.004795224871486425,0.0028416297864168882
1686445403376398300,7.8823984375,-0.0012187189422547817,0.005297842435538769,0.0018961600726470351
1686445403386415400,7.892415283203125,0.0017736086156219244,0.0009656779002398252,0.0017363702645525336
1686445403396432100,7.90243212890625,0.002544188406318426,-0.0025181355886161327,-0.00017878925427794456
1686445403406448000,7.9124482421875,0.0009060781449079514,-0.0042182975448668,0.0033621499314904213
1686445403416465400,7.92246533203125,0.0011921077966690063,-0.0034277657978236675,-0.0015575708821415901
1686445403426482200,7.932482177734375,-0.002148561179637909,0.00035685254260897636,0.0019050711998715997
1686445403436499500,7.94249951171875,-0.005004929844290018,-0.0010768610518425703,0.001135498401708901
1686445403446515200,7.95251513671875,0.0010249996557831764,0.004007379524409771,0.0021544238552451134
1686445403456532200,7.9625322265625,-0.000051336828619241714,0.011681519448757172,0.004010714590549469
1686445403466549200,7.97254931640625,0.0009428211487829685,0.013798199594020844,0.0025134854950010777
1686445403476565200,7.982565185546875,-0.00134268868714571,0.016424767673015594,0.0024845749139785767
1686445403486582300,7.992582275390625,-0.0011714478023350239,0.011892068199813366,-0.0036771809682250023
1686445403496599300,8.002599365234374,0.0019153954926878214,0.005418297369033098,-0.00006194959860295057
1686445403506616300,8.0126162109375,-0.0003757220692932606,-0.0004065686371177435,-0.0009152263519354165
1686445403516632300,8.02263232421875,0.0018925198819488287,-0.008825326338410378,-0.0024482125882059336
1686445403526649300,8.0326494140625,-0.0008963425643742085,-0.009326799772679806,0.0008668904192745686
1686445403536666000,8.042666015625,-0.0005379901267588139,-0.009930513799190521,-0.0019214005442336202
1686445403546682400,8.052682373046874,0.0012689647264778614,-0.004102185368537903,0.00007916602771729231
1686445403556699400,8.062699462890626,0.000723671168088913,0.0013910920824855566,0.0017120179254561663
1686445403566716200,8.072716064453125,0.002984162187203765,0.006133116781711578,0.0068908012472093105
1686445403576732200,8.082732177734375,0.0009796032682061195,0.013773299753665924,0.0033093178644776344
1686445403586749400,8.09274951171875,0.002865920076146722,0.012400707229971886,0.004643827676773071
1686445403596766200,8.10276611328125,0.0013522563967853785,0.007538227364420891,-0.0001943953102454543
1686445403606783700,8.11278369140625,0.0024689198471605778,0.002027614274993539,0.0031492034904658794
1686445403616799700,8.1227998046875,0.0011060838587582111,-0.004487330559641123,-0.0008613785612396896
1686445403626816800,8.132816650390625,-0.0017181984148919582,-0.00836515985429287,-0.0020161252468824387
1686445403636833800,8.142833740234375,0.0011006668210029602,-0.009741321206092834,-0.003520853351801634
1686445403646849500,8.152849609375,-0.0028472035191953182,-0.003693549195304513,-0.0005602171295322478
1686445403656866800,8.16286669921875,0.00011694850400090218,-0.00022842967882752419,-0.0006394669762812555
1686445403666883600,8.172883544921875,-0.0005637551657855511,0.0068105715326964855,-0.001812589354813099
1686445403676900600,8.182900634765625,-0.00039456039667129517,0.010340778157114983,0.004390172194689512
1686445403686916900,8.192916748046875,0.003080331953242421,0.010729333385825157,0.007147609256207943
1686445403696933600,8.20293359375,-0.0006013396196067333,0.011660641059279442,0.005948920268565416
1686445403706950700,8.21295068359375,0.0021342593245208263,0.007252843119204044,0.00338349724188447
1686445403716966700,8.222966552734375,0.0018762887921184301,0.0046064588241279125,0.0013780872104689479
1686445403726983700,8.232983642578125,-0.0012095160782337189,-0.0022421262692660093,-0.0013473917497321963
1686445403737000700,8.243000732421875,-0.0012949868105351925,-0.009357638657093048,-0.005635356064885855
1686445403747018000,8.25301806640625,-0.0019064485095441341,-0.012043703347444534,-0.0027434290386736393
1686445403757033700,8.26303369140625,-0.004344438202679157,-0.010497498326003551,-0.003165950533002615
1686445403767050800,8.27305078125,-0.003874923102557659,-0.0028888473752886057,-0.0019321079598739743
1686445403777067800,8.28306787109375,-0.003346008714288473,-0.002223589923232794,0.0029309839010238647
1686445403787083500,8.29308349609375,0.0005621802993118763,0.005582135170698166,0.006860478315502405
1686445403797100800,8.303100830078124,0.0016139908693730831,0.0080488882958889,0.007957885973155499
1686445403807117800,8.313117919921876,0.0012217073235660791,0.00729255098849535,0.008957103826105595
1686445403817134800,8.323134765625,0.002652345923706889,0.00031320424750447273,0.006136924494057894
1686445403827150800,8.33315087890625,-0.0008363951928913593,-0.0035547709558159113,0.004190686624497175
1686445403837167600,8.343167724609375,0.0014820101205259562,-0.005724262446165085,0.002046785317361355
1686445403847184600,8.3531845703125,-0.00046129850670695305,-0.004607332870364189,-0.000481886207126081
1686445403857201000,8.363200927734376,-0.0004771254025399685,-0.000144273042678833,-0.0017495802603662014
1686445403867217700,8.3732177734375,-0.0003825831227004528,0.0029569778125733137,-0.002667305525392294
1686445403877234700,8.383234619140625,0.0003019687719643116,0.00625825859606266,0.0027508812490850687
1686445403887250700,8.393250732421874,0.002672182396054268,0.009916642680764198,0.005602328106760979
1686445403897267700,8.403267822265626,0.00006341328844428062,0.007263309322297573,0.005040148738771677
1686445403907284700,8.41328466796875,-0.0010106395930051804,0.008705943822860718,0.004569568205624819
1686445403917301800,8.4233017578125,-0.0034690010361373425,0.002039864892140031,0.00006632809527218342
1686445403927317800,8.43331787109375,-0.001401588786393404,0.0030172450933605433,-0.00243730959482491
1686445403937334800,8.443334716796874,-0.000007945112884044647,-0.0005784220993518829,-0.0038515273481607437
1686445403947351800,8.453351806640624,-0.00022259633988142014,0.0010996356140822172,-0.00032896408811211586
1686445403957367600,8.463367431640625,-0.0005172188393771648,0.002240213565528393,-0.0022956766188144684
1686445403967384800,8.473384765625,0.0019970713183283806,0.002888959366828203,0.0016732324147596955
1686445403977401900,8.48340185546875,0.0021556024439632893,0.004924652632325888,0.0014810748398303986
1686445403987418600,8.493418701171874,0.0019124557729810476,0.001124588306993246,-0.000606044486630708
1686445403997435000,8.503434814453126,0.0020960744004696608,0.0015360210090875626,0.00020325183868408203
1686445404007451600,8.51345166015625,0.0026761109475046396,-0.0000693323090672493,0.0019617369398474693
1686445404017468700,8.52346875,0.0007644775323569775,-0.0007973870960995555,0.0035974718630313873
1686445404027484700,8.533484619140625,0.002780756913125515,0.001429548254236579,0.0017772013088688254
1686445404037501700,8.543501708984374,-0.0009875036776065826,0.010940734297037125,-0.0059629930183291435
1686445404047518700,8.553518798828126,-0.0021675503812730312,0.01043100468814373,-0.006777919828891754
1686445404057535700,8.56353564453125,0.0000019827857613563538,0.010373242199420929,-0.0044279638677835464
1686445404067551700,8.5735517578125,0.00004113093018531799,0.007361206691712141,-0.003722758963704109
1686445404077568800,8.58356884765625,0.00010671047493815422,0.0018450003117322922,0.0020069265738129616
1686445404087585800,8.593585693359374,-0.0013596261851489544,-0.004461364820599556,0.0031283837743103504
1686445404097601500,8.6036015625,-0.0006703650578856468,-0.003969158511608839,0.0035892371088266373
1686445404107618800,8.613618896484375,0.00134937628172338,-0.00336488732136786,0.0013082396471872926
1686445404117635800,8.6236357421875,-0.0006746985018253326,-0.0052420697174966335,0.0027489089407026768
1686445404127651600,8.633651611328125,-0.00002621905878186226,-0.0025797076523303986,0.0011824375251308084
1686445404137668900,8.6436689453125,-0.00010751839727163315,0.0025609633885324,-0.0007558993529528379
1686445404147686000,8.653685791015626,0.0026347385719418526,0.00859595276415348,0.003240706631913781
1686445404157702700,8.66370263671875,0.003379884408786893,0.008686129003763199,0.0075240363366901875
1686445404167718700,8.67371875,0.00030153663828969,0.009332744404673576,0.005828934255987406
1686445404177735700,8.683735595703125,0.002894792938604951,0.007043677847832441,0.0043222191743552685
1686445404187752700,8.693752685546874,-0.0022863871417939663,0.00580530846491456,0.0027674660086631775
1686445404197768700,8.703768798828126,0.00024146493524312973,0.005248653702437878,0.0005700185429304838
1686445404207785700,8.71378564453125,0.0005788872949779034,0.0015471263322979212,-0.002859067637473345
1686445404217802800,8.723802734375,-0.0022365651093423367,-0.0006286757998168468,-0.0030013886280357838
1686445404227819800,8.73381982421875,0.0001059514470398426,-0.007174459286034107,-0.0022192182950675488
1686445404237835500,8.74383544921875,0.000028736889362335205,-0.006126558408141136,0.001464178436435759
1686445404247852800,8.753852783203126,-0.00017579412087798119,-0.004197098780423403,-0.0006676819175481796
1686445404257869800,8.763869873046875,0.0018205156084150076,0.005106921307742596,0.005244003143161535
1686445404267885600,8.773885498046875,-0.002124690916389227,0.012141128070652485,0.0038351910188794136
1686445404277902800,8.78390283203125,0.002195106353610754,0.017124352976679802,0.0041813976131379604
1686445404287919900,8.793919921875,0.002269674791023135,0.014756271615624428,0.002630106173455715
1686445404297936600,8.8039365234375,-0.0001472625881433487,0.00987057015299797,0.001077669090591371
1686445404307952600,8.81395263671875,-0.0007597897201776505,0.005997801199555397,-0.004077678080648184
1686445404317970000,8.823969970703125,0.0013095384929329157,-0.0014323112554848194,-0.002392014255747199
1686445404327986700,8.833986572265625,0.0006554662249982357,-0.0011612013913691044,-0.004372340627014637
1686445404338002700,8.844002685546876,-0.0016980143263936043,-0.005355547182261944,-0.0029220622964203358
1686445404348019700,8.854019775390626,0.00046393973752856255,-0.0035461958032101393,-0.0019747759215533733
1686445404358036700,8.86403662109375,-0.0028754733502864838,-0.0046971868723630905,-0.002811771584674716
1686445404368053800,8.8740537109375,-0.0022917077876627445,-0.0016332201194018126,-0.001267404411919415
1686445404378069800,8.88406982421875,-0.00009245472028851509,0.004696580581367016,0.004287044517695904
1686445404388086800,8.894086669921874,0.00008837366476655006,0.011837313883006573,0.001779412035830319
1686445404398103800,8.904103759765626,0.003136575222015381,0.012873124331235886,-0.0009118293528445065
1686445404408119600,8.91411962890625,0.0007290774956345558,0.008653612807393074,-0.0014125036541372538
1686445404418136800,8.92413671875,-0.00007369043305516243,0.002724455436691642,0.0019035510485991836
1686445404428153900,8.93415380859375,0.000004873145371675491,0.0015305604320019484,-0.003362051211297512
1686445404438170600,8.944170654296874,-0.0018462436273694038,-0.0040047382935881615,-0.0027008401229977608
1686445404448186600,8.9541865234375,-0.0004949555732309818,-0.005409555975347757,-0.0007516724872402847
1686445404458204000,8.964203857421875,0.0001829913817346096,-0.00215938244946301,-0.000018162187188863754
1686445404468220700,8.974220703125,-0.0005933204665780067,-0.0030211813282221556,0.0009530927054584026
1686445404478236700,8.984236572265624,-0.002276467625051737,-0.0015138047747313976,-0.0005647105863317847
1686445404488254000,8.99425390625,-0.004505799617618322,0.003325425088405609,-0.00033914088271558285
1686445404498270700,9.004270751953126,0.0010594152845442295,0.0059911166317760944,0.0031171878799796104
1686445404508286700,9.01428662109375,0.00006738770753145218,0.005065934732556343,0.005623222794383764
1686445404518303700,9.0243037109375,-0.0006945445202291012,0.005448124837130308,0.001757522113621235
1686445404528320800,9.03432080078125,0.005083449650555849,0.0018637762404978275,0.0022792352829128504
1686445404538337800,9.044337890625,-0.00005726190283894539,-0.005089763551950455,-0.003456133883446455
1686445404548353800,9.054353759765625,0.0008660559542477131,-0.009407812729477882,-0.005115815903991461
1686445404558370800,9.064370849609375,-0.0015486422926187515,-0.00902535580098629,-0.00017817155458033085
1686445404568387800,9.074387939453125,-0.0013944455422461033,-0.004762967117130756,-0.004951887764036655
1686445404578403600,9.084403564453124,-0.0012435787357389927,-0.00005636317655444145,-0.0031671435572206974
1686445404588420600,9.094420654296876,-0.005373608320951462,0.0020201036240905523,-0.004321091342717409
1686445404598438000,9.10443798828125,-0.0006797262467443943,0.003935369662940502,-0.005117594264447689
1686445404608454400,9.114454345703125,-0.00005308445543050766,0.004783852491527796,-0.000870917399879545
1686445404618470400,9.124470458984375,0.0012640252243727446,0.003065661061555147,0.0049856980331242085
1686445404628487400,9.1344873046875,0.0004424401558935642,0.00605985289439559,0.004576636478304863
1686445404638504200,9.144504150390626,0.00016437238082289696,0.00440248753875494,0.004793412983417511
1686445404648520400,9.1545205078125,-0.0015523014590144157,0.0007403744384646416,-0.0011888458393514156
1686445404658537500,9.164537353515625,-0.0034118806943297386,-0.0040691872127354145,-0.004889531992375851
1686445404668554200,9.17455419921875,0.00017992500215768814,-0.006493995897471905,-0.006402207538485527
1686445404678571500,9.184571533203124,-0.0000029387883841991425,-0.0022612481843680143,-0.006755717098712921
1686445404688587500,9.19458740234375,-0.0018429169431328773,-0.00026707316283136606,-0.0069448016583919525
1686445404698604300,9.204604248046875,0.000048749614506959915,0.0027064005844295025,-0.004068409092724323
1686445404708621300,9.214621337890625,-0.003160892054438591,0.004445444326847792,-0.004492384381592274
1686445404718637600,9.224637451171875,-0.0016765366308391094,0.0043732463382184505,-0.0009023209568113089
1686445404728654300,9.234654296875,-0.0008991602808237076,0.002875218167901039,0.003048744983971119
1686445404738671400,9.24467138671875,-0.0014890939928591251,-0.0006343759596347809,-0.0027607313822954893
1686445404748687400,9.254687255859375,-0.00023900624364614487,0.0007294288370758295,0.0003112249542027712
1686445404758704400,9.264704345703125,-0.0033414321951568127,0.0023912154138088226,-0.0011775759048759937
1686445404768721400,9.274721435546875,-0.0000926414504647255,-0.003127919277176261,-0.0006247037090361118
1686445404778738200,9.28473828125,0.0021541379392147064,-0.008280763402581215,-0.003530009649693966
1686445404788754400,9.29475439453125,-0.0028435499407351017,-0.009216864593327045,-0.003611236112192273
1686445404798771500,9.304771484375,0.000133441761136055,-0.002480398630723357,-0.00388106657192111
1686445404808788200,9.314788330078125,-0.0007472657598555088,0.0018533631227910519,-0.0013481341302394867
1686445404818804200,9.32480419921875,-0.0014696740545332432,0.0034644431434571743,-0.0013635014183819294
1686445404828821500,9.334821533203124,-0.0008254554122686386,0.0010433632414788008,0.0009593076538294554
1686445404838838300,9.34483837890625,-0.0024262252263724804,-0.003007304621860385,0.0005595672409981489
1686445404848855300,9.354855224609375,-0.0009534973651170731,-0.004872849211096764,-0.0022090550046414137
1686445404858871600,9.36487158203125,-0.0024704807437956333,-0.002648658584803343,-0.00028423278126865625
1686445404868888300,9.374888427734374,-0.0013724593445658684,0.000709054758772254,-0.0037071937695145607
1686445404878905300,9.3849052734375,-0.000016505829989910126,0.003232455113902688,-0.0024227844551205635
1686445404888921300,9.39492138671875,0.001003751065582037,0.0020992800127714872,-0.0034073551651090384
1686445404898938400,9.4049384765625,0.0032260373700410128,-0.002414511749520898,-0.00393679179251194
1686445404908955400,9.414955322265625,0.0027751640882343054,0.0003266800194978714,-0.0020518063101917505
1686445404918972200,9.42497216796875,0.0019074049778282642,0.00008489168249070644,-0.002430363791063428
1686445404928988400,9.434988525390626,0.0007646423764526844,-0.002704503247514367,-0.0035952304024249315
1686445404939005400,9.44500537109375,-0.0013890820555388927,-0.006028341595083475,-0.003478935919702053
1686445404949022200,9.455022216796875,0.0013228149618953466,-0.010110435076057911,-0.0033436473459005356
1686445404959038200,9.4650380859375,-0.002430531196296215,-0.00923076644539833,-0.001516467658802867
1686445404969055500,9.475055419921874,-0.004644949920475483,-0.005679973401129246,-0.000936164811719209
1686445404979072300,9.485072265625,-0.004034277983009815,0.002663230523467064,-0.0019830316305160522
1686445404989089300,9.49508935546875,-0.006040969863533974,0.003770573064684868,-0.002595825120806694
1686445404999105500,9.50510546875,-0.002629281487315893,0.0032929086592048407,-0.0037061618641018867
1686445405009122300,9.515122314453125,-0.0016340580768883228,0.0015394834335893393,0.0017594435485079885
1686445405019139300,9.525139404296874,-0.0006498806178569794,-0.0010186159051954746,0.0033499631099402905
1686445405029155300,9.5351552734375,0.0016771894879639149,-0.006601933389902115,0.005893281660974026
1686445405039172400,9.54517236328125,0.0028048630338162184,-0.007759849075227976,-0.0008445303537882864
1686445405049189400,9.555189453125,0.0052957176230847836,-0.00593398604542017,0.000870811752974987
1686445405059206400,9.565206298828125,0.003284899052232504,-0.003315592184662819,-0.002843110356479883
1686445405069222400,9.575222412109374,0.0034177908673882484,-0.004082050174474716,-0.0007224352448247373
1686445405079239400,9.585239501953126,0.0039254967123270035,-0.0010881541529670358,-0.000248315860517323
1686445405089256200,9.595256103515625,-0.0013020220212638378,0.0020796761382371187,-0.0026084091514348984
1686445405099272200,9.605272216796875,-0.0007118489593267441,0.0036197309382259846,0.001747323665767908
1686445405109289500,9.61528955078125,-0.00049187196418643,0.0004905166570097208,-0.0017376887844875455
1686445405119306200,9.62530615234375,0.000637437216937542,0.003476798767223954,0.0007663812721148133
1686445405129323500,9.635323486328126,-0.002015337347984314,0.0015595890581607819,0.000723770703189075
1686445405139339500,9.645339599609375,-0.0008075754158198833,0.002496650442481041,-0.0022652477491647005
1686445405149356300,9.655356201171875,0.0008718138560652733,-0.0018221980426460505,-0.00386394327506423
1686445405159373300,9.665373291015625,-0.0008777487091720104,-0.0023889453150331974,-0.0009865418542176485
1686445405169389600,9.6753896484375,0.0031833054963499308,0.002470524748787284,0.0030915564857423306
1686445405179406300,9.68540625,-0.0014197253622114658,0.004892081953585148,-0.0006513193366117775
1686445405189423400,9.69542333984375,0.000173110980540514,0.009079103358089924,0.003019582014530897
1686445405199439400,9.705439453125,0.0016898280009627342,0.008047660812735558,-0.004026772920042276
1686445405209456400,9.715456298828125,-0.002984019462019205,0.008227957412600517,-0.003604395780712366
1686445405219473400,9.725473388671874,-0.0027100159786641598,0.00597284734249115,-0.004846685100346804
1686445405229490200,9.735490234375,-0.0016151904128491879,0.006911079399287701,-0.007522096857428551
1686445405239506400,9.74550634765625,-0.00030076736584305763,0.0018745888955891132,-0.0049862852320075035
1686445405249523500,9.7555234375,0.0023456159979104996,-0.0001488807611167431,-0.004722632002085447
1686445405259540200,9.765540283203125,-0.004405909217894077,0.0043524205684661865,-0.008080893196165562
1686445405269556200,9.77555615234375,-0.0009147715754806995,-0.001640490721911192,-0.0039034588262438774
1686445405279573500,9.785573486328126,0.0004977760836482048,-0.004681447520852089,-0.002133320551365614
1686445405289590300,9.79559033203125,-0.00007107527926564217,-0.001850507571361959,0.001225458225235343
1686445405299607300,9.805607177734375,0.001896042376756668,-0.0023106769658625126,0.0012258208589628339
1686445405309623600,9.81562353515625,-0.000021966174244880676,-0.0055141933262348175,0.004728410392999649
1686445405319640300,9.825640380859374,0.00029496289789676666,-0.0007356819696724415,0.0034819405991584063
1686445405329657300,9.8356572265625,0.001961036119610071,0.0015373260248452425,0.0004318223800510168
1686445405339673300,9.84567333984375,-0.0014107665047049522,0.0021639142651110888,4.203757271170616e-7
1686445405349690400,9.8556904296875,0.0016513362061232328,0.0027956159319728613,-0.0012427432229742408
1686445405359707400,9.865707275390625,-0.0023522223345935345,0.0037081213667988777,-0.0024438370019197464
1686445405369724200,9.87572412109375,0.00024009868502616882,0.003051119390875101,-0.0027005658484995365
1686445405379740400,9.885740478515626,-0.003751578275114298,0.004327812232077122,-0.002615222241729498
1686445405389757400,9.89575732421875,-0.00021782983094453812,0.0013453385327011347,-0.0050919619388878345
1686445405399774200,9.905774169921875,0.0003381315618753433,0.001123150810599327,-0.0003186262911185622
1686445405409790200,9.915790283203124,-0.002213443163782358,0.0026683167088776827,-0.0033378521911799908
1686445405419807500,9.925807373046876,0.0009652995504438877,0.0044538602232933044,0.0020061107352375984
1686445405429824300,9.93582421875,0.00010403338819742203,0.004225094802677631,0.00032219383865594864
1686445405439841300,9.94584130859375,-0.00006215227767825127,0.004249702673405409,0.0026074950583279133
1686445405449857500,9.955857421875,-0.0005891919136047363,0.004218543414026499,0.006241644732654095
1686445405459874300,9.965874267578124,0.002066910732537508,0.005399948451668024,-0.0021727352868765593
1686445405469891300,9.975891357421874,0.001373689854517579,0.001017716946080327,0.002119215205311775
1686445405479907300,9.9859072265625,-0.0005079652182757854,-0.00053067144472152,-0.0010964295361191034
1686445405489924400,9.99592431640625,0.0017985985614359379,-0.0019631858449429274,-0.00294812535867095
1686445405499941400,10.00594140625,0.0023529406171292067,-0.0026442892849445343,-0.0023701395839452744
1686445405509958100,10.015958251953125,-0.00027453433722257614,-0.002200074028223753,-0.005876990035176277
1686445405519974400,10.025974365234376,-0.0007832539267838001,-0.0038605080917477608,-0.005080242175608873
1686445405529991400,10.035991455078126,-0.0017675580456852913,-0.002164606936275959,-0.006755636539310217
1686445405540008200,10.04600830078125,-0.0029126680456101894,0.0014837700873613358,-0.004303264431655407
1686445405550024200,10.056024169921875,0.00008551869541406631,0.0007684449665248394,-0.004950944799929857
1686445405560041500,10.06604150390625,-0.0015660650096833706,0.001931419363245368,-0.0016059402842074633
1686445405570058200,10.076058349609376,0.0003508785739541054,0.0023460735101252794,-0.0038435282185673714
1686445405580074200,10.08607421875,-0.002875105943530798,0.0012576673179864883,-0.0057401456870138645
1686445405590091500,10.096091552734375,-0.0005128826014697552,0.004522436298429966,-0.0026367641985416412
1686445405600108300,10.1061083984375,0.000013999175280332565,0.00025714444927871227,0.0003972012782469392
1686445405610125300,10.116125244140624,-0.003249438013881445,-0.0012038657441735268,0.0007732396479696035
1686445405620141300,10.126141357421876,0.002226852811872959,-0.003273274749517441,-0.003568540792912245
1686445405630158300,10.136158447265625,-0.003868590574711561,-0.001339287031441927,-0.0016803595935925841
1686445405640175400,10.14617529296875,-0.002103735227137804,0.0074171326123178005,-0.005363848991692066
1686445405650191400,10.15619140625,0.000020668376237154007,0.008719950914382935,-0.003426399314776063
1686445405660208400,10.16620849609375,-0.0007113916799426079,0.005802244879305363,-0.0008319822372868657
1686445405670225400,10.176225341796876,0.0008652000688016415,-0.002571798861026764,0.00038188660982996225
1686445405680242200,10.1862421875,-0.00011756597086787224,-0.004368179943412542,0.0061245085671544075
1686445405690258200,10.196258056640625,0.001268076477572322,-0.006617751903831959,-0.00014297477900981903
1686445405700275500,10.206275390625,-0.0007859193719923496,-0.004663232713937759,-0.000802386668510735
1686445405710292200,10.216292236328124,-0.0009305290877819061,-0.003411813173443079,-0.006778520531952381
1686445405720308200,10.22630810546875,-0.0012564756907522678,-0.0006481169257313013,-0.007776702754199505
1686445405730325500,10.236325439453125,-0.0027638250030577183,-0.004374678246676922,-0.007745809853076935
1686445405740342300,10.24634228515625,0.0012119035236537457,-0.0035750640090554953,-0.004303753841668367
1686445405750359300,10.256359375,-0.0010264832526445389,-0.00017873477190732956,-0.0022800175938755274
1686445405760375300,10.266375244140624,-0.00013047968968749046,-0.00015865429304540157,0.0020645989570766687
1686445405770392300,10.276392333984376,0.00031480100005865097,0.00039927801117300987,0.005905676167458296
1686445405780409300,10.286409423828125,0.00018524937331676483,-0.0027210416737943888,0.004326996859163046
1686445405790425300,10.29642529296875,0.0010406565852463245,-0.0032432875595986843,-0.0004744159523397684
1686445405800442400,10.3064423828125,-0.0024639791809022427,-0.003254472743719816,-0.00626972084864974
1686445405810459400,10.31645947265625,-0.0004349164664745331,-0.0006991697009652853,-0.006882514338940382
1686445405820476400,10.326476318359376,0.002360880607739091,-0.0012376075610518456,-0.0034025399945676327
1686445405830492200,10.3364921875,-0.0034251026809215546,0.0016508568078279495,-0.004427856765687466
1686445405840509400,10.346509521484375,0.0008925092406570911,0.005262502934783697,-0.003352659521624446
1686445405850526200,10.356526123046875,-0.0036452505737543106,0.0077549549750983715,-0.001586184836924076
1686445405860542200,10.366542236328126,-0.001829718705266714,0.007189538795500994,-0.002613668330013752
1686445405870559500,10.3765595703125,0.0002241111360490322,0.004816928878426552,0.002202924806624651
1686445405880576300,10.386576171875,0.00127297337166965,0.00041650724597275257,0.0010291574290022254
1686445405890593300,10.39659326171875,-0.0015808702446520329,-0.0057923863641917706,0.00022408377844840288
1686445405900609300,10.406609375,0.0001697121188044548,-0.006628751754760742,0.00007539894431829453
1686445405910626300,10.416626220703124,-0.00032563600689172745,-0.006421024911105633,-0.0024359619710594416
1686445405920643300,10.426643310546876,-0.0009193029254674911,-0.004631806164979935,0.0013887531822547317
1686445405930659300,10.436659423828125,0.00019070273265242577,-0.004264024086296558,-0.0002016866346821189
1686445405940676400,10.44667626953125,0.0003090398386120796,0.00007242709398269653,0.0033293855376541615
1686445405950693400,10.456693359375,-0.00045821676030755043,0.005760139785706997,0.005342202726751566
1686445405960710400,10.46671044921875,0.0023560342378914356,0.009514079429209232,0.005892546847462654
1686445405970726100,10.47672607421875,0.0014074163045734167,0.012176708318293095,0.006027835421264172
1686445405980743400,10.486743408203125,0.003228843677788973,0.00786140188574791,0.0007026368984952569
1686445405990760400,10.496760498046875,0.001735609257593751,-0.002363805193454027,-0.0011778210755437613
1686445406000776200,10.506776123046874,-0.0014328770339488983,-0.009620040655136108,-0.004433902911841869
1686445406010793500,10.51679345703125,-0.0010933238081634045,-0.013084812089800835,-0.006729814223945141
1686445406020810200,10.526810302734376,-0.002751047257333994,-0.010362849570810795,-0.0046717445366084576
1686445406030827300,10.5368271484375,-0.001857556402683258,-0.007014190778136253,0.00032700865995138884
1686445406040843500,10.546843505859375,-0.004968272056430578,0.003172453958541155,0.0028463806957006454
1686445406050860300,10.5568603515625,-0.0053238035179674625,0.006610595155507326,0.0023004324175417423
1686445406060877300,10.566877197265624,-0.0041849142871797085,0.005990317557007074,0.0025794957764446735
1686445406070893300,10.576893310546875,-0.0023976662196218967,0.005982594098895788,0.0029009394347667694
1686445406080910300,10.586910400390625,-0.0021694283932447433,0.003660478163510561,0.0061965580098330975
1686445406090927400,10.59692724609375,0.0015065327752381563,0.0007922537624835968,0.007106293924152851
1686445406100944400,10.6069443359375,0.0006218305788934231,-0.0042467135936021805,0.0030817249789834023
1686445406110960400,10.61696044921875,0.00443707499653101,-0.009195132181048393,0.002569865435361862
1686445406120977400,10.626977294921875,0.004244531039148569,-0.007238295860588551,-0.00037694419734179974
1686445406130994400,10.636994384765625,0.003577142721042037,-0.007564798928797245,-0.0015103855403140187
1686445406141010200,10.64701025390625,0.006444679573178291,-0.001802598824724555,0.004059135913848877
1686445406151027500,10.65702734375,0.0022872185800224543,-0.001784222899004817,0.005323071964085102
1686445406161044500,10.66704443359375,0.0007838699966669083,0.0008061279077082872,0.0037701386027038097
1686445406171060200,10.677060302734375,-0.00009284308180212975,0.004965719301253557,0.0022617243230342865
1686445406181077500,10.687077392578125,0.0000716308131814003,0.004397428594529629,0.002435289788991213
1686445406191094300,10.69709423828125,0.0015355702489614487,0.002738811308518052,0.0028006751090288162
1686445406201111300,10.707111328125,-0.0017139040865004063,-0.0014739101752638817,-0.0015351884067058563
1686445406211127300,10.717127197265626,0.0005998504348099232,-0.0010400813771411777,0.002234515966847539
1686445406221144300,10.727144287109375,-0.00006459327414631844,-0.002343219006434083,-0.0015731353778392076
1686445406231161300,10.737161376953125,0.0018126689828932285,0.0008171543013304472,0.0030008438043296337
1686445406241177300,10.74717724609375,-0.000569535419344902,0.005683974362909794,0.002070134039968252
1686445406251194400,10.7571943359375,0.00009279279038310051,0.007639533840119839,0.0026562954299151897
1686445406261211400,10.76721142578125,0.002018524566665292,0.011327745392918587,0.002071731723845005
1686445406271228400,10.777228515625,-0.000007874798029661179,0.00905740074813366,-0.0010929026175290346
1686445406281244200,10.787244140625,0.0006267586722970009,0.009366273880004883,0.0007577063515782356
1686445406291261400,10.797261474609375,0.000023020431399345398,0.009355887770652771,-0.0038985644932836294
1686445406301278500,10.807278564453124,0.0003780173137784004,0.005577980540692806,-0.005040772724896669
1686445406311294200,10.817294189453126,-0.0005897753871977329,0.0053886305540800095,-0.005324931815266609
1686445406321311500,10.8273115234375,0.0008735149167478085,0.0016060089692473412,-0.005288473796099424
1686445406331328500,10.83732861328125,-0.00039841094985604286,-0.0031767620239406824,-0.0032596776727586985
1686445406341345300,10.84734521484375,-0.0027810106985270977,-0.0016847790684551,-0.0013249925104901195
1686445406351361300,10.857361328125,0.0020853830501437187,-0.0010506805265322328,-0.00039182091131806374
1686445406361378300,10.86737841796875,0.0014725811779499054,-0.0026118785608559847,0.0021380011457949877
1686445406371395300,10.877395263671875,0.0032454472966492176,-0.003483797423541546,0.006237404886633158
1686445406381411300,10.887411376953125,0.003382453229278326,-0.003651017788797617,0.004530305042862892
1686445406391428400,10.897428466796875,0.000783474650233984,-0.0022760278079658747,0.0041318959556519985
1686445406401445400,10.9074453125,-0.00011677434667944908,0.0009562764316797256,-0.0011554546654224396
1686445406411462400,10.91746240234375,0.002115753712132573,0.0034197005443274975,0.0006373852957040071
1686445406421478100,10.92747802734375,0.0001053069718182087,0.006240362301468849,-0.00039273593574762344
1686445406431495400,10.937495361328125,0.0026153360959142447,0.00579454842954874,-0.00022282626014202833
1686445406441512400,10.947512451171875,-0.000145025085657835,0.0058458419516682625,0.001877831993624568
1686445406451528200,10.957528076171876,0.00029839109629392624,0.00270144734531641,0.0032509576994925737
1686445406461545500,10.96754541015625,0.00034180283546447754,0.001608432736247778,0.006914646364748478
1686445406471562500,10.9775625,-0.0005181320011615753,-0.0003886716440320015,0.007281097583472729
1686445406481579300,10.987579345703125,-0.0016920738853514194,0.0015902153681963682,0.0029224762693047523
1686445406491595300,10.99759521484375,-0.00365189416334033,0.002768131671473384,0.0028588268905878067
1686445406501612500,11.007612548828124,-0.00003157230094075203,0.008960355073213577,-0.0005366115365177393
1686445406511629300,11.01762939453125,0.0003710975870490074,0.007067646831274033,0.002720434218645096
1686445406521645300,11.027645263671875,0.0001982562243938446,0.00688447430729866,0.0008850053418427706
1686445406531662600,11.03766259765625,0.0018691234290599823,0.0066586388275027275,0.003401426365599036
1686445406541679400,11.047679443359375,-0.00008776504546403885,0.0033807663712650537,0.0010378493461757898
1686445406551696400,11.0576962890625,0.0028739364352077246,-0.00048001809045672417,0.00045887811575084925
1686445406561712400,11.06771240234375,0.0005625663325190544,-0.0041384026408195496,0.0012145254295319319
1686445406571729400,11.0777294921875,0.004468091763556004,-0.007238056510686874,0.002483787713572383
1686445406581746400,11.087746337890625,0.0032065652776509523,-0.008933690376579762,-0.0018767141737043858
1686445406591762400,11.097762451171874,-0.0006105434149503708,-0.004626826383173466,0.000591503456234932
1686445406601779700,11.10777978515625,0.0024452947545796633,0.00032438943162560463,0.0006803738651797175
1686445406611796700,11.117796630859376,0.0019155920017510653,0.00261364271864295,-0.0008280404726974666
1686445406621813800,11.127813720703125,0.0008470043540000916,0.001064082607626915,-0.0008985351305454969
1686445406631829800,11.137829833984375,-0.0007375762797892094,0.0024630411062389612,-0.00024446274619549513
1686445406641846800,11.1478466796875,-0.0021033799275755882,0.004960846155881882,0.0013847368536517024
1686445406651863800,11.15786376953125,0.0007826876826584339,0.003806366352364421,0.0009511742973700166
1686445406661879800,11.1678798828125,-0.0027728634886443615,0.001904734643176198,0.0013999472139403224
1686445406671896600,11.177896484375,0.0006423741579055786,0.004530345089733601,0.00022655853535979986
1686445406681913900,11.187913818359375,-0.0024927989579737186,0.006664949469268322,0.001767411595210433
1686445406691931000,11.197930908203125,-0.0016544358804821968,0.007134465500712395,-0.001981520326808095
1686445406701946600,11.207946533203126,-0.0005853176116943359,0.00451228953897953,0.002330686431378126
1686445406711964000,11.2179638671875,0.0022932933643460274,0.004639055579900742,0.004358150530606508
1686445406721981000,11.22798095703125,-0.0005179662257432938,0.004565047100186348,0.004657316021621227
1686445406731996700,11.23799658203125,-0.00148842204362154,0.004554394166916609,0.007086385041475296
1686445406742013700,11.248013671875,-0.00021024513989686966,0.0066796233877539635,0.004455326125025749
1686445406752031000,11.258031005859374,0.0006528850644826889,0.004756288602948189,0.009523055516183376
1686445406762047700,11.2680478515625,0.004044953268021345,0.002363118575885892,0.004350161179900169
1686445406772063700,11.278063720703125,0.0011788595002144575,0.00037533510476350784,-0.0006435319664888084
1686445406782080800,11.288080810546875,0.00089614512398839,-0.00228076777420938,-0.004883098416030407
1686445406792097800,11.298097900390625,0.00007109763100743294,-0.004016616381704807,-0.0036995895206928253
1686445406802113800,11.30811376953125,0.004386726766824722,-0.005922853946685791,0.00029448186978697777
1686445406812130800,11.318130859375,0.0009584394283592701,-0.005392884835600853,-0.0037045208737254143
1686445406822147800,11.32814794921875,0.0023250000085681677,-0.0026529449969530106,-0.0036020895931869745
1686445406832164900,11.338164794921875,-0.00159437395632267,-0.000547982519492507,-0.007821601815521717
1686445406842180600,11.3481806640625,0.0013518647756427526,0.0007820539176464081,-0.0007595181232318282
1686445406852198000,11.358197998046874,-0.0011626919731497765,0.004381049424409866,-0.0009230361902154982
1686445406862215000,11.36821484375,0.00040067033842206,0.005643332377076149,0.003017410635948181
1686445406872230700,11.378230712890625,0.0009431564249098301,0.0070414915680885315,0.0034597618505358696
1686445406882247700,11.38824755859375,-0.0014860262162983418,0.003631768049672246,0.0006906031630933285
1686445406892265000,11.398264892578124,0.0002535507082939148,0.00797831267118454,0.000052776187658309937
1686445406902281700,11.40828173828125,0.0032250212971121073,0.0067134457640349865,0.0021767765283584595
1686445406912297700,11.418297607421875,0.0013458947651088238,0.004672132898122072,0.001459587481804192
1686445406922315000,11.42831494140625,0.003384026698768139,-0.0013519105268642306,0.0039216638542711735
1686445406932331800,11.438331787109375,-0.0015201843343675137,-0.005803384352475405,0.005487602669745684
1686445406942347800,11.44834765625,-0.0003233575262129307,-0.008433575741946697,0.0008095807861536741
1686445406952364800,11.45836474609375,-0.00036676693707704544,-0.007170704659074545,-0.001615227316506207
1686445406962381800,11.4683818359375,-0.0009567039087414742,-0.002112589543685317,-0.00395708903670311
1686445406972398800,11.47839892578125,0.00022733770310878754,0.002849145792424679,-0.0021903477609157562
1686445406982414800,11.488414794921875,0.0002459161914885044,0.006777574773877859,-0.0029976600781083107
1686445406992431900,11.498431884765624,-0.000490980688482523,0.0037663388065993786,0.0018772560870274901
1686445407002449000,11.508448974609376,-0.0017304224893450737,0.0038321190513670444,0.0016293158987537026
1686445407012464600,11.518464599609375,-0.0023381556384265423,0.0013868045061826706,-0.0024916594848036766
1686445407022481700,11.528481689453125,-0.0002791830338537693,-0.0005598868010565639,-0.0010082710068672895
1686445407032499000,11.5384990234375,-0.001763895619660616,-0.005328010302037001,-0.0012066764757037163
1686445407042514700,11.5485146484375,0.003789854235947132,-0.006522864103317261,0.00014736782759428024
1686445407052531700,11.55853173828125,0.0002760794013738632,-0.0046242959797382355,-0.0016063237562775612
1686445407062549000,11.568549072265625,0.0015217636246234179,-0.0023603164590895176,-0.0007220104453153908
1686445407072565800,11.578565673828125,0.0008272114209830761,0.002199281705543399,-0.0013308090856298804
1686445407082581800,11.588581787109375,-0.0006221719086170197,0.004560519475489855,0.0005328783299773932
1686445407092598800,11.598598876953124,0.0006441609002649784,0.005891833920031786,0.002000013832002878
1686445407102615800,11.60861572265625,-0.003995752427726984,0.006131172180175781,0.002137799747288227
1686445407112632800,11.6186328125,-0.005004823673516512,0.0025726568419486284,0.004332244396209717
1686445407122648800,11.62864892578125,-0.0016802595928311348,0.0013849132228642702,-0.0009113757405430079
1686445407132665900,11.638665771484375,-0.0051530213095247746,0.003482419066131115,0.00297950254753232
1686445407142683000,11.648682861328124,-0.0008330917917191982,0.0009200854692608118,0.007929103448987007
1686445407152699000,11.658698974609376,-0.003772422671318054,0.0011853363830596209,0.004767664708197117
1686445407162715600,11.668715576171875,-0.002921400126069784,0.0008868214208632708,0.010704155080020428
1686445407172733000,11.67873291015625,0.002603327389806509,-0.005829137749969959,0.013812330551445484
1686445407182749700,11.688749755859375,0.0012385768350213766,-0.008324438706040382,0.009202137589454651
1686445407192765700,11.698765625,0.002477479400113225,-0.0069838035851716995,0.007017812225967646
1686445407202783000,11.708782958984376,0.004469620063900948,0.002479606308043003,0.0050288839265704155
1686445407212799700,11.7187998046875,0.0012107098009437323,0.004212525207549334,0.005768178030848503
1686445407222815700,11.728815673828125,0.0025966211687773466,0.0016473149880766869,0.0044189984910190105
1686445407232832800,11.738832763671875,0.0007334738038480282,-0.002047288464382291,0.0025388067588210106
1686445407242849800,11.748849853515624,0.0017264194320887327,-0.00576104037463665,-0.005323657300323248
1686445407252865800,11.75886572265625,-0.0012616473250091076,-0.013155839405953884,-0.0027332003228366375
1686445407262882800,11.7688828125,-0.0005132798105478287,-0.012002849951386452,0.0014725568471476436
