"Time (s)","Gyroscope x (rad/s)","Gyroscope y (rad/s)","Gyroscope z (rad/s)"
5.779403200E-2,-2.311156273E0,-8.500559330E-1,8.173000216E-1
6.031934500E-2,-2.154567003E0,-5.146406889E-1,8.577789068E-1
6.287319900E-2,-2.143914700E0,-5.093145370E-1,8.758878708E-1
6.542705300E-2,-2.111957550E0,-4.517919421E-1,9.014534354E-1
6.798090700E-2,-2.075739622E0,-3.932041526E-1,9.334104657E-1
7.050648000E-2,-2.035260916E0,-3.537905216E-1,9.643021822E-1
7.305554300E-2,-1.996912479E0,-3.228987455E-1,9.909330010E-1
7.558085500E-2,-1.956433654E0,-3.005288541E-1,1.020626426E0
7.808148000E-2,-1.909563303E0,-2.824199200E-1,1.042996287E0
8.051778200E-2,-1.860562682E0,-2.696371078E-1,1.066431403E0
8.304309500E-2,-1.814757586E0,-2.632457018E-1,1.087736130E0
8.562200100E-2,-1.774278760E0,-2.621804774E-1,1.102649331E0
8.820090700E-2,-1.734998345E0,-2.738980353E-1,1.111171246E0
9.061845900E-2,-1.700910807E0,-2.994636297E-1,1.114366889E0
9.314361500E-2,-1.668953896E0,-3.303554058E-1,1.115432143E0
9.566877200E-2,-1.632735968E0,-3.591166735E-1,1.112236381E0
9.819398000E-2,-1.600778937E0,-3.921388984E-1,1.096257925E0
1.007191360E-1,-1.569887161E0,-4.230306745E-1,1.083475113E0
1.032442930E-1,-1.536864996E0,-4.507267177E-1,1.061105251E0
1.057694490E-1,-1.502777457E0,-4.688356817E-1,1.037670135E0
1.082946050E-1,-1.463363886E0,-4.869446456E-1,1.014235020E0
1.108198130E-1,-1.418624043E0,-5.135754943E-1,9.898678064E-1
1.133449700E-1,-1.366427660E0,-5.391410589E-1,9.674978852E-1
1.158701260E-1,-1.305709362E0,-5.583152771E-1,9.483237267E-1
1.183952820E-1,-1.240730166E0,-5.668371320E-1,9.259538054E-1
1.209204900E-1,-1.171490073E0,-5.561847687E-1,9.003882408E-1
1.234851260E-1,-1.093861103E0,-5.274235010E-1,8.631050587E-1
1.260102820E-1,-1.006512046E0,-4.858794212E-1,8.173000216E-1
1.285355950E-1,-9.138367772E-1,-4.443353117E-1,7.640383840E-1
1.310959590E-1,-8.222267628E-1,-4.070521593E-1,7.043853402E-1
1.336563240E-1,-7.242252827E-1,-3.718994856E-1,6.394061446E-1
1.361109590E-1,-6.262238622E-1,-3.388772607E-1,5.691007376E-1
1.386362720E-1,-5.294207931E-1,-3.037245572E-1,4.881430268E-1
1.412520010E-1,-4.282236695E-1,-2.728328109E-1,3.997286856E-1
1.436864280E-1,-3.302222490E-1,-2.408758104E-1,3.082517982E-1
1.462116360E-1,-2.375469655E-1,-2.142449915E-1,2.155765295E-1
1.487367930E-1,-1.406107545E-1,-1.920082569E-1,1.292926520E-1
1.512619490E-1,-4.687025398E-2,-1.738992929E-1,5.046541616E-2
1.537871050E-1,4.260931909E-2,-1.611164957E-1,-1.983996481E-2
1.563123130E-1,1.223686412E-1,-1.621817350E-1,-8.588441461E-2
1.588374700E-1,2.001306564E-1,-1.632469594E-1,-1.466026902E-1
1.613626260E-1,2.683055699E-1,-1.728340536E-1,-2.083862126E-1
1.638878340E-1,3.332847953E-1,-1.909430176E-1,-2.679060996E-1
1.664129900E-1,4.003944695E-1,-2.047910541E-1,-3.211677670E-1
1.689381470E-1,4.579170346E-1,-2.174406946E-1,-3.712337017E-1
1.714633030E-1,5.122439265E-1,-2.302234918E-1,-4.212996662E-1
1.739884590E-1,5.633751154E-1,-2.387453467E-1,-4.660394490E-1
1.765136150E-1,6.102453470E-1,-2.493976802E-1,-5.086487532E-1
1.790388240E-1,6.507242322E-1,-2.579195499E-1,-5.469971299E-1
1.815639800E-1,6.878741980E-1,-2.632457018E-1,-5.800193548E-1
1.840891360E-1,7.208964229E-1,-2.738980353E-1,-6.151720881E-1
1.866142930E-1,7.464620471E-1,-2.834851444E-1,-6.418029070E-1
1.891394490E-1,7.677667141E-1,-2.930722237E-1,-6.620423198E-1
1.916646570E-1,7.858756781E-1,-3.090507388E-1,-6.801512837E-1
1.941898130E-1,7.997236848E-1,-3.271597028E-1,-6.918688416E-1
1.967149700E-1,8.103760481E-1,-3.516600430E-1,-7.025212049E-1
1.992401780E-1,8.178326488E-1,-3.804213405E-1,-7.089125514E-1
2.017653340E-1,8.178326488E-1,-4.177044928E-1,-7.099778056E-1
2.042904900E-1,8.125064969E-1,-4.581833482E-1,-7.121082544E-1
2.068156470E-1,8.050498366E-1,-4.933360517E-1,-7.153039575E-1
2.093408030E-1,7.965279818E-1,-5.242277980E-1,-7.131735086E-1
2.118660110E-1,7.848104239E-1,-5.465977192E-1,-7.153039575E-1
2.143911680E-1,7.645710111E-1,-5.679023266E-1,-7.099778056E-1
2.169163240E-1,7.422010899E-1,-5.892069936E-1,-7.035863996E-1
2.194414800E-1,7.198312283E-1,-6.051855087E-1,-6.918688416E-1
2.219666360E-1,7.027874589E-1,-6.286206245E-1,-6.737598777E-1
2.244918450E-1,6.826812029E-1,-6.488600373E-1,-6.460638046E-1
2.270170010E-1,6.539199352E-1,-6.733604074E-1,-6.141068339E-1
2.295421570E-1,6.208977103E-1,-6.978607774E-1,-5.832150578E-1
2.320673130E-1,5.846797824E-1,-7.244915962E-1,-5.448666811E-1
2.345925220E-1,5.378095508E-1,-7.511224151E-1,-4.979964495E-1
2.371176780E-1,4.813521802E-1,-7.766880393E-1,-4.532566369E-1
2.396428340E-1,4.195686579E-1,-7.979927063E-1,-4.074516296E-1
2.421679900E-1,3.450023532E-1,-8.139711618E-1,-3.595161438E-1
2.446931470E-1,2.587184608E-1,-8.319469690E-1,-3.062545061E-1
2.472183550E-1,1.713693589E-1,-8.479254842E-1,-2.508623898E-1
2.497435110E-1,7.137060910E-2,-8.660344481E-1,-1.934729517E-1
2.522686680E-1,-3.941362351E-2,-8.766867518E-1,-1.306242049E-1
2.547938240E-1,-1.587197185E-1,-8.937305212E-1,-6.457975507E-2
2.573189800E-1,-2.897433937E-1,-9.086437821E-1,6.790860556E-3
2.598441880E-1,-4.207670391E-1,-9.182308912E-1,8.881380409E-2
2.623693450E-1,-5.612446666E-1,-9.267527461E-1,1.644453406E-1
2.648945010E-1,-6.986597180E-1,-9.299484491E-1,2.336854935E-1
2.674196570E-1,-8.296833634E-1,-9.331441522E-1,2.986647189E-1
2.699448650E-1,-9.511199594E-1,-9.342093468E-1,3.508611321E-1
2.724700220E-1,-1.056578040E0,-9.416660070E-1,3.902747631E-1
2.749951780E-1,-1.141663551E0,-9.565792680E-1,4.210333526E-1
2.775203860E-1,-1.209838390E0,-9.832100868E-1,4.402075410E-1
2.800455430E-1,-1.264165282E0,-1.005579948E0,4.444684684E-1
2.825706990E-1,-1.299317956E0,-1.026884675E0,4.391423166E-1
2.850958550E-1,-1.320622683E0,-1.039667487E0,4.274247587E-1
2.876210630E-1,-1.325948834E0,-1.047124028E0,4.050548673E-1
2.901462200E-1,-1.327014089E0,-1.054580688E0,3.764267266E-1
2.926713760E-1,-1.320622683E0,-1.051385045E0,3.529915810E-1
2.951965320E-1,-1.308905125E0,-1.027949810E0,3.348826170E-1
2.977216880E-1,-1.321687818E0,-9.544488192E-1,3.178389072E-1
3.002468970E-1,-1.334470630E0,-8.596430421E-1,2.986647189E-1
3.027720530E-1,-1.311035514E0,-8.054493070E-1,2.858819067E-1
3.052972090E-1,-1.266295791E0,-7.639052272E-1,2.901428342E-1
3.078223650E-1,-1.204512239E0,-7.351439595E-1,2.997299433E-1
3.103475220E-1,-1.153381109E0,-6.999912262E-1,3.167736828E-1
3.128727300E-1,-1.108774424E0,-6.296858788E-1,3.444697261E-1
3.153978860E-1,-1.075752258E0,-5.306192040E-1,3.732310236E-1
3.179230430E-1,-1.045925617E0,-4.155740440E-1,4.039896131E-1
3.204481990E-1,-1.034208059E0,-2.866808474E-1,4.348813891E-1
3.229734070E-1,-1.019294858E0,-1.462032348E-1,4.583165050E-1
3.254985630E-1,-1.007577300E0,-4.527240526E-3,4.892082810E-1
3.280237200E-1,-1.000120640E0,1.254311949E-1,5.200999975E-1
3.305488760E-1,-9.915987849E-1,2.383458912E-1,5.456656218E-1
3.330740840E-1,-9.830769300E-1,3.342168629E-1,5.722964406E-1
3.355992400E-1,-9.724246264E-1,4.097152650E-1,5.999925137E-1
3.381243970E-1,-9.521851540E-1,4.608464241E-1,6.223623753E-1
3.406496050E-1,-9.244890809E-1,4.959991276E-1,6.415365934E-1
3.431747610E-1,-8.946625590E-1,5.098471642E-1,6.575151086E-1
3.456999180E-1,-8.541837335E-1,5.119776130E-1,6.756240726E-1
3.482250740E-1,-8.115743995E-1,4.949339032E-1,6.884068251E-1
3.507502300E-1,-7.668346167E-1,4.693683088E-1,7.075810432E-1
3.532753860E-1,-7.199643850E-1,4.395417869E-1,7.235595584E-1
3.558005950E-1,-6.762897968E-1,4.022586346E-1,7.395380139E-1
3.583257510E-1,-6.390066743E-1,3.619129062E-1,7.587122321E-1
3.608509070E-1,-6.049191952E-1,3.193036020E-1,7.789516449E-1
3.633761150E-1,-5.761579275E-1,2.798899710E-1,7.959953547E-1
3.659012720E-1,-5.569837093E-1,2.383458912E-1,8.098434210E-1
3.684264280E-1,-5.442008972E-1,1.978670359E-1,8.204957247E-1
3.709515840E-1,-5.356790423E-1,1.637795717E-1,8.268871307E-1
3.734767400E-1,-5.315513015E-1,1.371487528E-1,8.279523849E-1
3.760019490E-1,-5.304860473E-1,1.211702600E-1,8.215609789E-1
3.785271050E-1,-5.272903442E-1,1.147788614E-1,8.098434210E-1
3.810522610E-1,-5.262250900E-1,1.211702600E-1,8.013215661E-1
3.835774700E-1,-5.208989382E-1,1.456706226E-1,7.874734998E-1
3.861026260E-1,-5.166380405E-1,1.861494780E-1,7.725602388E-1
3.886277820E-1,-5.155727863E-1,2.426068187E-1,7.576469779E-1
3.911529380E-1,-5.123770833E-1,3.086512685E-1,7.416685224E-1
3.936781470E-1,-4.974638224E-1,3.906742036E-1,7.235595584E-1
3.962033030E-1,-4.825505614E-1,4.821510911E-1,7.043853402E-1
3.987284590E-1,-4.676373005E-1,5.801525116E-1,6.862763762E-1
4.012536150E-1,-4.442021847E-1,6.824148893E-1,6.649717093E-1
4.037787720E-1,-4.207670391E-1,7.825468183E-1,6.394061446E-1
4.063039800E-1,-3.909405172E-1,8.762873411E-1,6.127753258E-1
4.088291360E-1,-3.547225893E-1,9.647016525E-1,5.808182955E-1
4.113542930E-1,-3.142437339E-1,1.037004352E0,5.520570278E-1
4.138794490E-1,-2.705691755E-1,1.092396498E0,5.232957006E-1
4.164046570E-1,-2.236989290E-1,1.130744815E0,4.945344329E-1
4.189298130E-1,-1.768286824E-1,1.145658135E0,4.625774324E-1
4.214549700E-1,-1.246322617E-1,1.136070967E0,4.316856861E-1
4.239801260E-1,-7.243584841E-2,1.110505462E0,3.986634612E-1
4.265053340E-1,-2.236989327E-2,1.066830873E0,3.700353205E-1
4.290304900E-1,2.876129188E-2,1.008243084E0,3.434045017E-1
4.315556470E-1,7.656362653E-2,9.423317909E-1,3.082517982E-1
4.340808030E-1,1.213034093E-1,8.667002320E-1,2.688381970E-1
4.366059590E-1,1.660431921E-1,7.878729701E-1,2.251636237E-1
4.391311680E-1,2.086525112E-1,7.058500051E-1,1.836195439E-1
4.416563240E-1,2.512618303E-1,6.174356937E-1,1.463363916E-1
4.441814800E-1,2.906754613E-1,5.311518312E-1,1.122489274E-1
4.467066360E-1,3.300890923E-1,4.459331632E-1,7.709623873E-2
4.492318450E-1,3.737636507E-1,3.715000153E-1,4.620448127E-2
4.517570010E-1,4.185034335E-1,3.022598624E-1,1.424749196E-2
4.542821570E-1,4.653736651E-1,2.426068187E-1,-1.557903271E-2
4.568073130E-1,5.154396296E-1,1.936061084E-1,-4.327509180E-2
4.593325220E-1,5.740274191E-1,1.563229412E-1,-7.310161740E-2
4.618576780E-1,6.347457170E-1,1.392792165E-1,-9.866721183E-2
4.643828340E-1,6.974613070E-1,1.318225861E-1,-1.274285018E-1
4.669080430E-1,7.613753080E-1,1.414096802E-1,-1.604507267E-1
4.694331990E-1,8.252893090E-1,1.627143472E-1,-1.956034154E-1
4.719583550E-1,8.913337588E-1,1.946713328E-1,-2.338186502E-1
4.744835110E-1,9.595086575E-1,2.319544852E-1,-2.742975056E-1
4.770086680E-1,1.028748751E0,2.798899710E-1,-3.201025128E-1
4.795338760E-1,1.097988963E0,3.256950080E-1,-3.680379987E-1
4.820590320E-1,1.164033413E0,3.757609427E-1,-4.170387387E-1
4.845841880E-1,1.234338760E0,4.267589748E-1,-4.660394490E-1
4.871093970E-1,1.303445816E0,4.768249393E-1,-5.139749050E-1
4.896345530E-1,1.374816418E0,5.279561281E-1,-5.619103909E-1
4.921597090E-1,1.440860868E0,5.737611651E-1,-6.119763851E-1
4.946848650E-1,1.506905317E0,6.163704395E-1,-6.609770656E-1
4.972100740E-1,1.569754004E0,6.600450277E-1,-7.067821026E-1
4.997351780E-1,1.636863708E0,7.005238533E-1,-7.515218854E-1
5.022603860E-1,1.708234310E0,7.463288903E-1,-7.951964736E-1
5.047855430E-1,1.777474403E0,7.868077159E-1,-8.376725912E-1
5.073107510E-1,1.847779870E0,8.283518553E-1,-8.781514764E-1
5.098359070E-1,1.916886806E0,8.645697236E-1,-9.122389555E-1
5.123610630E-1,1.990387917E0,9.007876515E-1,-9.463263750E-1
5.148862200E-1,2.058562756E0,9.380708337E-1,-9.782834053E-1
5.174113760E-1,2.124607325E0,9.678973556E-1,-1.004914165E0
5.199365840E-1,2.184260368E0,9.987891316E-1,-1.033675551E0
5.224617400E-1,2.239652395E0,1.024221539E0,-1.056045413E0
5.249868970E-1,2.291848898E0,1.049787164E0,-1.075219631E0
5.275121050E-1,2.337653875E0,1.075352788E0,-1.095458984E0
5.300372610E-1,2.372806549E0,1.095592141E0,-1.111437559E0
5.325624180E-1,2.402633190E0,1.105179310E0,-1.121024609E0
5.350876260E-1,2.421807289E0,1.107309699E0,-1.131676912E0
5.376127820E-1,2.439916134E0,1.103048801E0,-1.140198827E0
5.401379380E-1,2.448438168E0,1.088135481E0,-1.150851130E0
5.426630950E-1,2.448438168E0,1.065765619E0,-1.162568688E0
5.451882510E-1,2.445242405E0,1.038069606E0,-1.165764332E0
5.477134070E-1,2.436720610E0,1.001984835E0,-1.174286246E0
5.502386150E-1,2.423937798E0,9.583102465E-1,-1.179612398E0
5.527637720E-1,2.401567936E0,9.050486088E-1,-1.181742907E0
5.552889280E-1,2.374937057E0,8.528521657E-1,-1.188134313E0
5.578140840E-1,2.345110416E0,7.942643762E-1,-1.191329956E0
5.603392930E-1,2.312088251E0,7.324808836E-1,-1.190264702E0
5.628644490E-1,2.276935577E0,6.706973314E-1,-1.187069058E0
5.653896570E-1,2.241782904E0,6.078485847E-1,-1.183873296E0
5.679148130E-1,2.206630230E0,5.513912439E-1,-1.174286246E0
5.704399700E-1,2.168281794E0,4.991948307E-1,-1.162568688E0
5.729651260E-1,2.129933357E0,4.480636418E-1,-1.145524979E0
5.754508550E-1,2.095845938E0,3.990629315E-1,-1.124220252E0
5.780154900E-1,2.058562756E0,3.523258269E-1,-1.099720001E0
5.805406470E-1,2.029801607E0,3.107817471E-1,-1.064567208E0
5.830658030E-1,1.997844577E0,2.703028917E-1,-1.028349280E0
5.855910110E-1,1.975474596E0,2.308892608E-1,-9.942618608E-1
5.881161680E-1,1.957365632E0,1.957365721E-1,-9.559134841E-1
5.906413240E-1,1.943517685E0,1.723014414E-1,-9.207608104E-1
5.931664800E-1,1.932865381E0,1.478010863E-1,-8.824124336E-1
5.956916880E-1,1.927539110E0,1.318225861E-1,-8.419335485E-1
5.982168450E-1,1.929669619E0,1.264964193E-1,-8.079792261E-1
6.007420010E-1,1.938191533E0,1.318225861E-1,-7.728265524E-1
6.032671570E-1,1.953104734E0,1.488663107E-1,-7.398043275E-1
6.057923650E-1,1.969083190E0,1.648448110E-1,-7.110430598E-1
6.083175220E-1,1.996779323E0,1.882799417E-1,-6.908035874E-1
6.108426780E-1,2.025540590E0,2.213021666E-1,-6.769555807E-1
6.133678860E-1,2.057497501E0,2.607157826E-1,-6.663032770E-1
6.158930430E-1,2.092650175E0,3.086512685E-1,-6.641727686E-1
6.184181990E-1,2.129933357E0,3.555215299E-1,-6.673684716E-1
6.209433550E-1,2.164020777E0,4.054543078E-1,-6.769555807E-1
6.234685630E-1,2.203434467E0,4.587159753E-1,-6.929340959E-1
6.259937200E-1,2.242848158E0,5.055862069E-1,-7.131735086E-1
6.285188760E-1,2.275870323E0,5.545869470E-1,-7.334129214E-1
6.310440320E-1,2.307827234E0,6.067833900E-1,-7.600437403E-1
6.335692930E-1,2.325936317E0,6.579145193E-1,-7.877398133E-1
6.360941880E-1,2.336588621E0,7.026543617E-1,-8.196967840E-1
6.386191360E-1,2.341914892E0,7.378070354E-1,-8.504554033E-1
6.411440320E-1,2.339784384E0,7.708292603E-1,-8.856080770E-1
6.436689280E-1,2.334458113E0,7.878729701E-1,-9.164998531E-1
6.461938760E-1,2.320610046E0,7.900034189E-1,-9.452611804E-1
6.487187720E-1,2.303566456E0,7.857425213E-1,-9.761528969E-1
6.512436680E-1,2.280131340E0,7.718944550E-1,-1.007044673E0
6.537686150E-1,2.251369953E0,7.505898476E-1,-1.032610297E0
6.562935110E-1,2.216217279E0,7.271546721E-1,-1.057110667E0
6.588184070E-1,2.178934097E0,6.973281503E-1,-1.076284766E0
6.613433550E-1,2.137390137E0,6.675016284E-1,-1.086937189E0
6.638713240E-1,2.095845938E0,6.355446577E-1,-1.093328595E0
6.663962200E-1,2.053236723E0,6.035876870E-1,-1.094393730E0
6.689211680E-1,2.003170729E0,5.705654621E-1,-1.093328595E0
6.714460630E-1,1.952039480E0,5.481955409E-1,-1.092263341E0
6.739709590E-1,1.903038740E0,5.311518312E-1,-1.095458984E0
6.764959070E-1,1.847779870E0,5.151733160E-1,-1.097589493E0
6.790208030E-1,1.788126826E0,5.236951709E-1,-1.102915645E0
6.815456990E-1,1.725278020E0,5.513912439E-1,-1.106111288E0
6.840706470E-1,1.662429333E0,5.982614756E-1,-1.105046153E0
6.865955430E-1,1.598515272E0,6.664364338E-1,-1.100785136E0
6.891204380E-1,1.535666585E0,7.569811940E-1,-1.095458984E0
6.916453860E-1,1.480274439E0,8.603088260E-1,-1.083741426E0
6.941733550E-1,1.424882293E0,9.742887616E-1,-1.066697717E0
6.966982510E-1,1.373751163E0,1.105179310E0,-1.041132092E0
6.992231990E-1,1.327946067E0,1.226615787E0,-1.010240316E0
7.017480950E-1,1.292926550E0,1.349117637E0,-9.740224481E-1
7.042729900E-1,1.259904385E0,1.476945639E0,-9.228912592E-1
7.067979380E-1,1.236469269E0,1.594121218E0,-8.621729612E-1
7.093228340E-1,1.221555948E0,1.693054795E0,-7.930659652E-1
7.118477300E-1,1.213034153E0,1.756968737E0,-7.184996605E-1
7.143726780E-1,1.202381730E0,1.779338598E0,-6.471290588E-1
7.168975740E-1,1.190664172E0,1.778273344E0,-5.778889060E-1
7.194224700E-1,1.175750971E0,1.752707839E0,-5.107792616E-1
7.219474180E-1,1.156576753E0,1.710098505E0,-4.489957094E-1
7.244753860E-1,1.129945874E0,1.650445461E0,-3.914731443E-1
7.270002820E-1,1.102249861E0,1.574947000E0,-3.328853250E-1
7.295252300E-1,1.072423339E0,1.482271791E0,-2.732322812E-1
7.320501260E-1,1.035140157E0,1.376813650E0,-2.115819156E-1
7.345750220E-1,9.999874830E-1,1.254311919E0,-1.529940963E-1
7.370999700E-1,9.616391063E-1,1.125418663E0,-9.121058136E-2
7.396248650E-1,9.179645777E-1,9.955934286E-1,-2.942706272E-2
7.421497610E-1,8.657681346E-1,8.560478687E-1,3.235645220E-2
7.446747090E-1,8.103760481E-1,7.165023685E-1,9.413997084E-2
7.471996050E-1,7.539186478E-1,5.780220628E-1,1.537930220E-1
7.497245010E-1,6.985265613E-1,4.480636418E-1,2.070546746E-1
7.522494490E-1,6.400718689E-1,3.171731234E-1,2.560553849E-1
7.547774700E-1,5.782883763E-1,1.978670359E-1,2.965342402E-1
7.573023650E-1,5.154396296E-1,8.388710022E-2,3.359478712E-1
7.598273130E-1,4.504604042E-1,-3.115806542E-2,3.721657991E-1
7.623522090E-1,3.833507299E-1,-1.557903290E-1,4.093157947E-1
7.648771050E-1,3.215672076E-1,-2.824199200E-1,4.508598745E-1
7.674020530E-1,2.555227578E-1,-4.166392684E-1,5.009258389E-1
7.699269490E-1,1.809564531E-1,-5.625761747E-1,5.563179255E-1
7.724518450E-1,1.095858440E-1,-7.117088437E-1,6.202319264E-1
7.749767930E-1,2.236989327E-2,-8.607082963E-1,6.862763762E-1
7.775016880E-1,-7.243584841E-2,-1.004514694E0,7.448641658E-1
7.800265840E-1,-1.651111245E-1,-1.132342696E0,8.013215661E-1
7.825515320E-1,-2.673735023E-1,-1.219691753E0,8.407351375E-1
7.850795010E-1,-3.770924807E-1,-1.262301087E0,8.652355075E-1
7.876043970E-1,-4.889419675E-1,-1.249518394E0,8.641703129E-1
7.901293450E-1,-6.123758554E-1,-1.191995740E0,8.439308405E-1
7.926542400E-1,-7.391385436E-1,-1.095059514E0,8.034520149E-1
7.951791360E-1,-8.616403341E-1,-9.544488192E-1,7.523208261E-1
7.977040840E-1,-9.692289233E-1,-7.788184881E-1,6.894720793E-1
8.002289800E-1,-1.057643294E0,-5.625761747E-1,6.244928837E-1
8.027538760E-1,-1.110904932E0,-2.994636297E-1,5.744268894E-1
8.052788240E-1,-1.131144285E0,1.864157850E-3,5.254262090E-1
8.078037200E-1,-1.116231084E0,3.512606025E-1,4.817516208E-1
8.103286150E-1,-1.070425987E0,7.463288903E-1,4.540555775E-1
8.128535630E-1,-9.979901910E-1,1.154179931E0,4.327509105E-1
8.153815840E-1,-9.053149223E-1,1.561099052E0,4.167724252E-1
8.179064800E-1,-7.913349867E-1,1.939123511E0,3.860138059E-1
8.204314280E-1,-6.698983908E-1,2.278799772E0,3.402087986E-1
8.229563240E-1,-5.484618545E-1,2.578130245E0,2.656424940E-1
8.254812200E-1,-4.314193726E-1,2.845370531E0,1.612496525E-1
8.280061680E-1,-3.185046613E-1,3.077591419E0,4.087831825E-2
8.305310630E-1,-2.151770741E-1,3.262941837E0,-7.736254483E-2
8.330559590E-1,-1.278279573E-1,3.397161245E0,-1.828206182E-1
8.355809070E-1,-7.243584841E-2,3.476920605E0,-2.700365782E-1
8.381058030E-1,-3.834838793E-2,3.504616737E0,-3.243634701E-1
8.406306990E-1,-3.728315607E-2,3.465203047E0,-3.456681073E-1
8.431556470E-1,-7.882724702E-2,3.311942577E0,-3.243634701E-1
8.456836150E-1,-1.832200736E-1,2.980655193E0,-2.625799477E-1
8.482085110E-1,-3.547225893E-1,2.367214203E0,-1.551245600E-1
8.507334590E-1,-6.240934134E-1,1.358704686E0,1.464695437E-3
8.532583550E-1,-1.061904192E0,-1.696383655E-1,2.209026963E-1
8.557832510E-1,-1.695584655E0,-2.099308014E0,5.009258389E-1
8.583081990E-1,-2.356961250E0,-3.970522881E0,7.896040082E-1
8.608330950E-1,-2.910749197E0,-5.422169209E0,1.040865779E0
8.633579900E-1,-3.331383228E0,-6.387003899E0,1.236868739E0
8.658829380E-1,-3.633776188E0,-6.857837200E0,1.375349045E0
8.684078340E-1,-3.804213524E0,-6.828010559E0,1.457371950E0
8.709327300E-1,-3.825518131E0,-6.364634037E0,1.460567594E0
8.734576780E-1,-3.666798353E0,-5.570236683E0,1.382805586E0
8.759856990E-1,-3.327122211E0,-4.536028385E0,1.240064383E0
8.785105950E-1,-2.853226662E0,-3.361342907E0,1.062170506E0
8.810355430E-1,-2.288786411E0,-2.131264925E0,8.694964647E-1
8.835604380E-1,-1.703041315E0,-9.342093468E-1,6.841459274E-1
8.860853340E-1,-1.172555208E0,1.627143472E-1,5.105129480E-1
8.886102820E-1,-7.402037978E-1,1.100918293E0,3.604482114E-1
8.911351780E-1,-4.026580751E-1,1.870948672E0,2.379464209E-1
8.936600740E-1,-1.533935517E-1,2.492911577E0,1.474016160E-1
8.961850220E-1,2.343512699E-2,2.981720448E0,7.922670245E-2
8.987099180E-1,1.404775977E-1,3.338573456E0,3.129122034E-2
9.012348130E-1,2.193048447E-1,3.580248117E0,-1.238333434E-2
9.037597610E-1,2.651098669E-1,3.707010984E0,-5.392742157E-2
9.062877300E-1,2.960016131E-1,3.719793797E0,-8.588441461E-2
9.088126260E-1,3.045234978E-1,3.623922825E0,-1.082543060E-1
9.113375740E-1,2.949363887E-1,3.416335344E0,-1.146457046E-1
9.138624700E-1,2.704360485E-1,3.106352568E0,-1.018629074E-1
9.163873650E-1,2.427399755E-1,2.726197720E0,-7.097115368E-2
9.189123130E-1,2.235657871E-1,2.322474241E0,-1.983996481E-2
9.214372090E-1,2.225005478E-1,1.949775934E0,3.981308267E-2
9.239621050E-1,2.416747361E-1,1.629140735E0,8.455286920E-2
9.264870530E-1,2.842840552E-1,1.369357109E0,1.101184636E-1
9.290119490E-1,3.375457227E-1,1.179745555E0,1.058575287E-1
9.315368450E-1,4.067858756E-1,1.052982807E0,7.496577501E-2
9.340617930E-1,4.792217016E-1,9.774844646E-1,2.063889056E-2
9.365898130E-1,5.527228117E-1,9.465926886E-1,-5.179695413E-2
9.391147090E-1,6.177020073E-1,9.476579428E-1,-1.295589656E-1
9.416396570E-1,6.805507541E-1,9.593755007E-1,-2.094514370E-1
9.441645530E-1,7.336792350E-1,9.700278044E-1,-2.742975056E-1
9.466894490E-1,7.794842720E-1,9.636363983E-1,-3.275591433E-1
9.492143970E-1,8.188979030E-1,9.306141734E-1,-3.712337017E-1
9.517392930E-1,8.497896194E-1,8.603088260E-1,-4.085168540E-1
9.542641880E-1,8.689638376E-1,7.548507452E-1,-4.319519997E-1
9.567891360E-1,8.710942864E-1,6.142399907E-1,-4.511261880E-1
9.593140320E-1,8.508548737E-1,4.480636418E-1,-4.766917825E-1
9.618389280E-1,8.167673945E-1,2.660419345E-1,-5.043878555E-1
9.643638760E-1,7.805495262E-1,6.790860742E-2,-5.278229713E-1
9.668918970E-1,7.347444892E-1,-1.344856620E-1,-5.533885360E-1
9.694167930E-1,6.932004094E-1,-3.452686667E-1,-5.789541602E-1
9.719417400E-1,6.549851298E-1,-5.519238710E-1,-6.013240218E-1
9.744666360E-1,6.166367531E-1,-7.500572205E-1,-6.204982400E-1
9.769915320E-1,5.900059342E-1,-9.374050498E-1,-6.396724582E-1
9.795164800E-1,5.697665215E-1,-1.105711937E0,-6.556509137E-1
9.820413760E-1,5.537880063E-1,-1.251648784E0,-6.705641747E-1
9.845662720E-1,5.463314056E-1,-1.380542040E0,-6.833469868E-1
9.870912200E-1,5.473966002E-1,-1.486932158E0,-6.950645447E-1
9.896161150E-1,5.516575575E-1,-1.571085572E0,-7.067821026E-1
9.921410110E-1,5.633751154E-1,-1.633934259E0,-7.099778056E-1
9.946659590E-1,5.750926733E-1,-1.675478339E0,-7.089125514E-1
9.971939280E-1,5.942668915E-1,-1.694652557E0,-7.025212049E-1
9.997188240E-1,6.113106012E-1,-1.695717812E0,-6.918688416E-1
1.002243772E0,6.304848194E-1,-1.678674102E0,-6.812165380E-1
1.004768668E0,6.496589780E-1,-1.644586682E0,-6.716294289E-1
1.007293563E0,6.645722389E-1,-1.599846840E0,-6.641727686E-1
1.009818511E0,6.741593480E-1,-1.549780846E0,-6.567161679E-1
1.012343407E0,6.826812029E-1,-1.489062667E0,-6.535204649E-1
1.014868303E0,6.846785545E-1,-1.417825103E0,-6.481943130E-1
1.017393251E0,6.837464571E-1,-1.344324112E0,-6.513900161E-1
1.019918147E0,6.752246022E-1,-1.266562104E0,-6.492595077E-1
1.022443043E0,6.635070443E-1,-1.187734842E0,-6.492595077E-1
1.024967990E0,6.453980803E-1,-1.102516174E0,-6.428681016E-1
1.027496011E0,6.304848194E-1,-1.017297506E0,-6.332810521E-1
1.030020907E0,6.166367531E-1,-9.299484491E-1,-6.247591972E-1
1.032545855E0,6.027887464E-1,-8.457950354E-1,-6.141068339E-1
1.035070751E0,5.921363831E-1,-7.607095242E-1,-5.991935730E-1
1.037595647E0,5.772231221E-1,-6.840127707E-1,-5.906717181E-1
1.040120595E0,5.633751154E-1,-6.232944727E-1,-5.853455663E-1
1.042645490E0,5.463314056E-1,-5.753589869E-1,-5.832150578E-1
1.045170386E0,5.378095508E-1,-5.434020162E-1,-5.810846090E-1
1.047695334E0,5.260919333E-1,-5.284887552E-1,-5.746932030E-1
1.050220230E0,5.133091807E-1,-5.284887552E-1,-5.714974999E-1
1.052745126E0,4.994611442E-1,-5.391410589E-1,-5.704323053E-1
1.055270074E0,4.781564772E-1,-5.647066832E-1,-5.608451962E-1
1.057798095E0,4.579170346E-1,-6.019898057E-1,-5.427362323E-1
1.060322990E0,4.334166944E-1,-6.456643939E-1,-5.256925225E-1
1.062847938E0,4.110468030E-1,-6.904041767E-1,-5.097140074E-1
1.065372834E0,3.854812086E-1,-7.362091541E-1,-4.841484129E-1
1.067897730E0,3.599156141E-1,-7.830794454E-1,-4.564523399E-1
1.070422678E0,3.343500197E-1,-8.244903684E-1,-4.276910722E-1
1.072947574E0,3.151758313E-1,-8.564473391E-1,-3.989297748E-1
1.075472470E0,2.970668674E-1,-8.798824549E-1,-3.691032529E-1
1.077997418E0,2.789579034E-1,-8.937305212E-1,-3.371462524E-1
1.080522313E0,2.608489394E-1,-8.990566730E-1,-3.094501793E-1
1.083047209E0,2.448704392E-1,-8.916000128E-1,-2.849498391E-1
1.085572157E0,2.278267145E-1,-8.734911084E-1,-2.561885417E-1
1.088100178E0,2.033263594E-1,-8.500559330E-1,-2.338186502E-1
1.090625074E0,1.841521561E-1,-8.214278221E-1,-2.135792226E-1
1.093150022E0,1.575213373E-1,-7.809489369E-1,-1.956034154E-1
1.095674970E0,1.287600398E-1,-7.319482565E-1,-1.742987484E-1
1.098199865E0,9.680305421E-2,-6.861432195E-1,-1.593854874E-1
1.100724761E0,6.497921795E-2,-6.414034367E-1,-1.444722265E-1
1.103249709E0,3.728315607E-2,-5.977289081E-1,-1.274285018E-1
1.105774605E0,1.171756350E-2,-5.572500229E-1,-1.135804728E-1
1.108299501E0,-1.065232977E-2,-5.189016461E-1,-9.653674066E-2
1.110824449E0,-3.621792421E-2,-4.848141670E-1,-7.736254483E-2
1.113349345E0,-5.965305120E-2,-4.464657903E-1,-6.138405204E-2
1.115874240E0,-7.882724702E-2,-4.134435654E-1,-4.327509180E-2
1.118520595E0,-9.480573982E-2,-3.793561161E-1,-3.155753016E-2
1.121045490E0,-1.075885370E-1,-3.505948186E-1,-1.025286783E-2
1.123570438E0,-1.171756312E-1,-3.207682967E-1,9.986559860E-3
1.126095334E0,-1.342193633E-1,-2.930722237E-1,3.129122034E-2
1.128620230E0,-1.501978636E-1,-2.664414048E-1,5.579157919E-2
1.131145178E0,-1.640458852E-1,-2.376801223E-1,8.987903595E-2
1.133670074E0,-1.789591461E-1,-2.131797522E-1,1.260969639E-1
1.136194970E0,-2.034595013E-1,-1.877473146E-1,1.612496525E-1
1.138719918E0,-2.322207987E-1,-1.643121988E-1,2.027937323E-1
1.141244813E0,-2.684387267E-1,-1.419423074E-1,2.507292330E-1
1.143769709E0,-3.057218790E-1,-1.206376404E-1,2.986647189E-1
1.146294657E0,-3.504616618E-1,-1.025286764E-1,3.519263566E-1
1.148822574E0,-4.047885537E-1,-9.081111848E-2,4.093157947E-1
1.151348147E0,-4.633763731E-1,-8.228924870E-2,4.636426866E-1
1.153873772E0,-5.230293870E-1,-7.589785010E-2,5.179695487E-1
1.156399345E0,-5.878754854E-1,-7.483261824E-2,5.680354834E-1
1.158924918E0,-6.507242322E-1,-7.696308941E-2,6.159709692E-1
1.161450490E0,-7.093120217E-1,-7.376738638E-2,6.628412604E-1
1.163976063E0,-7.668346167E-1,-6.844121963E-2,7.054505944E-1
1.166501688E0,-8.105092049E-1,-5.885412544E-2,7.416685224E-1
1.169027261E0,-8.435314298E-1,-4.394086078E-2,7.746906877E-1
1.171552834E0,-8.669665456E-1,-2.689713426E-2,7.991910577E-1
1.174078407E0,-8.744231462E-1,-7.722939365E-3,8.194305301E-1
1.176604032E0,-8.712274432E-1,1.997311972E-2,8.311480880E-1
1.179124657E0,-8.520532846E-1,5.193011090E-2,8.439308405E-1
1.181650230E0,-8.211615086E-1,9.666989744E-2,8.588441014E-1
1.184175855E0,-7.785521746E-1,1.467358470E-1,8.673660159E-1
1.186701428E0,-7.295514941E-1,1.989322603E-1,8.758878708E-1
1.189227001E0,-6.730940938E-1,2.564548552E-1,8.822792768E-1
1.191752574E0,-6.113106012E-1,3.150426745E-1,8.833444715E-1
1.194278147E0,-5.559184551E-1,3.661738634E-1,8.844097257E-1
1.196803772E0,-5.091813803E-1,4.043890834E-1,8.822792768E-1
1.199329345E0,-4.687025249E-1,4.278241992E-1,8.769530654E-1
1.201854918E0,-4.388760030E-1,4.320851564E-1,8.694964647E-1
1.204380490E0,-4.207670391E-1,4.214328229E-1,8.705616593E-1
1.206906115E0,-4.058537781E-1,3.906742036E-1,8.716269135E-1
1.209426740E0,-4.026580751E-1,3.384777904E-1,8.780183196E-1
1.211952313E0,-4.079842567E-1,2.660419345E-1,8.844097257E-1
1.214477938E0,-4.186365902E-1,1.701709777E-1,8.982577324E-1
1.217003511E0,-4.260932207E-1,5.406057462E-2,9.142362475E-1
1.219529084E0,-4.346150756E-1,-7.270215452E-2,9.334104657E-1
1.222054657E0,-4.292888939E-1,-2.058562785E-1,9.451280236E-1
1.224580230E0,-4.186365902E-1,-3.346163332E-1,9.536498785E-1
1.227105855E0,-3.952014446E-1,-4.539224207E-1,9.504541755E-1
1.229631428E0,-3.579182923E-1,-5.583152771E-1,9.419323206E-1
1.232157001E0,-3.078523576E-1,-6.392729878E-1,9.366061091E-1
1.234682574E0,-2.567211688E-1,-6.957303286E-1,9.270190597E-1
1.237208199E0,-2.013290375E-1,-7.276872993E-1,9.089100957E-1
1.239728824E0,-1.523283273E-1,-7.351439595E-1,8.865401745E-1
1.242254397E0,-1.054580659E-1,-7.234264016E-1,8.673660159E-1
1.244780022E0,-6.710968167E-2,-6.967955232E-1,8.418003917E-1
1.247305595E0,-4.047885537E-2,-6.563166976E-1,8.119738698E-1
1.249831168E0,-2.023942769E-2,-6.009245515E-1,7.821473479E-1
1.252356740E0,-1.065233024E-3,-5.316844583E-1,7.491251230E-1
1.254882313E0,7.456631400E-3,-4.581833482E-1,7.129071951E-1
1.257407938E0,1.171756350E-2,-3.857475221E-1,6.702978611E-1
1.259933511E0,1.065232977E-2,-3.047898114E-1,6.330147386E-1
1.262459084E0,2.130466048E-3,-2.302234918E-1,5.925358534E-1
1.264984657E0,-1.491326280E-2,-1.611164957E-1,5.488613248E-1
1.267510282E0,-3.728315607E-2,-9.613727778E-2,5.073172450E-1
1.270030907E0,-6.604444981E-2,-4.074516147E-2,4.721645415E-1
1.272556480E0,-9.800143540E-2,8.255556226E-3,4.380770922E-1
1.275082105E0,-1.310236603E-1,5.086487532E-2,4.103810191E-1
1.277607678E0,-1.683068126E-1,7.856093347E-2,3.934704363E-1
1.280133251E0,-2.119813710E-1,9.347419441E-2,3.806876540E-1
1.282658824E0,-2.673735023E-1,8.921326697E-2,3.679048419E-1
1.285184397E0,-3.259612918E-1,6.258244067E-2,3.604482114E-1
1.287710022E0,-3.888100684E-1,1.038602181E-2,3.551220596E-1
1.290235595E0,-4.548544884E-1,-5.672365800E-2,3.540568352E-1
1.292761168E0,-5.219641924E-1,-1.440727711E-1,3.561872840E-1
1.295286740E0,-5.846797824E-1,-2.568543255E-1,3.561872840E-1
1.297812365E0,-6.336805224E-1,-3.740299344E-1,3.593829870E-1
1.300332990E0,-6.741593480E-1,-5.061188340E-1,3.604482114E-1
1.302858563E0,-7.007901669E-1,-6.435338855E-1,3.615134656E-1
1.305384188E0,-7.114425302E-1,-7.745575905E-1,3.625786901E-1
1.307909761E0,-7.103772759E-1,-8.873391151E-1,3.625786901E-1
1.310435334E0,-6.986597180E-1,-9.736229777E-1,3.647091687E-1
1.312960907E0,-6.805507541E-1,-1.031145573E0,3.625786901E-1
1.315486480E0,-6.645722389E-1,-1.052450180E0,3.615134656E-1
1.318012105E0,-6.517894268E-1,-1.033276081E0,3.625786901E-1
1.320537678E0,-6.432675719E-1,-9.853405356E-1,3.593829870E-1
1.323063251E0,-6.464632750E-1,-9.075785279E-1,3.572525382E-1
1.325588824E0,-6.613765359E-1,-8.118407130E-1,3.572525382E-1
1.328114449E0,-6.848116517E-1,-7.063826323E-1,3.572525382E-1
1.330635074E0,-7.146382332E-1,-5.934679508E-1,3.604482114E-1
1.333160647E0,-7.455299497E-1,-4.752270877E-1,3.647091687E-1
1.335686272E0,-7.806826234E-1,-3.548557460E-1,3.700353205E-1
1.338211845E0,-8.179658055E-1,-2.430062890E-1,3.806876540E-1
1.340737418E0,-8.552489877E-1,-1.312899739E-1,3.954677582E-1
1.343262990E0,-8.925321102E-1,-2.370143496E-2,4.125114977E-1
1.345788563E0,-9.351414442E-1,8.388710022E-2,4.338161349E-1
1.348314188E0,-9.756202698E-1,1.861494780E-1,4.561860561E-1
1.350839761E0,-1.021425366E0,2.820204496E-1,4.817516208E-1
1.353365334E0,-1.078947902E0,3.704347908E-1,5.147738457E-1
1.355890907E0,-1.144859195E0,4.523245692E-1,5.509917736E-1
1.358416532E0,-1.218360305E0,5.268908739E-1,5.946663618E-1
1.360937157E0,-1.300383210E0,5.886744261E-1,6.404713392E-1
1.363462730E0,-1.389862776E0,6.376751065E-1,6.916025281E-1
1.365988355E0,-1.481472850E0,6.792191863E-1,7.448641658E-1
1.368513928E0,-1.577343822E0,7.111762166E-1,7.917344570E-1
1.371039501E0,-1.678540945E0,7.260894775E-1,8.386046886E-1
1.373565074E0,-1.784931064E0,7.218285203E-1,8.758878708E-1
1.376090647E0,-1.898910999E0,6.920019984E-1,9.014534354E-1
1.378616272E0,-2.029934645E0,6.408708096E-1,9.280842543E-1
1.381141845E0,-2.167349815E0,5.684349537E-1,9.493889213E-1
1.383667418E0,-2.319678068E0,4.714987576E-1,9.643021822E-1
1.386192990E0,-2.484656096E0,3.544562757E-1,9.813459516E-1
1.388718615E0,-2.648701906E0,2.255630940E-1,9.962592125E-1
1.391239240E0,-2.809552193E0,8.495233208E-2,1.002650619E0
1.393764813E0,-2.960815191E0,-6.737598777E-2,1.007843614E0
1.396290438E0,-3.095966578E0,-2.312887162E-1,1.009974003E0
1.398816011E0,-3.209946632E0,-4.059869349E-1,1.012104511E0
1.401341584E0,-3.305817604E0,-5.902722478E-1,1.011039257E0
1.403867157E0,-3.378253460E0,-7.766880393E-1,1.005713105E0
1.406392730E0,-3.428319216E0,-9.587097168E-1,1.006778359E0
1.408918355E0,-3.459211111E0,-1.132342696E0,1.006778359E0
1.411443928E0,-3.478385210E0,-1.300649524E0,1.004647851E0
1.413969501E0,-3.478385210E0,-1.450714231E0,1.009974003E0
1.416495074E0,-3.471993923E0,-1.582803130E0,1.019561172E0
1.419020699E0,-3.460276365E0,-1.687195897E0,1.031278729E0
1.421541324E0,-3.436841249E0,-1.769218922E0,1.038735390E0
1.424066897E0,-3.416601658E0,-1.836328626E0,1.045126796E0
1.426592522E0,-3.395297050E0,-1.891720653E0,1.053648591E0
1.429118095E0,-3.367601156E0,-1.929003835E0,1.057909489E0
1.431643668E0,-3.338839769E0,-1.958830357E0,1.057909489E0
1.434169240E0,-3.310078382E0,-1.975874066E0,1.054713845E0
1.436694813E0,-3.281317234E0,-1.979069829E0,1.044061542E0
1.439220438E0,-3.249360085E0,-1.964156508E0,1.018495917E0
1.441746011E0,-3.213142157E0,-1.934329987E0,9.845415950E-1
1.444271584E0,-3.171598196E0,-1.874676943E0,9.387366176E-1
1.446797157E0,-3.126858473E0,-1.789458275E0,8.822792768E-1
1.449322782E0,-3.072531462E0,-1.676543593E0,8.183652759E-1
1.451843407E0,-3.009682655E0,-1.538063288E0,7.448641658E-1
1.454368980E0,-2.941641092E0,-1.378411531E0,6.660369635E-1
1.456894605E0,-2.868139982E0,-1.204778552E0,5.904054046E-1
1.459420178E0,-2.795704126E0,-1.024754167E0,5.254262090E-1
1.461945751E0,-2.726464033E0,-8.457950354E-1,4.732297659E-1
1.464471324E0,-2.661484718E0,-6.776213646E-1,4.412727654E-1
1.466996897E0,-2.592244625E0,-5.465977192E-1,4.242290556E-1
1.469522522E0,-2.527265310E0,-4.496614933E-1,4.210333526E-1
1.472048095E0,-2.465481758E0,-4.027912319E-1,4.231638312E-1
1.474573668E0,-2.404763460E0,-4.198349714E-1,4.210333526E-1
1.477099240E0,-2.350569725E0,-4.858794212E-1,4.093157947E-1
1.479624865E0,-2.301568985E0,-5.870765448E-1,3.902747631E-1
1.482145490E0,-2.250437975E0,-7.053174376E-1,3.679048419E-1
1.484671063E0,-2.198241472E0,-8.298165202E-1,3.519263566E-1
1.487196688E0,-2.143914700E0,-9.469921589E-1,3.316869438E-1
1.489722261E0,-2.089587688E0,-1.050319791E0,3.189041317E-1
1.492247834E0,-2.026738882E0,-1.128081799E0,3.157084286E-1
1.494773407E0,-1.972412109E0,-1.170691133E0,3.157084286E-1
1.497298980E0,-1.911693811E0,-1.168560624E0,3.178389072E-1
1.499824605E0,-1.843518853E0,-1.117429495E0,3.220998347E-1
1.502350178E0,-1.768952608E0,-1.014101863E0,3.295564651E-1
1.504875751E0,-1.690258503E0,-8.702954054E-1,3.380783200E-1
1.507401324E0,-1.607170343E0,-6.978607774E-1,3.487306535E-1
1.509926949E0,-1.519821167E0,-5.061188340E-1,3.572525382E-1
1.512447574E0,-1.428211212E0,-3.069202602E-1,3.583177626E-1
1.514973147E0,-1.338731647E0,-1.110505462E-1,3.551220596E-1
1.517498772E0,-1.249252081E0,7.536523789E-2,3.434045017E-1
1.520024345E0,-1.154446244E0,2.351501882E-1,3.220998347E-1
1.522549918E0,-1.065099835E0,3.725652397E-1,2.944037914E-1
1.525075490E0,-9.670984149E-1,4.757596850E-1,2.571206093E-1
1.527601063E0,-8.616403341E-1,5.577826500E-1,2.187722325E-1
1.530126688E0,-7.465952039E-1,6.216966510E-1,1.825543046E-1
1.532652261E0,-6.326152682E-1,6.717625856E-1,1.420754492E-1
1.535177834E0,-5.177032351E-1,7.250242233E-1,1.005313694E-1
1.537703407E0,-4.079842567E-1,7.782858610E-1,5.579157919E-2
1.540229032E0,-3.046566546E-1,8.347432017E-1,9.986559860E-3
1.542749657E0,-2.151770741E-1,8.890700936E-1,-4.114462435E-2
1.545275230E0,-1.310236603E-1,9.348751307E-1,-9.440627694E-2
1.547800855E0,-5.858781561E-2,9.689626098E-1,-1.519288570E-1
1.550326428E0,4.260932095E-3,9.860063195E-1,-2.105166763E-1
1.552852001E0,6.071828306E-2,9.902672768E-1,-2.721670270E-1
1.555377574E0,1.106510833E-1,9.742887616E-1,-3.350157738E-1
1.557903147E0,1.458037645E-1,9.402012825E-1,-3.989297748E-1
1.560428772E0,1.745650619E-1,8.933310509E-1,-4.671046734E-1
1.562954345E0,1.980001926E-1,8.230256438E-1,-5.331491232E-1
1.565479918E0,2.097177505E-1,7.399374843E-1,-5.981283188E-1
1.568005490E0,2.235657871E-1,6.440665126E-1,-6.652380228E-1
1.570531115E0,2.331528813E-1,5.375432372E-1,-7.302172184E-1
1.573051740E0,2.427399755E-1,4.299546778E-1,-7.920007706E-1
1.575577313E0,2.470009029E-1,3.278254569E-1,-8.515206575E-1
1.578102938E0,2.501966059E-1,2.266283184E-1,-9.037170410E-1
1.580628511E0,2.512618303E-1,1.264964193E-1,-9.473916292E-1
1.583154084E0,2.533923090E-1,2.956021577E-2,-9.857400060E-1
1.585679657E0,2.608489394E-1,-6.844121963E-2,-1.010240316E0
1.588205230E0,2.715012729E-1,-1.664426625E-1,-1.033675551E0
1.590730855E0,2.970668674E-1,-2.621804774E-1,-1.043262601E0
1.593256428E0,3.311543167E-1,-3.569862247E-1,-1.051784515E0
1.595782001E0,3.737636507E-1,-4.517919421E-1,-1.053914905E0
1.598307574E0,4.280905128E-1,-5.476629138E-1,-1.057110667E0
1.600833199E0,4.920045137E-1,-6.382077336E-1,-1.059241056E0
1.603353876E0,5.644403696E-1,-7.085131407E-1,-1.054980159E0
1.605879449E0,6.411371231E-1,-7.617747784E-1,-1.054980159E0
1.608405074E0,7.240921259E-1,-7.969274521E-1,-1.057110667E0
1.610930647E0,8.114412427E-1,-8.086450100E-1,-1.056045413E0
1.613456220E0,8.966599107E-1,-8.011884093E-1,-1.056045413E0
1.615981793E0,9.872047305E-1,-7.724270821E-1,-1.049654007E0
1.618507365E0,1.078814745E0,-7.234264016E-1,-1.041132092E0
1.621032990E0,1.167229056E0,-6.659038067E-1,-1.031545043E0
1.623558563E0,1.255643368E0,-5.902722478E-1,-1.014501333E0
1.626084136E0,1.339663625E0,-5.050535798E-1,-9.910661578E-1
1.628609709E0,1.423817039E0,-4.070521593E-1,-9.623048902E-1
1.631135334E0,1.500513911E0,-3.047898114E-1,-9.335435629E-1
1.633655959E0,1.583602071E0,-2.015953511E-1,-9.005213380E-1
1.636181532E0,1.665624976E0,-9.187635034E-2,-8.653686643E-1
1.638707157E0,1.736995578E0,1.890788600E-2,-8.248898387E-1
1.641232730E0,1.811561942E0,1.328878254E-1,-7.834789157E-1
1.643758303E0,1.886128187E0,2.511286736E-1,-7.398043275E-1
1.646283876E0,1.954169989E0,3.715000153E-1,-6.939992905E-1
1.648809449E0,2.022344828E0,4.896077216E-1,-6.535204649E-1
1.651335074E0,2.086258888E0,6.099790335E-1,-6.066502333E-1
1.653860647E0,2.145911932E0,7.271546721E-1,-5.672366023E-1
1.656386220E0,2.202369213E0,8.432651162E-1,-5.267577171E-1
1.658911793E0,2.256696224E0,9.583102465E-1,-4.916050434E-1
1.661437418E0,2.307827234E0,1.068961382E0,-4.607132971E-1
1.663958095E0,2.355762720E0,1.162701845E0,-4.276910722E-1
1.666483355E0,2.396241665E0,1.250050902E0,-4.042559266E-1
1.669008615E0,2.428198576E0,1.332073927E0,-3.797555864E-1
1.671533876E0,2.453764200E0,1.405574918E0,-3.531247377E-1
1.674059136E0,2.476134062E0,1.464162827E0,-3.307548463E-1
1.676584397E0,2.491047382E0,1.511033058E0,-3.051892519E-1
1.679109657E0,2.503830194E0,1.548316240E0,-2.796236575E-1
1.681634865E0,2.510221720E0,1.577077508E0,-2.593842447E-1
1.684160126E0,2.513284206E0,1.596251726E0,-2.402100414E-1
1.686685386E0,2.514349461E0,1.609034538E0,-2.189053893E-1
1.689210647E0,2.512218952E0,1.621684074E0,-2.030600458E-1
1.691735907E0,2.505960703E0,1.629140735E0,-1.849510819E-1
1.694260178E0,2.496373653E0,1.631271243E0,-1.732335240E-1
1.696785438E0,2.486786604E0,1.634466887E0,-1.679073572E-1
1.699310699E0,2.472938538E0,1.634466887E0,-1.604507267E-1
1.701835959E0,2.455894709E0,1.627010345E0,-1.572550237E-1
1.704361220E0,2.432459593E0,1.615292668E0,-1.572550237E-1
1.706886480E0,2.414350748E0,1.597316861E0,-1.604507267E-1
1.709411740E0,2.390915632E0,1.569620848E0,-1.636464298E-1
1.711936949E0,2.364284754E0,1.533402920E0,-1.657768935E-1
1.714462209E0,2.339784384E0,1.486532688E0,-1.679073572E-1
1.716987470E0,2.311022997E0,1.438597202E0,-1.689725816E-1
1.719512730E0,2.279066086E0,1.377878904E0,-1.711030602E-1
1.722037990E0,2.246043921E0,1.308638811E0,-1.764292270E-1
1.724562313E0,2.206630230E0,1.225550652E0,-1.806901544E-1
1.727087574E0,2.168281794E0,1.133940578E0,-1.838858575E-1
1.729612834E0,2.128868103E0,1.030612946E0,-1.860163212E-1
1.732138095E0,2.092650175E0,9.210271239E-1,-1.902772486E-1
1.734663355E0,2.057497501E0,8.134385943E-1,-1.998643428E-1
1.737188615E0,2.021279573E0,6.962629557E-1,-2.126471400E-1
1.739713876E0,1.988257408E0,5.812177658E-1,-2.295577228E-1
1.742239084E0,1.959496140E0,4.714987576E-1,-2.497971505E-1
1.744764345E0,1.929669619E0,3.629781604E-1,-2.753627300E-1
1.747289605E0,1.897845745E0,2.596505582E-1,-3.041240275E-1
1.749814865E0,1.871214986E0,1.659100503E-1,-3.339505494E-1
1.752340126E0,1.836062312E0,7.749570161E-2,-3.669727743E-1
1.754864397E0,1.807300925E0,-3.462007269E-3,-3.999949992E-1
1.757389657E0,1.773213506E0,-7.057169080E-2,-4.287562966E-1
1.759914918E0,1.741256475E0,-1.259638071E-1,-4.671046734E-1
1.762440178E0,1.703973413E0,-1.707035899E-1,-5.001268983E-1
1.764965438E0,1.667755485E0,-2.047910541E-1,-5.352795720E-1
1.767490699E0,1.629407048E0,-2.355496585E-1,-5.725627542E-1
1.770015959E0,1.594254375E0,-2.589847744E-1,-6.034545302E-1
1.772541168E0,1.552710295E0,-2.760285139E-1,-6.311505437E-1
1.775066428E0,1.511166215E0,-2.888112962E-1,-6.577813625E-1
1.777591688E0,1.477078795E0,-2.962679267E-1,-6.886731386E-1
1.780116949E0,1.441926003E0,-3.005288541E-1,-7.259563208E-1
1.782642209E0,1.408903837E0,-3.026593328E-1,-7.643046975E-1
1.785166532E0,1.374816418E0,-2.983984053E-1,-8.015878797E-1
1.787691793E0,1.343924642E0,-2.877460718E-1,-8.355421424E-1
1.790217053E0,1.308771968E0,-2.781589627E-1,-8.621729612E-1
1.792742313E0,1.268426180E0,-2.632457018E-1,-8.888037801E-1
1.795267574E0,1.236469269E0,-2.366148829E-1,-9.058475494E-1
1.797792834E0,1.202381730E0,-2.026605755E-1,-9.250217080E-1
1.800318095E0,1.166163802E0,-1.621817350E-1,-9.452611804E-1
1.802843303E0,1.135272145E0,-1.174419373E-1,-9.665657878E-1
1.805368563E0,1.112902164E0,-6.737598777E-2,-9.857400060E-1
1.807893824E0,1.102249861E0,-1.944050193E-2,-1.005979419E0
1.810419084E0,1.097988963E0,2.849498391E-2,-1.029414535E0
1.812944345E0,1.106510758E0,7.430000603E-2,-1.047523499E0
1.815508095E0,1.119293571E0,1.233007237E-1,-1.073089123E0
1.818033355E0,1.137402534E0,1.733666807E-1,-1.094393730E0
1.820558563E0,1.159772396E0,2.213021666E-1,-1.113567948E0
1.823083824E0,1.178946614E0,2.734985650E-1,-1.135937810E0
1.825609084E0,1.198120832E0,3.299559355E-1,-1.157242537E0
1.828134345E0,1.215164542E0,3.906742036E-1,-1.171090603E0
1.830659605E0,1.225816846E0,4.565854967E-1,-1.181742907E0
1.833184865E0,1.230077863E0,5.173037648E-1,-1.186003804E0
1.835710126E0,1.227947354E0,5.769568086E-1,-1.192395210E0
1.838235386E0,1.218360305E0,6.355446577E-1,-1.189199567E0
1.840760647E0,1.204512239E0,6.845453978E-1,-1.179612398E0
1.843285907E0,1.185338020E0,7.282199264E-1,-1.170025349E0
1.845770751E0,1.167229056E0,7.633726001E-1,-1.150851130E0
1.848296011E0,1.144859195E0,7.846772671E-1,-1.128481269E0
1.850821272E0,1.122489333E0,7.974600792E-1,-1.106111288E0
1.853346532E0,1.094793200E0,7.921339273E-1,-1.079480529E0
1.855871793E0,1.067097187E0,7.750901580E-1,-1.043262601E0
1.858397053E0,1.042596817E0,7.378070354E-1,-1.005979419E0
1.860922313E0,1.018096447E0,6.802844405E-1,-9.665657878E-1
1.863447522E0,9.893351793E-1,6.089138389E-1,-9.271522164E-1
1.865972782E0,9.552477002E-1,5.268908739E-1,-8.813471794E-1
1.868498043E0,9.286168814E-1,4.395417869E-1,-8.344769478E-1
1.871023303E0,9.019860625E-1,3.555215299E-1,-7.856093645E-1
1.873548563E0,8.774856925E-1,2.681724131E-1,-7.334129214E-1
1.876072886E0,8.540505767E-1,1.808233112E-1,-6.801512837E-1
1.878598147E0,8.338111639E-1,9.134373069E-2,-6.236939430E-1
1.881123407E0,8.103760481E-1,8.255556226E-3,-5.661713481E-1
1.883648668E0,7.848104239E-1,-7.057169080E-2,-5.097140074E-1
1.886173928E0,7.645710111E-1,-1.355509013E-1,-4.532566369E-1
1.888699188E0,7.453967929E-1,-1.983996481E-1,-3.989297748E-1
1.891224449E0,7.230269313E-1,-2.419410497E-1,-3.467333615E-1
1.893749657E0,7.038527131E-1,-2.834851444E-1,-3.041240275E-1
1.896274918E0,6.857437491E-1,-3.122464418E-1,-2.625799477E-1
1.898800178E0,6.709636450E-1,-3.335510790E-1,-2.189053893E-1
1.901325438E0,6.560503840E-1,-3.452686667E-1,-1.817553788E-1
1.903850699E0,6.464632750E-1,-3.463338912E-1,-1.455374658E-1
1.906374970E0,6.379414201E-1,-3.356815577E-1,-1.114500016E-1
1.908900230E0,6.358109713E-1,-3.101159632E-1,-7.949301600E-2
1.911425490E0,6.336805224E-1,-2.707023323E-1,-4.860125855E-2
1.913950751E0,6.422023773E-1,-2.227668613E-1,-2.303566411E-2
1.916476011E0,6.571156383E-1,-1.611164957E-1,3.994623839E-4
1.919001272E0,6.741593480E-1,-8.548495173E-2,2.276935615E-2
1.921526532E0,6.985265613E-1,5.059856921E-3,3.874785081E-2
1.924051740E0,7.272878289E-1,1.105179265E-1,4.620448127E-2
1.926577001E0,7.613753080E-1,2.266283184E-1,5.259587988E-2
1.929102261E0,7.975932360E-1,3.597824574E-1,5.366111174E-2
1.931627522E0,8.370068669E-1,5.045210123E-1,4.620448127E-2
1.934152782E0,8.796161413E-1,6.643059254E-1,3.874785081E-2
1.936677105E0,9.168993235E-1,8.358084559E-1,2.916075476E-2
1.939202365E0,9.552477002E-1,1.013569236E0,1.957365684E-2
1.941727626E0,9.925308824E-1,1.192528367E0,9.986559860E-3
1.944252886E0,1.028748751E0,1.370422244E0,3.595161485E-3
1.946778147E0,1.062836289E0,1.538729072E0,3.595161485E-3
1.949303407E0,1.093728065E0,1.699446082E0,-6.657706108E-4
1.951828668E0,1.119293571E0,1.848578811E0,3.994623839E-4
1.954353876E0,1.140598297E0,1.982798100E0,3.595161485E-3
1.956879136E0,1.155511498E0,2.101038933E0,4.660394508E-3
1.959404397E0,1.160837650E0,2.204366684E0,9.986559860E-3
1.961929657E0,1.158707261E0,2.292647839E0,1.637795754E-2
1.964454918E0,1.149120092E0,2.361887932E0,2.489982173E-2
1.966979240E0,1.133141637E0,2.417279959E0,3.768261895E-2
1.969504501E0,1.109706521E0,2.466280699E0,4.833494872E-2
1.972029761E0,1.077749491E0,2.501433372E0,5.259587988E-2
1.974555022E0,1.045792580E0,2.521672964E0,6.431344151E-2
1.977080282E0,1.008509398E0,2.530194759E0,6.857437640E-2
1.979605543E0,9.627043605E-1,2.520607710E0,7.709623873E-2
1.982130803E0,9.137036204E-1,2.499302864E0,8.242240548E-2
1.984656011E0,8.625724316E-1,2.463085175E0,8.668334037E-2
1.987181272E0,8.061150908E-1,2.406627655E0,9.307473898E-2
1.989706532E0,7.475273013E-1,2.333126545E0,1.047922969E-1
1.992231793E0,6.837464571E-1,2.235125303E0,1.250317246E-1
1.994757053E0,6.145063043E-1,2.114886999E0,1.569887102E-1
1.997281324E0,5.431357026E-1,1.963623881E0,1.921414137E-1
1.999806584E0,4.568518102E-1,1.778273344E0,2.315550297E-1
2.002331845E0,3.609808385E-1,1.558968544E0,2.741643488E-1
2.004857105E0,2.533923090E-1,1.302247405E0,3.199693561E-1
2.007382365E0,1.276948154E-1,1.004115224E0,3.668396175E-1
2.009907626E0,-1.597849466E-2,6.792191863E-1,4.061200917E-1
2.012432886E0,-1.651111245E-1,3.416734934E-1,4.348813891E-1
2.014958095E0,-3.217003644E-1,-2.663082560E-4,4.529903531E-1
2.017483355E0,-4.804200828E-1,-3.367467821E-1,4.615122080E-1
2.020008615E0,-6.475285292E-1,-6.637732983E-1,4.529903531E-1
2.022533876E0,-8.115743995E-1,-9.864057899E-1,4.348813891E-1
2.025059136E0,-9.639027119E-1,-1.300649524E0,3.986634612E-1
2.027583459E0,-1.117296338E0,-1.615825295E0,3.540568352E-1
2.030108720E0,-1.254578233E0,-1.922612429E0,3.050560951E-1
2.032633980E0,-1.368558168E0,-2.197309494E0,2.368811965E-1
2.035159240E0,-1.451646328E0,-2.417812586E0,1.655105799E-1
2.037684501E0,-1.481472850E0,-2.552031994E0,9.627043456E-2
2.040209761E0,-1.453776717E0,-2.574401855E0,3.555215150E-2
2.042735022E0,-1.368558168E0,-2.477465630E0,-2.410089783E-2
2.045260230E0,-1.231143117E0,-2.266549587E0,-7.203638554E-2
2.047785490E0,-1.053382277E0,-1.958830357E0,-1.125152409E-1
2.050310751E0,-8.392704725E-1,-1.582803130E0,-1.497983932E-1
2.052836011E0,-6.177020073E-1,-1.157908320E0,-1.870815456E-1
2.055361272E0,-4.111799598E-1,-6.893389225E-1,-2.252967805E-1
2.057885595E0,-2.450035959E-1,-2.079867423E-1,-2.540580630E-1
2.060410855E0,-1.374150664E-1,2.628462613E-1,-2.742975056E-1
2.062936115E0,-1.075885370E-1,6.813496947E-1,-2.785584331E-1
2.065461376E0,-1.746982187E-1,9.998543262E-1,-2.615146935E-1
2.067986636E0,-3.504616618E-1,1.169093251E0,-2.105166763E-1
2.070511897E0,-6.400718689E-1,1.149919033E0,-1.210371032E-1
2.073037157E0,-1.017164350E0,9.135704637E-1,1.850842312E-2
2.075562365E0,-1.448450565E0,4.469984174E-1,2.209026963E-1
2.078087626E0,-1.917019963E0,-2.355496585E-1,4.955996573E-1
2.080612886E0,-2.407959223E0,-1.116364241E0,8.279523849E-1
2.083138147E0,-2.880922794E0,-2.087590456E0,1.185737491E0
2.085663407E0,-3.262142897E0,-2.907686710E0,1.502111673E0
2.088187730E0,-3.462406874E0,-3.370929956E0,1.682002902E0
2.090712990E0,-3.454950094E0,-3.382647514E0,1.692655325E0
2.093238251E0,-3.260012627E0,-3.003557682E0,1.606504560E0
2.095763511E0,-2.920336246E0,-2.379464149E0,1.494655132E0
2.098288772E0,-2.476134062E0,-1.640325665E0,1.376414180E0
2.100814032E0,-1.967085958E0,-8.681648970E-1,1.262434244E0
2.103339293E0,-1.438863516E0,-9.720251709E-2,1.153780460E0
2.105864501E0,-9.415328503E-1,6.408708096E-1,1.053648591E0
2.108389761E0,-5.272903442E-1,1.309703946E0,9.643021822E-1
2.110915022E0,-2.013290375E-1,1.898644686E0,8.908011317E-1
2.113440282E0,3.621792421E-2,2.388518810E0,8.343437910E-1
2.115965543E0,2.011958808E-1,2.786916018E0,7.864083052E-1
2.118489865E0,3.098496497E-1,3.098896027E0,7.416685224E-1
2.121015126E0,3.705679476E-1,3.319399357E0,6.894720793E-1
2.123540386E0,3.961335421E-1,3.458811522E0,6.244928837E-1
2.126065647E0,3.918725848E-1,3.522725582E0,5.488613248E-1
2.128590907E0,3.737636507E-1,3.523790836E0,4.625774324E-1
2.131116168E0,3.471328020E-1,3.470529079E0,3.881442845E-1
2.133641428E0,3.205019832E-1,3.373726130E0,3.220998347E-1
2.136166636E0,3.109148741E-1,3.241637230E0,2.581858635E-1
2.138691897E0,3.300890923E-1,3.094635010E0,1.995980442E-1
2.141217157E0,3.737636507E-1,2.949763298E0,1.495320797E-1
2.143742418E0,4.355471432E-1,2.803959608E0,9.520520270E-2
2.146267678E0,5.165048838E-1,2.646305084E0,2.596505545E-2
2.148792001E0,6.059844494E-1,2.482259274E0,-5.179695413E-2
2.151317261E0,7.017222643E-1,2.326735258E0,-1.380808353E-1
2.153842522E0,7.986584306E-1,2.174540043E0,-2.348838747E-1
2.156367782E0,8.902685046E-1,2.023277044E0,-3.414071798E-1
2.158893043E0,9.765523672E-1,1.869883418E0,-4.489957094E-1
2.161418303E0,1.047922969E0,1.713294148E0,-5.523233414E-1
2.163943563E0,1.097988963E0,1.551511884E0,-6.460638046E-1
2.166468772E0,1.123554587E0,1.390661716E0,-7.216953635E-1
2.168994032E0,1.125684977E0,1.212767839E0,-7.909355164E-1
2.171519293E0,1.099054217E0,1.019960642E0,-8.493902087E-1
2.174044553E0,1.047922969E0,8.049166799E-1,-9.015865922E-1
2.176569813E0,9.765523672E-1,5.641740561E-1,-9.559134841E-1
2.179094136E0,8.870728016E-1,3.086512685E-1,-1.013436079E0
2.181619345E0,7.933322787E-1,5.725627393E-2,-1.076284766E0
2.184144501E0,7.091788650E-1,-1.717688292E-1,-1.138068318E0
2.186669709E0,6.336805224E-1,-3.644428551E-1,-1.186003804E0
2.189194918E0,5.857450366E-1,-5.146406889E-1,-1.222221732E0
2.191720126E0,5.580489635E-1,-6.339467764E-1,-1.238200188E0
2.194245282E0,5.516575575E-1,-7.244915962E-1,-1.239265442E0
2.196770490E0,5.548532605E-1,-8.033188581E-1,-1.233939290E0
2.199295699E0,5.665708184E-1,-8.660344481E-1,-1.222221732E0
2.201820855E0,5.910711884E-1,-9.203613400E-1,-1.207308531E0
2.204346063E0,6.166367531E-1,-9.704272747E-1,-1.194525719E0
2.206871272E0,6.390066743E-1,-1.017297506E0,-1.181742907E0
2.209396220E0,6.667027473E-1,-1.065232992E0,-1.171090603E0
2.211921428E0,6.985265613E-1,-1.111038089E0,-1.164699197E0
2.214446584E0,7.336792350E-1,-1.162169218E0,-1.158307791E0
2.216971793E0,7.752233148E-1,-1.209039450E0,-1.145524979E0
2.219497001E0,8.167673945E-1,-1.250583529E0,-1.135937810E0
2.222022209E0,8.583115339E-1,-1.288931966E0,-1.124220252E0
2.224547365E0,9.019860625E-1,-1.323019385E0,-1.108241796E0
2.227072574E0,9.456605911E-1,-1.350715518E0,-1.091198087E0
2.229597782E0,9.829437733E-1,-1.368824482E0,-1.067762971E0
2.232122938E0,1.022357345E0,-1.374150634E0,-1.037936449E0
2.234648147E0,1.056444883E0,-1.367759228E0,-1.007044673E0
2.237173355E0,1.088401794E0,-1.356041670E0,-9.772181511E-1
2.239698407E0,1.111836910E0,-1.333671689E0,-9.463263750E-1
2.242223615E0,1.128880739E0,-1.307040930E0,-9.122389555E-1
2.244748772E0,1.148054838E0,-1.274018645E0,-8.834776282E-1
2.247273980E0,1.155511498E0,-1.237800717E0,-8.504554033E-1
2.249799188E0,1.155511498E0,-1.190930486E0,-8.175663352E-1
2.252324397E0,1.153381109E0,-1.134473205E0,-7.866745591E-1
2.254849553E0,1.144859195E0,-1.075885296E0,-7.589785457E-1
2.257374761E0,1.129945874E0,-1.008775711E0,-7.291520238E-1
2.259899970E0,1.118228316E0,-9.374050498E-1,-6.982602477E-1
2.262425126E0,1.101184607E0,-8.607082963E-1,-6.684337258E-1
2.264950334E0,1.085206151E0,-7.852098942E-1,-6.418029070E-1
2.267475543E0,1.068162441E0,-7.085131407E-1,-6.130415797E-1
2.270000490E0,1.050053477E0,-6.350120306E-1,-5.853455663E-1
2.272525699E0,1.036205411E0,-5.721632838E-1,-5.587147474E-1
2.275050855E0,1.026618361E0,-5.220973492E-1,-5.320838690E-1
2.277576063E0,1.018096447E0,-4.837489426E-1,-5.065183043E-1
2.280101272E0,1.005313635E0,-4.517919421E-1,-4.798874855E-1
2.282626480E0,9.925308824E-1,-4.336830080E-1,-4.521914124E-1
2.285151636E0,9.797480702E-1,-4.272916019E-1,-4.266258180E-1
2.287676845E0,9.616391063E-1,-4.283568263E-1,-3.957340717E-1
2.290202053E0,9.413996935E-1,-4.400743842E-1,-3.669727743E-1
2.292727209E0,9.179645777E-1,-4.560528994E-1,-3.328853250E-1
2.295252418E0,8.892032504E-1,-4.730966091E-1,-3.009283245E-1
2.297777626E0,8.583115339E-1,-4.869446456E-1,-2.647103965E-1
2.300302678E0,8.135717511E-1,-4.965317547E-1,-2.316881865E-1
2.302827886E0,7.698971629E-1,-4.997274280E-1,-1.945381761E-1
2.305353043E0,7.283530831E-1,-4.954665005E-1,-1.561897993E-1
2.307878251E0,6.784203053E-1,-4.773575366E-1,-1.221023351E-1
2.310403459E0,6.326152682E-1,-4.475310147E-1,-8.481918275E-2
2.312928668E0,5.889406800E-1,-4.102478623E-1,-4.860125855E-2
2.315453824E0,5.399399996E-1,-3.687037826E-1,-1.557903271E-2
2.317979032E0,4.983958900E-1,-3.250292242E-1,1.957365684E-2
2.320504240E0,4.653736651E-1,-2.770937383E-1,5.259587988E-2
2.323029397E0,4.344819188E-1,-2.227668613E-1,7.816147059E-2
2.325554605E0,4.035901725E-1,-1.685731262E-1,1.037270650E-1
2.328079813E0,3.769593239E-1,-1.217028722E-1,1.260969639E-1
2.330604813E0,3.535242081E-1,-7.376738638E-2,1.431406885E-1
2.333130022E0,3.322195411E-1,-2.583190054E-2,1.580539495E-1
2.335655178E0,3.119801283E-1,2.210358530E-2,1.687062830E-1
2.338180386E0,2.864145339E-1,6.258244067E-2,1.772281379E-1
2.340705595E0,2.597837150E-1,9.880036116E-2,1.782933772E-1
2.343230803E0,2.267614752E-1,1.339530498E-1,1.825543046E-1
2.345755959E0,1.884130985E-1,1.605838835E-1,1.814890802E-1
2.348281168E0,1.543256342E-1,1.797580719E-1,1.921414137E-1
2.350806376E0,1.117163152E-1,1.893451661E-1,1.985328048E-1
2.353331532E0,6.497921795E-2,1.808233112E-1,2.017285079E-1
2.355856740E0,2.236989327E-2,1.584534049E-1,2.038589716E-1
2.358381949E0,-3.302222490E-2,1.254311949E-1,2.113156021E-1
2.360906949E0,-9.054480493E-2,8.814803511E-2,2.134460658E-1
2.363432157E0,-1.555240154E-1,5.193011090E-2,2.198374718E-1
2.365957313E0,-2.268946320E-1,1.145125460E-2,2.315550297E-1
2.368482522E0,-3.003957272E-1,-2.263620123E-2,2.411421239E-1
2.371007730E0,-3.770924807E-1,-5.033225939E-2,2.528596818E-1
2.373532938E0,-4.516588151E-1,-7.802832127E-2,2.677729428E-1
2.376058095E0,-5.230293870E-1,-9.826774895E-2,2.848166823E-1
2.378583303E0,-5.932016373E-1,-1.046591476E-1,3.039908707E-1
2.381108511E0,-6.635070443E-1,-1.046591476E-1,3.284912407E-1
2.383633668E0,-7.274209857E-1,-9.507204592E-2,3.519263566E-1
2.386158876E0,-7.849435806E-1,-8.015878499E-2,3.732310236E-1
2.388684084E0,-8.382052183E-1,-6.737598777E-2,3.945356905E-1
2.391209084E0,-8.904016614E-1,-5.139749497E-2,4.125114977E-1
2.393734293E0,-9.362066984E-1,-3.861469775E-2,4.338161349E-1
2.396259449E0,-9.724246264E-1,-1.837527007E-2,4.529903531E-1
2.398784657E0,-1.003316402E0,5.059856921E-3,4.689688385E-1
2.401309865E0,-1.028881907E0,3.595161438E-2,4.849473238E-1
2.403835074E0,-1.038469076E0,7.216953486E-2,4.998605847E-1
2.406360230E0,-1.036338568E0,1.062569916E-1,5.115781426E-1
2.408885438E0,-1.026751518E0,1.414096802E-1,5.190348029E-1
2.411410647E0,-1.010772943E0,1.765623689E-1,5.243609548E-1
2.413935803E0,-9.841421843E-1,2.149107605E-1,5.307523608E-1
2.416461011E0,-9.553808570E-1,2.511286736E-1,5.339480639E-1
2.418986220E0,-9.255543351E-1,2.862813771E-1,5.350132585E-1
2.421511272E0,-8.957278132E-1,3.171731234E-1,5.360785127E-1
2.424036480E0,-8.627055883E-1,3.480648994E-1,5.350132585E-1
2.426561636E0,-8.360747695E-1,3.597824574E-1,5.414046645E-1
2.429086845E0,-7.987915874E-1,3.693695366E-1,5.499265194E-1
2.431612053E0,-7.710955739E-1,3.683043122E-1,5.573831797E-1
2.434137261E0,-7.412690520E-1,3.608476818E-1,5.648398399E-1
2.436662418E0,-7.050511241E-1,3.480648994E-1,5.733616948E-1
2.439187626E0,-6.730940938E-1,3.246297538E-1,5.840139985E-1
2.441712834E0,-6.432675719E-1,2.884118557E-1,5.967968106E-1
2.444237990E0,-6.166367531E-1,2.415415943E-1,6.138405204E-1
2.446763199E0,-5.942668915E-1,1.882799417E-1,6.394061446E-1
2.449288407E0,-5.750926733E-1,1.339530498E-1,6.660369635E-1
2.451813407E0,-5.633751154E-1,7.962616533E-2,7.001243830E-1
2.454338615E0,-5.569837093E-1,3.062544949E-2,7.331466079E-1
2.456863772E0,-5.516575575E-1,-5.592473317E-3,7.693645358E-1
2.459388980E0,-5.495271087E-1,-2.476666868E-2,8.087781668E-1
2.461914188E0,-5.484618545E-1,-3.328853101E-2,8.396699429E-1
2.464439397E0,-5.452661514E-1,-3.328853101E-2,8.673660159E-1
2.466964553E0,-5.452661514E-1,-2.689713426E-2,8.844097257E-1
2.469489761E0,-5.388747454E-1,-2.263620123E-2,8.908011317E-1
2.472014970E0,-5.346138477E-1,-1.624480449E-2,8.780183196E-1
2.474540126E0,-5.315513015E-1,-2.396774245E-3,8.545832038E-1
2.477065334E0,-5.324833393E-1,2.210358530E-2,8.162348270E-1
2.479590543E0,-5.410051942E-1,5.832150951E-2,7.682993412E-1
2.482115543E0,-5.580489635E-1,1.158440933E-1,7.139724493E-1
2.484640751E0,-5.761579275E-1,1.861494780E-1,6.543194056E-1
2.487165907E0,-5.942668915E-1,2.575200796E-1,5.989272594E-1
2.489691115E0,-6.070496440E-1,3.193036020E-1,5.392742157E-1
2.492216324E0,-6.134410501E-1,3.608476818E-1,4.838820994E-1
2.494741532E0,-6.219629049E-1,3.800218701E-1,4.380770922E-1
2.497266688E0,-6.272891164E-1,3.683043122E-1,3.965329826E-1
2.499791897E0,-6.358109713E-1,3.331516385E-1,3.593829870E-1
2.502317105E0,-6.464632750E-1,2.724333405E-1,3.263607621E-1
2.504842261E0,-6.635070443E-1,1.818885356E-1,2.997299433E-1
2.507367470E0,-6.784203053E-1,6.897383928E-2,2.752295732E-1
2.509892678E0,-6.933335662E-1,-6.311506033E-2,2.539249361E-1
2.512417678E0,-7.071815729E-1,-2.101172209E-1,2.326202542E-1
2.514942886E0,-7.167686820E-1,-3.569862247E-1,2.145113051E-1
2.517468043E0,-7.178338766E-1,-4.954665005E-1,1.995980442E-1
2.519993251E0,-7.050511241E-1,-6.243597269E-1,1.836195439E-1
2.522518459E0,-6.752246022E-1,-7.319482565E-1,1.708367467E-1
2.525043668E0,-6.347457170E-1,-8.223599195E-1,1.548582464E-1
2.527568824E0,-5.793536305E-1,-8.884043694E-1,1.431406885E-1
2.530094032E0,-5.113118291E-1,-9.342093468E-1,1.314231306E-1
2.532619240E0,-4.346150756E-1,-9.491226077E-1,1.229012609E-1
2.535144397E0,-3.504616618E-1,-9.384703040E-1,1.143793985E-1
2.537669605E0,-2.726996541E-1,-9.065132737E-1,1.069227681E-1
2.540194813E0,-1.981333494E-1,-8.436645269E-1,1.079879999E-1
2.542719813E0,-1.310236603E-1,-7.500572205E-1,1.133141592E-1
2.545245022E0,-7.563154399E-2,-6.371424794E-1,1.175750941E-1
2.547770178E0,-3.195698932E-2,-4.954665005E-1,1.260969639E-1
2.550295386E0,3.195699072E-3,-3.356815577E-1,1.420754492E-1
2.552820595E0,2.876129188E-2,-1.653774232E-1,1.580539495E-1
2.555345803E0,5.006595328E-2,1.464695390E-2,1.740324497E-1
2.557870959E0,7.137060910E-2,1.968017966E-1,2.006632686E-1
2.560396168E0,8.934641629E-2,3.619129062E-1,2.262288630E-1
2.562921376E0,9.360735118E-2,5.002600551E-1,2.592510879E-1
2.565446532E0,9.573781490E-2,6.121095419E-1,2.975994647E-1
2.567971740E0,9.254211932E-2,6.898715496E-1,3.412740231E-1
2.570496949E0,7.975932211E-2,7.388722301E-1,3.913399875E-1
2.573021949E0,5.858781561E-2,7.484593391E-1,4.412727654E-1
2.575547157E0,2.769605815E-2,7.239589691E-1,4.881430268E-1
2.578072313E0,-1.810896210E-2,6.738930345E-1,5.286219120E-1
2.580597522E0,-7.243584841E-2,5.971962810E-1,5.754921436E-1
2.583122730E0,-1.438064575E-1,5.002600551E-1,6.191666722E-1
2.585647938E0,-2.247641683E-1,3.800218701E-1,6.607108116E-1
2.588173095E0,-3.185046613E-1,2.426068187E-1,6.990591884E-1
2.590698303E0,-4.186365902E-1,8.601756394E-2,7.363423109E-1
2.593223511E0,-5.272903442E-1,-8.655018359E-2,7.757559419E-1
2.595748668E0,-6.443328261E-1,-2.717675865E-1,8.109086156E-1
2.598273876E0,-7.593780160E-1,-4.549876451E-1,8.503222466E-1
2.600799084E0,-8.733579516E-1,-6.360772848E-1,8.897358775E-1
2.603324136E0,-9.862726331E-1,-8.075798154E-1,9.291495085E-1
2.605849345E0,-1.091730714E0,-9.619054198E-1,9.664326906E-1
2.608374501E0,-1.190664172E0,-1.108907580E0,1.002650619E0
2.610899709E0,-1.280143738E0,-1.232474566E0,1.034474373E0
2.613424918E0,-1.352579594E0,-1.328345537E0,1.063235760E0
2.615950126E0,-1.417558789E0,-1.403977156E0,1.090931773E0
2.618475282E0,-1.466559529E0,-1.447518468E0,1.115432143E0
2.621000490E0,-1.502777457E0,-1.449648976E0,1.131410599E0
2.623525699E0,-1.525147438E0,-1.414629459E0,1.143128157E0
2.626050855E0,-1.536864996E0,-1.334736943E0,1.158041477E0
2.628576063E0,-1.541125894E0,-1.218626618E0,1.163367629E0
2.631101272E0,-1.545386791E0,-1.070559144E0,1.162302375E0
2.633626272E0,-1.551778197E0,-8.841434121E-1,1.164432883E0
2.636151480E0,-1.566691518E0,-6.786866188E-1,1.160171866E0
2.638676636E0,-1.603974581E0,-4.592485726E-1,1.151650071E0
2.641201845E0,-1.657236218E0,-2.398105860E-1,1.140997767E0
2.643727053E0,-1.726476431E0,-3.541899845E-2,1.135671616E0
2.646252261E0,-1.810496688E0,1.392792165E-1,1.132475853E0
2.648777418E0,-1.915954709E0,2.734985650E-1,1.132475853E0
2.651302626E0,-2.039521694E0,3.736304939E-1,1.140997767E0
2.653827834E0,-2.172675848E0,4.299546778E-1,1.149519563E0
2.656352990E0,-2.312221527E0,4.193023443E-1,1.158041477E0
2.658878199E0,-2.461220980E0,3.406082690E-1,1.153780460E0
2.661403407E0,-2.609288216E0,2.085193694E-1,1.145258665E0
2.663928407E0,-2.746703386E0,4.553871229E-2,1.123953938E0
2.666453615E0,-2.881988049E0,-1.430075318E-1,1.097323179E0
2.668978772E0,-3.004356623E0,-3.442034125E-1,1.076018453E0
2.671503980E0,-3.115140915E0,-5.593804717E-1,1.055779099E0
2.674029188E0,-3.216337919E0,-7.830794454E-1,1.040865779E0
2.676554397E0,-3.307948112E0,-1.002384305E0,1.035539627E0
2.679079553E0,-3.394231796E0,-1.217561364E0,1.033409238E0
2.681604761E0,-3.466667652E0,-1.426347017E0,1.029148221E0
2.684129970E0,-3.539103508E0,-1.622216702E0,1.023822069E0
2.686655126E0,-3.602884293E0,-1.803306341E0,1.023822069E0
2.689180334E0,-3.664667845E0,-1.969482660E0,1.023822069E0
2.691705543E0,-3.726451397E0,-2.114221334E0,1.029148221E0
2.694230595E0,-3.783973932E0,-2.245244980E0,1.037670135E0
2.696755803E0,-3.838300943E0,-2.363485813E0,1.037670135E0
2.699280959E0,-3.885171175E0,-2.461487293E0,1.030213475E0
2.701806168E0,-3.926715136E0,-2.540314436E0,1.017430663E0
2.704331324E0,-3.961867809E0,-2.596771717E0,9.941287041E-1
2.706856480E0,-3.983172655E0,-2.629794121E0,9.611064792E-1
2.709381688E0,-3.993824959E0,-2.637250662E0,9.206276536E-1
2.711906845E0,-3.987433434E0,-2.624467850E0,8.705616593E-1
2.714432053E0,-3.961867809E0,-2.594641447E0,8.162348270E-1
2.716957209E0,-3.911802053E0,-2.538183928E0,7.544512749E-1
2.719482418E0,-3.835105181E0,-2.468943834E0,6.916025281E-1
2.722007574E0,-3.732842922E0,-2.386920929E0,6.330147386E-1
2.724532730E0,-3.610341072E0,-2.299571753E0,5.829487443E-1
2.727057938E0,-3.465602398E0,-2.205831289E0,5.467308760E-1
2.729583095E0,-3.309013128E0,-2.096112251E0,5.190348029E-1
2.732108303E0,-3.151358843E0,-1.972678423E0,5.030562878E-1
2.734633459E0,-2.987312794E0,-1.827806711E0,4.934692085E-1
2.737158615E0,-2.825530529E0,-1.658434629E0,4.870778024E-1
2.739683824E0,-2.666810989E0,-1.468823195E0,4.838820994E-1
2.742208980E0,-2.509156466E0,-1.267627239E0,4.753602445E-1
2.744734188E0,-2.344178438E0,-1.069494009E0,4.679036140E-1
2.747259345E0,-2.181197882E0,-8.798824549E-1,4.561860561E-1
2.749784553E0,-2.018217087E0,-7.085131407E-1,4.487294257E-1
2.752309709E0,-1.852040768E0,-5.689675808E-1,4.348813891E-1
2.754834865E0,-1.684932351E0,-4.549876451E-1,4.167724252E-1
2.757360074E0,-1.531538725E0,-3.676385581E-1,4.007939398E-1
2.759885230E0,-1.391993284E0,-3.005288541E-1,3.849485815E-1
2.762410438E0,-1.266295791E0,-2.419410497E-1,3.625786901E-1
2.764935595E0,-1.157642007E0,-1.898777932E-1,3.476654291E-1
2.767460751E0,-1.075752258E0,-1.387466043E-1,3.412740231E-1
2.769985959E0,-1.006512046E0,-8.015878499E-2,3.348826170E-1
2.772511115E0,-9.617722631E-1,-1.624480449E-2,3.338173926E-1
2.775036324E0,-9.372718930E-1,5.938674137E-2,3.391435742E-1
2.777561480E0,-9.266195893E-1,1.435401440E-1,3.434045017E-1
2.780086688E0,-9.276847839E-1,2.191716880E-1,3.455349505E-1
2.782611845E0,-9.308804870E-1,2.798899710E-1,3.391435742E-1
2.785137001E0,-9.287500381E-1,3.193036020E-1,3.306216896E-1
2.787662209E0,-9.255543351E-1,3.342168629E-1,3.284912407E-1
2.790187365E0,-9.212934375E-1,3.331516385E-1,3.327521682E-1
2.792712574E0,-9.138367772E-1,3.171731234E-1,3.380783200E-1
2.795237730E0,-9.010539651E-1,2.905423045E-1,3.380783200E-1
2.797762886E0,-8.818798065E-1,2.564548552E-1,3.359478712E-1
2.800288095E0,-8.563141823E-1,2.244978547E-1,3.220998347E-1
2.802813251E0,-8.169005513E-1,1.999974996E-1,2.986647189E-1
2.805338459E0,-7.625737190E-1,1.850842386E-1,2.635120153E-1
2.807863615E0,-6.975944638E-1,1.882799417E-1,2.123808414E-1
2.810388824E0,-6.155715585E-1,2.063889056E-1,1.484668553E-1
2.812913980E0,-5.251598954E-1,2.372806519E-1,7.496577501E-2
2.815439188E0,-4.207670391E-1,2.798899710E-1,-7.057168987E-3
2.817964397E0,-3.174394369E-1,3.299559355E-1,-1.029281393E-1
2.820489553E0,-2.109161317E-1,3.896089792E-1,-2.009295821E-1
2.823014761E0,-1.054580659E-1,4.544550478E-1,-2.966673970E-1
2.825539918E0,-6.391398143E-3,5.204994678E-1,-3.872122169E-1
2.828065074E0,9.147688746E-2,5.833482146E-1,-4.724308550E-1
2.830590282E0,1.820216924E-1,6.387403607E-1,-5.523233414E-1
2.833115438E0,2.587184608E-1,6.866758466E-1,-6.311505437E-1
2.835640647E0,3.332847953E-1,7.143719196E-1,-7.046516538E-1
2.838165803E0,3.993292153E-1,7.303503752E-1,-7.770875096E-1
2.840691011E0,4.611127377E-1,7.207632661E-1,-8.440639973E-1
2.843216168E0,5.197005868E-1,6.920019984E-1,-9.101084471E-1
2.845741324E0,5.729622245E-1,6.525883675E-1,-9.665657878E-1
2.848266532E0,6.272891164E-1,6.003919840E-1,-1.015566587E0
2.850791688E0,6.762897968E-1,5.364779830E-1,-1.062436819E0
2.853316897E0,7.219616771E-1,4.736292362E-1,-1.099720001E0
2.855842053E0,7.645710111E-1,3.958672285E-1,-1.127416015E0
2.858367209E0,8.146369457E-1,3.161078990E-1,-1.148720622E0
2.860892418E0,8.615072370E-1,2.330197245E-1,-1.158307791E0
2.863417574E0,9.030513167E-1,1.414096802E-1,-1.166829586E0
2.865942782E0,9.509868026E-1,5.086487532E-2,-1.170025349E0
2.868467938E0,1.003183246E0,-4.287562892E-2,-1.161503434E0
2.870993147E0,1.058575273E0,-1.355509013E-1,-1.148720622E0
2.873518303E0,1.122489333E0,-2.312887162E-1,-1.137003064E0
2.876043459E0,1.187468529E0,-3.197030723E-1,-1.116763711E0
2.878568668E0,1.256708622E0,-4.059869349E-1,-1.093328595E0
2.881093824E0,1.327946067E0,-4.880098701E-1,-1.070958614E0
2.883619032E0,1.402512431E0,-5.593804717E-1,-1.048588753E0
2.886144188E0,1.483470082E0,-6.147726178E-1,-1.021957874E0
2.888669345E0,1.561232209E0,-6.573819518E-1,-9.995880127E-1
2.891194553E0,1.642189860E0,-6.829475164E-1,-9.782834053E-1
2.893719709E0,1.727408528E0,-6.882736683E-1,-9.537830353E-1
2.896244918E0,1.811561942E0,-6.776213646E-1,-9.324783683E-1
2.898770074E0,1.892519593E0,-6.584471464E-1,-9.111737013E-1
2.901295282E0,1.972278953E0,-6.179683208E-1,-8.877385855E-1
2.903820438E0,2.048975706E0,-5.593804717E-1,-8.674991727E-1
2.906345647E0,2.126737833E0,-4.848141670E-1,-8.461945057E-1
2.908870855E0,2.194912672E0,-4.006607831E-1,-8.259550333E-1
2.911396011E0,2.260957003E0,-2.952027023E-1,-8.026530743E-1
2.913921220E0,2.322740555E0,-1.845516264E-1,-7.802832127E-1
2.916446376E0,2.374937057E0,-7.270215452E-2,-7.600437403E-1
2.918971532E0,2.421807289E0,4.234301299E-2,-7.419347763E-1
2.921496740E0,2.456959963E0,1.573881805E-1,-7.248910666E-1
2.924021897E0,2.484656096E0,2.639114857E-1,-7.078473568E-1
2.926547105E0,2.504895449E0,3.693695366E-1,-6.908035874E-1
2.929072261E0,2.517544985E0,4.597811997E-1,-6.748251319E-1
2.931597470E0,2.521806002E0,5.290213227E-1,-6.588466167E-1
2.934122626E0,2.513284206E0,5.822830200E-1,-6.449986100E-1
2.936647782E0,2.502764940E0,6.280879974E-1,-6.364767551E-1
2.939172990E0,2.488916874E0,6.643059254E-1,-6.226286888E-1
2.941698147E0,2.479329824E0,6.930672526E-1,-6.162372828E-1
2.944223355E0,2.458025217E0,7.165023685E-1,-6.077154279E-1
2.946748511E0,2.434590101E0,7.314156294E-1,-5.959978700E-1
2.949273668E0,2.416481018E0,7.431331873E-1,-5.864107609E-1
2.951798876E0,2.390915632E0,7.473941445E-1,-5.725627542E-1
2.954324032E0,2.361088991E0,7.495245934E-1,-5.629756451E-1
2.956849240E0,2.334458113E0,7.495245934E-1,-5.480623841E-1
2.959374397E0,2.303566456E0,7.431331873E-1,-5.310186744E-1
2.961899605E0,2.274805069E0,7.367417812E-1,-5.161054134E-1
2.964424761E0,2.242848158E0,7.218285203E-1,-5.011921525E-1
2.966949970E0,2.214086771E0,7.047848105E-1,-4.862788618E-1
2.969475178E0,2.186390877E0,6.802844405E-1,-4.692351520E-1
2.972000334E0,2.155498981E0,6.579145193E-1,-4.553871155E-1
2.974525543E0,2.125672579E0,6.248922944E-1,-4.436695576E-1
2.977050699E0,2.103302717E0,5.897396207E-1,-4.276910722E-1
2.979575855E0,2.078802347E0,5.577826500E-1,-4.149082601E-1
2.982101063E0,2.057497501E0,5.268908739E-1,-4.074516296E-1
2.984626220E0,2.040453911E0,4.981296062E-1,-3.989297748E-1
2.987151428E0,2.022344828E0,4.736292362E-1,-3.925383687E-1
2.989676584E0,2.006366491E0,4.512593448E-1,-3.872122169E-1
2.992201793E0,1.994648814E0,4.374113083E-1,-3.818860352E-1
2.994726949E0,1.982931256E0,4.246285260E-1,-3.808208108E-1
2.997252157E0,1.975474596E0,4.161066413E-1,-3.861469626E-1
2.999777365E0,1.970148444E0,4.150414169E-1,-3.893426657E-1
3.002302522E0,1.962691903E0,4.203675687E-1,-3.936035931E-1
3.004827730E0,1.958430886E0,4.288894534E-1,-4.021254778E-1
3.007352886E0,1.955235243E0,4.352808297E-1,-4.159734845E-1
3.009878043E0,1.956300497E0,4.438027143E-1,-4.287562966E-1
3.012403251E0,1.958430886E0,4.576507509E-1,-4.458000064E-1
3.014928332E0,1.961626649E0,4.746944606E-1,-4.617785215E-1
3.017453540E0,1.963757038E0,4.896077216E-1,-4.820179343E-1
3.019978697E0,1.972278953E0,5.055862069E-1,-5.075835586E-1
3.022503905E0,1.972278953E0,5.226299763E-1,-5.331491232E-1
3.025029061E0,1.974409461E0,5.386084318E-1,-5.576494932E-1
3.027554218E0,1.970148444E0,5.449998379E-1,-5.896064639E-1
3.030079426E0,1.968018055E0,5.492607951E-1,-6.162372828E-1
3.032604582E0,1.963757038E0,5.460650921E-1,-6.418029070E-1
3.035129790E0,1.960561395E0,5.428693891E-1,-6.684337258E-1
3.037654947E0,1.956300497E0,5.268908739E-1,-6.971949935E-1
3.040180103E0,1.948843837E0,4.991948307E-1,-7.280867696E-1
3.042705311E0,1.938191533E0,4.576507509E-1,-7.568480372E-1
3.045230468E0,1.929669619E0,4.139761925E-1,-7.845441103E-1
3.047755676E0,1.925408721E0,3.608476818E-1,-8.101097345E-1
3.050280832E0,1.916886806E0,2.926727831E-1,-8.398030996E-1
3.052806040E0,1.905169249E0,2.202369273E-1,-8.674991727E-1
3.055331197E0,1.901041508E0,1.541924775E-1,-8.909342885E-1
3.057856405E0,1.891454339E0,8.814803511E-2,-9.175651073E-1
3.060381613E0,1.880802035E0,3.062544949E-2,-9.367392659E-1
3.062906770E0,1.872280240E0,-1.198387146E-2,-9.505873322E-1
3.065431978E0,1.858432174E0,-4.394086078E-2,-9.686962962E-1
3.067957134E0,1.839257956E0,-5.565842614E-2,-9.761528969E-1
3.070482290E0,1.808366179E0,-5.778888986E-2,-9.772181511E-1
3.073007499E0,1.775344014E0,-4.820179567E-2,-9.750877023E-1
3.075532655E0,1.736995578E0,-2.902759984E-2,-9.644353390E-1
3.078057863E0,1.687994838E0,-5.592473317E-3,-9.473916292E-1
3.080583020E0,1.636863708E0,2.103835158E-2,-9.260869622E-1
3.083108228E0,1.577210665E0,5.193011090E-2,-9.005213380E-1
3.085633384E0,1.515427113E0,8.282186836E-2,-8.717600703E-1
3.088158540E0,1.447252274E0,1.094526947E-1,-8.451292515E-1
3.090683749E0,1.368425012E0,1.371487528E-1,-8.186315894E-1
3.093208905E0,1.287600398E0,1.573881805E-1,-7.920007706E-1
3.095734113E0,1.203446984E0,1.776276082E-1,-7.632394433E-1
3.098259270E0,1.110771775E0,1.957365721E-1,-7.408695817E-1
3.100784426E0,1.017031193E0,2.127802968E-1,-7.142387629E-1
3.103309634E0,9.243559837E-1,2.244978547E-1,-6.865426898E-1
3.105834790E0,8.327459097E-1,2.298240215E-1,-6.588466167E-1
3.108359999E0,7.411358953E-1,2.191716880E-1,-6.332810521E-1
3.110885155E0,6.517894268E-1,2.031932026E-1,-6.077154279E-1
3.113410363E0,5.676360726E-1,1.818885356E-1,-5.810846090E-1
3.115935520E0,4.856131077E-1,1.531272531E-1,-5.501928329E-1
3.118460728E0,4.078511000E-1,1.137136221E-1,-5.235620141E-1
3.120985936E0,3.322195411E-1,7.216953486E-2,-4.969311953E-1
3.123511093E0,2.661750913E-1,2.529928461E-2,-4.703003764E-1
3.126036301E0,2.022611201E-1,-2.476666868E-2,-4.468652606E-1
3.128561457E0,1.468690038E-1,-8.441971987E-2,-4.234301150E-1
3.131086613E0,9.999874979E-2,-1.408770680E-1,-3.999949992E-1
3.133611822E0,6.071828306E-2,-1.994648874E-1,-3.744294047E-1
3.136136978E0,2.663082629E-2,-2.536586225E-1,-3.424724042E-1
3.138662186E0,4.260932095E-3,-3.026593328E-1,-3.115806580E-1
3.141187343E0,-1.065232977E-2,-3.463338912E-1,-2.764279842E-1
3.143712551E0,-2.343512699E-2,-3.772256374E-1,-2.434057444E-1
3.146237707E0,-2.663082629E-2,-3.932041526E-1,-2.062557489E-1
3.148762915E0,-2.876129188E-2,-3.985303044E-1,-1.721682847E-1
3.151288124E0,-2.876129188E-2,-3.889431953E-1,-1.327546686E-1
3.153813280E0,-2.236989327E-2,-3.665733039E-1,-9.440627694E-2
3.156338488E0,-1.491326280E-2,-3.367467821E-1,-5.499265343E-2
3.158863645E0,-0.000000000E0,-2.962679267E-1,-1.238333434E-2
3.161388801E0,1.597849466E-2,-2.515281439E-1,3.022598661E-2
3.163914009E0,3.195698932E-2,-1.983996481E-1,6.431344151E-2
3.166439165E0,5.965305120E-2,-1.408770680E-1,1.015966013E-1
3.168964374E0,8.721595258E-2,-8.441971987E-2,1.314231306E-1
3.171489530E0,1.202381775E-1,-2.263620123E-2,1.580539495E-1
3.174014738E0,1.511299312E-1,4.127778113E-2,1.814890802E-1
3.176539895E0,1.873478591E-1,1.062569916E-1,2.027937323E-1
3.179065103E0,2.267614752E-1,1.680405140E-1,2.230331600E-1
3.181590311E0,2.640446424E-1,2.287587970E-1,2.390116602E-1
3.184115468E0,3.023930192E-1,2.916075289E-1,2.507292330E-1
3.186640676E0,3.364804685E-1,3.533910513E-1,2.571206093E-1
3.189165832E0,3.705679476E-1,4.022586346E-1,2.635120153E-1
3.191690988E0,4.067858756E-1,4.587159753E-1,2.635120153E-1
3.194216197E0,4.376776218E-1,5.109124184E-1,2.592510879E-1
3.196741353E0,4.643084407E-1,5.513912439E-1,2.549901605E-1
3.199266561E0,4.856131077E-1,5.950657725E-1,2.454030514E-1
3.201791718E0,5.047873259E-1,6.366099119E-1,2.358159572E-1
3.204316926E0,5.197005868E-1,6.685668826E-1,2.187722325E-1
3.206842082E0,5.292876363E-1,6.973281503E-1,1.995980442E-1
3.209367290E0,5.367442966E-1,7.260894775E-1,1.782933772E-1
3.211892499E0,5.431357026E-1,7.527202964E-1,1.495320797E-1
3.214417655E0,5.431357026E-1,7.793511152E-1,1.122489274E-1
3.216942811E0,5.452661514E-1,8.145037889E-1,7.177007198E-2
3.219468020E0,5.431357026E-1,8.496564627E-1,2.383458801E-2
3.221993176E0,5.452661514E-1,8.890700936E-1,-2.836182900E-2
3.224518384E0,5.388747454E-1,9.327446818E-1,-8.375394344E-2
3.227043540E0,5.303528905E-1,9.838758707E-1,-1.391460598E-1
3.229568749E0,5.154396296E-1,1.038069606E0,-1.913424879E-1
3.232093905E0,4.962654412E-1,1.099853039E0,-2.402100414E-1
3.234619113E0,4.696346223E-1,1.161636591E0,-2.945369184E-1
3.237144270E0,4.387428463E-1,1.229811549E0,-3.414071798E-1
3.239669478E0,4.057206213E-1,1.301182151E0,-3.786903322E-1
3.242194686E0,3.620460629E-1,1.368291855E0,-4.095821083E-1
3.244719843E0,3.141105771E-1,1.431140542E0,-4.330172241E-1
3.247244999E0,2.683055699E-1,1.487597942E0,-4.458000064E-1
3.249770207E0,2.256962508E-1,1.540859580E0,-4.532566369E-1
3.252295363E0,1.873478591E-1,1.584534168E0,-4.575175941E-1
3.254820572E0,1.596518010E-1,1.629140735E0,-4.511261880E-1
3.257345728E0,1.404775977E-1,1.661097765E0,-4.351477027E-1
3.259870936E0,1.298252791E-1,1.680271983E0,-4.106473327E-1
3.262396093E0,1.266295761E-1,1.691989541E0,-3.712337017E-1
3.264921301E0,1.319557428E-1,1.691989541E0,-3.254286945E-1
3.267446457E0,1.383471340E-1,1.677076221E0,-2.711018026E-1
3.269971613E0,1.479342431E-1,1.657902002E0,-2.178401500E-1
3.272496822E0,1.596518010E-1,1.617423177E0,-1.689725816E-1
3.275021978E0,1.639127284E-1,1.550446630E0,-1.231675670E-1
3.277547134E0,1.671084315E-1,1.458836675E0,-7.629731297E-2
3.280072343E0,1.628475040E-1,1.343791485E0,-3.688369319E-2
3.282597499E0,1.553908736E-1,1.205311179E0,-3.861469682E-3
3.285122707E0,1.404775977E-1,1.057243824E0,2.170412242E-2
3.287647863E0,1.213034093E-1,9.093095660E-1,4.513924941E-2
3.290173072E0,9.680305421E-2,7.665683031E-1,6.537867337E-2
3.292698228E0,6.817491353E-2,6.334142089E-1,8.348763734E-2
3.295223436E0,3.408745676E-2,5.268908739E-1,9.840089828E-2
3.297748593E0,4.260932095E-3,4.459331632E-1,1.101184636E-1
3.300273801E0,-2.236989327E-2,3.958672285E-1,1.218360290E-1
3.302799009E0,-4.687025398E-2,3.906742036E-1,1.292926520E-1
3.305324165E0,-6.604444981E-2,4.224980474E-1,1.271621883E-1
3.307849322E0,-7.137060910E-2,4.917382002E-1,1.207707971E-1
3.310374530E0,-7.137060910E-2,5.844134688E-1,1.154446304E-1
3.312899686E0,-5.645735189E-2,7.047848105E-1,1.111836955E-1
3.315424895E0,-3.515268862E-2,8.379389048E-1,1.037270650E-1
3.317950051E0,-3.195699072E-3,9.753540158E-1,1.069227681E-1
3.320475259E0,3.408745676E-2,1.108374953E0,1.165098622E-1
3.323000415E0,6.284874678E-2,1.224485397E0,1.399449855E-1
3.325525624E0,8.934641629E-2,1.316095352E0,1.814890802E-1
3.328050780E0,1.106510833E-1,1.376813650E0,2.464682907E-1
3.330575988E0,1.138467789E-1,1.411966324E0,3.210346103E-1
3.333101197E0,1.010639817E-1,1.420488238E0,4.125114977E-1
3.335626353E0,6.284874678E-2,1.401314020E0,5.073172450E-1
3.338151509E0,2.130466048E-3,1.369357109E0,5.882749557E-1
3.340676718E0,-9.480573982E-2,1.319291115E0,6.330147386E-1
3.343201874E0,-2.268946320E-1,1.220224380E0,6.340799332E-1
3.345727082E0,-3.866795897E-1,1.060439467E0,6.063839197E-1
3.348252238E0,-5.868102312E-1,8.251561522E-1,5.754921436E-1
3.350777447E0,-8.254224658E-1,4.991948307E-1,5.520570278E-1
3.353302603E0,-1.102383018E0,9.027849883E-2,5.499265194E-1
3.355827811E0,-1.406906486E0,-3.601819277E-1,5.605788827E-1
3.358352968E0,-1.713693619E0,-8.011884093E-1,5.722964406E-1
3.360878176E0,-1.984129667E0,-1.168560624E0,5.840139985E-1
3.363403384E0,-2.170545340E0,-1.424216509E0,5.818835497E-1
3.365928540E0,-2.268546820E0,-1.550846100E0,5.754921436E-1
3.368453697E0,-2.273873091E0,-1.555107117E0,5.595136285E-1
3.370978905E0,-2.191850185E0,-1.451779485E0,5.403394699E-1
3.373504061E0,-2.045913219E0,-1.259105444E0,5.169043541E-1
3.376029270E0,-1.856301665E0,-1.006645203E0,4.902735054E-1
3.378554426E0,-1.652975321E0,-7.170349956E-1,4.636426866E-1
3.381079634E0,-1.437798262E0,-3.974650800E-1,4.391423166E-1
3.383604790E0,-1.224751711E0,-6.311506033E-2,4.061200917E-1
3.386129999E0,-1.023555756E0,2.820204496E-1,3.689700961E-1
3.388655155E0,-8.403357267E-1,6.312837005E-1,3.316869438E-1
3.391180363E0,-6.794854999E-1,9.689626098E-1,2.880123854E-1
3.393705572E0,-5.410051942E-1,1.289464593E0,2.422073632E-1
3.396230728E0,-4.314193726E-1,1.588795066E0,1.942718774E-1
3.398755884E0,-3.430050313E-1,1.847513556E0,1.399449855E-1
3.401281093E0,-2.737648785E-1,2.068016768E0,8.029194176E-2
3.403806249E0,-2.290250957E-1,2.235125303E0,1.531272475E-2
3.406331457E0,-2.002638131E-1,2.354431391E0,-5.712312087E-2
3.408856613E0,-1.810896099E-1,2.424736738E0,-1.327546686E-1
3.411381822E0,-1.736329794E-1,2.449237108E0,-1.987991184E-1
3.413906978E0,-1.640458852E-1,2.430062771E0,-2.593842447E-1
3.416432186E0,-1.480673850E-1,2.377866507E0,-3.115806580E-1
3.418957343E0,-1.193061024E-1,2.300104380E0,-3.520595133E-1
3.421482551E0,-7.456631213E-2,2.201170921E0,-3.786903322E-1
3.424007759E0,-1.171756350E-2,2.091451883E0,-3.925383687E-1
3.426532915E0,6.604444981E-2,1.962558746E0,-4.085168540E-1
3.429058072E0,1.564560980E-1,1.813426018E0,-4.276910722E-1
3.431583280E0,2.544575334E-1,1.645119309E0,-4.543218911E-1
3.434108436E0,3.524589837E-1,1.455640912E0,-4.852136374E-1
3.436633645E0,4.547213614E-1,1.252181411E0,-5.129097104E-1
3.439158801E0,5.473966002E-1,1.031678200E0,-5.363448262E-1
3.441684009E0,6.304848194E-1,8.070471883E-1,-5.491276383E-1
3.444209165E0,7.049179673E-1,5.833482146E-1,-5.491276383E-1
3.446734374E0,7.560491562E-1,3.768261969E-1,-5.299534202E-1
3.449259530E0,7.986584306E-1,1.872147024E-1,-4.958659708E-1
3.451784738E0,8.199630976E-1,1.571218669E-2,-4.596480429E-1
3.454309947E0,8.210283518E-1,-1.398118287E-1,-4.170387387E-1
3.456835103E0,8.082455397E-1,-2.920069993E-1,-3.765598834E-1
3.459360259E0,7.837451696E-1,-4.475310147E-1,-3.509942889E-1
3.461885468E0,7.432663441E-1,-6.051855087E-1,-3.424724042E-1
3.464410624E0,6.963961124E-1,-7.702966332E-1,-3.477985859E-1
3.466935832E0,6.432675719E-1,-9.406007528E-1,-3.691032529E-1
3.469460988E0,5.942668915E-1,-1.104646683E0,-3.957340717E-1
3.471986197E0,5.537880063E-1,-1.253779292E0,-4.223648906E-1
3.474511353E0,5.260919333E-1,-1.387998581E0,-4.489957094E-1
3.477036561E0,5.026568174E-1,-1.500780225E0,-4.692351520E-1
3.479561718E0,4.930697381E-1,-1.589194536E0,-4.809527099E-1
3.482086926E0,4.877435565E-1,-1.661630392E0,-4.841484129E-1
3.484612134E0,4.909392595E-1,-1.708500624E0,-4.788222313E-1
3.487137290E0,4.952002168E-1,-1.739392400E0,-4.724308550E-1
3.489662447E0,4.952002168E-1,-1.748979449E0,-4.585828185E-1
3.492187655E0,4.952002168E-1,-1.740457654E0,-4.394086301E-1
3.494712811E0,4.983958900E-1,-1.723413825E0,-4.255605936E-1
3.497238020E0,5.026568174E-1,-1.698913574E0,-4.127778113E-1
3.499763176E0,5.090482235E-1,-1.663760781E0,-4.010602236E-1
3.502288384E0,5.239614844E-1,-1.617955804E0,-3.904078901E-1
3.504813540E0,5.420704484E-1,-1.567889810E0,-3.840165138E-1
3.507338749E0,5.676360726E-1,-1.510367274E0,-3.754946291E-1
3.509863905E0,5.963973403E-1,-1.449648976E0,-3.733641803E-1
3.512389113E0,6.262238622E-1,-1.387998581E0,-3.680379987E-1
3.514914322E0,6.528546810E-1,-1.328345537E0,-3.659075499E-1
3.517439478E0,6.794854999E-1,-1.272953510E0,-3.659075499E-1
3.519964634E0,7.038527131E-1,-1.213300467E0,-3.627118468E-1
3.522489843E0,7.272878289E-1,-1.161103964E0,-3.595161438E-1
3.525014999E0,7.539186478E-1,-1.114233732E0,-3.584509194E-1
3.527540207E0,7.762885690E-1,-1.067363501E0,-3.584509194E-1
3.530065363E0,7.997236848E-1,-1.022623658E0,-3.616466224E-1
3.532590572E0,8.220936060E-1,-9.778839350E-1,-3.605813682E-1
3.535115728E0,8.423330188E-1,-9.246222377E-1,-3.605813682E-1
3.537640936E0,8.583115339E-1,-8.734911084E-1,-3.595161438E-1
3.540166093E0,8.774856925E-1,-8.214278221E-1,-3.605813682E-1
3.542691301E0,8.892032504E-1,-7.617747784E-1,-3.563204408E-1
3.545216509E0,8.977251053E-1,-7.021217346E-1,-3.627118468E-1
3.547741665E0,9.051817656E-1,-6.456643939E-1,-3.659075499E-1
3.550266822E0,9.073122144E-1,-5.881417990E-1,-3.659075499E-1
3.552792030E0,9.094427228E-1,-5.338149071E-1,-3.701684773E-1
3.555317186E0,9.105079174E-1,-4.837489426E-1,-3.680379987E-1
3.557842395E0,9.062470198E-1,-4.432700872E-1,-3.627118468E-1
3.560367551E0,9.009208083E-1,-4.038564563E-1,-3.563204408E-1
3.562892759E0,8.966599107E-1,-3.687037826E-1,-3.520595133E-1
3.565417915E0,8.870728016E-1,-3.410077095E-1,-3.446028829E-1
3.567943124E0,8.764204979E-1,-3.154421151E-1,-3.328853250E-1
3.570468280E0,8.636376858E-1,-2.920069993E-1,-3.201025128E-1
3.572993488E0,8.476591706E-1,-2.675066292E-1,-3.083849549E-1
3.575518697E0,8.316806555E-1,-2.483324558E-1,-2.987978756E-1
3.578043853E0,8.167673945E-1,-2.280930281E-1,-2.828193605E-1
3.580569009E0,7.986584306E-1,-2.047910541E-1,-2.657756507E-1
3.583094218E0,7.752233148E-1,-1.845516264E-1,-2.519276142E-1
3.585619374E0,7.517881989E-1,-1.589860320E-1,-2.380795777E-1
3.588144582E0,7.283530831E-1,-1.323551983E-1,-2.210358530E-1
3.590669738E0,6.974613070E-1,-1.025286764E-1,-1.977338791E-1
3.593194947E0,6.635070443E-1,-6.950645149E-2,-1.774944514E-1
3.595720103E0,6.240934134E-1,-3.541899845E-2,-1.551245600E-1
3.598245311E0,5.804188251E-1,-4.527240526E-3,-1.348851323E-1
3.600770468E0,5.335485935E-1,2.636451647E-2,-1.178414002E-1
3.603295728E0,4.813521802E-1,5.725627393E-2,-1.007976755E-1
3.605820936E0,4.302209914E-1,8.921326697E-2,-8.481918275E-2
3.608346093E0,3.695026934E-1,1.190397888E-1,-6.990591437E-2
3.610871249E0,3.119801283E-1,1.446053833E-1,-5.392742157E-2
3.613396457E0,2.512618303E-1,1.648448110E-1,-4.114462435E-2
3.615921613E0,1.926740259E-1,1.829537749E-1,-2.942706272E-2
3.618446822E0,1.298252791E-1,1.872147024E-1,-1.877473295E-2
3.620971978E0,6.924014539E-2,1.840189993E-1,-7.057168987E-3
3.623497186E0,9.587096982E-3,1.733666807E-1,3.994623839E-4
3.626022343E0,-5.219641700E-2,1.541924775E-1,7.856093347E-3
3.628547551E0,-1.107842326E-1,1.286268830E-1,1.531272475E-2
3.631072707E0,-1.693720520E-1,9.453943372E-2,1.637795754E-2
3.633597915E0,-2.247641683E-1,5.619104207E-2,1.850842312E-2
3.636123124E0,-2.801562846E-1,1.464695390E-2,2.276935615E-2
3.638648280E0,-3.312874734E-1,-3.009283356E-2,2.489982173E-2
3.641173436E0,-3.813534081E-1,-7.589785010E-2,2.809552103E-2
3.643698645E0,-4.250279665E-1,-1.153114736E-1,3.342168778E-2
3.646223801E0,-4.580501914E-1,-1.462032348E-1,4.087831825E-2
3.648749009E0,-4.932028949E-1,-1.611164957E-1,5.579157919E-2
3.651274165E0,-5.251598954E-1,-1.611164957E-1,7.177007198E-2
3.653799374E0,-5.548532605E-1,-1.376813650E-1,8.881380409E-2
3.656324530E0,-5.772231221E-1,-9.826774895E-2,1.111836955E-1
3.658849738E0,-6.006582975E-1,-3.754946589E-2,1.346188188E-1
3.661374895E0,-6.272891164E-1,3.914731368E-2,1.623148769E-1
3.663900103E0,-6.475285292E-1,1.254311949E-1,1.857500076E-1
3.666425311E0,-6.624417901E-1,2.170412242E-1,2.102503628E-1
3.668950468E0,-6.794854999E-1,3.075860441E-1,2.368811965E-1
3.671475624E0,-6.922683120E-1,3.949351311E-1,2.571206093E-1
3.674000832E0,-7.061163187E-1,4.757596850E-1,2.794905007E-1
3.676525988E0,-7.199643850E-1,5.471302867E-1,2.944037914E-1
3.679051197E0,-7.306166887E-1,6.153052449E-1,3.103822768E-1
3.681576353E0,-7.455299497E-1,6.770887375E-1,3.210346103E-1
3.684101561E0,-7.615084648E-1,7.346113324E-1,3.316869438E-1
3.686626718E0,-7.774869800E-1,7.921339273E-1,3.423392773E-1
3.689151926E0,-7.924002409E-1,8.421998620E-1,3.476654291E-1
3.691677082E0,-8.073135018E-1,8.975919485E-1,3.561872840E-1
3.694202290E0,-8.169005513E-1,9.561797976E-1,3.679048419E-1
3.696727499E0,-8.254224658E-1,1.011438727E0,3.785571754E-1
3.699252655E0,-8.254224658E-1,1.079613686E0,3.860138059E-1
3.701777811E0,-8.222267628E-1,1.148853779E0,3.945356905E-1
3.704303020E0,-8.115743995E-1,1.222354889E0,4.007939398E-1
3.706828176E0,-7.945306897E-1,1.282007933E0,4.093157947E-1
3.709353384E0,-7.742912769E-1,1.322486758E0,4.167724252E-1
3.711878540E0,-7.476604581E-1,1.342726231E0,4.274247587E-1
3.714403749E0,-7.210295796E-1,1.360835195E0,4.455337226E-1
3.716928905E0,-6.975944638E-1,1.368291855E0,4.679036140E-1
3.719454113E0,-6.752246022E-1,1.359769940E0,4.881430268E-1
3.721979270E0,-6.528546810E-1,1.327812910E0,5.073172450E-1
3.724504478E0,-6.347457170E-1,1.274551272E0,5.222305059E-1
3.727029686E0,-6.187672615E-1,1.198919773E0,5.382089615E-1
3.729554843E0,-6.070496440E-1,1.097722650E0,5.563179255E-1
3.732080051E0,-6.038539410E-1,9.721583128E-1,5.754921436E-1
3.734605207E0,-6.070496440E-1,8.230256438E-1,5.925358534E-1
3.737130415E0,-6.198324561E-1,6.557840705E-1,6.085143685E-1
3.739655572E0,-6.422023773E-1,4.736292362E-1,6.340799332E-1
3.742180780E0,-6.709636450E-1,2.894770801E-1,6.521888971E-1
3.744705936E0,-7.093120217E-1,1.126483902E-1,6.713631153E-1
3.747231093E0,-7.487256527E-1,-5.991935730E-2,6.884068251E-1
3.749756301E0,-7.849435806E-1,-2.270277888E-1,7.011896372E-1
3.752281457E0,-8.232919574E-1,-3.857475221E-1,7.086462975E-1
3.754806718E0,-8.584446907E-1,-5.338149071E-1,7.150376439E-1
3.757331926E0,-8.882712126E-1,-6.616428494E-1,7.150376439E-1
3.759857082E0,-9.159672260E-1,-7.596443295E-1,7.075810432E-1
3.762382290E0,-9.404675961E-1,-8.192973733E-1,7.022548914E-1
3.764907447E0,-9.521851540E-1,-8.404688835E-1,6.841459274E-1
3.767432655E0,-9.532504082E-1,-8.214278221E-1,6.660369635E-1
3.769957811E0,-9.436632991E-1,-7.617747784E-1,6.426018476E-1
3.772483020E0,-9.255543351E-1,-6.690995097E-1,6.159709692E-1
3.775008176E0,-8.989235163E-1,-5.519238710E-1,5.850792527E-1
3.777533332E0,-8.722926974E-1,-4.219654202E-1,5.499265194E-1
3.780058540E0,-8.520532846E-1,-2.802894413E-1,5.158390999E-1
3.782583697E0,-8.403357267E-1,-1.462032348E-1,4.817516208E-1
3.785148384E0,-8.328790665E-1,-3.328853101E-2,4.561860561E-1
3.787673540E0,-8.350095153E-1,5.832150951E-2,4.338161349E-1
3.790198749E0,-8.467270732E-1,1.190397888E-1,4.231638312E-1
3.792723957E0,-8.616403341E-1,1.478010863E-1,4.210333526E-1
3.795249113E0,-8.786841035E-1,1.446053833E-1,4.199681282E-1
3.797774270E0,-8.978582621E-1,1.030612960E-1,4.284899831E-1
3.800299478E0,-9.085106254E-1,3.595161438E-2,4.348813891E-1
3.802824634E0,-9.149020314E-1,-5.459319428E-2,4.434032440E-1
3.805349843E0,-9.244890809E-1,-1.653774232E-1,4.519250989E-1
3.807874999E0,-9.298152924E-1,-2.813546658E-1,4.657731354E-1
3.810400207E0,-9.330109954E-1,-3.921388984E-1,4.817516208E-1
3.812925363E0,-9.330109954E-1,-5.061188340E-1,4.934692085E-1
3.815411093E0,-9.255543351E-1,-6.051855087E-1,5.019910336E-1
3.817936301E0,-9.117063284E-1,-6.808170676E-1,5.083824396E-1
3.820461457E0,-8.861407042E-1,-7.351439595E-1,5.211652517E-1
3.822986665E0,-8.467270732E-1,-7.681661844E-1,5.307523608E-1
3.825511822E0,-7.913349867E-1,-7.702966332E-1,5.360785127E-1
3.828037030E0,-7.167686820E-1,-7.340787053E-1,5.414046645E-1
3.830562186E0,-6.358109713E-1,-6.690995097E-1,5.446003675E-1
3.833087395E0,-5.505923033E-1,-5.753589869E-1,5.456656218E-1
3.835612551E0,-4.623111188E-1,-4.517919421E-1,5.446003675E-1
3.838137707E0,-3.834838867E-1,-3.111811876E-1,5.424699187E-1
3.840662915E0,-3.142437339E-1,-1.504641622E-1,5.392742157E-1
3.843188072E0,-2.588516176E-1,1.571218669E-2,5.318176150E-1
3.845713280E0,-2.205032408E-1,1.893451661E-1,5.254262090E-1
3.848238488E0,-1.960028708E-1,3.523258269E-1,5.179695487E-1
3.850763645E0,-1.800243855E-1,5.013253093E-1,5.147738457E-1
3.853288853E0,-1.768286824E-1,6.323489547E-1,5.200999975E-1
3.855814009E0,-1.778939217E-1,7.378070354E-1,5.307523608E-1
3.858339218E0,-1.842853129E-1,8.017209768E-1,5.467308760E-1
3.860864374E0,-2.034595013E-1,8.358084559E-1,5.754921436E-1
3.863389582E0,-2.386122048E-1,8.379389048E-1,6.031882167E-1
3.865914738E0,-2.833519876E-1,8.134385943E-1,6.351451874E-1
3.868439895E0,-3.462007344E-1,7.761554122E-1,6.649717093E-1
3.870965103E0,-4.260932207E-1,7.260894775E-1,6.990591884E-1
3.873490259E0,-5.283555984E-1,6.557840705E-1,7.395380139E-1
3.876015468E0,-6.571156383E-1,5.705654621E-1,7.853430510E-1
3.878540676E0,-8.296833634E-1,4.587159753E-1,8.343437910E-1
3.881065832E0,-1.035273314E0,3.139774203E-1,8.939968348E-1
3.883591040E0,-1.273752332E0,1.392792165E-1,9.653674364E-1
3.886116197E0,-1.540060639E0,-5.885412544E-2,1.054713845E0
3.888641405E0,-1.828605652E0,-2.781589627E-1,1.142062902E0
3.891166561E0,-2.122609854E0,-5.114449859E-1,1.232607722E0
3.893691770E0,-2.407959223E0,-7.447310090E-1,1.327413559E0
3.896216926E0,-2.672137022E0,-9.789491296E-1,1.415827870E0
3.898742082E0,-2.903292656E0,-1.206909060E0,1.498916030E0
3.901267290E0,-3.099162340E0,-1.431540012E0,1.576678038E0
3.903792447E0,-3.248295069E0,-1.645651817E0,1.642589331E0
3.906317655E0,-3.347361565E0,-1.856567979E0,1.702242374E0
3.908842863E0,-3.407014608E0,-2.056698561E0,1.744851708E0
3.911368020E0,-3.433645487E0,-2.231396914E0,1.778939128E0
3.913893228E0,-3.435775995E0,-2.383725166E0,1.794917703E0
3.916418384E0,-3.418732166E0,-2.501966000E0,1.793852448E0
3.918943593E0,-3.393166542E0,-2.568010569E0,1.778939128E0
3.921468749E0,-3.371861935E0,-2.587184668E0,1.754438758E0
3.923993957E0,-3.363340139E0,-2.547770977E0,1.719286084E0
3.926519113E0,-3.356948614E0,-2.461487293E0,1.678807259E0
3.929044270E0,-3.365470648E0,-2.328333139E0,1.640458822E0
3.931569478E0,-3.371861935E0,-2.154700041E0,1.600113153E0
3.934094634E0,-3.378253460E0,-1.958830357E0,1.558569074E0
3.936619843E0,-3.384644747E0,-1.744718552E0,1.518090248E0
3.939145051E0,-3.380383730E0,-1.529541492E0,1.480807066E0
3.941670207E0,-3.370796680E0,-1.326215148E0,1.442458630E0
3.944195415E0,-3.354818344E0,-1.141929746E0,1.406240702E0
3.946720572E0,-3.330317974E0,-9.938623905E-1,1.372153282E0
3.949245780E0,-3.315404654E0,-8.649691939E-1,1.333804846E0
3.951770936E0,-3.296230555E0,-7.660356760E-1,1.285869360E0
3.954296145E0,-3.270664930E0,-7.106435895E-1,1.236868739E0
3.956821301E0,-3.241903543E0,-6.914693713E-1,1.183607101E0
3.959346457E0,-3.205685616E0,-7.159697413E-1,1.121823549E0
3.961871665E0,-3.150293589E0,-7.841446400E-1,1.060039997E0
3.964396822E0,-3.078922987E0,-8.820129633E-1,9.898678064E-1
3.966922030E0,-2.993704319E0,-9.917319417E-1,9.238233566E-1
3.969447238E0,-2.893705606E0,-1.101450920E0,8.599093556E-1
3.971972395E0,-2.779725552E0,-1.193060994E0,7.959953547E-1
3.974497603E0,-2.659354210E0,-1.239931226E0,7.416685224E-1
3.977022759E0,-2.536852360E0,-1.231409431E0,6.947982311E-1
3.979547968E0,-2.409024477E0,-1.170691133E0,6.564498544E-1
3.982073124E0,-2.286655903E0,-1.058841586E0,6.383408904E-1
3.984598332E0,-2.176936865E0,-9.075785279E-1,6.255580783E-1
3.987123488E0,-2.072544098E0,-7.362091541E-1,6.181014776E-1
3.989648645E0,-1.973477364E0,-5.519238710E-1,6.149057746E-1
3.992173853E0,-1.880802035E0,-3.569862247E-1,6.095796227E-1
3.994699009E0,-1.788126826E0,-1.792254597E-1,6.010577083E-1
3.997224270E0,-1.700910807E0,-3.754946589E-2,5.861444473E-1
3.999749478E0,-1.621018410E0,6.684337556E-2,5.637745857E-1
4.002274634E0,-1.535799742E0,1.328878254E-1,5.435351729E-1
4.004799843E0,-1.453776717E0,1.744319052E-1,5.222305059E-1
4.007324999E0,-1.374949574E0,1.786928326E-1,4.966649115E-1
4.009850207E0,-1.303578854E0,1.531272531E-1,4.721645415E-1
4.012375363E0,-1.237534523E0,1.041265279E-1,4.444684684E-1
4.014900572E0,-1.180011868E0,3.595161438E-2,4.157072008E-1
4.017425728E0,-1.124752879E0,-3.648423031E-2,3.913399875E-1
4.019950884E0,-1.076817393E0,-1.057243794E-1,3.721657991E-1
4.022476093E0,-1.028881907E0,-1.664426625E-1,3.519263566E-1
4.025001249E0,-9.862726331E-1,-2.206363827E-1,3.359478712E-1
4.027526457E0,-9.457937479E-1,-2.611152530E-1,3.242303133E-1
4.030051665E0,-9.074453712E-1,-2.877460718E-1,3.178389072E-1
4.032576822E0,-8.786841035E-1,-3.005288541E-1,3.146432042E-1
4.035102030E0,-8.456618786E-1,-3.122464418E-1,3.199693561E-1
4.037627186E0,-8.200962543E-1,-3.356815577E-1,3.284912407E-1
4.040152395E0,-7.945306897E-1,-3.655080795E-1,3.359478712E-1
4.042677551E0,-7.678998709E-1,-4.102478623E-1,3.412740231E-1
4.045202759E0,-7.423342466E-1,-4.635095298E-1,3.508611321E-1
4.047727915E0,-7.103772759E-1,-5.348801613E-1,3.497959077E-1
4.050253072E0,-6.805507541E-1,-6.062507629E-1,3.434045017E-1
4.052778280E0,-6.422023773E-1,-6.754909158E-1,3.327521682E-1
4.055303436E0,-5.963973403E-1,-7.340787053E-1,3.178389072E-1
4.057828645E0,-5.473966002E-1,-7.862751484E-1,3.007951677E-1
4.060353853E0,-4.910724163E-1,-8.234251142E-1,2.880123854E-1
4.062879009E0,-4.356803000E-1,-8.425993323E-1,2.699034214E-1
4.065404218E0,-3.760272563E-1,-8.340774775E-1,2.496639937E-1
4.067929374E0,-3.110480309E-1,-8.065145612E-1,2.187722325E-1
4.070454582E0,-2.481992990E-1,-7.521876693E-1,1.942718774E-1
4.072979738E0,-1.853505522E-1,-6.744256616E-1,1.591191888E-1
4.075504947E0,-1.171756312E-1,-5.753589869E-1,1.186403260E-1
4.078030103E0,-4.473978654E-2,-4.432700872E-1,6.750914454E-2
4.080555259E0,3.408745676E-2,-2.952027023E-1,1.105179265E-2
4.083080468E0,1.106510833E-1,-1.366161406E-1,-5.286218971E-2
4.085605624E0,1.937392503E-1,3.595161438E-2,-1.199718714E-1
4.088130832E0,2.768274248E-1,2.191716880E-1,-1.892120093E-1
4.090656040E0,3.641765416E-1,4.065195620E-1,-2.604494691E-1
4.093181197E0,4.589822888E-1,5.950657725E-1,-3.296896219E-1
4.095706405E0,5.452661514E-1,7.857425213E-1,-3.978645205E-1
4.098231561E0,6.390066743E-1,9.647016525E-1,-4.607132971E-1
4.100756770E0,7.336792350E-1,1.133940578E0,-5.235620141E-1
4.103281926E0,8.306154609E-1,1.293725491E0,-5.778889060E-1
4.105807134E0,9.232907295E-1,1.432205796E0,-6.194329858E-1
4.108332290E0,1.010639787E0,1.556838036E0,-6.609770656E-1
4.110857447E0,1.100119352E0,1.653641105E0,-6.918688416E-1
4.113382655E0,1.182142377E0,1.723946452E0,-7.248910666E-1
4.115907811E0,1.262034774E0,1.767621040E0,-7.461957335E-1
4.118433020E0,1.340728879E0,1.779338598E0,-7.664351463E-1
4.120958228E0,1.415295243E0,1.767621040E0,-7.845441103E-1
4.123483384E0,1.481339693E0,1.727142215E0,-7.898702621E-1
4.126008593E0,1.540992737E0,1.666423917E0,-7.898702621E-1
4.128533749E0,1.597450018E0,1.584534168E0,-7.920007706E-1
4.131058957E0,1.644320369E0,1.487597942E0,-7.824136615E-1
4.133584113E0,1.687994838E0,1.381074667E0,-7.717612982E-1
4.136109322E0,1.721017122E0,1.264964223E0,-7.664351463E-1
4.138634478E0,1.754039288E0,1.138201475E0,-7.589785457E-1
4.141159634E0,1.785996318E0,1.011438727E0,-7.515218854E-1
4.143684843E0,1.816888094E0,8.869396448E-1,-7.461957335E-1
4.146209999E0,1.845649362E0,7.655031085E-1,-7.430000305E-1
4.148735259E0,1.873345375E0,6.525883675E-1,-7.451304793E-1
4.151260468E0,1.899976254E0,5.503259897E-1,-7.472609878E-1
4.153785624E0,1.926473975E0,4.555202723E-1,-7.515218854E-1
4.156310832E0,1.957365632E0,3.725652397E-1,-7.536523938E-1
4.158835988E0,1.989322662E0,2.990641594E-1,-7.621742487E-1
4.161361197E0,2.022344828E0,2.308892608E-1,-7.685656548E-1
4.163886353E0,2.055367231E0,1.701709777E-1,-7.738918066E-1
4.166411561E0,2.093715429E0,1.190397888E-1,-7.770875096E-1
4.168936718E0,2.128868103E0,7.216953486E-2,-7.770875096E-1
4.171461874E0,2.169347048E0,2.956021577E-2,-7.792179585E-1
4.173987082E0,2.208760738E0,-4.527240526E-3,-7.770875096E-1
4.176512238E0,2.244978666E0,-3.541899845E-2,-7.749570012E-1
4.179037447E0,2.280131340E0,-5.246272683E-2,-7.738918066E-1
4.181562655E0,2.308892488E0,-5.885412544E-2,-7.717612982E-1
4.184087811E0,2.336588621E0,-5.459319428E-2,-7.675004005E-1
4.186613020E0,2.363219500E0,-3.861469775E-2,-7.643046975E-1
4.189138176E0,2.381328344E0,-1.198387146E-2,-7.611089945E-1
4.191663384E0,2.397306919E0,2.316881903E-2,-7.536523938E-1
4.194188540E0,2.404763460E0,6.364767253E-2,-7.547175884E-1
4.196713749E0,2.405828714E0,1.073222235E-1,-7.579132915E-1
4.199238905E0,2.403698206E0,1.509967744E-1,-7.579132915E-1
4.201764061E0,2.394111156E0,1.999974996E-1,-7.579132915E-1
4.204289270E0,2.384524107E0,2.458025217E-1,-7.632394433E-1
4.206814426E0,2.365350008E0,2.873466015E-1,-7.706961036E-1
4.209339634E0,2.335523367E0,3.267602324E-1,-7.738918066E-1
4.211864843E0,2.304631710E0,3.629781604E-1,-7.770875096E-1
4.214389999E0,2.268413782E0,3.928046823E-1,-7.813484073E-1
4.216915207E0,2.221543550E0,4.097152650E-1,-7.845441103E-1
4.219440363E0,2.173608065E0,4.278241992E-1,-7.866745591E-1
4.221965572E0,2.122476816E0,4.342156053E-1,-7.813484073E-1
4.224490728E0,2.068149805E0,4.310199022E-1,-7.675004005E-1
4.227015936E0,2.008496761E0,4.150414169E-1,-7.525871396E-1
4.229541093E0,1.948843837E0,3.969324529E-1,-7.493914366E-1
4.232066249E0,1.891454339E0,3.736304939E-1,-7.589785457E-1
4.234591457E0,1.830736160E0,3.565867543E-1,-7.717612982E-1
4.237116613E0,1.771082997E0,3.363473415E-1,-7.856093645E-1
4.239641822E0,1.708234310E0,3.171731234E-1,-8.005226254E-1
4.242167030E0,1.647516012E0,3.022598624E-1,-8.133054376E-1
4.244692186E0,1.587862968E0,2.916075289E-1,-8.196967840E-1
4.247217395E0,1.533536077E0,2.820204496E-1,-8.259550333E-1
4.249742551E0,1.474948287E0,2.788247466E-1,-8.323464394E-1
4.252267759E0,1.425947547E0,2.862813771E-1,-8.376725912E-1
4.254792915E0,1.379077315E0,2.979989350E-1,-8.387378454E-1
4.257318124E0,1.333272338E0,3.171731234E-1,-8.408682942E-1
4.259843280E0,1.293858647E0,3.448691964E-1,-8.440639973E-1
4.262368488E0,1.257773876E0,3.757609427E-1,-8.429988027E-1
4.264893645E0,1.223686457E0,4.065195620E-1,-8.408682942E-1
4.267418853E0,1.199186087E0,4.427374899E-1,-8.419335485E-1
4.269944061E0,1.176816225E0,4.778901637E-1,-8.451292515E-1
4.272469270E0,1.164033413E0,5.130428672E-1,-8.515206575E-1
4.274994426E0,1.155511498E0,5.439345837E-1,-8.589772582E-1
4.277519634E0,1.154446244E0,5.737611651E-1,-8.653686643E-1
4.280044790E0,1.164033413E0,5.971962810E-1,-8.728253245E-1
4.282569999E0,1.184272766E0,6.216966510E-1,-8.845428824E-1
4.285095155E0,1.203446984E0,6.387403607E-1,-8.962604403E-1
4.287620363E0,1.230077863E0,6.493926644E-1,-9.111737013E-1
4.290145520E0,1.265230536E0,6.557840705E-1,-9.239565134E-1
4.292670728E0,1.306641459E0,6.600450277E-1,-9.367392659E-1
4.295195884E0,1.353511691E0,6.643059254E-1,-9.473916292E-1
4.297721093E0,1.401447177E0,6.696321368E-1,-9.591091871E-1
4.300246301E0,1.449382663E0,6.685668826E-1,-9.718919992E-1
4.302771509E0,1.497318149E0,6.664364338E-1,-9.910661578E-1
4.305296665E0,1.547384143E0,6.643059254E-1,-1.007044673E0
4.307821874E0,1.599580526E0,6.483274698E-1,-1.017696977E0
4.310347030E0,1.647516012E0,6.195661426E-1,-1.027284145E0
4.312872238E0,1.689060092E0,5.812177658E-1,-1.036871195E0
4.315397395E0,1.721017122E0,5.322170258E-1,-1.043262601E0
4.317922603E0,1.745517492E0,4.789553881E-1,-1.042197347E0
4.320447759E0,1.760430694E0,4.235632718E-1,-1.037936449E0
4.322972968E0,1.768952608E0,3.672390878E-1,-1.033675551E0
4.325498124E0,1.763626456E0,3.107817471E-1,-1.028349280E0
4.328023332E0,1.750843644E0,2.521939278E-1,-1.018762231E0
4.330548488E0,1.730604172E0,1.989322603E-1,-1.009175181E0
4.333073697E0,1.702908158E0,1.488663107E-1,-9.995880127E-1
4.335598853E0,1.665624976E0,9.986559302E-2,-1.001718521E0
4.338124061E0,1.624080896E0,5.406057462E-2,-1.011305571E0
4.340649218E0,1.572949767E0,1.038602181E-2,-1.018762231E0
4.343174426E0,1.516492367E0,-2.370143496E-2,-1.037936449E0
4.345699582E0,1.461100221E0,-4.820179567E-2,-1.052849650E0
4.348224790E0,1.400381923E0,-5.672365800E-2,-1.063502073E0
4.350749947E0,1.337533236E0,-4.607132822E-2,-1.074154377E0
4.353275155E0,1.268426180E0,-1.837527007E-2,-1.074154377E0
4.355800311E0,1.204512239E0,2.849498391E-2,-1.061371565E0
4.358325520E0,1.136337280E0,8.601756394E-2,-1.035805941E0
4.360850728E0,1.074553847E0,1.541924775E-1,-9.974575639E-1
4.363375936E0,1.019161701E0,2.276935577E-1,-9.410002232E-1
4.365901093E0,9.616391063E-1,3.022598624E-1,-8.632382154E-1
4.368426301E0,9.126383662E-1,3.736304939E-1,-7.802832127E-1
4.370951457E0,8.657681346E-1,4.501941204E-1,-6.780208349E-1
4.373476665E0,8.242240548E-1,5.300865769E-1,-5.746932030E-1
4.376001822E0,7.869408727E-1,6.067833900E-1,-4.713656008E-1
4.378527030E0,7.517881989E-1,6.781539917E-1,-3.754946291E-1
4.381052186E0,7.240921259E-1,7.335460782E-1,-2.849498391E-1
4.383577395E0,6.953308582E-1,7.782858610E-1,-2.135792226E-1
4.386102551E0,6.730940938E-1,8.134385943E-1,-1.551245600E-1
4.388627759E0,6.517894268E-1,8.411346078E-1,-1.114500016E-1
4.391152915E0,6.368761659E-1,8.624392748E-1,-7.842778414E-2
4.393678124E0,6.262238622E-1,8.784177899E-1,-6.244928762E-2
4.396203280E0,6.198324561E-1,8.880048990E-1,-5.179695413E-2
4.398728488E0,6.208977103E-1,8.912006021E-1,-4.434032366E-2
4.401253645E0,6.304848194E-1,8.890700936E-1,-3.794892505E-2
4.403778853E0,6.432675719E-1,8.826786876E-1,-3.368799388E-2
4.406304009E0,6.581808329E-1,8.677654266E-1,-2.836182900E-2
4.408829218E0,6.805507541E-1,8.507217169E-1,-2.410089783E-2
4.411354426E0,7.038527131E-1,8.283518553E-1,-1.877473295E-2
4.413879582E0,7.208964229E-1,8.038514853E-1,-1.238333434E-2
4.416404738E0,7.390053868E-1,7.750901580E-1,-2.796236658E-3
4.418929947E0,7.549839020E-1,7.410027385E-1,8.921326138E-3
4.421455155E0,7.784190178E-1,7.047848105E-1,1.424749196E-2
4.423980363E0,7.965279818E-1,6.589797735E-1,1.957365684E-2
4.426505520E0,8.135717511E-1,6.142399907E-1,2.596505545E-2
4.429030728E0,8.284850121E-1,5.695002079E-1,2.916075476E-2
4.431555884E0,8.433982730E-1,5.268908739E-1,3.448691964E-2
4.434081093E0,8.572462797E-1,4.842815697E-1,3.661738336E-2
4.436606249E0,8.700290918E-1,4.469984174E-1,3.661738336E-2
4.439131457E0,8.806813955E-1,4.182371199E-1,3.129122034E-2
4.441656613E0,8.828118443E-1,4.011933804E-1,2.703028731E-2
4.444181822E0,8.838770986E-1,3.969324529E-1,2.809552103E-2
4.446706978E0,8.817466497E-1,4.011933804E-1,2.383458801E-2
4.449232186E0,8.774856925E-1,4.150414169E-1,2.170412242E-2
4.451757343E0,8.668333888E-1,4.374113083E-1,2.383458801E-2
4.454282551E0,8.497896194E-1,4.565854967E-1,2.809552103E-2
4.456807707E0,8.284850121E-1,4.800206423E-1,3.874785081E-2
4.459332915E0,8.018541336E-1,4.959991276E-1,5.259587988E-2
4.461858072E0,7.784190178E-1,5.173037648E-1,6.857437640E-2
4.464383280E0,7.528534532E-1,5.407389402E-1,9.307473898E-2
4.466908436E0,7.283530831E-1,5.652392507E-1,1.197055578E-1
4.469433645E0,7.027874589E-1,5.971962810E-1,1.537930220E-1
4.471958801E0,6.868090034E-1,6.270228028E-1,1.868152469E-1
4.474484009E0,6.720288992E-1,6.547188759E-1,2.145113051E-1
4.477009165E0,6.635070443E-1,6.802844405E-1,2.400768995E-1
4.479534374E0,6.571156383E-1,6.930672526E-1,2.656424940E-1
4.482059582E0,6.485937834E-1,6.866758466E-1,2.848166823E-1
4.484584790E0,6.315500140E-1,6.461969614E-1,2.933385372E-1
4.487109947E0,6.017234921E-1,5.854787230E-1,2.933385372E-1
4.489635155E0,5.655055642E-1,5.130428672E-1,2.975994647E-1
4.492160311E0,5.079829693E-1,4.352808297E-1,2.954690158E-1
4.494685520E0,4.238295853E-1,3.438039720E-1,2.965342402E-1
4.497210676E0,3.183715343E-1,2.287587970E-1,3.007951677E-1
4.499735884E0,1.916087866E-1,8.921326697E-2,3.093170524E-1
4.502261040E0,4.473978654E-2,-7.909355313E-2,3.157084286E-1
4.504786249E0,-1.214365661E-1,-2.824199200E-1,3.157084286E-1
4.507311405E0,-3.003957272E-1,-5.178363919E-1,3.103822768E-1
4.509836613E0,-4.825505614E-1,-7.745575905E-1,2.986647189E-1
4.512361770E0,-6.741593480E-1,-1.046058774E0,2.699034214E-1
4.514886978E0,-8.595098853E-1,-1.310236573E0,2.251636237E-1
4.517412134E0,-1.029947162E0,-1.538063288E0,1.719019860E-1
4.519937343E0,-1.181077123E0,-1.708500624E0,1.037270650E-1
4.522462499E0,-1.297187567E0,-1.802241087E0,2.809552103E-2
4.524987707E0,-1.378145218E0,-1.815023899E0,-4.540555924E-2
4.527512863E0,-1.414363146E0,-1.735131383E0,-1.189066395E-1
4.530038072E0,-1.405841231E0,-1.576411724E0,-1.956034154E-1
4.532563228E0,-1.355775356E0,-1.352845907E0,-2.679060996E-1
4.535088436E0,-1.248186827E0,-1.073754907E0,-3.371462524E-1
4.537613593E0,-1.093861103E0,-7.660356760E-1,-3.914731443E-1
4.540138801E0,-9.053149223E-1,-4.422048628E-1,-4.340824485E-1
4.542664009E0,-6.848116517E-1,-1.280942708E-1,-4.660394490E-1
4.545189218E0,-4.601806700E-1,1.328878254E-1,-4.958659708E-1
4.547714374E0,-2.450035959E-1,3.246297538E-1,-5.235620141E-1
4.550239582E0,-5.219641700E-2,4.203675687E-1,-5.555190444E-1
4.552764738E0,8.934641629E-2,3.990629315E-1,-5.885412693E-1
4.555289947E0,1.809564531E-1,2.639114857E-1,-6.055849791E-1
4.557815103E0,2.171743810E-1,1.145125460E-2,-5.991935730E-1
4.560340311E0,1.873478591E-1,-3.388772607E-1,-5.512580872E-1
4.562865468E0,9.360735118E-2,-7.489919662E-1,-4.596480429E-1
4.565390676E0,-7.030537724E-2,-1.207974195E0,-3.307548463E-1
4.567915832E0,-3.270265460E-1,-1.711696267E0,-1.615159512E-1
4.570441040E0,-7.103772759E-1,-2.292115211E0,2.383458801E-2
4.572966197E0,-1.257773876E0,-3.001427174E0,2.251636237E-1
4.575491405E0,-1.927672267E0,-3.778914213E0,4.284899831E-1
4.578016561E0,-2.598635912E0,-4.456269264E0,6.074491143E-1
4.580541770E0,-3.162011147E0,-4.930164814E0,7.374075651E-1
4.583066926E0,-3.571060658E0,-5.188883305E0,8.130391240E-1
4.585592134E0,-3.792495966E0,-5.217644691E0,8.503222466E-1
4.588117290E0,-3.798887253E0,-4.965317249E0,8.790835738E-1
4.590642499E0,-3.611406326E0,-4.389159679E0,9.057143927E-1
4.593167655E0,-3.277056217E0,-3.504084110E0,9.280842543E-1
4.595692863E0,-2.853226662E0,-2.405029774E0,9.334104657E-1
4.598218020E0,-2.387719870E0,-1.193060994E0,9.121057987E-1
4.600743228E0,-1.911693811E0,2.423405088E-2,8.588441014E-1
4.603268436E0,-1.460168123E0,1.145658135E0,7.714950442E-1
4.605793645E0,-1.051251888E0,2.106365204E0,6.596455574E-1
4.608318801E0,-6.848116517E-1,2.878392696E0,5.286219120E-1
4.610844009E0,-3.525921404E-1,3.457746506E0,3.954677582E-1
4.613369165E0,-5.326165259E-2,3.859339237E0,2.581858635E-1
4.615894374E0,2.182396203E-1,4.111666203E0,1.239664927E-1
4.618419530E0,4.685693681E-1,4.251211643E0,-1.025286783E-2
4.620944738E0,7.027874589E-1,4.290625572E0,-1.306242049E-1
4.623469895E0,9.115731716E-1,4.240559578E0,-2.316881865E-1
4.625995103E0,1.092662811E0,4.095687866E0,-3.137111366E-1
4.628520259E0,1.248186827E0,3.840165138E0,-3.712337017E-1
4.631045468E0,1.354576945E0,3.452420235E0,-4.095821083E-1
4.633570676E0,1.405708075E0,2.945502520E0,-4.362129271E-1
4.636095884E0,1.396121025E0,2.369344473E0,-4.671046734E-1
4.638621040E0,1.357772589E0,1.794251919E0,-4.969311953E-1
4.641146249E0,1.298119545E0,1.289464593E0,-5.299534202E-1
4.643671405E0,1.225816846E0,8.986572027E-1,-5.757584572E-1
4.646196613E0,1.161902905E0,6.430012584E-1,-6.215634942E-1
4.648721770E0,1.110771775E0,5.343475342E-1,-6.716294289E-1
4.651246978E0,1.069227695E0,5.481955409E-1,-7.174344659E-1
4.653772134E0,1.041531563E0,6.536536217E-1,-7.536523938E-1
4.656297343E0,1.023422599E0,8.230256438E-1,-7.845441103E-1
4.658822499E0,1.008509398E0,1.012503982E0,-8.037183285E-1
4.661347707E0,9.935960770E-1,1.179745555E0,-8.101097345E-1
4.663872915E0,9.669652581E-1,1.292660236E0,-8.058487773E-1
4.666398124E0,9.307473302E-1,1.331008673E0,-7.792179585E-1
4.668923280E0,8.785509467E-1,1.268159866E0,-7.461957335E-1
4.671448488E0,8.146369457E-1,1.114766359E0,-7.131735086E-1
4.673973645E0,7.411358953E-1,8.730916381E-1,-6.780208349E-1
4.676498853E0,6.720288992E-1,5.588479042E-1,-6.481943130E-1
4.679024009E0,6.049191952E-1,1.861494780E-1,-6.173025370E-1
4.681549218E0,5.452661514E-1,-2.323539555E-1,-6.013240218E-1
4.684074374E0,5.079829693E-1,-6.744256616E-1,-5.949326158E-1
4.686599582E0,4.920045137E-1,-1.116364241E0,-5.949326158E-1
4.689124738E0,4.994611442E-1,-1.540193796E0,-6.045197248E-1
4.691649947E0,5.303528905E-1,-1.921547174E0,-6.098458767E-1
4.694175155E0,5.782883763E-1,-2.232462168E0,-6.130415797E-1
4.696700363E0,6.336805224E-1,-2.477465630E0,-6.215634942E-1
4.699225520E0,6.910699010E-1,-2.648835182E0,-6.300853491E-1
4.701750728E0,7.453967929E-1,-2.753227949E0,-6.492595077E-1
4.704275884E0,7.922670841E-1,-2.799032927E0,-6.673684716E-1
4.706801093E0,8.306154609E-1,-2.787315369E0,-6.865426898E-1
4.709326249E0,8.583115339E-1,-2.729792833E0,-7.110430598E-1
4.711851457E0,8.764204979E-1,-2.637250662E0,-7.280867696E-1
4.714376613E0,8.870728016E-1,-2.524335861E0,-7.419347763E-1
4.716901822E0,8.945294023E-1,-2.397573233E0,-7.547175884E-1
4.719426978E0,8.955946565E-1,-2.264419079E0,-7.611089945E-1
4.721952186E0,8.923989534E-1,-2.136591196E0,-7.621742487E-1
4.724477343E0,8.881380558E-1,-2.009961605E0,-7.568480372E-1
4.727002551E0,8.806813955E-1,-1.881068349E0,-7.440652847E-1
4.729527707E0,8.710942864E-1,-1.758566618E0,-7.312824726E-1
4.732052915E0,8.615072370E-1,-1.639260411E0,-7.089125514E-1
4.734578072E0,8.529853225E-1,-1.524215341E0,-6.812165380E-1
4.737103280E0,8.338111639E-1,-1.416759968E0,-6.577813625E-1
4.739628436E0,8.210283518E-1,-1.316627979E0,-6.279548407E-1
4.742153645E0,8.029193878E-1,-1.226083159E0,-6.002588272E-1
4.744678801E0,7.858756781E-1,-1.141929746E0,-5.693670511E-1
4.747204009E0,7.709624171E-1,-1.067363501E0,-5.406057835E-1
4.749729165E0,7.549839020E-1,-9.970580935E-1,-5.097140074E-1
4.752254374E0,7.432663441E-1,-9.299484491E-1,-4.788222313E-1
4.754779582E0,7.326140404E-1,-8.670997024E-1,-4.511261880E-1
4.757304790E0,7.219616771E-1,-8.075798154E-1,-4.255605936E-1
4.759829947E0,7.155702710E-1,-7.532529235E-1,-4.021254778E-1
4.762355155E0,7.049179673E-1,-6.989260316E-1,-3.829512596E-1
4.764880311E0,7.006570101E-1,-6.509905457E-1,-3.648423254E-1
4.767405520E0,6.974613070E-1,-6.051855087E-1,-3.552552164E-1
4.769930676E0,6.942656040E-1,-5.583152771E-1,-3.446028829E-1
4.772455884E0,6.942656040E-1,-5.093145370E-1,-3.360810280E-1
4.774981040E0,6.953308582E-1,-4.635095298E-1,-3.307548463E-1
4.777506249E0,6.963961124E-1,-4.145087898E-1,-3.328853250E-1
4.780031457E0,6.942656040E-1,-3.644428551E-1,-3.350157738E-1
4.782556613E0,6.900047064E-1,-3.165073693E-1,-3.392767310E-1
4.785121301E0,6.868090034E-1,-2.728328109E-1,-3.403419554E-1
4.787646457E0,6.741593480E-1,-2.312887162E-1,-3.392767310E-1
4.790171665E0,6.571156383E-1,-1.962691844E-1,-3.392767310E-1
4.792696822E0,6.283543110E-1,-1.664426625E-1,-3.360810280E-1
4.795222030E0,5.932016373E-1,-1.419423074E-1,-3.296896219E-1
4.797747186E0,5.516575575E-1,-1.142462417E-1,-3.137111366E-1
4.800272395E0,5.037220716E-1,-9.294158220E-2,-2.924064696E-1
4.802797551E0,4.504604042E-1,-6.737598777E-2,-2.679060996E-1
4.805322759E0,3.918725848E-1,-3.115806542E-2,-2.423405200E-1
4.807847968E0,3.290238380E-1,1.864157850E-3,-2.105166763E-1
4.810373124E0,2.725664973E-1,4.234301299E-2,-1.711030602E-1
4.812898332E0,2.161091566E-1,9.347419441E-2,-1.284937263E-1
4.815423540E0,1.617822647E-1,1.478010863E-1,-8.481918275E-2
4.817948697E0,1.127815470E-1,2.053236663E-1,-3.368799388E-2
4.820473905E0,6.391397864E-2,2.671071887E-1,1.957365684E-2
4.822999061E0,1.704372838E-2,3.256950080E-1,7.177007198E-2
4.825524270E0,-2.876129188E-2,3.778914213E-1,1.186403260E-1
4.828049426E0,-7.243584841E-2,4.235632718E-1,1.655105799E-1
4.830574634E0,-1.203713343E-1,4.619116783E-1,2.102503628E-1
4.833099790E0,-1.715025157E-1,4.906729758E-1,2.560553849E-1
4.835624999E0,-2.279598713E-1,5.141080618E-1,3.007951677E-1
4.838150207E0,-2.876129150E-1,5.343475342E-1,3.412740231E-1
4.840675363E0,-3.472659588E-1,5.503259897E-1,3.796224296E-1
4.843200572E0,-4.079842567E-1,5.567173958E-1,4.114462435E-1
4.845686301E0,-4.697677493E-1,5.588479042E-1,4.423380196E-1
4.848211509E0,-5.208989382E-1,5.535216928E-1,4.679036140E-1
4.850736665E0,-5.633751154E-1,5.428693891E-1,4.849473238E-1
4.853261874E0,-6.049191952E-1,5.332822800E-1,4.998605847E-1
4.855787030E0,-6.368761659E-1,5.258256793E-1,5.062519908E-1
4.858312238E0,-6.624417901E-1,5.290213227E-1,5.105129480E-1
4.860837395E0,-6.848116517E-1,5.396736860E-1,5.073172450E-1
4.863362603E0,-6.986597180E-1,5.599130988E-1,5.030562878E-1
4.865887759E0,-7.039858699E-1,5.908048749E-1,4.924039543E-1
4.868412968E0,-7.050511241E-1,6.291532516E-1,4.817516208E-1
4.870938176E0,-7.071815729E-1,6.877411008E-1,4.679036140E-1
4.873463332E0,-7.071815729E-1,7.441984415E-1,4.497946501E-1
4.875988540E0,-6.997249722E-1,7.878729701E-1,4.199681282E-1
4.878513749E0,-6.901378632E-1,8.240908980E-1,3.849485815E-1
4.881038905E0,-6.794854999E-1,8.496564627E-1,3.497959077E-1
4.883564113E0,-6.794854999E-1,8.645697236E-1,3.146432042E-1
4.886089270E0,-6.752246022E-1,8.645697236E-1,2.773600519E-1
4.888614478E0,-6.762897968E-1,8.571131229E-1,2.475335300E-1
4.891139634E0,-6.837464571E-1,8.400694132E-1,2.251636237E-1
4.893664843E0,-6.901378632E-1,8.219604492E-1,2.091851383E-1
4.896189999E0,-6.922683120E-1,8.070471883E-1,2.006632686E-1
4.898715207E0,-6.965292692E-1,7.910686731E-1,1.964023411E-1
4.901240415E0,-6.922683120E-1,7.740249634E-1,1.953371018E-1
4.903765572E0,-6.848116517E-1,7.495245934E-1,2.006632686E-1
4.906290780E0,-6.752246022E-1,7.196980715E-1,2.102503628E-1
4.908815988E0,-6.688331962E-1,6.845453978E-1,2.251636237E-1
4.911341145E0,-6.581808329E-1,6.408708096E-1,2.454030514E-1
4.913866353E0,-6.603113413E-1,5.833482146E-1,2.645772398E-1
4.916391509E0,-6.709636450E-1,5.204994678E-1,2.954690158E-1
4.918916718E0,-6.890726089E-1,4.491288662E-1,3.338173926E-1
4.921441874E0,-7.210295796E-1,3.810871243E-1,3.742962480E-1
4.923967082E0,-7.615084648E-1,3.171731234E-1,4.199681282E-1
4.926492238E0,-8.105092049E-1,2.649767101E-1,4.636426866E-1
4.929017447E0,-8.573794365E-1,2.276935577E-1,5.051867366E-1
4.931542655E0,-9.031844735E-1,2.063889056E-1,5.403394699E-1
4.934067811E0,-9.394024014E-1,2.010627389E-1,5.680354834E-1
4.936593020E0,-9.713593721E-1,2.106498331E-1,5.904054046E-1
4.939118228E0,-9.926640391E-1,2.266283184E-1,6.053186655E-1
4.941643384E0,-1.003316402E0,2.394111156E-1,6.106448174E-1
4.944168593E0,-1.009707808E0,2.415415943E-1,6.074491143E-1
4.946693749E0,-1.015033960E0,2.330197245E-1,5.946663618E-1
4.949218957E0,-1.010772943E0,2.202369273E-1,5.722964406E-1
4.951744113E0,-1.008642554E0,2.053236663E-1,5.456656218E-1
4.954269322E0,-1.003316402E0,1.850842386E-1,5.147738457E-1
4.956794478E0,-9.873378873E-1,1.563229412E-1,4.828168750E-1
4.959319686E0,-9.681636691E-1,1.201050207E-1,4.487294257E-1
4.961844895E0,-9.394024014E-1,7.216953486E-2,4.135767221E-1
4.964370051E0,-9.031844735E-1,8.255556226E-3,3.742962480E-1
4.966895207E0,-8.690969944E-1,-7.376738638E-2,3.327521682E-1
4.969420415E0,-8.339443207E-1,-1.707035899E-1,2.869471312E-1
4.971945572E0,-8.073135018E-1,-2.909417748E-1,2.390116602E-1
4.974470780E0,-7.913349867E-1,-4.272916019E-1,1.910761744E-1
4.976995936E0,-7.860088348E-1,-5.849460959E-1,1.431406885E-1
4.979521145E0,-7.945306897E-1,-7.500572205E-1,1.026618332E-1
4.982046301E0,-8.264876604E-1,-9.161003828E-1,7.283531129E-2
4.984571509E0,-8.712274432E-1,-1.079081059E0,4.726971686E-2
4.987096665E0,-9.202281833E-1,-1.222887516E0,2.809552103E-2
4.989621874E0,-9.766855240E-1,-1.347519755E0,5.725627299E-3
4.992147082E0,-1.028881907E0,-1.440061927E0,-1.770949923E-2
4.994672238E0,-1.071491241E0,-1.500780225E0,-3.581846133E-2
4.997197447E0,-1.093861103E0,-1.526345730E0,-5.925358832E-2
4.999722655E0,-1.090665460E0,-1.511432528E0,-8.055824786E-2
5.002247811E0,-1.064034581E0,-1.457105637E0,-9.760197252E-2
5.004773020E0,-1.010772943E0,-1.362433076E0,-1.178414002E-1
5.007298176E0,-9.415328503E-1,-1.239931226E0,-1.359503716E-1
5.009823384E0,-8.573794365E-1,-1.092929125E0,-1.529940963E-1
5.012348540E0,-7.753564715E-1,-9.342093468E-1,-1.625811905E-1
5.014873749E0,-7.029206157E-1,-7.639052272E-1,-1.689725816E-1
5.017398905E0,-6.390066743E-1,-5.902722478E-1,-1.657768935E-1
5.019924113E0,-5.878754854E-1,-4.177044928E-1,-1.615159512E-1
5.022449322E0,-5.527228117E-1,-2.483324558E-1,-1.423417628E-1
5.024974478E0,-5.283555984E-1,-8.974587917E-2,-1.199718714E-1
5.027499686E0,-5.198337436E-1,5.406057462E-2,-8.162347972E-2
5.030024895E0,-5.272903442E-1,1.712362021E-1,-3.794892505E-2
5.032550051E0,-5.484618545E-1,2.553896308E-1,1.637795754E-2
5.035075259E0,-5.868102312E-1,2.937380075E-1,6.857437640E-2
5.037600415E0,-6.411371231E-1,2.884118557E-1,1.292926520E-1
5.040125624E0,-7.039858699E-1,2.489982247E-1,1.910761744E-1
5.042650780E0,-7.764217257E-1,1.712362021E-1,2.507292330E-1
5.045175988E0,-8.488575816E-1,5.938674137E-2,3.082517982E-1
5.047701145E0,-9.191629291E-1,-8.548495173E-2,3.636439145E-1
5.050226353E0,-9.873378873E-1,-2.462019771E-1,4.157072008E-1
5.052751561E0,-1.046990871E0,-4.155740440E-1,4.668383598E-1
5.055276718E0,-1.097056866E0,-5.753589869E-1,5.179695487E-1
5.057801926E0,-1.134340048E0,-7.181001902E-1,5.669702888E-1
5.060327134E0,-1.161902905E0,-8.425993323E-1,6.170362234E-1
5.062852290E0,-1.174685717E0,-9.299484491E-1,6.617760062E-1
5.065377499E0,-1.173620462E0,-9.874709845E-1,7.107767463E-1
5.067902655E0,-1.167229056E0,-1.013036609E0,7.555165291E-1
5.070427863E0,-1.149120092E0,-1.006645203E0,7.981258631E-1
5.072953020E0,-1.122622490E0,-9.746882319E-1,8.439308405E-1
5.075478228E0,-1.092795968E0,-9.139699340E-1,8.886706233E-1
5.078003384E0,-1.065099835E0,-8.372731805E-1,9.344756603E-1
5.080528593E0,-1.037403822E0,-7.479267120E-1,9.824111462E-1
5.083053801E0,-1.017164350E0,-6.318163276E-1,1.035539627E0
5.085578957E0,-1.002251148E0,-4.997274280E-1,1.088801265E0
5.088104165E0,-9.937292337E-1,-3.516600430E-1,1.140997767E0
5.090629374E0,-9.894683361E-1,-1.898777932E-1,1.195324659E0
5.093154530E0,-9.947944880E-1,-2.263620123E-2,1.244325280E0
5.095679738E0,-9.990554452E-1,1.488663107E-1,1.296521783E0
5.098204895E0,-1.003316402E0,3.139774203E-1,1.352979064E0
5.100730103E0,-1.011838198E0,4.672378302E-1,1.411566854E0
5.103255259E0,-1.031012416E0,6.067833900E-1,1.470154762E0
5.105780468E0,-1.070425987E0,7.186328173E-1,1.530873060E0
5.108305624E0,-1.134340048E0,8.155690432E-1,1.591591239E0
5.110830832E0,-1.227947354E0,9.007876515E-1,1.648980737E0
5.113356040E0,-1.351514339E0,9.774844646E-1,1.703307629E0
5.115881197E0,-1.498516560E0,1.041265249E0,1.756569266E0
5.118406405E0,-1.654040575E0,1.095592141E0,1.804504752E0
