time,seconds_elapsed,z,y,x
1686343710546375000,0.141375,0.18898557154685258,-0.002235211706161499,0.04430060349209234
1686343710556394800,0.151394775390625,0.15164163705855607,-0.009051905983686447,0.032371973028313364
1686343710566413600,0.16141357421875,0.060094403217732906,0.009238368466496467,-0.026843601528275758
1686343710576433700,0.17143359375,0.02875175497084856,0.04099719629883766,-0.07602669809861108
1686343710586453800,0.181453857421875,0.09859364522099494,0.04394786279797554,-0.053746495495736596
1686343710596473600,0.1914736328125,0.09436813648045063,0.023849662142992018,0.011118775385618208
1686343710606493700,0.20149365234375,-0.048926089601963756,0.0032552024036645887,-0.016061474218498916
1686343710616513800,0.211513671875,-0.0926566563874483,0.012118307816982268,-0.0680766341432929
1686343710626533600,0.22153369140625,-0.04584434406906366,0.02153027928471565,-0.007975782918464392
1686343710636552700,0.231552734375,-0.006091156481951475,0.002590601015090942,0.11805911919670178
1686343710646572800,0.24157275390625,0.03342822234928608,-0.0010889642804861068,0.12741262020915745
1686343710656593000,0.251593017578125,-0.07035349303409456,-0.021659458622336387,0.035690340328682214
1686343710666612700,0.26161279296875,-0.2594736507460475,-0.02739186479449272,-0.02281239151712507
1686343710676632600,0.271632568359375,-0.2740652168087661,0.004983633631467819,-0.08694761282457038
1686343710686652700,0.281652587890625,-0.129918173289299,-0.030923546051979063,-0.020421733520925044
1686343710696671700,0.291671630859375,-0.040239655929803844,-0.03742869016230106,0.07529431043714284
1686343710706691800,0.30169189453125,-0.031032120992988348,-0.05966565641164779,0.13721448604362085
1686343710716711700,0.311711669921875,-0.014511340433359145,-0.03960603420138359,0.10128069234788417
1686343710726731800,0.321731689453125,0.013640548948198557,-0.06282850435674191,0.036309641270805146
1686343710736751900,0.331751953125,0.003914543095231056,-0.09057283585071563,-0.04419131616503
1686343710746771700,0.341771728515625,0.03209098239615559,-0.045075405523180956,-0.05801231798036024
1686343710756790500,0.35179052734375,0.07350947284698486,-0.05092237798571586,-0.023852877013385294
1686343710766810600,0.361810546875,0.17012684955894947,-0.044483284848928446,-0.0059063014343380925
1686343710776830700,0.371830810546875,0.23061259018182753,-0.06950491338074206,-0.019554595297574997
1686343710786850800,0.381850830078125,0.3162945852510631,-0.09093465490043162,-0.08223260353403165
1686343710796870700,0.39187060546875,0.3795850080311298,-0.07858662998080253,-0.08396861528009175
1686343710806890800,0.401890869140625,0.37043782497942446,-0.05011690682172775,0.00447509958744049
1686343710816910800,0.411910888671875,0.382038100271672,-0.03234802589714527,0.0819803458060138
1686343710826930000,0.421929931640625,0.4531174233622849,-0.03917173443734646,0.07272038656221702
1686343710836949800,0.43194970703125,0.5741309901840984,-0.07583645448982715,-0.009437964425515383
1686343710846969600,0.441969482421875,0.4974282742537558,-0.0560316838234663,0.03702568058567121
1686343710856989700,0.45198974609375,0.3560222000055015,-0.04275076196789741,0.008048848154675214
1686343710867009500,0.462009521484375,0.3363455857634544,-0.0691851799070835,-0.06827478706389666
1686343710877029600,0.472029541015625,0.22800810677185654,-0.023400164809823036,0.029165906996000555
1686343710887048700,0.482048583984375,0.16172785452604294,0.009138999745249747,0.10042202969193458
1686343710897068800,0.49206884765625,0.16949673496186732,-0.013470891469717024,0.06335282049179077
1686343710907088600,0.502088623046875,0.09341244319081306,-0.03326630978584289,0.025699381662905214
1686343710917108700,0.512108642578125,0.059606035178899765,-0.025485154390335083,0.00556874004304409
1686343710927128800,0.52212890625,0.14821195487082003,-0.05421674335598945,0.025784721858799455
1686343710937149000,0.53214892578125,0.28928806651234623,-0.08613923731744288,0.09801350724548101
1686343710947167700,0.542167724609375,0.4104138615369797,-0.08487257838249206,0.2079123903349042
1686343710957187600,0.5521875,0.5644412246882915,-0.10875906540453434,0.22084084549099206
1686343710967207700,0.562207763671875,0.6061094521164894,-0.08420622342824935,0.1766848929002881
1686343710977227800,0.572227783203125,0.4784200607925653,-0.09761047940254211,0.1280947572544217
1686343710987247600,0.58224755859375,0.45835517788529395,-0.04388064278066158,0.10033668949604034
1686343710997267700,0.592267822265625,0.588756166255474,-0.20820435901880263,1.1079501359850168
1686343711007287800,0.602287841796875,1.3405058230586349,-0.5304582910656929,1.1547551417797803
1686343711017307000,0.612306884765625,1.4980498160287736,0.05301905800402164,0.5352779297744855
1686343711027326700,0.62232666015625,1.543066769362986,0.03372515946924686,0.35799835891667753
1686343711037346600,0.6323466796875,1.3459437763288615,-0.061325114056468004,0.1720672430370003
1686343711047366700,0.64236669921875,1.2558160538971423,0.5686725786477327,-0.5253028079986573
1686343711057386800,0.65238671875,0.8806652289211749,0.1406371357023716,-0.22788258069604633
1686343711067406600,0.662406494140625,0.37244887254089115,-0.2909358337193727,0.27394400158189236
1686343711077425700,0.67242578125,0.08026683815270662,-0.1882189710885286,0.22715960018374023
1686343711087445800,0.68244580078125,0.04971592480540275,0.1340314538270235,0.013365385268628597
1686343711097465900,0.6924658203125,-0.022673604100942612,0.4562029682874679,-0.24793211990371344
1686343711107485700,0.702485595703125,-0.044323125851154326,0.30636838065087796,-0.28307795982584355
1686343711117505800,0.712505859375,-0.02088642842322588,0.08700725232362747,-0.4540327115762979
1686343711127526000,0.72252587890625,0.032736732953786846,0.16552198611199856,-0.6342509662345052
1686343711137544700,0.732544677734375,-0.09910217926502227,-0.09603694647550583,-0.43151992406025524
1686343711147564500,0.742564453125,-0.20690175198763608,-0.10129355182945728,-0.2940267124067992
1686343711157584600,0.752584716796875,-0.36113837397545573,-0.015330840122699736,-0.2844870229061693
1686343711167604700,0.762604736328125,-0.4896440501183271,0.1020505076766014,-0.47009354647397994
1686343711177624600,0.77262451171875,-0.7049737309724092,0.08484101420044898,-0.06491817011237144
1686343711187644700,0.782644775390625,-0.7915116122186183,-0.20121523078382014,0.6585790595442056
1686343711197663700,0.792663818359375,-0.8811430755659937,-0.3137099755853414,0.8631140093352645
1686343711207683800,0.802683837890625,-1.0338684162080287,-0.45184068142473693,0.42946956740170716
1686343711217704000,0.812703857421875,-1.218326573458314,-0.5712403833091259,-0.11178235874846577
1686343711227723500,0.8227236328125,-1.426242763185501,-0.5698422069489956,-0.3712012105673551
1686343711237743600,0.83274365234375,-1.6242328944429754,-0.5982312660872936,-0.39043263832516967
1686343711247763700,0.842763671875,-1.7724696914941072,-0.7492372355908155,-0.4706964077379554
1686343711257782800,0.85278271484375,-1.9318395847171543,-0.9528560203850269,-0.039402620583772655
1686343711267802600,0.862802734375,-1.4082201997607946,-1.035531380984187,0.22958646200448274
1686343711277822700,0.87282275390625,-1.2346493472278117,-0.26738193965256213,0.5704992095530033
1686343711287842800,0.8828427734375,-1.515498378957808,-0.27605682901740075,1.0924610365606844
1686343711297862700,0.892862548828125,-1.7894971064016223,-0.37048224864304063,1.217264058793336
1686343711307882800,0.9028828125,-1.9501169996857641,-0.060953942656517025,0.8972332096233964
1686343711317902800,0.91290283203125,-1.663394984269142,0.22883505911529062,0.6779264418318868
1686343711327921700,0.922921630859375,-1.0145207416594029,0.22170915275812147,0.6253954596057534
1686343711337941800,0.932941650390625,-0.4927198043018579,0.2759796721279621,0.5732132908172906
1686343711347961600,0.942961669921875,-0.1694236697256565,0.3783791393727064,0.4425979290440678
1686343711357981700,0.952981689453125,-0.0010100538253784179,0.34288930831849573,0.27154402776807546
1686343711368001800,0.963001708984375,0.2147328840047121,0.30018530810177324,0.011641337954998016
1686343711378021600,0.973021728515625,0.3182107941359281,0.2293330717653036,-0.22740488018169996
1686343711388040700,0.983040771484375,0.2186106022208929,0.14350596913695335,-0.2948284572437405
1686343711398060800,0.993060791015625,0.12388327703922987,0.2167149977326393,-0.3314945655357092
1686343711408081000,1.003080810546875,0.17459464262276886,0.4397697198808193,-0.3272180572602898
1686343711418100700,1.013100830078125,0.27285423358380795,0.6548223373591899,-0.363803939922899
1686343711428120600,1.02312060546875,0.6398404568046331,0.7381921099632978,-0.6639926090255379
1686343711438140700,1.033140625,1.0875398006409407,0.8870002771615981,-1.0701128650218248
1686343711448159700,1.04315966796875,1.1812997420951723,1.121959372115135,-1.175873990719393
1686343711458179800,1.053179931640625,1.0015686133667827,0.9946271236658095,-1.3268885088555513
1686343711468199700,1.06319970703125,0.5171081033661962,0.8462976798951626,-1.2547747281506656
1686343711478219800,1.0732197265625,-0.08584463828504085,0.5287579168885946,-0.9615928690701723
1686343711488239900,1.083239990234375,-0.5589782831072807,0.006100070440769195,-0.6303393457487225
1686343711498259700,1.093259765625,-0.8430746261954307,-0.531929532662034,-0.18627704324051736
1686343711508278500,1.103278564453125,-0.8752180694311856,-0.5510685328960419,0.3594531973674893
1686343711518298600,1.113298583984375,-0.675641253504157,0.059327802759408944,0.33335531790629025
1686343711528318700,1.123318603515625,-0.15580957039296625,0.37577684791982174,-0.1214903905533254
1686343711538338600,1.133338623046875,0.5961793019935488,0.20316168867647647,-0.37416846287511285
1686343711548358700,1.143358642578125,1.304409404413402,0.25377894623577596,-0.8788112716175616
1686343711558378800,1.153378662109375,1.580053853237629,0.20438567751348016,-0.4724696279555559
1686343711568398600,1.163398681640625,1.5751275027513503,-0.21515666237473485,0.5105883462086319
1686343711578417700,1.173417724609375,1.1647376066118478,-0.24373919825851917,1.0104653287887573
1686343711588437800,1.183437744140625,0.17189005983918904,0.021565935119986532,1.175183670367673
1686343711598457900,1.193457763671875,-0.1956266169965267,-0.09845102187991142,0.6026033436916768
1686343711608478000,1.20347802734375,-0.7126759759128093,-0.16452070011496542,-0.28363018688112496
1686343711618497500,1.21349755859375,-1.2716311704054475,0.13018237718343734,-0.6982816129226237
1686343711628517600,1.223517578125,-1.7683543651297688,0.21596213353872298,-0.5392662322256714
1686343711638536700,1.23353662109375,-1.7474477707013487,0.14456570732295512,-0.29173114881552753
1686343711648556800,1.243556884765625,-1.2745482268959283,0.018839140504598617,-0.12120704356729983
1686343711658576600,1.25357666015625,-0.41347850980460643,-0.10963818632662296,0.11375833499655127
1686343711668596700,1.2635966796875,0.4730471355825662,-0.11266717875897883,0.2210084571428597
1686343711678616800,1.273616943359375,1.4941121843189,-0.25235505091249943,0.06261062382236122
1686343711688636700,1.28363671875,2.2885294548511506,-0.2720417481571436,-0.21688611651584505
1686343711698655500,1.293655517578125,2.241437156547606,-0.18990648578405378,-0.13844715137742458
1686343711708675800,1.30367578125,1.4251505840346217,-0.07440320681631565,-0.10236563804037868
1686343711718695700,1.31369580078125,0.6974088486760854,0.0022533318847417832,-0.08228168510645628
1686343711728715800,1.3237158203125,0.29939094285368917,0.020492752930521965,0.10075783751755953
1686343711738735600,1.333735595703125,0.189350313206017,0.20389351008236406,0.09940693436525762
1686343711748755700,1.343755615234375,0.4655640863507986,0.33524200843572616,-0.15880641412138938
1686343711758775800,1.35377587890625,0.5801189785525203,0.18302081792354583,-0.14668511062972248
1686343711768795000,1.363794921875,0.3885883986979723,0.022116554740071296,-0.004110357928276062
1686343711778814700,1.373814697265625,-0.14428952073007822,-0.08777122243344783,0.10065211212076246
1686343711788834800,1.383834716796875,-0.7115294362261891,-0.05592822344899177,0.14960406681634486
1686343711798855000,1.39385498046875,-0.9904770182490348,0.07483867562413216,0.1648667370736599
1686343711808874800,1.403874755859375,-0.9698568395465612,0.15299275940656662,0.1104991870701313
1686343711818894800,1.413894775390625,-0.7570373879477381,0.08075988236665725,-0.1012693672362715
1686343711828913700,1.42391357421875,-0.4269759970203042,0.10029518844187259,-0.12658164927773177
1686343711838933800,1.433933837890625,-0.0976481810644269,0.0969873790681362,-0.04722746899053454
1686343711848953600,1.44395361328125,0.05564122320115566,0.020661679756641387,0.00660115183070302
1686343711858973700,1.4539736328125,-0.07456570390164852,-0.11160393344163894,0.01650733655616641
1686343711868993800,1.463993896484375,-0.24531857640445232,-0.10767477729916572,-0.1506920812487602
1686343711879014000,1.474013916015625,-0.16482114436626433,0.35228315960764883,-0.6408074021406471
1686343711889033000,1.484032958984375,-0.21891543038636443,0.5763771616756915,-0.7247584086988121
1686343711899052800,1.494052734375,-0.206508368755877,0.5564373664528132,-0.8063556186724453
1686343711909073000,1.504072998046875,-0.2866878208860755,0.38782384406626225,-0.3729275229033083
1686343711919092700,1.5140927734375,-0.009981003527343272,0.4286591278016567,-0.48381220215968784
1686343711929112600,1.524112548828125,0.15116642076224088,0.6124626205354928,-0.5012437043560668
1686343711939132700,1.534132568359375,0.3777545777335763,0.4829343233466148,-0.5524112527418882
1686343711949152800,1.54415283203125,0.0886918444097042,0.08168693408370017,-0.24952538044452666
1686343711959171800,1.554171875,-0.3152629041157663,-0.24811025294959543,0.2603959166901186
1686343711969191700,1.564191650390625,-0.7331381875745951,-0.6076327161610127,0.7289296299688518
1686343711979211800,1.574211669921875,-0.8805743357673287,-0.721988578659296,0.9183493551492691
1686343711989231900,1.58423193359375,-0.7306339496687054,-0.5998118132770062,0.8322184472687542
1686343711999252000,1.594251953125,-0.36889877884387967,-0.4990823250710964,0.7148832766987383
1686343712009271800,1.604271728515625,0.016069237399846316,-0.4183732961088419,0.5193915746608748
1686343712019290600,1.61429052734375,0.3179351920649409,-0.21625907065868377,0.26434056266266853
1686343712029310700,1.624310791015625,0.4613509987004101,-0.27815175547003745,0.2803792587937787
1686343712039330800,1.634330810546875,0.4355523944467306,-0.23612638516724108,0.2303931022122502
1686343712049350700,1.6443505859375,0.27492051846385,-0.2366483632147312,0.23720775066316127
1686343712059370800,1.654370849609375,0.20694354530274867,-0.13765315145552157,0.3880596986487508
1686343712069390800,1.664390869140625,0.25295360132753847,0.0048562078595161436,0.3540875786811113
1686343712079410000,1.674409912109375,0.2687017900794744,0.05836567972898483,0.20906448297947644
1686343712089429800,1.6844296875,0.21254984087720513,0.04543722457289696,0.08129577934164553
1686343712099449900,1.694449951171875,0.07209492987394332,-0.0374707757383585,0.04329772832617163
1686343712109469700,1.7044697265625,-0.08423194239139556,-0.02584463535249233,-0.0037258886553347107
1686343712119489800,1.71448974609375,-0.1280143854945898,0.02660451380908489,-0.0748255238816142
1686343712129509600,1.724509521484375,-0.1064668628141284,0.001011222869157791,-0.10481825535688549
1686343712139528700,1.73452880859375,-0.006980944928526878,-0.05406476766467094,-0.08814253996387124
1686343712149548800,1.744548828125,0.12121171974241733,-0.04019640130996704,-0.08850465127453208
1686343712159569000,1.75456884765625,0.13758841565623878,-0.03354220411777496,-0.07537976023089141
1686343712169588700,1.764588623046875,0.14004209241867063,0.00452829107940197,-0.05089914324060082
1686343712179608800,1.77460888671875,0.16157354074716568,0.03917290348112583,0.008445318392664193
1686343712189629000,1.78462890625,0.1658355821058154,0.03885433905124664,0.0028806334702298044
1686343712199648800,1.794648681640625,0.11435191697552799,0.05578501558601856,-0.02661733675803989
1686343712209667600,1.80466748046875,-0.021541239070147274,0.04301671942770481,-0.014018113556317983
1686343712219687700,1.814687744140625,-0.16327873722985387,0.055125090372562406,-0.020306765371747314
1686343712229707800,1.824707763671875,-0.1963664755783975,0.036761750686168666,0.024892631857283413
1686343712239727600,1.8347275390625,-0.20243030566200612,-0.013811667731404303,-0.008236023023538291
1686343712249747700,1.844747802734375,-0.17959420447573066,-0.05563245537281036,-0.09821659206952899
1686343712259767800,1.854767822265625,-0.12540230330005286,-0.0304687880218029,-0.13792601358015089
1686343712269787000,1.864786865234375,-0.026909634235501287,0.00324643457531929,-0.16551336441412567
1686343712279807000,1.874806884765625,0.22004808767810463,0.010343114838004111,-0.23219531106231733
1686343712289826800,1.884826904296875,0.42368177778050303,-0.04049743008315563,0.19392255302499978
1686343712299846700,1.8948466796875,0.45950960861742496,-0.12277531579732893,0.33163287802785635
1686343712309866800,1.90486669921875,0.4848685062795877,-0.010751111117005347,0.1278045421361923
1686343712319886600,1.914886474609375,0.3644055590778589,-0.011116437298059462,0.09163900377750396
1686343712329906700,1.92490673828125,0.18556465718746185,-0.031188334468007086,0.01415580499395728
1686343712339925800,1.93492578125,-0.06501870787739754,0.04648936397433281,-0.02312821600064635
1686343712349945900,1.94494580078125,-0.33305691948160526,0.080801383420825,-0.05308348327605054
1686343712359965700,1.954965576171875,-0.45818917366862294,0.02768646382689476,-0.07264803371205926
1686343712369985800,1.96498583984375,-0.307768895098567,-0.02480944708585739,-0.03469341997951269
1686343712380006000,1.975005859375,0.08265709429010748,-0.16538228538036345,0.1120738707746379
1686343712390025700,1.985025634765625,0.4009223950922489,-0.18251111483573912,0.2388268762975931
1686343712400045800,1.9950458984375,0.42035540983676906,-0.10634908165335655,0.20064707550704478
1686343712410064600,2.005064697265625,0.25602307190075513,-0.056660044854879375,-0.020616361043881624
1686343712420084700,2.015084716796875,0.035523733323812486,-0.06962707845568657,-0.1814279957741499
1686343712430104800,2.025104736328125,-0.18940028982758522,-0.06569149257242679,-0.0935119580425322
1686343712440124700,2.035124755859375,-0.4001391357600689,-0.05303776270449161,0.05175576006993651
1686343712450144800,2.045144775390625,-0.5136017026804387,-0.05799509285092354,0.11676294190632179
1686343712460164900,2.055164794921875,-0.3497730764828622,-0.06150982297360897,0.053006655180174854
1686343712470184000,2.065183837890625,-0.15012977119088172,-0.11895371168255806,0.039759471197426316
1686343712480203800,2.075203857421875,0.041785716328024865,-0.07057809557020664,0.08553893333673476
1686343712490223600,2.0852236328125,0.14730726111605763,-0.06374561920166015,0.13021191380517558
1686343712500243700,2.09524365234375,0.10931742993965744,-0.09592647183835507,0.13707785405190662
1686343712510263800,2.105263916015625,-0.05755772434696555,-0.06519289540052414,0.111697182949353
1686343712520283600,2.11528369140625,-0.31343466577529905,0.02347323004603386,0.04156871257647872
1686343712530302700,2.125302734375,-0.4377132257424295,0.13554478099942208,-0.1157423301543109
1686343712540322800,2.13532275390625,-0.35052886328622695,0.132902157536149,-0.2010369333411567
1686343712550343000,2.145343017578125,-0.17244550176486373,0.03014554741680622,-0.14124691989747806
1686343712560362800,2.15536279296875,0.020654519363492725,-0.03866612300276756,-0.09308030689330771
1686343712570382800,2.1653828125,0.11218801693990826,-0.08486147246658801,-0.04742662655813619
1686343712580403000,2.17540283203125,0.12197466693893075,-0.0736035808712244,-0.024555015667062252
1686343712590422800,2.1854228515625,0.11885726557075976,-0.05361643937528133,-0.006504705718904733
1686343712600441600,2.195441650390625,0.0018821604847908018,-0.06677753424346447,0.0004528583340346813
1686343712610461700,2.205461669921875,-0.09348594681844115,0.016463643544912338,-0.07943811397729442
1686343712620481800,2.215481689453125,-0.08351575694605708,0.0768541070997715,-0.11196544196410103
1686343712630501600,2.225501708984375,0.15965689347088335,0.08801379901766776,-0.04081804033964872
1686343712640521700,2.235521728515625,0.5095803382098675,-0.08360358135998248,0.45788726811259983
1686343712650541800,2.245541748046875,0.7041479476727545,-0.05134615635573864,0.22375485150786115
1686343712660562000,2.25556201171875,0.6470674854487181,-0.0173977095246315,0.06712225602790713
1686343712670580700,2.265580810546875,0.3534124558985233,-0.07779226473271847,0.11045827053785323
1686343712680600600,2.2756005859375,0.1414480136938393,-0.020837620845437048,0.009018460371810942
1686343712690620700,2.28562060546875,0.04352583799362182,0.014117957201600074,-0.021157792710512876
1686343712700640800,2.295640869140625,0.022368483674526214,0.027968203377723693,-0.009265110342949629
1686343712710660900,2.305660888671875,0.03708659872636199,0.015312719944119452,-0.027237423151452094
1686343712720681000,2.315680908203125,0.049203883630037304,-0.00036649522483348846,-0.0679733198992908
1686343712730700800,2.32570068359375,0.07031213811039924,-0.0009375731110572815,-0.07466478036195039
1686343712740719900,2.335719970703125,0.1051572415202856,-0.04366670776903629,0.002450315761566162
1686343712750739700,2.34573974609375,0.06857669261991978,-0.05505436322391033,0.07793591098710895
1686343712760759800,2.355759765625,0.032653730845451354,-0.04735737898051738,0.12177695240974426
1686343712770780000,2.36577978515625,-0.020119974095374346,-0.06384148079156875,0.14091286563752217
1686343712780799700,2.3757998046875,-0.034663755493611094,-0.06997603802382946,0.13803705447288228
1686343712790819800,2.38581982421875,-0.0019656009845435618,-0.0568114360243082,0.07060836284430697
1686343712800839000,2.3958388671875,-0.09297332112118602,-0.06200374397039413,-0.026485106946807353
1686343712810858800,2.405858642578125,-0.26558643453791736,-0.03831657891273498,-0.13394233250515536
1686343712820878800,2.41587890625,-0.3607986206270754,0.06684241617321968,-0.17429392437683416
1686343712830898700,2.425898681640625,-0.36284371658861636,0.10474223097860813,-0.1450793559335172
1686343712840918800,2.435918701171875,-0.2761322323411703,0.08713876974880695,-0.10735752804353832
1686343712850939000,2.44593896484375,-0.08169482512921095,-0.01626607514619827,-0.03280961552690714
1686343712860958700,2.455958740234375,0.15715002521649002,-0.07337503281235694,0.07310938587980345
1686343712870977800,2.465977783203125,0.26483839264959097,-0.08071078252792357,0.17850805320683866
1686343712880998000,2.475997802734375,0.2704600319236517,-0.07883388274013996,0.17566154120191932
1686343712891018000,2.48601806640625,0.19818346187248825,-0.0830143832951784,0.07908597607137635
1686343712901037800,2.496037841796875,0.06496025568842888,-0.06681611268818378,0.017253478748351335
1686343712911058000,2.506057861328125,-0.08740531173050403,0.026578210324048994,0.02858049005717039
1686343712921077800,2.516077880859375,-0.15412848543822766,0.09407412196993828,0.07795256986096501
1686343712931097900,2.526097900390625,-0.12644435969889165,0.11855740584135055,0.15050751846209168
1686343712941117000,2.536116943359375,-0.03845964064523578,0.10607844801843165,0.19736458323765546
1686343712951136800,2.54613671875,0.10419745657742023,0.059275195789337154,0.21338731461465357
1686343712961156900,2.556156982421875,0.16487857364192604,-0.011483517044782638,0.11388300255583599
1686343712971177000,2.566177001953125,0.07855681936442852,-0.09998188470900059,-0.130240829372406
1686343712981196800,2.57619677734375,-0.05645546219348907,-0.15271101985573768,-0.24961598133742807
1686343712991217000,2.586216796875,-0.17200433386862277,-0.16576631626188754,-0.2538834295235574
1686343713001237000,2.596237060546875,-0.2455015317559242,-0.1327373223632574,-0.20325740413591264
1686343713011255800,2.606255859375,-0.2597195883311331,-0.09644844988584518,-0.12290716201607137
1686343713021275600,2.616275634765625,-0.18860650910139082,-0.047100189349055285,-0.07128960484042764
1686343713031295700,2.626295654296875,-0.07583923096880316,-0.026168460479378697,-0.022463431948982177
1686343713041315800,2.63631591796875,-0.014839841735363006,-0.026554244926571845,0.004677198030799627
1686343713051336000,2.6463359375,0.02290609768256545,0.004133154281973838,0.0366391106871888
1686343713061355800,2.656355712890625,0.09057049776315688,-0.009297405177354811,0.045909518259763714
1686343713071376000,2.6663759765625,0.14758549353554845,-0.050667526441812515,0.04171604862529784
1686343713081395000,2.67639501953125,0.17705387234315276,-0.08689794673025608,-0.033731041220761836
1686343713091415000,2.6864150390625,0.13187281448841096,-0.08716039705872536,-0.11280702562108635
1686343713101435000,2.696434814453125,0.0427601143181324,-0.04242167614400386,-0.08234948964565991
1686343713111454700,2.706454833984375,0.03182823980674147,-0.050720133411884305,-0.08056951089370995
1686343713121474800,2.716474853515625,0.05223506801947951,-0.06539689354002476,-0.07950305070597678
1686343713131494700,2.72649462890625,0.051414545416831964,-0.012789338946342467,-0.014825374818593263
1686343713141513700,2.736513671875,0.09184534000456332,0.002861234650015831,0.029022242475301024
1686343713151533800,2.746533935546875,0.13436346226036547,0.004986556240916252,0.027141981686651707
1686343713161554000,2.756553955078125,0.15022095660567283,0.030627777975797653,-0.004828881461173296
1686343713171573800,2.76657373046875,0.12800678671002388,0.04888122754693031,0.0354813554868102
1686343713181593900,2.77659375,0.1480395209133625,0.019684943678975105,0.09940671516954898
1686343713191614000,2.786614013671875,0.10117547840774059,-0.00034720600247383117,0.10244505995213984
1686343713201634000,2.796634033203125,0.0309143398322165,0.012122983992099762,0.04550404273141175
1686343713211652900,2.80665283203125,-0.04095160359144211,-0.008710545200109481,-0.015214081875234842
1686343713221672700,2.816672607421875,-0.09175663880780338,-0.020204583638906478,-0.043380766967125235
1686343713231692800,2.82669287109375,-0.10082549592629074,-0.018581950873136518,-0.03422876160982996
1686343713241713000,2.836712890625,-0.090613167861104,-0.04787117372155189,0.005990910977870225
1686343713251732700,2.846732666015625,-0.04624839482530951,-0.07048924824297428,0.03222253635395318
1686343713261752800,2.8567529296875,-0.02054302181303501,-0.09571604395806789,0.012907412368059158
1686343713271773000,2.86677294921875,-0.0614918489255011,-0.07827975598871707,0.008505633745156229
1686343713281792000,2.8767919921875,-0.11905775657892226,-0.04579378292560577,-0.001005962172150612
1686343713291811800,2.886811767578125,-0.15193462865576146,-0.034067104774713516,-0.006502787756454199
1686343713301831700,2.896831787109375,-0.17029679929837582,-0.03597966039776802,-0.03839488657964393
1686343713311851800,2.906851806640625,-0.17534429194629192,-0.03033843964040279,-0.0767542999871075
1686343713321872000,2.916871826171875,-0.15451120114549993,-0.024060674545168876,-0.06498230312345549
1686343713331891700,2.9268916015625,-0.10577771150618791,-0.032282559445500375,-0.0703668822386302
1686343713341911800,2.936911865234375,-0.0341068522632122,-0.03507657407820224,-0.04494783362075686
1686343713351931000,2.946930908203125,0.006448591617494821,-0.040672786650061604,-0.018221720992308107
1686343713361951000,2.956950927734375,0.02359407994672656,-0.03143441818356514,-0.010503456498868764
1686343713371970800,2.966970703125,0.012606529725342989,-0.021170213800668716,-0.014571801916323601
1686343713381991000,2.976990966796875,-0.013415069629251956,-0.00829670370221138,0.016059063065703958
1686343713392011000,2.987010986328125,-0.009281476955860853,0.023830957442522047,0.043015294655598696
1686343713402030800,2.99703076171875,0.04088379905223846,0.024581483548879624,0.0197875272706151
1686343713412049700,3.007049560546875,0.10656564701348542,0.00509293922483921,-0.01369660825068131
1686343713422069800,3.01706982421875,0.15956395449042318,0.011391747108101844,-0.012596446722745895
1686343713432089900,3.02708984375,0.15274302242919802,-0.00820259567797184,-0.021166743201948703
1686343713442109700,3.037109619140625,0.11712883434295654,-0.013873627051711081,-0.009556786765903234
1686343713452129800,3.0471298828125,0.06751593152061104,-0.019041969600319862,0.02889731918768957
1686343713462150000,3.05714990234375,0.004531359819322824,-0.021330957320332525,0.013809658437408506
1686343713472170000,3.067169921875,-0.03138108056113124,-0.03129121032059193,0.013756466945447026
1686343713482189000,3.07718896484375,-0.0726179308347404,-0.03690495854914188,-0.008914378942828625
1686343713492209000,3.087208984375,-0.08711582726463675,-0.01956102503836155,-0.0237597553698346
1686343713502228700,3.097228759765625,-0.07874196667298675,-0.014072949016094207,-0.01913182157455012
1686343713512248800,3.107248779296875,-0.056877486997842785,-0.012283142989873885,-0.08277078379765153
1686343713522268700,3.1172685546875,-0.11869579139873385,-0.0024111527949571606,0.00392888214783743
1686343713532288800,3.127288818359375,-0.02284662258028984,-0.09337211118042468,0.07689180876165629
1686343713542307800,3.137307861328125,0.04098024516403675,-0.03283610167503357,0.04393471105545759
1686343713552328000,3.147327880859375,0.05782163598015904,-0.03954933557808399,0.06284649667115881
1686343713562347800,3.15734765625,0.06621127866283058,-0.05157353537082672,0.015637732381094248
1686343713572368000,3.167367919921875,0.01816898615807295,-0.06421557480096816,0.0015231909792870282
1686343713582388000,3.177387939453125,-0.030720570825785398,-0.033411271214485165,0.018076668232120573
1686343713592408000,3.187407958984375,-0.045385055994242425,-0.037975218129158016,0.027649949475098398
1686343713602428000,3.197427978515625,-0.08199658455476164,-0.05469955843687057,-0.04597949648974463
1686343713612446700,3.20744677734375,-0.12107727970778942,-0.017916764962673186,-0.04872033789679408
1686343713622466800,3.217466796875,-0.07174114800021052,-0.019102759876847265,-0.05418808351708576
1686343713632487000,3.22748681640625,-0.010916969203203916,-0.046318099060654636,-0.07131484887953847
1686343713642506800,3.2375068359375,0.026314006429910657,-0.02659925311207771,-0.023698270973563192
1686343713652526800,3.24752685546875,0.04115735529661178,0.0002583586752414703,0.02669336113631725
1686343713662547000,3.257546875,0.06649696373641491,-0.03240647808611393,0.07880465664565563
1686343713672566000,3.26756591796875,0.09853227042257785,0.000054945057630538935,0.07231807110533117
1686343713682585900,3.2775859375,0.07302446580901742,0.010610825863480567,0.0792375133712776
1686343713692605700,3.287605712890625,0.05778714918866753,0.04302899438738823,-0.011052121623884886
1686343713702625800,3.297625732421875,0.06063084818199276,0.026912556844949722,-0.05839547207904979
1686343713712645000,3.30764501953125,0.08315642211437226,0.0004091653227806091,-0.013752484890073536
1686343713722665000,3.3176650390625,0.12408946713581681,0.0009837503403425216,-0.008827139050792902
1686343713732683800,3.327683837890625,0.22453823870420456,-0.005776829835772514,-0.045407267826050514
1686343713742703900,3.337703857421875,0.17818389928638934,0.004378653475642204,0.03701367962062359
1686343713752724000,3.347723876953125,0.12279402049779892,-0.014121464332938193,0.1274837857492268
1686343713762744000,3.357744140625,0.07090776591598986,-0.029678514426946637,0.050881169192492956
1686343713772764000,3.367763916015625,-0.0036788346432149407,-0.061790978002548215,0.039722098329104484
1686343713782784000,3.377783935546875,-0.07731471034884452,-0.0008703530937433242,0.013981471340358256
1686343713792803000,3.387802978515625,-0.18177943956032394,-0.021839491364359854,0.04767780657391995
1686343713802823200,3.3978232421875,-0.21262319837436078,-0.07253682842254638,0.03720439815344289
1686343713812843000,3.407843017578125,-0.17189269018769263,-0.07884557317793368,-0.03905176131948829
1686343713822863000,3.417863037109375,-0.16070713317617774,-0.08973521598279476,-0.04492969517586753
1686343713832883200,3.42788330078125,-0.13468670286536216,-0.09492050966620445,-0.031191257077455518
1686343713842902800,3.43790283203125,-0.10241831807568669,-0.05674713861644268,-0.075085380394198
1686343713852921900,3.447921875,-0.06805866009518503,-0.0364554612159729,-0.08372923529995605
1686343713862942000,3.45794189453125,-0.05720321182087063,-0.047528059372305864,-0.04129227025527507
1686343713872962000,3.467962158203125,-0.03841463245972991,-0.026208207967877387,0.012287106778938323
1686343713882982000,3.47798193359375,0.0015589198797941208,0.020261282262206075,0.03298237827792763
1686343713893002000,3.488001953125,0.03934694487378001,0.010154314267635346,0.047668454223684965
1686343713903022000,3.49802197265625,0.07400573193132877,-0.0030745851397514343,0.04377236010059714
1686343713913041200,3.508041259765625,0.10611235028803348,0.004319032242894172,0.04879778704717755
1686343713923061000,3.51806103515625,0.12346855875849723,0.017934885141253472,0.056526481603085994
1686343713933080800,3.528080810546875,0.14464286421239375,0.021823709273338317,0.04274857001081109
1686343713943101000,3.538100830078125,0.14937398438751698,0.024416063854098318,0.011508943746984005
1686343713953121000,3.54812109375,0.17719138111770152,0.025994857478141783,-0.0006403437301516533
1686343713963140900,3.558140869140625,0.22002119967117903,0.025423195070028305,-0.011248356582038104
1686343713973160000,3.568159912109375,0.24721242732703685,0.014509002345800399,-0.026369682139903306
1686343713983180000,3.578179931640625,0.23197277261912821,-0.007527472895383834,-0.03649696227014065
1686343713993200000,3.5882001953125,0.1728267561674118,-0.009573884031176566,-0.011379179887473582
1686343714003220000,3.598219970703125,0.0908932999767363,-0.004587912312150002,0.025913919462729244
1686343714013240000,3.608239990234375,-0.006405190867185592,-0.008373860591650009,0.018457155449688435
1686343714023259000,3.6182587890625,-0.07813201808109879,-0.02554477562308311,-0.01942574475351721
1686343714033279000,3.628279052734375,-0.14444178868234156,-0.023351064971089363,-0.019771745179593563
1686343714043299000,3.638299072265625,-0.13809855713546276,-0.027553777357935905,0.011449907036125659
1686343714053319000,3.64831884765625,-0.1079459954559803,-0.06162731187343597,0.013872750268876553
1686343714063339000,3.658339111328125,-0.09108619220033287,-0.0901385360866785,0.025127098200283943
1686343714073359000,3.668359130859375,-0.12691621499434114,-0.0606675269305706,-0.0008268427455797791
1686343714083378200,3.678378173828125,-0.13660174270644784,-0.05747428384721279,-0.0037976752499118446
1686343714093398000,3.68839794921875,-0.13227730363607407,-0.062353288060426705,0.002072422359883785
1686343714103418000,3.698418212890625,-0.12123276253044604,-0.03053542351722717,-0.025791443860530852
1686343714113438000,3.70843798828125,-0.0729500853985548,-0.03590133446455002,-0.04446633371412754
1686343714123457800,3.718457763671875,-0.03486190841421485,-0.05302490322291851,-0.05855358525021001
1686343714133476900,3.728476806640625,-0.03199555919766426,-0.046515667459368706,-0.03158580935299396
1686343714143497000,3.7384970703125,-0.05128960386291146,-0.05015665431022644,-0.021310243325866757
1686343714153517000,3.74851708984375,-0.06175298407971858,-0.024451135167479515,-0.023498949009180068
1686343714163537200,3.758537109375,-0.05016951379179954,-0.03266132963001728,-0.001483224295079708
1686343714173557000,3.768556884765625,-0.032197803771495816,-0.0146352590739727,0.0106225163012743
1686343714183577000,3.7785771484375,-0.0028900223530828953,0.010951017603278159,0.01829988252874464
1686343714193596200,3.78859619140625,0.06159618608281016,0.0153629888266325,0.011850560258887708
1686343714203616000,3.798615966796875,0.11473477881327271,0.023030162453651425,0.018225118525791912
1686343714213635800,3.8086357421875,0.1382967100560665,0.030720716956257818,0.008231237250566481
1686343714223656000,3.818656005859375,0.1388625272452831,0.01675122831463814,0.009807400526106357
1686343714233676000,3.828676025390625,0.14373217910826205,0.005591536396741867,0.015243746361136436
1686343714243695000,3.838695068359375,0.1363287709839642,0.01077449199259281,0.007051105821598321
1686343714253715000,3.84871484375,0.09363938381448388,-0.011788637471199036,0.0017199739267118274
1686343714263735000,3.858735107421875,0.03126841396689415,-0.0174544081479311,-0.010463526347279548
1686343714273755100,3.868755126953125,-0.009364479064196348,-0.0168880064368248,-0.03623564445283264
1686343714283775000,3.87877490234375,-0.025850334440916774,-0.020998364365100858,-0.021159071352146563
1686343714293793800,3.888793701171875,-0.02681055777519941,-0.019635259318351743,0.007177691343333572
1686343714303814000,3.89881396484375,-0.03972396149262786,-0.03153787855803966,0.021248868527449668
1686343714313834000,3.908833984375,-0.03185468942224979,-0.03204290547072887,0.016886837393045424
1686343714323854000,3.91885400390625,-0.02661854233443737,-0.030360066950321195,0.01658902349025011
1686343714333874000,3.9288740234375,-0.039315380691736936,-0.04133271186351776,0.0049974064284935595
1686343714343894000,3.93889404296875,-0.09878697583600878,-0.04111585424244404,-0.0037920492267236113
1686343714353913000,3.9489130859375,-0.14057692994773388,-0.03298457023501396,-0.017836100941896436
1686343714363933200,3.95893310546875,-0.13365326816439627,-0.031717326778173446,-0.034899171684682366
1686343714373953000,3.968953125,-0.11065393924042582,-0.02991290770471096,-0.04088142443206161
1686343714383973000,3.97897314453125,-0.059935705524683,-0.03526303656101227,-0.029868191780149937
1686343714393992000,3.988991943359375,-0.03574409807622433,-0.03842529998421669,-0.030831191593408584
1686343714404012000,3.999011962890625,-0.04406520556733012,-0.038302550387382506,0.005813398986496031
1686343714414032000,4.009031982421875,-0.03990647845268249,-0.062004913014173504,0.012355331443250179
1686343714424052000,4.019052001953125,-0.051253801897168154,-0.05816869585216045,0.01108341181129217
1686343714434072000,4.029072021484375,-0.04546352805793285,-0.043240591311454774,0.04217033173143864
1686343714444092200,4.039092041015625,-0.027697715873271224,-0.022479542833566665,0.07025277260597795
1686343714454111000,4.049111083984375,-0.01798442337140441,-0.0038163434177637097,0.08195526616368443
1686343714464131000,4.059131103515625,-0.059479632320255035,0.033789456877112385,0.0722749991485849
1686343714474151000,4.06915087890625,-0.07093173131346703,0.0014841010779142378,-0.08398001345694064
1686343714484171000,4.0791708984375,-0.03981748499497771,-0.00396188936829567,-0.11153200071658939
1686343714494190800,4.08919091796875,-0.04178630084991455,0.008244681254029274,-0.06695990507304668
1686343714504210000,4.0992099609375,-0.026448592595010995,-0.004589081355929375,-0.038751499731279906
1686343714514230000,4.10922998046875,-0.02117942002043128,-0.005516717594861984,0.01548782078269869
1686343714524250000,4.11925,-0.0193844994276762,-0.023932664251327514,0.02557107910811901
1686343714534270000,4.12927001953125,-0.009742810857295989,-0.06619535044133663,0.0886897985830903
1686343714544289000,4.1392890625,-0.058730859779566526,-0.030412089398503303,0.06732906717900186
1686343714554308900,4.149308837890625,0.0502596762932837,0.030962709018588063,-0.20337704846020788
1686343714564329000,4.159328857421875,0.2273907055258751,-0.06644377224445343,-0.15603081192821264
1686343714574348800,4.169348876953125,0.22229820469245312,-0.09398761273026465,0.10104889288600534
1686343714584369000,4.179368896484375,0.14534092947915195,0.03669219258129597,0.1315402580657974
1686343714594388000,4.189387939453125,0.09960779069960117,0.05731587841510773,0.09785948572754859
1686343714604408000,4.199407958984375,0.07795417729616165,0.018308394628763196,0.06310206060111523
1686343714614428200,4.20942822265625,0.0845487532556057,0.015461188504099844,-0.0031283611536026
1686343714624448000,4.219447998046875,0.04725917930305004,-0.016287702456116677,-0.035869185760617255
1686343714634468000,4.229468017578125,0.02583659817650914,-0.06204933667778968,-0.008016096662543713
1686343714644487000,4.23948681640625,-0.004563216262310743,-0.09727145670652389,-0.0021282076677307483
1686343714654507000,4.249507080078125,-0.02541661919876933,-0.08460428283512592,-0.005153400707803666
1686343714664526800,4.25952685546875,-0.06842471692860126,-0.09089783002138137,-0.01384235513061285
1686343714674547000,4.269546875,-0.13854089407548306,-0.08953063332140446,-0.03126720839049667
1686343714684567000,4.279567138671875,-0.2165624375194311,-0.0657785863339901,-0.06020633915960789
1686343714694586000,4.289586181640625,-0.22672435057163237,-0.019429507613182066,-0.06772182935625315
1686343714704607200,4.299607177734375,-0.1892902535818517,-0.00608545739352703,-0.05539948686715215
1686343714714627000,4.309626953125,-0.11643208425045012,-0.004891863694787025,-0.020284078615903853
1686343714724647200,4.319647216796875,-0.030471126109361646,0.0007505261063575744,0.007258885087072849
1686343714734666000,4.329666015625,0.03964183616712689,-0.014389759880304335,-0.004490260623954237
1686343714744686000,4.33968603515625,0.0675689768821001,-0.011409282764792441,0.00848930366486311
1686343714754706200,4.3497060546875,0.06613456016480922,-0.013562661406397818,0.019936288091540334
1686343714764726300,4.359726318359375,0.06262991304472089,-0.02211363213062286,0.016616532551683483
1686343714774746000,4.36974609375,0.07053893260359764,-0.0034399113208055496,0.03036240503787994
1686343714784765200,4.37976513671875,0.07308233347609638,0.004054243826866149,0.011007752759195863
1686343714794785000,4.389784912109375,0.08688815598860382,0.0065413844674825665,-0.004027611548267304
1686343714804805000,4.39980517578125,0.10206409781053662,0.006416881304979324,-0.0004935922032222152
1686343714814825000,4.409824951171875,0.1183167289532721,0.0074836337536573405,0.017023944308795034
1686343714824844000,4.419843994140625,0.14038593742027877,0.004487959069013595,0.021287154711224138
1686343714834864000,4.429864013671875,0.12242825592532754,-0.01245499242544174,0.013683401709236204
1686343714844884200,4.43988427734375,0.04001870665550232,-0.008203180199861526,0.02098258227407932
1686343714854904000,4.449904052734375,-0.05390358575358987,0.00868833336830139,0.028095884878002107
1686343714864924200,4.459924072265625,-0.0787896052069962,-0.0016916063487529753,-0.014695209100283681
1686343714874943000,4.46994287109375,-0.07466390357911587,-0.016117022064328194,-0.033654432320594785
1686343714884963000,4.479963134765625,-0.061135144442319864,-0.023117840737104413,-0.040187048959732054
1686343714894983200,4.489983154296875,-0.021962094830721614,-0.039486207213997836,-0.018631598701141772
1686343714905003000,4.5000029296875,0.04485986307635903,-0.040188802525401114,0.029710407402552663
1686343714915022000,4.51002197265625,0.11121113473176955,-0.08591068925857544,0.07190700608640908
1686343714925042200,4.520042236328125,-0.02240633146688342,-0.07847323273420334,0.23812022586558013
1686343714935062300,4.530062255859375,-0.20581761001273988,0.035600305691361425,-0.02888352812435478
1686343714945082000,4.54008203125,-0.08036766817867755,-0.020243162083625792,-0.28347295049279925
1686343714955102200,4.550102294921875,-0.056239042963832614,-0.16101707590818404,0.018178959562815726
1686343714965121000,4.56012109375,-0.10862287180423735,-0.030502105769515037,0.10903320617079734
1686343714975141000,4.57014111328125,-0.13321136961579322,0.010234978288412093,0.03733165952861309
1686343714985161000,4.580160888671875,-0.09863806888461113,-0.045890813559293746,0.006342062503099441
1686343714995181000,4.59018115234375,-0.0005155483067035675,-0.04577332465946674,-0.09772913734614848
1686343715005200100,4.6002001953125,0.12618614715412257,-0.05036182149350643,-0.11601849848087877
1686343715015220200,4.61022021484375,0.14529928229451178,-0.05018938753604889,0.057930210921168325
1686343715025240000,4.620239990234375,0.1044213284611702,-0.012973463341593742,0.08049100229740143
1686343715035260200,4.63026025390625,0.06581248860359191,0.015791443371772764,0.005362111555039882
1686343715045280300,4.6402802734375,0.020158406409621236,0.009697218149900436,-0.03713204530328512
1686343715055299000,4.650299072265625,0.0027308862686157226,0.02866319990456104,-0.031415713483095166
1686343715065319200,4.660319091796875,0.013058219015598296,0.035278234130144116,0.009529460367560387
1686343715075339000,4.670339111328125,0.058844987678527826,0.01729191106259823,0.04438654647618532
1686343715085359000,4.680359130859375,0.1149210951656103,0.001121112984418869,0.030517595599591732
1686343715095378200,4.690378173828125,0.13620017616823316,-0.010763970598578452,0.0345341742971912
1686343715105398300,4.700398193359375,0.15005144525766373,-0.018002105158567427,0.031029636774957178
1686343715115418000,4.710418212890625,0.12775953395068645,-0.01746083788871765,0.013642156383395195
1686343715125438200,4.720438232421875,0.09181187612637877,-0.00760346074104309,0.00011949819382280111
1686343715135458300,4.730458251953125,0.07545520008727907,-0.007375497204065323,-0.009314977366663516
1686343715145477000,4.74047705078125,0.06595511194467545,-0.014530045133829116,-0.01881546736806631
1686343715155497000,4.7504970703125,0.03903437179327011,-0.03245499340295791,-0.03347410731762648
1686343715165517000,4.76051708984375,0.011213321801275013,-0.022512276059389113,-0.00043404403571039435
1686343715175537200,4.770537109375,0.005523001205176114,-0.030692659905552862,0.035685317093692714
1686343715185556200,4.78055615234375,-0.006224573603272438,-0.03874854058921337,0.04643412665575743
1686343715195576000,4.790576171875,-0.01649666903167963,-0.04164543107450008,0.044090559204295277
1686343715205596200,4.80059619140625,-0.03261515240073204,-0.031599253356456754,0.023392273764312264
1686343715215616300,4.8106162109375,-0.05327917024493217,-0.026771102547645566,0.01577156962752342
1686343715225635000,4.820635009765625,-0.07355214294493198,-0.028899346747994423,0.00473959574252367
1686343715235655200,4.8306552734375,-0.05662862680330872,-0.033115503138303755,-0.0136617743993178
1686343715245675000,4.840675048828125,-0.03483516653776168,-0.028332360514998434,-0.021492285361886024
1686343715255695000,4.850695068359375,-0.033819267493486405,-0.0271183085501194,-0.011855857488512991
1686343715265714200,4.860714111328125,-0.02717632234767079,-0.0355056131452322,-0.0358762365559116
1686343715275734300,4.870734375,-0.04138283461555838,-0.02517886492013931,-0.02904514842685312
1686343715285754000,4.880754150390625,-0.04870704002380371,-0.035333763709664345,-0.03207330060899258
1686343715295774200,4.890774169921875,-0.03446209544166923,-0.038655601608753205,-0.014352898468635975
1686343715305794300,4.900794189453125,-0.03021145225986838,-0.03393792543709278,-0.003625752749107778
1686343715315813000,4.910813232421875,-0.05616378577053546,-0.029141923332214353,-0.0018006196811795234
1686343715325833000,4.9208330078125,-0.07860080463662743,-0.004876081603765487,-0.025065796467103062
1686343715335853000,4.93085302734375,-0.06313961613252758,-0.009606617256999015,-0.03516078176293522
1686343715345873200,4.940873046875,-0.043027825343608855,-0.0041799160331487655,-0.022484803530573843
1686343715355892200,4.950892333984375,0.019911153650283814,0.005290507623553276,-0.005688859291374683
1686343715365912300,4.960912353515625,0.07715060582831501,-0.0010457096606492995,0.009301533363200724
1686343715375932200,4.97093212890625,0.11310557017624377,-0.002291325807571411,-0.006955518226325511
1686343715385952300,4.9809521484375,0.09703530986309052,0.003927402576804161,0.0021203531548380852
1686343715395971000,4.99097119140625,0.06941314344406127,-0.0062111295998096465,0.005055822084844112
1686343715405991200,5.0009912109375,0.031513767030090095,-0.029295652589201925,0.00446308035608381
1686343715416011000,5.011010986328125,-0.04561944927200675,-0.02677928585410118,0.019721512829698622
1686343715426031000,5.021031005859375,-0.09980433618500828,-0.0376098919481039,0.016418306565843522
1686343715436051200,5.03105126953125,-0.11381620266363024,-0.06355097341239452,-0.004412811473570764
1686343715446070300,5.0410703125,-0.10007774629890918,-0.06284954714477062,-0.021875439460575578
1686343715456090000,5.051090087890625,-0.09539850244149566,-0.03654080141186714,-0.021040121147595344
1686343715466110200,5.061110107421875,-0.08735577350035309,-0.025662849044799804,-0.010592157695628702
1686343715476130300,5.07113037109375,-0.03417246484532952,-0.014614216285943985,-0.006624130847491323
1686343715486149000,5.081149169921875,0.0059796589314937585,-0.0008604162216186523,0.020130641619861125
1686343715496169200,5.091169189453125,0.026480010646581648,-0.000017535656690597534,0.018627543580532074
1686343715506189000,5.10118896484375,0.014568185187131166,-0.002933715364336967,0.022007577940262854
1686343715516209200,5.111209228515625,-0.008359101413935423,-0.02157821007966995,0.02526190356109291
1686343715526228200,5.121228271484375,-0.032387773385643956,-0.031075521743297575,0.007058978600800037
1686343715536248300,5.131248291015625,-0.030697336080670354,-0.03693126203417778,-0.015299568201601504
1686343715546268200,5.14126806640625,-0.03673383976593613,-0.03715338035225868,-0.050815739273466165
1686343715556288300,5.151288330078125,-0.03201718650758266,-0.03677461016774177,-0.06800590699464082
1686343715566308000,5.16130810546875,-0.021150778447836638,-0.021077859342098236,-0.03135400989111513
1686343715576327200,5.1713271484375,-0.014950754763931035,0.004790156885981559,-0.0046761385848745705
1686343715586347000,5.181346923828125,-0.002662935598939657,0.0017179098337888716,0.012726831636764108
1686343715596367000,5.1913671875,0.002389525485038757,-0.007857143241167068,0.02047463275194168
1686343715606387200,5.20138720703125,-0.02074365895166993,-0.005616086316108704,0.01612604562100023
1686343715616406300,5.21140625,-0.042987054941803216,-0.02039630681872368,0.014669124810956417
1686343715626426000,5.221426025390625,-0.03972586118876934,-0.05149637848138809,-0.0025499767437577245
1686343715636446200,5.2314462890625,-0.04268529551625252,-0.06036883624494076,-0.024181378315389156
1686343715646466000,5.241466064453125,-0.047535658156871795,-0.054229602837562556,-0.029177871428430077
1686343715656485000,5.251485107421875,-0.03313756883963943,-0.06307341902852058,-0.02219309057500213
1686343715666505200,5.261505126953125,-0.03377294413372874,-0.05149111778438091,-0.028633937277458606
1686343715676525000,5.271525146484375,-0.056430766143649815,-0.030784429842233656,-0.03395367099549621
1686343715686545200,5.281545166015625,-0.05734773485809564,-0.006789806270599365,-0.04786963935159146
1686343715696564200,5.291564208984375,-0.08208426283821463,-0.016895605221390723,-0.00845331903602928
1686343715706583300,5.301583251953125,-0.11309139552041887,-0.0039770869374275205,-0.009496106087230146
1686343715716603400,5.311603271484375,-0.09035305562019348,-0.022336334970593452,-0.006780746181309223
1686343715726623200,5.321623291015625,-0.06638926557824015,-0.008100304347276687,-0.01834810558464378
1686343715736643300,5.331643310546875,-0.05047054256498813,-0.029193945780396458,-0.002486263857781887
1686343715746662100,5.341662109375,0.003029138562828302,-0.03020049247443676,0.0009054609397426247
1686343715756682200,5.35168212890625,0.07786079992428421,-0.02656827345192432,0.0023454306149855255
1686343715766702000,5.3617021484375,0.15920330448448658,-0.023825112223625183,0.009044891721010207
1686343715776722200,5.37172216796875,0.21038930184245108,0.000962123030424118,0.047503801713883874
1686343715786741200,5.3817412109375,0.22109598929584026,0.034030864417552945,0.07057137356847525
1686343715796761300,5.39176123046875,0.19315394327268004,0.0286737212985754,0.03166322197075933
1686343715806781200,5.40178125,0.11788286758065224,0.024131401693820952,0.015934651234745977
1686343715816801300,5.41180126953125,0.0865146465010941,0.03906301336586475,0.01571695336345583
1686343715826820000,5.421820068359375,0.07145531679615377,0.031715573212504386,-0.004451170722581446
1686343715836840200,5.431840087890625,0.07003390569090842,-0.002073299142718315,-0.003282382671535015
1686343715846860300,5.4418603515625,0.06779401780962943,-0.024050153151154517,0.00962123030424118
1686343715856880000,5.451880126953125,0.09363339246511458,-0.0371001888602972,-0.007572481080889701
1686343715866900200,5.461900146484375,0.1069435404151678,-0.05380757803320885,-0.03120382429808378
1686343715876919300,5.471919189453125,0.11168678941950201,-0.061515083670616144,0.0015922010948881506
1686343715886939400,5.481939453125,0.15156199595108627,-0.0735293465912342,-0.004920468734763562
1686343715896959200,5.491959228515625,0.23192264986708758,-0.053525253960490224,-0.01472523891236633
1686343715906979300,5.501979248046875,0.23683906348124145,0.006034019467234611,0.10652184440437704
1686343715916998100,5.511998046875,0.1410996386475861,-0.021765257084369657,0.20672263256106524
1686343715927018200,5.522018310546875,0.00013926234021782873,-0.032950667965412135,0.1399310697922483
1686343715937038000,5.5320380859375,-0.027562545186281203,0.008776011651754378,0.11070961495041846
1686343715947058200,5.54205810546875,0.11286708524525164,-0.0021200608938932415,0.1395610309034586
1686343715957077200,5.5520771484375,0.3677273969769478,-0.13592881188094616,0.04347527685016393
1686343715967097300,5.562097412109375,0.4905068044275045,-0.13385960439145564,0.031363691034913065
1686343715977117200,5.5721171875,0.6237305951334535,0.011404606589674949,0.030377054617740214
1686343715987137300,5.58213720703125,0.6204461666353046,-0.054635261029005046,0.05680124342385679
1686343715997157000,5.5921572265625,0.3641613750584423,-0.0573953733921051,0.18260467487070708
1686343716007176200,5.60217626953125,-0.011760580420494078,-0.08612287070453166,0.1703621196195483
1686343716017196300,5.6121962890625,-0.08554960086122154,0.1444312672883272,-0.1311819826800376
1686343716027216100,5.622216064453125,-0.11094108561873435,0.17281506572961805,-0.1630710858285427
1686343716037236200,5.632236328125,-0.11123626917302608,0.08507014678120613,-0.26717209629416466
1686343716047255300,5.64225537109375,-0.09526669275537132,0.02895429180562496,-0.4660794154617935
1686343716057275400,5.652275390625,0.3682563892871141,-0.06955050608813762,-0.524368742018938
1686343716067295200,5.662295166015625,1.0404536398172377,0.014084639453887939,-0.18487492135763167
1686343716077315300,5.6723154296875,0.7489110723763703,0.11439794807434081,0.35816929503679273
1686343716087334100,5.682334228515625,0.14758943905830382,0.09058627985417843,0.4324403999060392
1686343716097354200,5.692354248046875,-0.3353741103827953,0.12472761890888213,0.3693567517444491
1686343716107374000,5.7023740234375,-0.5565367351740599,0.14463175829648972,0.34433687677830455
1686343716117394200,5.712394287109375,-0.6699805973939598,0.1122726264834404,0.4241428559536114
1686343716127414300,5.722414306640625,-0.7690215479910373,0.08817629610300064,0.4606684232637286
1686343716137433300,5.732433349609375,-0.8474509415835142,0.10498071590960026,0.36949586795419453
1686343716147453200,5.742453125,-0.8198597548246384,0.17838555933833122,0.21830109788030386
1686343716157473300,5.752473388671875,-0.7266413729012012,0.14001695797741412,0.15291472573429346
1686343716167493000,5.7624931640625,-0.6720315385743976,0.0888397284477949,0.07975077838934957
1686343716177512200,5.77251220703125,-0.6285539236366748,0.09064297847747803,0.007872048549354076
1686343716187532300,5.7825322265625,-0.667052873378992,0.05667874955534934,0.039831367389857764
1686343716197552000,5.79255224609375,-0.7213885669395327,-0.00036415713727474213,0.051493967328593133
1686343716207572200,5.802572265625,-0.7393311969958245,-0.0793418322622776,0.03096219756193459
1686343716217591300,5.81259130859375,-0.6785597712993622,-0.12487433390319347,0.01842471448481083
1686343716227611400,5.822611328125,-0.5482134357258677,-0.11657646115720272,0.022282485891506075
1686343716237631200,5.83263134765625,-0.4245236354321241,-0.10687632039785384,-0.04900982236266136
1686343716247651000,5.842651123046875,-0.31056627073213455,-0.10587035822570323,-0.07970124015919863
1686343716257671200,5.852671142578125,-0.17938553016111253,-0.08320318386554718,-0.09585800971202552
1686343716267690200,5.862690185546875,-0.03175575909242034,-0.05588555335104465,-0.11476144762448966
1686343716277710000,5.8727099609375,0.11298121314421296,-0.039817046603560446,-0.17939992401264607
1686343716287730200,5.882730224609375,0.21710604287683963,-0.06814063929021358,-0.23912878185361622
1686343716297750300,5.892750244140625,0.2855558942466974,-0.11745149042606354,-0.2623468680948019
1686343716307769300,5.902769287109375,0.3570354687012732,-0.1381014797449112,-0.30336715300828215
1686343716317789400,5.91278955078125,0.41120632708892224,-0.12309563379287719,-0.29182781412303443
1686343716327809300,5.922809326171875,0.37739538903236386,-0.15074235013127327,-0.2781784973464906
1686343716337829000,5.9328291015625,0.30621245943680403,-0.1626011302292347,-0.24583522068969904
1686343716347848200,5.94284814453125,0.24464330749139188,-0.10874445235729217,-0.20091887818574905
1686343716357868300,5.952868408203125,0.21845979557335377,-0.061485857576131814,-0.13613178710713983
1686343716367888100,5.96288818359375,0.1852997226409614,-0.0153062902033329,-0.02980842441692948
1686343716377908200,5.972908203125,0.12640753481984138,0.01556815600991249,0.09586787351891397
1686343716387928300,5.98292822265625,0.06912950419709087,0.058902270823717115,0.1375298173367977
1686343716397947400,5.992947509765625,0.499998855394125,0.04571194986104965,0.10122779311686754
1686343716407967200,6.00296728515625,0.7267122461803257,-0.08621522516310215,-0.03108114776648581
1686343716417987000,6.012987060546875,0.6691648970969021,-0.10339081636965274,-0.08632431156076491
1686343716428007200,6.023007080078125,0.4082007155321538,-0.07224222939014434,-0.10988003225848078
1686343716438026200,6.033026123046875,-0.03435702763199806,-0.07394844878613949,-0.07447115748599172
1686343716448046000,6.043046142578125,-0.40260187261179087,-0.09341711936593056,-0.09912234527021646
1686343716458066200,6.053066162109375,-0.6067493574552237,-0.1524795491874218,-0.18999584456793964
1686343716468086300,6.063086181640625,-0.6932849006138742,-0.21741934660971163,-0.2964638764258474
1686343716478105300,6.073105224609375,-0.5106313085675239,-0.18537819470465183,-0.37729002896174785
1686343716488125400,6.08312548828125,-0.20140695396363734,-0.24669103380143642,-0.33598800449743865
1686343716498145000,6.09314501953125,-0.0003073123835027218,-0.28778058455884453,-0.39342531733512875
1686343716508165000,6.1031650390625,0.07185133037641644,-0.2662766087591648,-0.5272630752209574
1686343716518185200,6.113185302734375,0.025535569403320548,-0.2613485047072172,-0.618140227780491
1686343716528204300,6.123204345703125,-0.09812515092641115,-0.2281400625884533,-0.5951043662384152
1686343716538224000,6.13322412109375,-0.19203926002904773,-0.1536380715727806,-0.4792041238423437
1686343716548244200,6.143244140625,-0.22362565390393135,-0.054177580389380454,-0.2577917620737106
1686343716558264300,6.153264404296875,-0.28247414871379734,-0.005817746368050575,-0.03532726090364158
1686343716568283400,6.163283447265625,-0.33432518585175275,0.01952127754986286,0.1024677101753652
1686343716578303000,6.173302978515625,-0.3530008063577115,0.060014615979790686,0.14120054173879323
1686343716588323000,6.183322998046875,-0.34853389007672664,0.0855816034346819,0.13145700022913515
1686343716598343200,6.19334326171875,-0.3048275809496641,0.05302782583236694,0.09837576468661427
1686343716608363300,6.20336328125,-0.24229192205965516,0.025448329511284826,0.04426365074887872
1686343716618382300,6.21338232421875,-0.2037709066160023,0.0034060090512037277,-0.006741656279936432
1686343716628402200,6.223402099609375,-0.19987156108990312,0.005371171644330024,-0.04792239245213568
1686343716638422300,6.23342236328125,-0.22441139745414257,0.03241816852390766,-0.06489727345481515
1686343716648442400,6.2434423828125,-0.2954302225291729,0.05478782124221324,-0.02418108605444431
1686343716658461400,6.25346142578125,-0.3311012553691864,0.05739420434832573,0.01953998225033283
1686343716668481000,6.26348095703125,-0.303588540674001,0.06307458807229996,0.06782507053501903
1686343716678501000,6.273501220703125,-0.19352599145546553,0.11451368340849875,0.14277202883921564
1686343716688521200,6.283521240234375,-0.08326558157727122,0.14254969132542608,0.25633717935122546
1686343716698541000,6.293541015625,-0.015733721835166217,0.10536474679112434,0.3349258551586419
1686343716708560000,6.303559814453125,-0.014482260469347238,0.09375964919328689,0.3167765966143459
1686343716718580000,6.313580078125,-0.08506430156230926,0.08921674506664276,0.2622363934576511
1686343716728600000,6.32360009765625,-0.10865399759486317,0.13081775247752667,0.23515556737370788
1686343716738620200,6.3336201171875,-0.14323460484966635,0.12375029830932617,0.24422307278532535
1686343716748639000,6.343638916015625,-0.22994039000868796,0.04223346009552478,0.21638035895079374
1686343716758658800,6.353658935546875,-0.14621245161667465,0.033409517648816105,0.05778766064532101
1686343716768679000,6.363678955078125,0.4168095539234578,0.014392682489752768,-0.18428225269410758
1686343716778699000,6.373698974609375,0.4254074325293302,-0.13516191916167736,-0.026681086176633832
1686343716788718800,6.38371875,0.2646300105959177,-0.003737432962656021,-0.023105273516476153
1686343716798738000,6.393738037109375,0.1755048893354833,0.02206219420433044,-0.08310618976447731
1686343716808758000,6.403758056640625,0.03767068222463131,-0.03465104214251041,-0.15226663708910346
1686343716818778000,6.413778076171875,-0.04326616414412856,0.00023906945288181304,-0.13004819287713618
1686343716828798000,6.4237978515625,-0.21738705177530646,0.05348667551577091,-0.201080023564212
1686343716838816800,6.433816650390625,-0.32906697306260463,0.03491933768987655,-0.1927548244198784
1686343716848836900,6.4438369140625,-0.29235914452075956,-0.042183775734901424,0.1196878711760044
1686343716858857000,6.45385693359375,-0.17308219223320484,-0.02946750202476978,0.34583544477298855
1686343716868877000,6.463876953125,-0.042405309531092644,0.00007014262676239014,0.35870588613152504
1686343716878895900,6.473895751953125,-0.05150587696209549,-0.037516368445754046,0.2818928051618859
1686343716888916000,6.483916015625,-0.0944558147639036,-0.05203296957612037,0.10309431764110923
1686343716898936000,6.49393603515625,-0.053732320839911696,-0.008308978661894798,-0.05185005075726658
1686343716908956200,6.5039560546875,0.06278875686824321,0.030085926184058188,-0.08082461816594004
1686343716918976000,6.51397607421875,0.16253098760247228,0.06758125184178351,-0.00794248343706131
1686343716928994800,6.523994873046875,0.2713660408526659,0.07671732897758483,0.08012669902965426
1686343716939015000,6.534014892578125,0.35967911507785316,0.061681672409176824,0.04801598901972175
1686343716949035000,6.544034912109375,0.3208611625142395,0.02426175007522106,-0.02723051848663017
1686343716959054800,6.554054931640625,0.16587503733336925,0.011112345644831656,-0.06040843760296702
1686343716969075000,6.564074951171875,0.11167188411131501,-0.02776128262877464,-0.06332180429901928
1686343716979094000,6.574093994140625,0.14963292758464813,-0.09833470202386378,0.013387450969964266
1686343716989114000,6.584114013671875,-0.03930895095095038,-0.03814414495527744,0.10793768428536131
1686343716999134000,6.594134033203125,-0.18678104723989963,0.014718261182308196,0.07647168365344405
1686343717009154000,6.604154052734375,-0.15584858722910283,-0.003497778987884521,0.030003526863921434
1686343717019172900,6.6141728515625,-0.06060483695790171,-0.0285123932570219,0.026623382906336337
1686343717029193000,6.62419287109375,0.09188289553597569,0.037326398831605906,0.03842765633808449
1686343717039213000,6.634213134765625,0.17939035246670246,-0.010758709901571272,0.17586305512338876
1686343717049233000,6.64423291015625,0.2078254427038133,-0.05343816019892692,0.17735649028522893
1686343717059253000,6.6542529296875,0.17007015093564987,-0.0047463177442550655,0.09866437236964702
1686343717069272000,6.66427197265625,0.028628128591179847,0.028737434184551238,0.014247721061110497
1686343717079292200,6.674292236328125,0.08388342121466993,0.013468553382158278,-0.03285175590189174
1686343717089312000,6.68431201171875,0.16884499305486678,0.009341244319081305,0.02341930790171027
1686343717099331800,6.694331787109375,0.035737668335437775,0.04176058188676834,0.16271423521488904
1686343717109351000,6.704350830078125,0.013741086713224649,0.03372866660058498,0.18929684771941974
1686343717119371000,6.71437109375,0.05072057180330157,0.007443886265158653,0.11467002474768087
1686343717129390800,6.724390869140625,0.09039528732672333,-0.0030699089646339414,0.04264673533784225
1686343717139411000,6.734410888671875,0.13236512804999948,0.020097031611204148,-0.020733119291346518
1686343717149431000,6.74443115234375,0.16813538348078727,0.000032733225822448726,-0.01742342848777771
1686343717159450000,6.7544501953125,0.18470760196670888,-0.003157587248086929,0.009872848711442202
1686343717169470000,6.764469970703125,0.2013667680837214,0.015986089161038396,0.028174557871092108
1686343717179489800,6.77448974609375,0.1959903357423842,-0.004842763856053352,0.023849972670245915
1686343717189510000,6.784510009765625,0.16284443746581673,-0.013057634493708609,0.039712727712560444
1686343717199530000,6.794530029296875,0.08048691064417361,-0.003779518538713455,0.019610709398984908
1686343717209549000,6.804549072265625,0.0070434887707233424,-0.018457447710633276,0.005291676667332649
1686343717219569000,6.81456884765625,-0.10549626421630381,-0.009348843103647232,-0.013259002284705638
1686343717229589000,6.824589111328125,-0.21190043705776332,-0.01660217523276806,-0.02200229897694662
1686343717239609000,6.834609130859375,-0.2546210961483419,-0.029818215158581733,-0.03597964213145897
1686343717249628200,6.844628173828125,-0.23327216477990148,-0.014286884027719497,-0.010442775820195675
1686343717259648000,6.85464794921875,-0.19453107684478163,-0.00794248343706131,-0.018128635881375522
1686343717269667800,6.864667724609375,-0.13402429343387484,-0.02081716257929802,-0.019711813419591634
1686343717279688000,6.87468798828125,-0.07816358226314186,-0.03202361624836921,0.002812116544973105
1686343717289707800,6.884707763671875,-0.04522913478016853,-0.035141456007957456,-0.02310673482120037
1686343717299726800,6.894726806640625,-0.03153086429536343,-0.034413141733407974,-0.03034779199063778
1686343717309747000,6.904746826171875,-0.04081716355681419,-0.047697570720314976,0.0013908698365092276
1686343717319767000,6.91476708984375,-0.06998349067792296,-0.05858429091572761,0.05606618888126686
1686343717329787100,6.924787109375,-0.14067878288701177,-0.06574819119572639,0.040879981393646445
1686343717339807000,6.934806884765625,-0.21160613028630612,-0.049371056890487666,-0.018641553839575498
1686343717349825800,6.94482568359375,-0.23215338988304138,-0.02813303855061531,-0.03012070523649454
1686343717359846000,6.954845947265625,-0.2184796693176031,-0.013408932149410246,0.004899462479352951
1686343717369866000,6.964865966796875,-0.15012743310332297,-0.0077484221696853635,0.017009586989879606
1686343717379885800,6.9748857421875,-0.04167451103851199,-0.012835516175627708,-0.007281078652571886
1686343717389906000,6.984906005859375,0.06494169711843133,-0.010478139394521713,-0.00938097354127094
1686343717399925000,6.994925048828125,0.10133972905874251,-0.006306991189718246,-0.012925824807584285
1686343717409945000,7.004945068359375,0.08874854303300381,-0.0010994856745004653,-0.016529109996557236
1686343717419965000,7.01496484375,0.05462941581010818,-0.001785129851102829,0.005534253251552581
1686343717429985000,7.024985107421875,-0.012971855906397104,0.0017068039178848265,0.02344164759768173
1686343717440005000,7.035005126953125,-0.056256140229105946,-0.01178454581797123,0.040654081949591636
1686343717450024000,7.04502392578125,-0.06062602587640285,-0.023930910685658453,0.016100363190472124
1686343717460044000,7.0550439453125,-0.0487846353046596,-0.010474632263183592,0.004815017332602292
1686343717470063900,7.06506396484375,-0.03955693436264991,-0.035790859827399255,0.02570785723030567
1686343717480084000,7.075083984375,-0.06008534312844276,-0.028531682479381558,0.011707973450422286
1686343717490103000,7.08510302734375,-0.06436740436181426,-0.007491817060112952,-0.011149736779462545
1686343717500123100,7.095123046875,-0.05729775823652744,-0.029316110855340957,-0.030813655936717987
1686343717510143000,7.10514306640625,-0.07129778814688324,-0.016906711137294767,-0.031801516196597365
1686343717520163000,7.1151630859375,-0.0936935982197523,-0.0022919103294610976,0.011470657563209533
1686343717530183200,7.12518310546875,-0.08722776320651172,-0.021376550027728078,0.048631033911835396
1686343717540202000,7.135201904296875,-0.09401260104104876,-0.02751519891321659,0.05057694381522015
1686343717550221800,7.145221923828125,-0.07283361941203474,-0.019507249024510384,0.06566374604897574
1686343717560242000,7.155241943359375,-0.04227569180205464,-0.03621230010986328,0.05133824704391882
1686343717570262000,7.165261962890625,-0.02329860413148999,-0.0446598104596138,0.014210585654806344
1686343717580281900,7.17528173828125,-0.009982903223484755,-0.022561375898122786,-0.03406065676761791
1686343717590301000,7.185301025390625,-0.004259264879673719,-0.002378419569134712,-0.043585440960060805
1686343717600321000,7.195321044921875,0.0037703123189508914,0.005050853648781776,-0.023085966027807443
1686343717610341000,7.205341064453125,0.05540872961953282,0.014672668474912642,0.027760716373194008
1686343717620361000,7.21536083984375,0.1008360173203051,0.033355157113075254,0.06122488681869581
1686343717630380800,7.225380859375,0.10559855554699897,0.03297287979722023,0.06662146689891815
1686343717640400000,7.23539990234375,0.09309563232660294,0.024822891089320183,0.09068301822692156
1686343717650420000,7.245419921875,0.08652429111227393,0.010501520270109177,0.11718434565616771
1686343717660440000,7.255440185546875,0.05133154330849647,-0.028761984103918073,0.09123772950023412
1686343717670460000,7.2654599609375,0.007031944463402032,-0.03080605715215206,0.05281566265271976
1686343717680480000,7.27547998046875,-0.015226064573973417,-0.05580839646160602,-0.006076086776982992
1686343717690499000,7.2854990234375,-0.04789338555335998,-0.08025134832262992,-0.04513941067010164
1686343717700519000,7.295518798828125,-0.08033800369277597,-0.06705167500972747,-0.06073125808285549
1686343717710540000,7.3055400390625,-0.11596490513011813,-0.05118482831418514,-0.06775337527198716
1686343717720560000,7.31556005859375,-0.14980579993352294,-0.025122166296839714,-0.07519404666675254
1686343717730580000,7.325580078125,-0.18366846817731855,-0.016491700595617293,-0.07629793452173471
1686343717740599000,7.33559912109375,-0.165840988933295,-0.019555179819464683,-0.024473620993923393
1686343717750619000,7.345618896484375,-0.07536372241154313,-0.01842646805047989,0.03444644121481105
1686343717760639000,7.355638916015625,0.0037602293163537977,-0.020834698235988616,0.0767643829897046
1686343717770659000,7.3656591796875,0.10675941601991652,-0.019311434191465377,0.0696650723785162
1686343717780678100,7.37567822265625,0.15004983782246709,-0.012396540236473083,0.06080724592851475
1686343717790698000,7.385697998046875,0.13264321433901785,-0.015527239477634429,0.078067282281816
1686343717800718000,7.395718017578125,0.1168221064813435,-0.006786883661150932,0.08097003625230863
1686343717810738000,7.405738037109375,0.1139367603033781,-0.015443068325519562,0.051070262023806566
1686343717820757800,7.4157578125,0.08564458566829562,0.0017880524605512619,0.0467222594147548
1686343717830776800,7.42577685546875,0.06104512807130813,0.014523615393042564,0.009234861335158348
1686343717840797000,7.435796875,0.03521159863471985,0.025903672063350675,-0.03342968365401029
1686343717850817000,7.445817138671875,0.01476210032403469,0.04098550586104393,-0.05171119027584791
1686343717860836900,7.4558369140625,-0.007244564300775528,0.01880406919121742,-0.04654927746802568
1686343717870857000,7.46585693359375,-0.04708382273614406,0.010905424895882606,-0.03282791836857796
1686343717880876000,7.4758759765625,-0.0913712927520275,-0.01384323191344738,-0.005580138219892978
1686343717890896100,7.485896240234375,-0.15820917888060212,-0.025247838503122327,-0.011008629542030393
1686343717900916000,7.495916015625,-0.2492664372473955,-0.008921557602286339,-0.03276011382937431
1686343717910935800,7.505935791015625,-0.30436624704822896,-0.023092121773958203,-0.0427489901359193
1686343717920956000,7.515955810546875,-0.3064396923214197,-0.03620177871584892,-0.04603548272699117
1686343717930975000,7.52597509765625,-0.2627558872871101,-0.04935527479946613,-0.052460529072117054
1686343717940995000,7.5359951171875,-0.22769246495142578,-0.06260287890732288,-0.06534359245020896
1686343717951015000,7.546014892578125,-0.20045476780533789,-0.06577683276832104,-0.057079585441201924
1686343717961035000,7.556034912109375,-0.18704364369884133,-0.0610989040851593,-0.045011729169823225
1686343717971055000,7.56605517578125,-0.18792334914281963,-0.07309212421774863,-0.02198960389215499
1686343717981074000,7.576073974609375,-0.19492460620701313,-0.05845920323133468,-0.029220249265432357
1686343717991093800,7.58609375,-0.2063854730285704,-0.039891280883550644,-0.04314841951597482
1686343718001113900,7.59611376953125,-0.1862219520524144,-0.04944119951725006,-0.05504263625349849
1686343718011134000,7.606134033203125,-0.10836275956332683,-0.01963116766512394,-0.03044569940716028
1686343718021154000,7.616154052734375,-0.06859481279850006,-0.01117839661836624,0.029654549029469488
1686343718031172900,7.6261728515625,-0.0666454322963953,-0.009983633875846862,0.03608209785893559
1686343718041193000,7.63619287109375,-0.0488905798971653,-0.0053881227791309355,-0.012317483650892972
1686343718051213000,7.646213134765625,-0.0698737466931343,0.009212649503350257,-0.036761166164278984
1686343718061233200,7.656233154296875,-0.0604879325799644,0.02817921577990055,-0.022733937719743698
1686343718071252000,7.666251953125,0.0004056581914424896,0.04805120646357536,0.033104251091927286
1686343718081271800,7.676271728515625,0.05173720149993896,0.026049802535772323,0.04159180119112134
1686343718091292000,7.6862919921875,0.13382526373043654,-0.019104513442516326,-0.019397632903885097
1686343718101312000,7.69631201171875,0.20669746158719063,-0.01812134762406349,-0.015483400335907935
1686343718111331800,7.706331787109375,0.20555545194521546,-0.04314414519965648,0.2385356565323658
1686343718121351000,7.716350830078125,0.16264686906710266,-0.02938040826320648,0.2993376234975643
1686343718131371000,7.72637109375,0.19118191254734992,0.09420622391700743,-0.05262041407525539
1686343718141391000,7.73639111328125,0.21916195249333975,-0.001017068088054657,-0.045191268721502274
1686343718151411000,7.746410888671875,0.12413491371273994,-0.035193478456139564,0.04739405772909522
1686343718161431000,7.75643115234375,0.14489011697173118,0.04674070838689804,0.03885492357313633
1686343718171449900,7.766449951171875,0.1355862820535898,-0.006316928061842918,0.1527840850919485
1686343718181470000,7.776469970703125,0.12336290642693638,0.030896073523163793,0.024547453415114433
1686343718191490000,7.786489990234375,0.11219444668069481,-0.001118190374970436,-0.07527631812272594
1686343718201510000,7.796510009765625,-0.0022048165678977966,-0.07135258707404137,-0.034425270562618966
1686343718211529000,7.806529052734375,-0.13797916853949427,-0.048043023157119745,-0.007691705280076712
1686343718221549000,7.816549072265625,-0.2538853292196989,-0.0160556472659111,-0.011878215450793504
1686343718231569200,7.826569091796875,-0.2709660817496478,-0.02871814496219158,-0.04743568664742633
1686343718241589000,7.836589111328125,-0.2513070031642914,-0.05414718525111675,-0.046223260384052986
1686343718251608800,7.84660888671875,-0.2339588318698108,-0.06364157430529593,-0.01659280461622402
1686343718261628000,7.8566279296875,-0.1670445195041597,-0.04703472289741039,-0.0019997772487811744
1686343718271648000,7.86664794921875,-0.12798179839923976,-0.05047288065254688,0.027496475946437567
1686343718281667800,7.876667724609375,-0.07559723890647292,-0.06723638392686844,-0.004371913207601756
1686343718291688000,7.88668798828125,-0.046207039901614184,-0.04397942698001861,-0.017714228127896785
1686343718301708000,7.8967080078125,-0.0238373871833086,-0.04006488388478756,0.0066971595510840415
1686343718311727000,7.90672705078125,-0.017550854259729385,-0.026170214045047758,0.005258797311037779
1686343718321747000,7.916746826171875,-0.0033422961652278898,-0.023794717085361478,-0.0076256725728511806
1686343718331767000,7.92676708984375,-0.012058248192816971,-0.008792378264665604,0.002773245839308947
1686343718341787000,7.936786865234375,-0.019459318229556082,0.013280337333679199,0.03917114991545677
1686343718351806000,7.946805908203125,0.017203209865838287,0.0053308396339416505,0.03134909625397995
1686343718361826000,7.956825927734375,0.04790156885981559,0.0043313072025775905,-0.012889438319951296
1686343718371846000,7.966845947265625,0.06260945477858186,-0.01608662692606449,0.012359441362787037
1686343718381866000,7.976865966796875,0.04714052135944366,-0.016442016234993934,0.024765023422241208
1686343718391886000,7.986885986328125,0.025157383740693328,0.003827449333667755,0.020158570806402713
1686343718401905200,7.9969052734375,-0.026927023761719463,-0.0018038345515727996,0.06425987060042097
1686343718411925000,8.006925048828125,-0.062049190547317265,-0.004590834921598434,0.07920931019010022
1686343718421944800,8.01694482421875,-0.08760098043307661,-0.013792963030934333,0.1084101241027005
1686343718431965000,8.02696484375,-0.16486089185476302,0.021106500914692877,0.06495616403520107
1686343718441984000,8.03698388671875,-0.09716974989771843,0.03710720312297344,-0.15431553244292734
1686343718452003800,8.04700390625,0.15721359197199344,-0.04808160160183906,-0.07773702741414308
1686343718462024000,8.05702392578125,0.1679156032502651,-0.06390753176510333,0.10004121368080376
1686343718472044000,8.0670439453125,0.17337313800379633,0.01345803198814392,0.03852260461254045
1686343718482064100,8.077064208984375,0.13562412984594702,-0.03607493746578693,-0.007429291484225541
1686343718492083200,8.087083251953125,0.024933365726470945,-0.06273439633250236,0.005251636917889118
1686343718502102800,8.097102783203125,-0.06389189580455422,-0.04794774608910084,-0.022804555270541458
1686343718512123000,8.107122802734375,-0.09187997292652726,-0.0652425797611475,-0.03200259172664955
1686343718522143000,8.11714306640625,-0.0851063871383667,-0.07527531347572804,0.035405075380206104
1686343718532162000,8.127162109375,-0.11551496940553188,-0.04070610439777374,0.0645318011432886
1686343718542182000,8.137181884765624,-0.1450860779352486,-0.009216156634688376,0.05129645372880622
1686343718552202000,8.147201904296875,-0.14514379947185516,0.0064256491333246225,0.05038403332531452
1686343718562222000,8.15722216796875,-0.0901237769089639,-0.003332359293103218,0.04306817562030628
1686343718572242000,8.167241943359375,-0.032443302965164185,0.016602759754657744,0.025094986028969285
1686343718582260700,8.1772607421875,-0.03269172476828098,0.016895020699501037,-0.02028115600645542
1686343718592280800,8.18728076171875,-0.03510112399756908,-0.006003624328970909,-0.09862491714209318
1686343718602301000,8.197301025390624,0.03885959974825382,0.005617839881777763,-0.1900894411355257
1686343718612321000,8.207321044921875,0.11839607779979705,-0.031500469157099725,-0.036011224579811096
1686343718622339800,8.21733984375,0.03382160558104515,-0.05055003754198551,0.07489274389892817
1686343718632360000,8.22735986328125,0.042886955568194385,0.006793313401937485,-0.038108196859061715
1686343718642380000,8.237380126953125,-0.0367559054672718,0.0002747252881526947,-0.03313596140444278
1686343718652400000,8.247400146484376,-0.032506869720667596,0.008655600142478943,0.027955069901514796
1686343718662419200,8.257419189453126,-0.0335175080679357,-0.009536474630236625,0.10272827907400205
1686343718672438800,8.267438720703124,-0.02643018015548587,0.01265197630226612,0.039824663654435426
1686343718682459000,8.277458984375,-0.05437222617864609,-0.03438976085782051,0.06883943520933389
1686343718692479000,8.28747900390625,-0.12306348508894442,-0.0505897850304842,0.07513385917842387
1686343718702498800,8.297498779296875,-0.12706687551140786,-0.03275777574181556,-0.023833295530080793
1686343718712518000,8.307517822265625,-0.11513897569999099,-0.08279168045520782,-0.0205804129476659
1686343718722538000,8.3175380859375,-0.1260100599348545,-0.08823650185763836,-0.00443067592382431
1686343718732558000,8.32755810546875,-0.08285831595063209,-0.041459553113579746,-0.09277326850444077
1686343718742578000,8.337577880859374,-0.10987374864816665,-0.06232581553161144,-0.031394086173176766
1686343718752597000,8.347596923828124,-0.18047244861498474,-0.023756723162531853,-0.05325726894037798
1686343718762617000,8.3576171875,-0.12390154334828257,0.016265490624308584,-0.09309123014612122
1686343718772637000,8.367636962890625,-0.13708032000362871,-0.041729017704725264,0.04273264178931713
1686343718782657000,8.377656982421875,-0.1042816277295351,0.009447042781114579,-0.013853461046516894
1686343718792676000,8.387676025390626,0.0018079262048006056,-0.0007487725406885147,-0.0201338564902544
1686343718802696000,8.397696044921876,-0.008142536053806543,-0.06112462304830551,0.10880113271428271
1686343718812716000,8.407716064453124,-0.01907543347850442,0.00490647674202919,0.0859682463984005
1686343718822736100,8.417736083984375,-0.06307122707143425,-0.023583704683184624,0.016011497596930713
1686343718832755200,8.427755126953125,-0.03895779942572117,-0.048778351694345475,-0.032851006983220576
1686343718842775000,8.437775146484375,-0.040083004063367844,-0.05743570540249347,0.026034604966640472
1686343718852795100,8.447795166015625,0.02602642166018486,0.002942483192682266,-0.04895195469558239
1686343718862815000,8.45781494140625,0.11877236376628279,-0.009516016364097594,-0.03961277446942404
1686343718872834000,8.467833984375,0.1158857024140656,-0.015077742144465446,0.05760114336358383
1686343718882854000,8.47785400390625,0.12116904964447021,0.03944704424738884,0.03918371713608503
1686343718892874000,8.4878740234375,0.1215653554856777,0.011223989325761794,0.024498481440544128
1686343718902894000,8.49789404296875,0.09996215709522366,0.022087328645586966,0.03127281614737585
1686343718912913200,8.5079130859375,0.04300108346715569,0.035061376509070395,0.030658191380370407
1686343718922933000,8.51793310546875,-0.03925356750190258,0.023330022183060645,0.048584290426969524
1686343718932953000,8.527953125,-0.10057517442703247,-0.01280453651547432,0.04219663521647453
1686343718942973000,8.537972900390624,-0.07296922849044203,-0.03742869016230106,-0.057408506868313995
1686343718952992000,8.547991943359374,-0.08951192862093447,-0.03850713304877281,-0.11089958456456661
1686343718963012000,8.55801220703125,-0.05658771027103066,-0.020865677896142003,-0.0655325208847411
1686343718973032000,8.568031982421875,0.025160744741559028,-0.010285831692814827,0.002404723054170608
1686343718983052000,8.578052001953125,0.08031213859915733,-0.03007832739949226,0.041187165912985796
1686343718993071000,8.588071044921875,0.10192717355787753,-0.03831891700029373,0.05691109700649977
1686343719003091200,8.59809130859375,0.12518120789527892,-0.03711421738564968,0.025763971331715582
1686343719013111000,8.608111083984374,0.10481865721568465,-0.04690612808167934,0.030014888508152215
1686343719023131000,8.618130859375,0.03135083155333996,-0.035412674164772034,0.04859890347421169
1686343719033150000,8.62814990234375,-0.046147564799338577,-0.03325695743560791,0.021974497654568402
1686343719043170000,8.638170166015625,-0.13804784986153243,-0.045187049204111096,-0.027632706079352646
1686343719053190000,8.64818994140625,-0.20666458223089573,-0.047889878422021866,-0.06882772650523111
1686343719063210000,8.6582099609375,-0.23561653594896195,-0.052768298113346095,-0.07098899619234725
1686343719073229000,8.66822900390625,-0.23097455536201594,-0.027649054425954816,-0.052270011468697336
1686343719083249200,8.678249267578124,-0.17465879390016198,-0.013626374292373657,-0.024410236901510507
1686343719093269000,8.68826904296875,-0.05415244594812393,-0.021747136905789374,-0.024898002152144907
1686343719103288800,8.698288818359375,0.044141193412989374,-0.01386369017958641,-0.041515977742243554
1686343719113308000,8.708307861328125,0.09401873852089047,-0.0006909048736095428,-0.05834140380425378
1686343719123328000,8.718327880859375,0.08831482779085635,-0.027076807495951653,0.04097849159836769
1686343719133348000,8.72834814453125,0.10291910720467567,-0.014355857610702514,0.045106969705224036
1686343719143368000,8.738367919921876,0.07427578104436397,0.015273556977510452,0.0002659574598073959
1686343719153387000,8.748386962890624,0.014289368245750665,0.006921323695778846,0.01833676220672205
1686343719163407000,8.758406982421874,-0.036872225323319435,0.003964227455854416,0.027196049961447713
1686343719173427200,8.76842724609375,-0.013423545196652412,-0.007087327912449836,0.04171206656992435
1686343719183447000,8.778447021484375,-0.0211174607001245,-0.024497312396764753,0.04974107751296833
1686343719193465900,8.7884658203125,-0.04353621325716376,-0.0361328051328659,0.045545671649742867
1686343719203486000,8.79848583984375,-0.013974603208154439,-0.017942483925819395,0.013747973111737519
1686343719213506000,8.808506103515626,0.04744447274208068,-0.03601999240815639,0.00753507167994976
1686343719223525000,8.818525146484374,0.06841711814403534,-0.01705517969727516,0.010094985295832156
1686343719233545000,8.828544921875,0.01551671808362007,-0.021859365108609197,-0.0006835983499884605
1686343719243565000,8.83856494140625,-0.046027591681480406,-0.03089841161072254,-0.032545594295859334
1686343719253585200,8.848585205078125,-0.07355681912004947,-0.015762801799178123,-0.0351046311289072
1686343719263604000,8.85860400390625,-0.09784779528975486,-0.03522504263818264,0.0044195700079202645
1686343719273624000,8.8686240234375,-0.13296630881354213,-0.043075171616673465,0.0003837568868882954
1686343719283644000,8.878643798828126,-0.14122501859292388,-0.025178280398249625,-0.018274474092852322
1686343719293664000,8.8886640625,-0.14294775073230265,-0.03166530432999134,-0.010303659610450266
1686343719303683000,8.89868310546875,-0.08290405478850006,-0.051293549385666846,-0.026287428950238972
1686343719313703200,8.908703125,-0.037426936596632,-0.059388593035936355,-0.07041939787715673
1686343719323723000,8.918722900390625,-0.055043257308006285,-0.055944590061903,-0.07941665106415748
1686343719333743000,8.9287431640625,-0.0785141492664814,-0.03647182782888412,-0.06912760450094937
1686343719343762000,8.938761962890625,-0.09971373529210686,-0.03369885598421097,-0.07550417206184938
1686343719353782000,8.948781982421876,-0.10645078846216201,-0.06349310574531555,-0.03861030116230249
1686343719363801900,8.9588017578125,-0.11643398394659162,-0.04465396524071693,0.02623800031794235
1686343719373821000,8.968821044921874,-0.07767243774533271,-0.01838496699631214,0.07122428451925515
1686343719383841000,8.978841064453125,-0.02147957201078534,-0.0233101484388113,0.05970713919950649
1686343719393861000,8.988861083984375,0.006844312936812639,-0.032414076870679855,0.0693535404776223
1686343719403881000,8.998880859375,0.10840659870505333,0.010821838265657423,0.045102293530106544
1686343719413899800,9.008899658203125,0.13824994830489157,-0.028965982243418693,0.09440203875005244
1686343719423919900,9.018919921875,0.17077157720327377,-0.015727730485796926,0.055223582310974594
1686343719433940000,9.02893994140625,0.2366004324197769,0.01880465371310711,0.00035714287459850307
1686343719443960000,9.0389599609375,0.17743994905129074,-0.008075754427909851,0.11748950261520222
1686343719453979100,9.048979248046875,0.12783727536201475,0.029530630388855932,0.054041386789083476
1686343719463999000,9.0589990234375,0.08079977598562836,0.029239538487792014,-0.04094924723757431
1686343719474019000,9.06901904296875,0.014883242485672235,-0.0037520460098981853,0.004347692081797868
1686343719484038100,9.0790380859375,-0.023279607170075177,-0.0013835633128881453,0.03292438274668529
1686343719494058000,9.08905810546875,-0.02814633642360568,0.00488251134455204,0.03576077521638944
1686343719504077800,9.099077880859374,0.027398732926696538,-0.010530746364593505,0.0006935169558040797
1686343719514098000,9.109097900390625,0.07384133514985441,-0.027511107259988784,0.027283417717646807
1686343719524117000,9.119116943359375,0.0730797031275928,-0.02238251219987869,0.021163181271683422
1686343719534137000,9.12913720703125,0.08209975266829132,-0.004524199426174163,0.012122125475574284
1686343719544157000,9.139156982421875,0.05944879879057407,-0.006201777249574661,0.01237315936088562
1686343719554177000,9.149177001953126,0.061007718670368194,-0.028560324051976203,0.021729308988153933
1686343719564196000,9.159196044921876,0.042108956933021545,-0.04242927492856979,0.034920214472711084
1686343719574216000,9.1692158203125,0.0296573255084455,-0.04259761723279953,0.014891845917236059
1686343719584236000,9.179236083984375,0.040458267116546626,-0.0486333902657032,-0.02372369767576456
1686343719594254800,9.1892548828125,0.004459755887836218,-0.030126258194446563,-0.0363511423249729
1686343719604275000,9.19927490234375,-0.04220306495726108,-0.0375491016715765,0.026389994275569914
1686343719614295000,9.209294921875,-0.07817702626660465,-0.02908990088403225,0.04553657502783462
1686343719624315100,9.219315185546876,-0.11105097573399543,-0.00034019173979759216,0.028663784426450727
1686343719634334200,9.229334228515626,-0.10704875435531139,-0.014036708658933639,0.035468788266181946
1686343719644354000,9.23935400390625,-0.08738368442058563,-0.01333645143508911,0.03846446295082569
1686343719654374100,9.2493740234375,-0.07594459103941917,-0.0223299052298069,0.033190321940183634
1686343719664393000,9.25939306640625,-0.06170213067531585,-0.03978022172451019,0.007138181316852569
1686343719674413000,9.2694130859375,-0.040037265225499864,-0.04369768742918968,0.009100147305894642
1686343719684433000,9.279432861328125,-0.021739976512640712,-0.03139876234829426,-0.030574860478471962
1686343719694453000,9.289452880859375,-0.02353913488909602,0.0021837737798690794,-0.07194264365537091
1686343719704472000,9.29947216796875,-0.027024638917297124,0.016938275319337844,-0.025494488474261015
1686343719714492200,9.3094921875,-0.012403408368676901,0.004310264414548874,0.019078520484734327
1686343719724511700,9.31951171875,-0.018588819005340335,0.0024719430714845655,0.049133759269583965
1686343719734530800,9.32953076171875,-0.02374970889985561,0.010204583150148392,0.036032851889729496
1686343719744551000,9.339551025390625,0.011422726768255233,-0.002791676545143127,-0.007929039433598517
1686343719754571000,9.349571044921875,-0.021384148812294005,-0.046183659026026724,0.012815934692323207
1686343719764591000,9.359591064453125,-0.07070844395160675,-0.05313245525062084,0.028208149613440037
1686343719774610000,9.36960986328125,-0.09572364274263381,-0.044261166530847544,-0.010891688631474971
1686343719784630000,9.379630126953124,-0.09489712879061699,-0.06717033295333386,-0.07175619943886995
1686343719794650000,9.389650146484374,-0.08032660551592707,-0.06886661547720432,-0.08174712157202885
1686343719804670000,9.399669921875,-0.08919175675585865,-0.040241994017362594,-0.048030181941855696
1686343719814689000,9.40968896484375,-0.07299041740894317,-0.018142974933981895,-0.03941781815290451
1686343719824708900,9.419708984375,-0.05612447667345404,-0.018305472019314765,-0.025930249543022362
1686343719834729000,9.42972900390625,-0.02011880505159497,-0.015552958440780638,-0.0373530128438957
1686343719844748000,9.439748046875,-0.010832359659671782,-0.012565467062592506,-0.03481412374973297
1686343719854768000,9.44976806640625,-0.024136077868938444,-0.00928746830523014,0.017976386195421218
1686343719864788000,9.4597880859375,-0.01439370540305972,0.0019891279906034467,0.05627632450060919
1686343719874808000,9.46980810546875,-0.0009250058904290199,-0.009095745125412941,0.05171066055288538
1686343719884827000,9.479826904296875,0.027887685487419364,0.0061883332461118695,0.03732290996657684
1686343719894847000,9.489846923828125,0.03555544363632798,0.00008241758644580841,0.027528368922043592
1686343719904866800,9.49986669921875,0.06211144212856889,-0.0023076924204826353,0.03801907553719357
1686343719914886000,9.509885986328126,0.08553659524917602,-0.006294716230034828,0.05114508082568645
1686343719924906000,9.519906005859376,0.1114659862756729,0.0008206687331199646,0.001931260323524475
1686343719934926000,9.529926025390624,0.13963117353022098,-0.012438625812530517,-0.044322249068319795
1686343719944946200,9.5399462890625,0.0956296808488667,-0.03125087831020355,-0.06058479881687089
1686343719954965000,9.549965087890625,0.07891746937036513,-0.011548983496427535,-0.05235533339828252
1686343719964984800,9.55998486328125,0.015375117655843495,-0.016806173372268675,0.005863905331026762
1686343719975005000,9.5700048828125,-0.04640636186599731,-0.011803835040330887,0.008540741591155528
1686343719985024000,9.58002392578125,-0.07421776724681257,-0.016563596788048744,0.01406858336823061
1686343719995044000,9.590044189453126,-0.11783230643719433,-0.007254501172900199,0.0016364055627956986
1686343720005064000,9.60006396484375,-0.10768646773695945,-0.002601122409105301,-0.02560848850905895
1686343720015084000,9.610083984375,-0.09084156978949903,-0.0035521395236253737,-0.029223738130461422
1686343720025102800,9.620102783203125,-0.06236497849822044,-0.012421674677729606,-0.01653846234679222
1686343720035123000,9.630123046875,-0.04628127418160438,-0.03328852161765098,0.00407733244150877
1686343720045142800,9.640142822265625,-0.05028627203926444,-0.055388709744811054,0.03686201445655897
1686343720055163000,9.650162841796876,-0.06435644457638263,-0.07872516166865826,0.03168050189912319
1686343720065182000,9.660181884765626,-0.04951411862298846,-0.06919044060409069,-0.0006122684131376444
1686343720075202000,9.6702021484375,-0.08630757962167263,-0.055467620199918743,0.0075546531632542605
1686343720085222000,9.680221923828125,-0.12320786199569701,-0.04420037625432014,-0.004237783700227737
1686343720095241000,9.690240966796875,-0.18518062630593776,-0.038266310030221934,-0.024690789142251014
1686343720105260800,9.7002607421875,-0.12829437147974967,-0.0007218845337629318,-0.13460428527891635
1686343720115281000,9.710281005859375,-0.0777162768870592,-0.03126724492311477,-0.0771998517975211
1686343720125301000,9.720301025390626,-0.028999153860658405,-0.06695522889792918,0.008848510632384569
1686343720135320000,9.730320068359376,0.039693858615309,-0.024026772275567054,0.04175095554189756
1686343720145340000,9.74033984375,0.05538534874394536,-0.025559973192214966,0.06697804351793601
1686343720155360000,9.750360107421875,0.05631240046098828,-0.03313654592633247,0.05168899671034887
1686343720165379000,9.760379150390625,0.047010903630405665,-0.015012275692820548,0.02414164909319952
1686343720175399200,9.770399169921875,0.053040685313940045,0.025955109989643094,-0.011114099210500716
1686343720185419000,9.7804189453125,0.061304655790328975,0.059608957788348196,-0.03384060254245996
1686343720195438800,9.79043896484375,0.07553527958616614,0.05289806197285652,-0.015125398944783954
1686343720205458000,9.8004580078125,0.09029358051791786,0.05230301868915557,0.0009907828693278132
1686343720215478000,9.81047802734375,0.12157353879213333,0.03185936559736729,0.002441547933220863
1686343720225497900,9.820497802734375,0.14678396789431572,0.003211363261938095,0.05401771365255117
1686343720235518000,9.83051806640625,0.1132886716581881,-0.03010755349397659,0.09302521570520475
1686343720245537000,9.840537109375,0.04831321840062737,-0.027733225578069686,0.0860018929396756
1686343720255557000,9.85055712890625,0.01239537119269371,-0.03599485796689987,0.026840076130628585
1686343720265577000,9.860576904296876,-0.00923500746563077,-0.035250177079439164,0.013829769643675535
1686343720275595800,9.870595703125,-0.033466800794005394,-0.03021393647789955,0.004443243144452572
1686343720285615900,9.880615966796874,-0.037639556434005496,-0.0336667072802782,-0.022710702974628655
1686343720295636000,9.890635986328125,-0.03581117196306586,-0.020676877325773238,-0.04929008234245702
1686343720305656000,9.900656005859375,-0.043672552987933155,-0.01092705220580101,-0.056519759601354594
1686343720315675100,9.910675048828125,-0.06543664102852344,-0.021070845079421995,-0.03120996177792549
1686343720325695000,9.920695068359375,-0.05604571234881878,-0.03526128299534321,0.01993745713531971
1686343720335715000,9.930715087890626,-0.06332125630974769,-0.029707155999541282,0.027737609492242334
1686343720345734000,9.94073388671875,-0.06553264874890447,-0.02817044795155525,0.011114373205136507
1686343720355754000,9.95075390625,-0.07061141331791877,-0.0349608387440443,-0.004115034103393554
1686343720365773800,9.96077392578125,-0.08212664067521691,-0.037707507103681565,-0.0014011172358877955
1686343720375794000,9.9707939453125,-0.11394245939180254,-0.031997897285223,0.0027022629623301327
1686343720385813000,9.98081298828125,-0.12104498487338423,-0.029771453407406806,0.010351316410768776
1686343720395833000,9.9908330078125,-0.0853723445981741,-0.03397475031614303,-0.005176233594119548
1686343720405853000,10.00085302734375,-0.056542702085524796,-0.03353752794265747,-0.02127427696334198
1686343720415871700,10.010871826171876,-0.027285920201987026,-0.026935937720537186,-0.02739944531274959
1686343720425891800,10.020891845703124,0.005405220044404268,-0.01674187596440315,-0.015165986683499067
1686343720435912000,10.030911865234375,0.007512421456724405,-0.010607903254032134,0.007584774306882172
1686343720445932000,10.04093212890625,0.011155600264668464,-0.006853519156575202,0.0114198041588068
1686343720455950800,10.050950927734375,0.03248129688799381,-0.009883680632710456,0.00492868857383728
1686343720465971000,10.060970947265625,0.03680924308970571,-0.0011275427252054214,0.02339229203062132
1686343720475991000,10.070990966796876,0.053862084699422115,0.006723170775175094,0.029060985316801815
1686343720486011100,10.08101123046875,0.07501359379962086,0.004493804287910461,0.029615696590114385
1686343720496030000,10.091030029296874,0.08560323074460029,-0.008543956461548805,0.027628596159815787
1686343720506049800,10.1010498046875,0.08482464758753776,-0.010129179826378822,0.0320025734603405
1686343720516070000,10.11106982421875,0.08690203838348388,-0.014470423901081084,0.033848493587970735
1686343720526089000,10.1210888671875,0.06506020893156528,-0.02563771460354328,0.012981938908994198
1686343720536109000,10.131109130859375,0.035449645174294706,-0.018829203632473944,0.012547365150321274
1686343720546129000,10.14112890625,-0.016705051085352897,-0.003134206372499466,0.03811491886079311
1686343720556149000,10.15114892578125,-0.04001578404605388,0.0017220014870166778,0.045204877121746534
1686343720566168000,10.16116796875,-0.10824760875105857,-0.0328127207994461,0.09061287560015917
1686343720576188000,10.17118798828125,-0.02638780231848359,-0.07212240240275859,0.049407571242284024
1686343720586207700,10.181207763671875,0.03650792205557227,-0.039297991165518756,0.0217044485415332
1686343720596227800,10.191227783203125,-0.08233049268424511,-0.025590952852368353,0.13230682199150323
1686343720606247000,10.201246826171875,-0.11123860726058482,-0.06385258670747279,0.13268179278373718
1686343720616267000,10.21126708984375,-0.0770540135860443,-0.13256839553713798,-0.007960019093751906
1686343720626287000,10.221287109375,-0.1631634402871132,-0.03967266969680786,-0.09069353962093592
1686343720636306000,10.231305908203124,-0.2892342904984951,0.047080315604805946,-0.11665303352475166
1686343720646326000,10.241325927734374,-0.22175649903118608,0.051414545416831964,-0.243284440228343
1686343720656346000,10.25134619140625,-0.024166473007202146,0.011822539740800856,-0.24250147315710782
1686343720666366000,10.261365966796875,0.09418985730409622,-0.022585925817489624,-0.14349310965538023
1686343720676385000,10.271385009765625,0.11149477397873997,0.006631985360383987,-0.02341855898303911
1686343720686404900,10.28140478515625,0.01880772245302796,0.00007715688943862914,0.06000820450531318
1686343720696425000,10.291425048828126,-0.009897709158062934,-0.013950783941149712,0.09836217455267905
1686343720706445000,10.301445068359374,0.03870046366378665,-0.009035539370775222,0.10244767203433439
1686343720716464000,10.311464111328124,0.07282675127983093,-0.03106792295873165,0.1280772215977311
1686343720726484000,10.32148388671875,0.0618570289760828,-0.06783844147324562,0.14396832595169543
1686343720736504000,10.331504150390625,0.05467617756128311,-0.07266483871638775,0.07925327719599008
1686343720746523100,10.341523193359375,0.024098083946108816,-0.06753156748116015,-0.0012996844217181204
1686343720756543200,10.351543212890626,-0.03602802958413958,-0.0585194089859724,-0.03285478810919448
1686343720766563000,10.36156298828125,-0.05789440895542502,-0.03081833211183548,-0.06152295644981786
1686343720776583200,10.371583251953124,-0.10209668490588665,0.008972995528578758,-0.07786211509853601
1686343720786602000,10.38160205078125,-0.07592471729516982,0.0050970308780670165,-0.11578560304045676
1686343720796622000,10.3916220703125,-0.010169365706294774,0.05427168841361999,-0.07790944310529158
1686343720806642200,10.40164208984375,0.09294716376662254,0.1146995613694191,0.06335311275273561
1686343720816662000,10.411662109375,0.3134558546938002,-0.0005634791016578674,0.39527182198464866
1686343720826681000,10.42168115234375,0.4771097088463604,0.014550503399968146,0.3075271952971816
1686343720836701200,10.431701171875,0.4810533319056034,-0.0038134208083152768,-0.16510960591882468
1686343720846721300,10.44172119140625,0.34424510684162374,-0.029251813447475433,-0.250423461795412
1686343720856741000,10.4517412109375,0.2944343433596194,0.007466682618856429,-0.0556829982499592
1686343720866760000,10.461760009765625,0.28342779617682096,0.008610591956973076,-0.008992558745574206
1686343720876780000,10.471780029296875,0.19710443446412682,0.019721184036135674,0.007153689413238316
1686343720886800100,10.481800048828125,-0.02196341000497341,0.06126140117049217,0.06779080293923616
1686343720896819200,10.491819091796875,-0.2018880154788494,0.011633739170432091,-0.06591536445617675
1686343720906839000,10.501839111328126,-0.19922040370479224,0.01082943705022335,-0.20490445895688608
1686343720916859100,10.511859130859374,-0.06274316416084766,-0.06407002885043621,-0.07483487623184919
1686343720926879200,10.521879150390625,0.039771600026637315,-0.14279869765043257,0.19132250832812858
1686343720936898000,10.53189794921875,-0.1526267025731504,-0.0038438159465789793,0.18869215982453896
1686343720946918000,10.54191796875,-0.43893663005754346,0.0306038125783205,-0.09334900429947302
1686343720956938000,10.55193798828125,-0.6222036778271198,-0.0645277094900608,-0.23976766427904367
1686343720966958000,10.5619580078125,-0.6060061378724872,-0.109453477409482,-0.10987902761148288
1686343720976977200,10.57197705078125,-0.5394482377290726,-0.13262509416043758,0.08866291057616471
1686343720986997200,10.581997314453124,-0.5639063871592283,-0.12335574603378772,0.1458501941755414
1686343720997017000,10.59201708984375,-0.4038349215380847,-0.10453238762021064,-0.017447083358000964
1686343721007037200,10.602037109375,-0.029892303308099506,-0.07317337276041508,-0.09590511852307244
1686343721017056000,10.612055908203125,0.19218860537186264,-0.07202595629096031,0.10488516484694554
1686343721027076000,10.622076171875,0.1367291684783995,-0.09619593642950057,0.22417936053024604
1686343721037096000,10.632095947265626,-0.031072160742431878,-0.04830313539803028,0.12975711924238129
1686343721047115000,10.642114990234376,-0.1630588108688593,0.004176993423700332,-0.038892625235021114
1686343721057135000,10.652135009765624,-0.24558672582134602,0.03129705553948879,-0.10809064635736867
1686343721067155200,10.6621552734375,-0.26607202609777447,-0.014085223975777625,-0.07094809792637824
1686343721077175000,10.672175048828125,-0.18121157654449344,-0.0037602293163537977,-0.13931317535592241
1686343721087194000,10.682194091796875,0.08770648663416504,0.056093643143773075,-0.18461771345986053
1686343721097214000,10.6922138671875,0.277676100782305,-0.03217909907102585,-0.06135315284086391
1686343721107234000,10.702234130859376,0.4220202743090689,-0.0017196633994579313,-0.07565669574243948
1686343721117254100,10.712254150390624,0.5806856725245714,0.016653613159060478,0.13463468041718005
1686343721127273000,10.72227294921875,0.4991795018352568,-0.07079904484450816,0.559945666834712
1686343721137293000,10.73229296875,0.4931693016350269,0.028636311897635457,0.22647446746379135
1686343721147313200,10.742313232421875,0.4195879325956106,0.06713935329318046,-0.03177782479375601
1686343721157333200,10.752333251953125,0.2969751138836145,0.0861304694890976,-0.049071489422023294
1686343721167352300,10.762352294921875,0.23276494591012595,0.08368366085886955,-0.07843989672018215
1686343721177372000,10.772371826171875,0.11583952518478036,0.009091653472185135,-0.04937659158213064
1686343721187392000,10.78239208984375,-0.03837196236178279,0.01310731885433197,-0.03848519521160051
1686343721197412000,10.792412109375,-0.12885945801660417,0.03850596400499344,-0.10704084504349157
1686343721207431200,10.80243115234375,-0.12916107131168245,-0.015883213308453558,-0.11580458173556253
1686343721217451000,10.812450927734375,-0.15371756654977797,-0.018176877203583717,-0.03900689926445484
1686343721227471000,10.82247119140625,-0.2122114027030766,-0.026131635600328443,-0.029521004043985156
1686343721237491200,10.8324912109375,-0.214749835139513,-0.06423486402332783,-0.02165975088328123
1686343721247510300,10.84251025390625,-0.20548457866609096,-0.05713000045418739,0.027587971888482568
1686343721257529900,10.85252978515625,-0.2184748470120132,-0.05479015932977199,0.03486411863761023
1686343721267550000,10.862550048828124,-0.260503139924258,-0.08247136245965957,0.013813439563382416
1686343721277570000,10.872570068359375,-0.26388459905609485,-0.08783201270997523,-0.00016773951603099704
1686343721287589000,10.882589111328125,-0.23460122142657636,-0.07787643588483333,-0.03358427142752334
1686343721297609200,10.892609130859375,-0.1767315085209906,-0.07888824327588081,-0.04275720997499302
1686343721307629000,10.902629150390625,-0.1114673014499247,-0.06197159526646137,-0.007426661135721951
1686343721317648100,10.912648193359376,-0.04345627988874912,-0.049210897892713545,0.009741641813516616
1686343721327668200,10.922668212890626,0.0031290918059647082,-0.013442249897122383,0.0036661395584233103
1686343721337688300,10.932688232421874,0.03504325633049011,0.009815291571617125,0.015755203014612196
1686343721347708000,10.9427080078125,0.04546367418840527,-0.010219196197390555,0.010513521235156803
1686343721357727000,10.95272705078125,0.05049450796246528,-0.009839841490983962,0.0018725158736109732
1686343721367747000,10.9627470703125,0.05355287261977792,-0.01957739165127277,-0.01214985373271629
1686343721377767200,10.97276708984375,0.020039894596487282,-0.02097439896762371,-0.04129119254304096
1686343721387787000,10.982787109375,0.008210194462537766,0.019148937106132507,-0.0085986092582345
1686343721397806000,10.99280615234375,0.022707652501016855,0.011588146463036537,0.06041298591392114
1686343721407826200,11.002826171875,0.044014059901982545,0.00843698895573616,0.05937633634256199
1686343721417846300,11.01284619140625,0.07072846382632851,0.0017915595918893813,0.023153807099629192
1686343721427865900,11.022865966796875,0.07157528991401195,0.0011643676042556762,-0.012526888617873192
1686343721437885000,11.032885009765625,0.04033332556262612,0.025170097091794012,-0.04661706374092027
1686343721447905000,11.042905029296875,-0.0005203706122934818,0.010107552516460418,-0.022930227476824074
1686343721457925000,11.052925048828126,-0.029747926401346922,-0.01623918713927269,-0.031407219649385656
1686343721467945200,11.0629453125,-0.09387202352657914,-0.020589783564209936,-0.10202831411110237
1686343721477964300,11.07296435546875,-0.20295769053697585,-0.004718845215439796,-0.16718728897571564
1686343721487984000,11.082984130859375,-0.2294802251510322,-0.032228783431649206,-0.09611671544713898
1686343721498004200,11.093004150390625,-0.16874314011558889,-0.06808452518880367,0.05877749366657808
1686343721508024000,11.103024169921875,-0.12546411648988723,-0.02443593759834766,0.14335048631429673
1686343721518043100,11.113043212890625,-0.0703868107818067,-0.03901391352713108,0.11191462509231641
1686343721528063000,11.12306298828125,0.03164484606385231,-0.0702133539110422,0.09629150575846433
1686343721538083000,11.1330830078125,0.07536474532485007,-0.08611468739807605,0.09280395590364933
1686343721548103200,11.143103271484375,0.04836845571920275,-0.06059855334758758,0.0609851963113062
1686343721558122200,11.153122314453125,0.027003596129268406,-0.0300070157289505,0.038398393710982054
1686343721568142000,11.16314208984375,0.06397416726052761,-0.02798924616575241,-0.008401625381410122
1686343721578162200,11.173162109375,0.0728933867752552,-0.019714169773459432,-0.08498597562909126
1686343721588182000,11.18318212890625,0.00753682524561882,0.02161269687116146,-0.10762976911365985
1686343721598201000,11.193201171875,-0.03447919270694256,-0.0005564648389816284,0.011586392897367476
1686343721608221000,11.203220947265624,0.025223434714227912,-0.004963175365328788,0.022937826261389998
1686343721618241000,11.213240966796874,0.04252572104036808,0.011909048980474471,0.013919804280996323
1686343721628261000,11.22326123046875,0.06347673913240433,-0.005713116949796676,0.030553543695807456
1686343721638281200,11.23328125,0.11409984191060066,-0.010937573599815368,0.0575128622919321
1686343721648300300,11.24330029296875,0.13159940437451004,-0.02855564787685871,0.0645929019470699
1686343721658320100,11.253320068359375,0.1144897180110216,-0.036736616244912146,0.012213877145946026
1686343721668340200,11.26334033203125,0.08151040847301483,-0.02964227406978607,-0.014945347936451435
1686343721678360000,11.273360107421874,0.049329117444902655,-0.026496377259492873,-0.021934750166069716
1686343721688379100,11.283379150390624,-0.012250848155468702,-0.012895721930265426,-0.017075327436160297
1686343721698399000,11.29339892578125,-0.035240678598731756,0.012706336838006973,-0.0008843633527867496
1686343721708419000,11.303419189453125,-0.013632073380798101,0.047615737655758855,0.037499727838207035
1686343721718438100,11.313438232421875,0.03360767056941986,0.035028643283247944,0.06242518425285816
1686343721728457200,11.323457275390625,0.07613967522010207,-0.004067103308439255,0.05372835705084726
1686343721738477300,11.333477294921876,0.07165887654423714,-0.02395721417069435,0.017855097903311253
1686343721748497200,11.3434970703125,0.03664791504815221,-0.04739245029389858,-0.00929738691104576
1686343721758517200,11.353517333984374,-0.01602642117142677,-0.07566226696670054,-0.02035743611305952
1686343721768536300,11.363536376953125,-0.10729951424598694,-0.08415595454573631,-0.03080781071782112
1686343721778556400,11.373556396484375,-0.15114450119137762,-0.06554594662189484,-0.032012218071520326
1686343721788576300,11.383576171875,-0.16546952527239916,-0.05618541308045387,-0.040514691745210434
1686343721798596000,11.39359619140625,-0.16532967841029167,-0.05413257220387459,-0.04797726444453001
1686343721808615200,11.403615234375,-0.15314531961977482,-0.039683775612711907,-0.02770253817886114
1686343721818635300,11.41363525390625,-0.10576455976366995,-0.02060615017712116,-0.00952361514866352
1686343721828655400,11.4236552734375,-0.05545023067370057,-0.04223229105174541,-0.0171037132804282
1686343721838675200,11.43367529296875,-0.09802081376910209,-0.040513796696066855,-0.045968262709677216
1686343721848694300,11.4436943359375,-0.1476999136954546,-0.005424363136291504,-0.04508972630947828
1686343721858714400,11.45371435546875,-0.13045520277544856,-0.016326865422725677,-0.024501385783683508
1686343721868734500,11.463734375,-0.09132862265408039,-0.02823182274997234,-0.015578677403926848
1686343721878754000,11.473754150390626,-0.04123392766416072,-0.023853753796219825,-0.011261398726701736
1686343721888773000,11.483773193359376,0.03736263918876648,-0.024926935985684393,0.05264788660407066
1686343721898793200,11.493793212890624,0.11096782749518752,-0.02791208927631378,0.09298046324802563
1686343721908813300,11.503813232421875,0.16266776572465896,-0.02301613392829895,0.08712211087495088
1686343721918833200,11.513833251953125,0.1432518482454121,-0.022506430840492246,0.054775272287894035
1686343721928853200,11.523853271484375,0.08541033852100371,0.01853577364385128,0.03814502173811197
1686343721938872300,11.533872314453125,-0.019485621714591977,0.05357026214599609,0.06918254955857991
1686343721948892400,11.543892333984376,-0.022643939615041016,0.005536591339111328,0.10271479853792115
1686343721958912300,11.553912353515624,0.09482800907716155,-0.03866495395898819,-0.02921179196434095
1686343721968932000,11.56393212890625,0.16574761156141757,-0.04700023610591888,-0.1611348570689559
1686343721978951200,11.573951171875,0.13226619772017,0.07250000354349613,-0.002182312475144863
1686343721988971300,11.58397119140625,0.2784909242965281,0.06058686290979385,0.1319140415479429
1686343721998991400,11.593991455078125,0.3881187353596091,-0.056416883748769756,-0.05081157455500215
1686343722009011200,11.60401123046875,0.3125779028154909,-0.04455635008513927,-0.050493320652376855
1686343722019030300,11.6140302734375,0.17936594867780803,-0.030928222227096555,0.08050417230622843
1686343722029050400,11.62405029296875,0.12201426829695701,-0.0008043021202087402,0.024122633865475654
1686343722039070500,11.634070556640625,0.04502294468358159,-0.034624738657474514,0.05167204557554796
1686343722049090000,11.644090087890625,-0.00384030881524086,-0.034279286220669745,0.06472966180294752
1686343722059109000,11.654109130859375,0.07103066164329648,0.0020388123512268064,-0.005028915811609477
1686343722069129200,11.664129150390625,0.059590983740240334,-0.061820204097032545,-0.03169626572383567
1686343722079149300,11.6741494140625,-0.12787220054492354,-0.03382745079994202,-0.054953807192575185
1686343722089169200,11.684169189453126,-0.3184825968146324,0.0069195701301097865,-0.10079846178889273
1686343722099188200,11.694188232421874,-0.37061551963388917,-0.023538696497678754,-0.10244798256158828
1686343722109208300,11.704208251953125,-0.2937427078336477,-0.047288405397534365,-0.05655716900229454
1686343722119228400,11.714228515625,-0.22235607235953211,-0.08283902672827244,0.04307577440487221
1686343722129248300,11.724248291015625,-0.20793942447230218,-0.07288169633746147,0.08863516405271366
1686343722139268000,11.73426806640625,-0.203473092713207,-0.05251520013511181,0.020007325767446307
1686343722149287200,11.744287109375,-0.18196093360707163,-0.0657739101588726,-0.009527104013692587
1686343722159307300,11.754307373046874,-0.14198898870274423,-0.025158406654000282,0.005945482667256146
1686343722169327400,11.764327392578124,-0.08372925356626511,-0.020919453909993172,0.033249943172931666
1686343722179347200,11.77434716796875,-0.01722571395859122,-0.029826398465037342,0.011655384746659546
1686343722189366300,11.7843662109375,0.03555763559341431,-0.036060324418544766,-0.1174026828482747
1686343722199386400,11.794386474609375,0.08340762039646506,-0.01368891813457012,-0.10666298817442729
1686343722209406500,11.804406494140625,0.04396232971474528,0.022963526958227155,0.03716855965508148
1686343722219426000,11.814426025390626,0.01356719145104289,0.03234218067824841,0.09650542250378057
1686343722229445000,11.824445068359376,0.013821020081639289,0.0022048165678977966,0.07212474049031734
1686343722239465200,11.83446533203125,0.021584639820456504,-0.02478372812271118,0.02922317187488079
1686343722249485300,11.8444853515625,0.04165142242386937,-0.01726560757756233,0.01238106867270544
1686343722259505200,11.854505126953125,0.05655030087009072,-0.024532968232035636,0.03265082650231197
1686343722269524200,11.864524169921875,0.07789689415097237,-0.02782791812419891,0.0376058002948761
1686343722279544300,11.87454443359375,0.1054226144582033,-0.012231705063581465,-0.042973172546923157
1686343722289564400,11.884564453125,0.11639657454565167,-0.0215630125105381,-0.0947024647350423
1686343722299584300,11.894584228515624,0.07108356087431311,-0.00021159692406654356,-0.051213488153088835
1686343722309604000,11.90460400390625,-0.010624708258360623,0.036463644522428514,0.06340515346722676
1686343722319623200,11.914623046875,-0.04683350123688578,-0.020217443120479583,0.08688072160081937
1686343722329643300,11.924643310546875,-0.057138183760643,-0.05407178192734718,0.060729486250877374
1686343722339663400,11.934663330078125,-0.08154080361127852,-0.04919336223602295,0.01588847400546074
1686343722349683200,11.94468310546875,-0.07941665106415748,-0.03519757010936737,-0.011278934383392333
1686343722359702300,11.954702392578126,-0.027065701580047605,-0.023320669832825658,-0.014987725773453711
1686343722369722400,11.964722412109374,-0.024755671072006224,-0.03231470814943314,-0.012308861953020096
1686343722379742200,11.9747421875,-0.08916808361932635,-0.02246668335199356,-0.056185394814144814
1686343722389762000,11.984761962890625,-0.21577216392457485,-0.016289456021785734,-0.13296177876889706
1686343722399781000,11.994781005859375,-0.4107347640544176,0.0025648820519447325,-0.20972616175860165
1686343722409801200,12.00480126953125,-0.5396883300952613,-0.0018733926564455032,-0.2278571357275359
1686343722419821300,12.0148212890625,-0.537877042889595,-0.022044658547639845,-0.17813479944765567
1686343722429841200,12.024841064453126,-0.38434608495309946,-0.02696048763990402,-0.050107864998746664
1686343722439860200,12.034860107421874,-0.041655367946624756,-0.08854103776216507,0.12107932553440331
1686343722449880300,12.04488037109375,0.25416604585722086,-0.1022165118932724,0.28627456391006706
1686343722459900200,12.054900146484375,0.36682270322218535,-0.1360959851413965,0.27361208448009566
1686343722469920300,12.064920166015625,0.3251065449990332,-0.1388502522855997,0.17049307078914716
1686343722479940000,12.074940185546875,0.2057541893877089,-0.08941665155291557,0.1024471240450628
1686343722489959200,12.084959228515626,0.04175079114511609,-0.015319149684906004,0.05622079492108896
1686343722499979300,12.094979248046876,-0.08351999472975731,0.07038695691227913,-0.05846154131889343
1686343722509999400,12.104999267578124,-0.08913827300295234,0.11267945371866225,-0.14679622458769007
1686343722520019200,12.115019287109375,0.01814180589020252,0.09799626384973525,-0.08867138614356518
1686343722530038300,12.125038330078125,0.13585925377607344,0.07172317395210266,-0.015962123763561247
1686343722540058400,12.135058349609375,0.2293015075832605,0.03277472687661648,0.025216274321079254
1686343722550078200,12.145078125,0.30324761828184127,-0.021975100442767143,0.0716188367947936
1686343722560098000,12.15509814453125,0.33061098763421176,-0.027486557340621946,0.07553515172200277
1686343722570117000,12.1651171875,0.2979204319097101,-0.022349194452166557,0.1077081133131869
1686343722580137200,12.17513720703125,0.199135063508898,-0.023098551514744756,0.09570057239430024
1686343722590157300,12.1851572265625,0.18330518782287836,-0.036519174101948736,-0.006230966811440885
1686343722600177400,12.195177490234375,0.033906361255049706,-0.0073632222443819045,-0.002319090597331524
1686343722610197200,12.205197265625,-0.11671250862702727,0.021809096226096152,-0.05973958016438409
