time,seconds_elapsed,z,y,x
1686343710546375000,0.141375,-0.0039028585888445377,-0.0044951774179935455,0.039697978645563126
1686343710556394800,0.151394775390625,-0.008074700832366943,-0.01349266804754734,0.04525120183825493
1686343710566413600,0.16141357421875,-0.015494761988520622,-0.006782257929444313,0.06242086738348007
1686343710576433700,0.17143359375,-0.024653639644384384,0.0038560049142688513,0.07661072164773941
1686343710586453800,0.181453857421875,-0.027131518349051476,-0.015167662873864174,0.08360914885997772
1686343710596473600,0.1914736328125,-0.02877894975244999,-0.04545179754495621,0.08478652685880661
1686343710606493700,0.20149365234375,-0.03375685587525368,-0.029770398512482643,0.10491373389959335
1686343710616513800,0.211513671875,-0.041449930518865585,-0.015499583445489407,0.12418622523546219
1686343710626533600,0.22153369140625,-0.03218068554997444,-0.029254771769046783,0.13405664265155792
1686343710636552700,0.231552734375,-0.018915746361017227,-0.06641066074371338,0.1331905871629715
1686343710646572800,0.24157275390625,-0.013654445298016071,-0.08813845366239548,0.12469500303268433
1686343710656593000,0.251593017578125,-0.008668209426105022,-0.08227018266916275,0.12946206331253052
1686343710666612700,0.26161279296875,-0.014598773792386055,-0.06100982427597046,0.1635766625404358
1686343710676632600,0.271632568359375,-0.022105958312749863,-0.0436478815972805,0.185618057847023
1686343710686652700,0.281652587890625,-0.017810020595788956,-0.0405515655875206,0.17934617400169373
1686343710696671700,0.291671630859375,-0.005299289245158434,-0.05630123242735863,0.17737223207950592
1686343710706691800,0.30169189453125,0.0008463859558105469,-0.07325597107410431,0.17700430750846863
1686343710716711700,0.311711669921875,0.007019859738647938,-0.06966976076364517,0.1684427708387375
1686343710726731800,0.321731689453125,0.011577354744076729,-0.045958757400512695,0.1577446460723877
1686343710736751900,0.331751953125,0.00878289993852377,-0.01686638593673706,0.14538970589637756
1686343710746771700,0.341771728515625,0.0067546251229941845,0.005561904050409794,0.1415182203054428
1686343710756790500,0.35179052734375,0.008440139703452587,0.008891387842595577,0.12789028882980347
1686343710766810600,0.361810546875,0.005696397740393877,0.011214502155780792,0.10798202455043793
1686343710776830700,0.371830810546875,0.004306227434426546,0.009571065194904804,0.07616604119539261
1686343710786850800,0.381850830078125,0.0019037057645618916,0.023127924650907516,0.03747815638780594
1686343710796870700,0.39187060546875,0.010580284520983696,0.03806000202894211,-0.0038690196815878153
1686343710806890800,0.401890869140625,0.015929611399769783,0.034950390458106995,-0.035085733979940414
1686343710816910800,0.411910888671875,0.0222274549305439,0.01374576985836029,-0.068951815366745
1686343710826930000,0.421929931640625,0.012685267254710197,-0.012894859537482262,-0.11446192860603333
1686343710836949800,0.43194970703125,0.014942562207579613,-0.0194528941065073,-0.16231386363506317
1686343710846969600,0.441969482421875,0.02744467183947563,-0.028043437749147415,-0.19826297461986542
1686343710856989700,0.45198974609375,0.016137687489390373,-0.0328107625246048,-0.22006547451019287
1686343710867009500,0.462009521484375,0.008888838812708855,-0.03781549632549286,-0.2329486459493637
1686343710877029600,0.472029541015625,0.013590648770332336,-0.05694391950964928,-0.2310098558664322
1686343710887048700,0.482048583984375,0.015053514391183853,-0.0798451155424118,-0.24174892902374268
1686343710897068800,0.49206884765625,0.008443016558885574,-0.07004521042108536,-0.2549552619457245
1686343710907088600,0.502088623046875,0.015351062640547752,-0.0420144684612751,-0.2672683000564575
1686343710917108700,0.512108642578125,0.017033381387591362,-0.03451048210263252,-0.2738947868347168
1686343710927128800,0.52212890625,0.022180557250976562,-0.06162576004862785,-0.30085432529449463
1686343710937149000,0.53214892578125,0.03967779129743576,-0.09320632368326187,-0.34197646379470825
1686343710947167700,0.542167724609375,0.07930484414100647,-0.14353018999099731,-0.41101521253585815
1686343710957187600,0.5521875,0.11216612160205841,-0.18808886408805847,-0.4839269816875458
1686343710967207700,0.562207763671875,0.14860635995864868,-0.21455778181552887,-0.5328049659729004
1686343710977227800,0.572227783203125,0.1686684787273407,-0.20540237426757812,-0.5487338900566101
1686343710987247600,0.58224755859375,0.2214699387550354,-0.16032271087169647,-0.5538294911384583
1686343710997267700,0.592267822265625,0.4577791690826416,0.06438177078962326,-0.5553570985794067
1686343711007287800,0.602287841796875,0.49837836623191833,-0.04469737038016319,-0.7104877829551697
1686343711017307000,0.612306884765625,0.6031423211097717,-0.14233018457889557,-0.7881996035575867
1686343711027326700,0.62232666015625,0.6499485969543457,-0.22610411047935486,-0.8440014123916626
1686343711037346600,0.6323466796875,0.6285250186920166,-0.2744508683681488,-0.9077926278114319
1686343711047366700,0.64236669921875,0.5759018659591675,-0.2616673409938812,-0.966954231262207
1686343711057386800,0.65238671875,0.590056300163269,-0.14416253566741943,-0.990935206413269
1686343711067406600,0.662406494140625,0.5823443531990051,-0.013239852152764797,-0.9491279721260071
1686343711077425700,0.67242578125,0.5579338073730469,0.034093841910362244,-0.8713676929473877
1686343711087445800,0.68244580078125,0.4831089675426483,-0.04460371658205986,-0.7864298224449158
1686343711097465900,0.6924658203125,0.3749643862247467,-0.033930037170648575,-0.7100945711135864
1686343711107485700,0.702485595703125,0.3111613392829895,0.07121176272630692,-0.6463872194290161
1686343711117505800,0.712505859375,0.2418283224105835,0.23006398975849152,-0.6392267346382141
1686343711127526000,0.72252587890625,0.1950579583644867,0.4419611692428589,-0.6554033160209656
1686343711137544700,0.732544677734375,0.17675884068012238,0.6709005832672119,-0.6523742079734802
1686343711147564500,0.742564453125,0.16578184068202972,0.7706473469734192,-0.6466677188873291
1686343711157584600,0.752584716796875,0.16955314576625824,0.6051404476165771,-0.6348882913589478
1686343711167604700,0.762604736328125,0.12159252166748047,0.39181944727897644,-0.6208705902099609
1686343711177624600,0.77262451171875,0.09203435480594635,0.3062605857849121,-0.6032381057739258
1686343711187644700,0.782644775390625,0.09232370555400848,0.28525951504707336,-0.5950894355773926
1686343711197663700,0.792663818359375,0.08902325481176376,0.2506037950515747,-0.553827166557312
1686343711207683800,0.802683837890625,0.025473270565271378,0.23538868129253387,-0.4725692868232727
1686343711217704000,0.812703857421875,-0.0694577693939209,0.18798840045928955,-0.3512023985385895
1686343711227723500,0.8227236328125,-0.15855656564235687,0.08325563371181488,-0.2266443520784378
1686343711237743600,0.83274365234375,-0.27838417887687683,-0.0727776363492012,-0.1140885204076767
1686343711247763700,0.842763671875,-0.3683054745197296,-0.06800830364227295,0.03846170753240585
1686343711257782800,0.85278271484375,-0.33257409930229187,0.31529539823532104,0.26983609795570374
1686343711267802600,0.862802734375,-0.386482834815979,0.771072268486023,0.3912644684314728
1686343711277822700,0.87282275390625,-0.4131962060928345,1.0573420524597168,0.5121525526046753
1686343711287842800,0.8828427734375,-0.3462996780872345,1.099562168121338,0.6373181939125061
1686343711297862700,0.892862548828125,-0.26258453726768494,0.7422835826873779,0.7047718167304993
1686343711307882800,0.9028828125,-0.2010769248008728,0.10358969122171402,0.689255952835083
1686343711317902800,0.91290283203125,-0.11891387403011322,-0.4841819405555725,0.6200302839279175
1686343711327921700,0.922921630859375,0.020091533660888672,-0.8333122134208679,0.5486150979995728
1686343711337941800,0.932941650390625,0.157083198428154,-0.9772347807884216,0.45682579278945923
1686343711347961600,0.942961669921875,0.27837395668029785,-1.0015294551849365,0.3865462839603424
1686343711357981700,0.952981689453125,0.35478857159614563,-1.0025750398635864,0.3307197690010071
1686343711368001800,0.963001708984375,0.3756079375743866,-0.9774543046951294,0.2626955211162567
1686343711378021600,0.973021728515625,0.3544645607471466,-0.8698157072067261,0.20076479017734528
1686343711388040700,0.983040771484375,0.3435421884059906,-0.7012007832527161,0.17676176130771637
1686343711398060800,0.993060791015625,0.345604807138443,-0.5428124666213989,0.15953217446804047
1686343711408081000,1.003080810546875,0.400312215089798,-0.4405016601085663,0.14238297939300537
1686343711418100700,1.013100830078125,0.4313979744911194,-0.20529179275035858,0.09446046501398087
1686343711428120600,1.02312060546875,0.43197089433670044,-0.1353161782026291,-0.001108255935832858
1686343711438140700,1.033140625,0.41762232780456543,-0.12876054644584656,-0.14620737731456757
1686343711448159700,1.04315966796875,0.36413082480430603,-0.08971929550170898,-0.26657038927078247
1686343711458179800,1.053179931640625,0.25630128383636475,-0.10600532591342926,-0.323282927274704
1686343711468199700,1.06319970703125,0.09893293678760529,-0.09297897666692734,-0.29813942313194275
1686343711478219800,1.0732197265625,-0.07958141714334488,0.0211931299418211,-0.1749972403049469
1686343711488239900,1.083239990234375,-0.2549338638782501,0.25748932361602783,0.01429130882024765
1686343711498259700,1.093259765625,-0.2978118360042572,0.3872950077056885,0.19762705266475677
1686343711508278500,1.103278564453125,-0.23843644559383392,0.3556562662124634,0.34952571988105774
1686343711518298600,1.113298583984375,-0.18545551598072052,0.30579203367233276,0.4889584481716156
1686343711528318700,1.123318603515625,-0.16931988298892975,0.3353663384914398,0.5420481562614441
1686343711538338600,1.133338623046875,-0.1761801838874817,0.3477391302585602,0.4415720999240875
1686343711548358700,1.143358642578125,-0.2302452176809311,0.29751327633857727,0.23176051676273346
1686343711558378800,1.153378662109375,-0.166986882686615,0.4414086639881134,0.05776583030819893
1686343711568398600,1.163398681640625,-0.06009937450289726,0.4924495816230774,-0.1252584159374237
1686343711578417700,1.173417724609375,0.06020892411470413,0.44591057300567627,0.03365080803632736
1686343711588437800,1.183437744140625,0.045497916638851166,0.06702673435211182,0.07154791057109833
1686343711598457900,1.193457763671875,-0.005299216601997614,-0.13338065147399902,0.14592918753623962
1686343711608478000,1.20347802734375,-0.0903378427028656,-0.14876122772693634,0.2822538912296295
1686343711618497500,1.21349755859375,-0.1736857295036316,-0.17041964828968048,0.5404905080795288
1686343711628517600,1.223517578125,-0.25751227140426636,-0.23764972388744354,0.8038240671157837
1686343711638536700,1.23353662109375,-0.382583886384964,-0.41851434111595154,0.9781175851821899
1686343711648556800,1.243556884765625,-0.4765503704547882,-0.6244702935218811,1.0090266466140747
1686343711658576600,1.25357666015625,-0.44060274958610535,-0.6495934724807739,0.8652636408805847
1686343711668596700,1.2635966796875,-0.3068269193172455,-0.46345236897468567,0.5943253636360168
1686343711678616800,1.273616943359375,-0.11974678933620453,-0.11586324125528336,0.20494301617145538
1686343711688636700,1.28363671875,0.054483380168676376,0.14917956292629242,-0.2080896496772766
1686343711698655500,1.293655517578125,0.20356819033622742,0.3562874495983124,-0.48283812403678894
1686343711708675800,1.30367578125,0.2567439079284668,0.6837520599365234,-0.5394054651260376
1686343711718695700,1.31369580078125,0.2189621925354004,0.7723141312599182,-0.5125213861465454
1686343711728715800,1.3237158203125,0.22082948684692383,0.7321658730506897,-0.4566628634929657
1686343711738735600,1.333735595703125,0.2295161932706833,0.8116604685783386,-0.39934203028678894
1686343711748755700,1.343755615234375,0.21069398522377014,0.8870362043380737,-0.40586668252944946
1686343711758775800,1.35377587890625,0.18639637529850006,0.8703933358192444,-0.449682354927063
1686343711768795000,1.363794921875,0.17261846363544464,0.8126686811447144,-0.45135247707366943
1686343711778814700,1.373814697265625,0.14459162950515747,0.7363179922103882,-0.3740054965019226
1686343711788834800,1.383834716796875,0.10122920572757721,0.6381433606147766,-0.222980335354805
1686343711798855000,1.39385498046875,0.07672519981861115,0.5468124151229858,-0.020030949264764786
1686343711808874800,1.403874755859375,0.04266335070133209,0.44310232996940613,0.17424781620502472
1686343711818894800,1.413894775390625,0.003933797590434551,0.33693596720695496,0.32405486702919006
1686343711828913700,1.42391357421875,-0.022677931934595108,0.22264434397220612,0.41327521204948425
1686343711838933800,1.433933837890625,-0.02997020073235035,0.08997071534395218,0.46166858077049255
1686343711848953600,1.44395361328125,-0.047885794192552567,-0.058199815452098846,0.46566250920295715
1686343711858973700,1.4539736328125,-0.07581436634063721,-0.1667497307062149,0.4850172996520996
1686343711868993800,1.463993896484375,-0.1324579417705536,-0.22325415909290314,0.5076846480369568
1686343711879014000,1.474013916015625,-0.2163560390472412,-0.31496545672416687,0.537330150604248
1686343711889033000,1.484032958984375,-0.32913410663604736,-0.4723675847053528,0.5112538933753967
1686343711899052800,1.494052734375,-0.3509161174297333,-0.3941023349761963,0.5109167695045471
1686343711909073000,1.504072998046875,-0.34017062187194824,-0.2895374596118927,0.5010505318641663
1686343711919092700,1.5140927734375,-0.31080713868141174,-0.3548365831375122,0.47323352098464966
1686343711929112600,1.524112548828125,-0.33882611989974976,-0.3893819749355316,0.32627490162849426
1686343711939132700,1.534132568359375,-0.3740357756614685,-0.3551611602306366,0.24226681888103485
1686343711949152800,1.54415283203125,-0.38225656747817993,-0.2865416705608368,0.216740220785141
1686343711959171800,1.554171875,-0.35986417531967163,-0.2514643967151642,0.2626973092556
1686343711969191700,1.564191650390625,-0.32642510533332825,-0.19781441986560822,0.34685075283050537
1686343711979211800,1.574211669921875,-0.2760985493659973,-0.131033793091774,0.4456646740436554
1686343711989231900,1.58423193359375,-0.22531768679618835,-0.11152362078428268,0.5127343535423279
1686343711999252000,1.594251953125,-0.19011841714382172,-0.09842592477798462,0.5112358331680298
1686343712009271800,1.604271728515625,-0.16170619428157806,-0.13775412738323212,0.45985838770866394
1686343712019290600,1.61429052734375,-0.13799792528152466,-0.15298235416412354,0.36075177788734436
1686343712029310700,1.624310791015625,-0.11355846375226974,-0.1518457680940628,0.26045000553131104
1686343712039330800,1.634330810546875,-0.10587843507528305,-0.10920403897762299,0.19623664021492004
1686343712049350700,1.6443505859375,-0.07871124148368835,-0.05215999484062195,0.18941380083560944
1686343712059370800,1.654370849609375,-0.054111625999212265,-0.07300056517124176,0.17929859459400177
1686343712069390800,1.664390869140625,-0.037720367312431335,-0.11765266954898834,0.17049497365951538
1686343712079410000,1.674409912109375,-0.02813085913658142,-0.15159812569618225,0.15924711525440216
1686343712089429800,1.6844296875,-0.031771644949913025,-0.20153698325157166,0.1600867211818695
1686343712099449900,1.694449951171875,-0.045438721776008606,-0.25123876333236694,0.1809760183095932
1686343712109469700,1.7044697265625,-0.060731809586286545,-0.28324779868125916,0.22359851002693176
1686343712119489800,1.71448974609375,-0.07946022599935532,-0.28198757767677307,0.24963170289993286
1686343712129509600,1.724509521484375,-0.07681048661470413,-0.23543556034564972,0.2612447738647461
1686343712139528700,1.73452880859375,-0.07351110130548477,-0.15029244124889374,0.24555101990699768
1686343712149548800,1.744548828125,-0.07387811690568924,-0.0777599960565567,0.21787354350090027
1686343712159569000,1.75456884765625,-0.07241151481866837,-0.021176878362894058,0.20212148129940033
1686343712169588700,1.764588623046875,-0.0737592950463295,0.02354586124420166,0.19269412755966187
1686343712179608800,1.77460888671875,-0.06099076196551323,0.035474956035614014,0.17546160519123077
1686343712189629000,1.78462890625,-0.06097111105918884,0.022411465644836426,0.15832141041755676
1686343712199648800,1.794648681640625,-0.05914285033941269,0.004301438108086586,0.15621671080589294
1686343712209667600,1.80466748046875,-0.07234568893909454,-0.027872323989868164,0.17887471616268158
1686343712219687700,1.814687744140625,-0.0861472487449646,-0.0740177184343338,0.21570277214050293
1686343712229707800,1.824707763671875,-0.08361507952213287,-0.1077677309513092,0.24802997708320618
1686343712239727600,1.8347275390625,-0.08478367328643799,-0.10598953813314438,0.26968175172805786
1686343712249747700,1.844747802734375,-0.09255485236644745,-0.0524631068110466,0.27609696984291077
1686343712259767800,1.854767822265625,-0.09059689193964005,0.019055282697081566,0.2684398293495178
1686343712269787000,1.864786865234375,-0.10756921768188477,0.16194185614585876,0.2999551594257355
1686343712279807000,1.874806884765625,-0.1281442642211914,0.1497696191072464,0.25205233693122864
1686343712289826800,1.884826904296875,-0.09742421656847,0.08598997443914413,0.1778736114501953
1686343712299846700,1.8948466796875,-0.0625477209687233,0.04535866156220436,0.10789000242948532
1686343712309866800,1.90486669921875,-0.04785657674074173,0.005008005071431398,0.0385877750813961
1686343712319886600,1.914886474609375,-0.03637994825839996,-0.015594741329550743,-0.007851364091038704
1686343712329906700,1.92490673828125,-0.029077526181936264,-0.031130604445934296,-0.030096566304564476
1686343712339925800,1.93492578125,-0.017394237220287323,-0.016682157292962074,-0.00746235903352499
1686343712349945900,1.94494580078125,-0.013375381007790565,0.030073892325162888,0.05914607644081116
1686343712359965700,1.954965576171875,-0.014228392392396927,0.09315565228462219,0.13300539553165436
1686343712369985800,1.96498583984375,-0.019189558923244476,0.12027040868997574,0.16404959559440613
1686343712380006000,1.975005859375,-0.009637598879635334,0.08722057938575745,0.10192204266786575
1686343712390025700,1.985025634765625,0.004317541141062975,0.03125991299748421,0.010475643910467625
1686343712400045800,1.9950458984375,0.017887677997350693,0.004342276137322187,-0.06362388283014297
1686343712410064600,2.005064697265625,0.017999958246946335,0.02871510200202465,-0.10932378470897675
1686343712420084700,2.015084716796875,0.00541013153269887,0.06585527956485748,-0.11639527976512909
1686343712430104800,2.025104736328125,0.0009412956424057484,0.06854349374771118,-0.10482776165008545
1686343712440124700,2.035124755859375,-0.0015383735299110413,0.02417895942926407,-0.05730178579688072
1686343712450144800,2.045144775390625,0.0005366974510252476,-0.0133498040959239,0.015018782578408718
1686343712460164900,2.055164794921875,-0.0037046526558697224,-0.04142457991838455,0.05592786520719528
1686343712470184000,2.065183837890625,0.00011547747999429703,-0.055202338844537735,0.06111652031540871
1686343712480203800,2.075203857421875,-0.0027157296426594257,-0.0872524157166481,0.050690241158008575
1686343712490223600,2.0852236328125,-0.004333664663136005,-0.12550929188728333,0.032548289746046066
1686343712500243700,2.09524365234375,-0.0157700777053833,-0.1578906625509262,0.02089136838912964
1686343712510263800,2.105263916015625,-0.03652496635913849,-0.1898125559091568,0.03799382224678993
1686343712520283600,2.11528369140625,-0.04831397905945778,-0.22021172940731049,0.09331673383712769
1686343712530302700,2.125302734375,-0.05788958817720413,-0.2047165185213089,0.1604495346546173
1686343712540322800,2.13532275390625,-0.06418876349925995,-0.1813693791627884,0.20186620950698853
1686343712550343000,2.145343017578125,-0.05893082544207573,-0.15129752457141876,0.2091783732175827
1686343712560362800,2.15536279296875,-0.05387987568974495,-0.13130542635917664,0.18913355469703674
1686343712570382800,2.1653828125,-0.04899781569838524,-0.11602857708930969,0.1713225543498993
1686343712580403000,2.17540283203125,-0.044812656939029694,-0.1032632514834404,0.1597370058298111
1686343712590422800,2.1854228515625,-0.051961250603199005,-0.11466977745294571,0.15758748352527618
1686343712600441600,2.195441650390625,-0.058650851249694824,-0.11388387531042099,0.16963402926921844
1686343712610461700,2.205461669921875,-0.07138842344284058,-0.1055239737033844,0.20356929302215576
1686343712620481800,2.215481689453125,-0.11416757851839066,-0.09470701217651367,0.3023264706134796
1686343712630501600,2.225501708984375,-0.13111722469329834,-0.20472262799739838,0.2722701132297516
1686343712640521700,2.235521728515625,-0.06811508536338806,-0.22844606637954712,0.17407536506652832
1686343712650541800,2.245541748046875,-0.03177771344780922,-0.21140651404857635,0.06775982677936554
1686343712660562000,2.25556201171875,-0.00494370236992836,-0.1853613257408142,-0.0016818358562886715
1686343712670580700,2.265580810546875,0.005151862278580666,-0.15076956152915955,-0.03009624592959881
1686343712680600600,2.2756005859375,0.00611086655408144,-0.10546092689037323,-0.035668112337589264
1686343712690620700,2.28562060546875,0.00989663414657116,-0.056135229766368866,-0.02920793555676937
1686343712700640800,2.295640869140625,0.019389204680919647,-0.024239080026745796,-0.03011074662208557
1686343712710660900,2.305660888671875,0.02069377712905407,-0.006823467090725899,-0.030712639912962914
1686343712720681000,2.315680908203125,0.017532870173454285,0.01112943422049284,-0.03798067197203636
1686343712730700800,2.32570068359375,0.009049657732248306,0.027593916282057762,-0.05488668009638786
1686343712740719900,2.335719970703125,0.012825753539800644,0.027056489139795303,-0.07037536054849625
1686343712750739700,2.34573974609375,0.022655948996543884,0.014668766409158707,-0.07864709943532944
1686343712760759800,2.355759765625,0.037700146436691284,-0.007122283801436424,-0.07754535228013992
1686343712770780000,2.36577978515625,0.051512621343135834,-0.028226379305124283,-0.07256271690130234
1686343712780799700,2.3757998046875,0.056399524211883545,-0.049474410712718964,-0.07399176806211472
1686343712790819800,2.38581982421875,0.06921567767858505,-0.05425766855478287,-0.08549574762582779
1686343712800839000,2.3958388671875,0.06793150305747986,-0.04234801232814789,-0.08180566877126694
1686343712810858800,2.405858642578125,0.057674285024404526,-0.0018593291752040386,-0.057883121073246
1686343712820878800,2.41587890625,0.05016284063458443,0.031720470637083054,-0.022591974586248398
1686343712830898700,2.425898681640625,0.03866926208138466,0.06667377054691315,0.01588219404220581
1686343712840918800,2.435918701171875,0.03995956480503082,0.09759040176868439,0.04585207626223564
1686343712850939000,2.44593896484375,0.04968422278761864,0.11292450875043869,0.03948528319597244
1686343712860958700,2.455958740234375,0.05958105996251106,0.09296438097953796,0.0024601530749350786
1686343712870977800,2.465977783203125,0.07748525589704514,0.04919211566448212,-0.025892434641718864
1686343712880998000,2.475997802734375,0.07766901701688766,0.015221899375319481,-0.05083906278014183
1686343712891018000,2.48601806640625,0.07494788616895676,0.00209484132938087,-0.062456466257572174
1686343712901037800,2.496037841796875,0.06835443526506424,-0.021162278950214386,-0.05178890749812126
1686343712911058000,2.506057861328125,0.06654856353998184,-0.04465062916278839,-0.02179141342639923
1686343712921077800,2.516077880859375,0.06669370085000992,-0.055388759821653366,0.011060807853937149
1686343712931097900,2.526097900390625,0.08016528189182281,-0.05837929993867874,0.034862227737903595
1686343712941117000,2.536116943359375,0.09561880677938461,-0.05138583853840828,0.033484309911727905
1686343712951136800,2.54613671875,0.10622384399175644,-0.04560408368706703,0.0175471194088459
1686343712961156900,2.556156982421875,0.10016115754842758,-0.032333821058273315,0.00034736073575913906
1686343712971177000,2.566177001953125,0.07974614948034286,-0.019382478669285774,-0.002731654094532132
1686343712981196800,2.57619677734375,0.052789900451898575,0.0009678001515567303,0.012847306206822395
1686343712991217000,2.586216796875,0.03174028545618057,0.006783489137887955,0.03571467101573944
1686343713001237000,2.596237060546875,0.015130682848393917,0.013583604246377945,0.058852214366197586
1686343713011255800,2.606255859375,0.008916608057916164,0.014453476294875145,0.08334311097860336
1686343713021275600,2.616275634765625,0.002378813922405243,0.008692792616784573,0.0890025943517685
1686343713031295700,2.626295654296875,0.0031570824794471264,0.0009151366539299488,0.0838179737329483
1686343713041315800,2.63631591796875,0.0055589876137673855,-0.004145135637372732,0.07423005998134613
1686343713051336000,2.6463359375,0.011656524613499641,-0.007364851422607899,0.0570993572473526
1686343713061355800,2.656355712890625,0.012363594025373459,-0.01378520019352436,0.039314769208431244
1686343713071376000,2.6663759765625,0.0026540467515587807,-0.01530391350388527,0.01001708023250103
1686343713081395000,2.67639501953125,-0.009434839710593224,-0.00989663228392601,-0.006012486759573221
1686343713091415000,2.6864150390625,-0.01616903766989708,0.006796888075768948,-0.011704305186867714
1686343713101435000,2.696434814453125,-0.019565101712942123,0.010003333911299706,-0.006941508501768112
1686343713111454700,2.706454833984375,-0.028818722814321518,0.010867560282349586,0.0012367588933557272
1686343713121474800,2.716474853515625,-0.029292233288288116,0.00806298479437828,0.007717028260231018
1686343713131494700,2.72649462890625,-0.025620952248573303,-0.004159287083894014,0.008006177842617035
1686343713141513700,2.736513671875,-0.01964481920003891,-0.014722716063261032,0.0013860915787518024
1686343713151533800,2.746533935546875,-0.018962683156132698,-0.02605687826871872,-0.009571334347128868
1686343713161554000,2.756553955078125,-0.0151841901242733,-0.021706869825720787,-0.018502777442336082
1686343713171573800,2.76657373046875,-0.00988328829407692,0.0011364759411662817,-0.03199281916022301
1686343713181593900,2.77659375,-0.001302315853536129,-0.0006470431108027697,-0.04032664746046066
1686343713191614000,2.786614013671875,0.0036664805375039577,0.0071684750728309155,-0.042646992951631546
1686343713201634000,2.796634033203125,0.0015751002356410027,0.013957671821117401,-0.04229039326310158
1686343713211652900,2.80665283203125,-0.0009579886682331562,0.030469844117760658,-0.035420842468738556
1686343713221672700,2.816672607421875,-0.013512128964066505,0.041409045457839966,-0.022604113444685936
1686343713231692800,2.82669287109375,-0.01816084235906601,0.036236636340618134,-0.011710569262504578
1686343713241713000,2.836712890625,-0.018749400973320007,0.024591166526079178,-0.01268368773162365
1686343713251732700,2.846732666015625,-0.019565274938941002,0.013674519956111908,-0.019830748438835144
1686343713261752800,2.8567529296875,-0.01631382293999195,-0.0011611506342887878,-0.02521512657403946
1686343713271773000,2.86677294921875,-0.014734282158315182,0.0016351882368326187,-0.025866268202662468
1686343713281792000,2.8767919921875,-0.01045298296958208,0.0019688825123012066,-0.020478693768382072
1686343713291811800,2.886811767578125,-0.008842863142490387,0.0026055672205984592,-0.00963195413351059
1686343713301831700,2.896831787109375,-0.009690281003713608,0.011032341979444027,0.0023205792531371117
1686343713311851800,2.906851806640625,-0.01211034320294857,0.017108511179685593,0.019702181220054626
1686343713321872000,2.916871826171875,-0.007973920553922653,0.021809257566928864,0.028068235144019127
1686343713331891700,2.9268916015625,-0.010061078704893589,0.022457873448729515,0.03628266230225563
1686343713341911800,2.936911865234375,-0.01313037145882845,0.023715684190392494,0.03319739177823067
1686343713351931000,2.946930908203125,-0.012321412563323975,0.02397388033568859,0.026816967874765396
1686343713361951000,2.956950927734375,-0.00928354263305664,0.021644679829478264,0.02353781834244728
1686343713371970800,2.966970703125,-0.009002444334328175,0.01705244369804859,0.029061995446681976
1686343713381991000,2.976990966796875,-0.011427518911659718,0.010197998955845833,0.03545890748500824
1686343713392011000,2.987010986328125,-0.00826605036854744,-0.001332525396719575,0.045150820165872574
1686343713402030800,2.99703076171875,-0.007750463206321001,-0.004695565439760685,0.04255130887031555
1686343713412049700,3.007049560546875,-0.009785154834389687,-0.0016246282029896975,0.03118315525352955
1686343713422069800,3.01706982421875,-0.010503143072128296,0.002749347360804677,0.01729237288236618
1686343713432089900,3.02708984375,-0.005274853203445673,0.010080420412123203,0.004183977842330933
1686343713442109700,3.037109619140625,-0.0021879826672375202,0.013310302048921585,-0.004997270181775093
1686343713452129800,3.0471298828125,-0.005707790609449148,0.008654139004647732,-0.005249988287687302
1686343713462150000,3.05714990234375,-0.005252922419458628,0.006787262856960297,0.0015125763602554798
1686343713472170000,3.067169921875,-0.004398480523377657,0.0036023729480803013,0.010319799184799194
1686343713482189000,3.07718896484375,-0.009468073025345802,-0.00006852811202406883,0.015786470845341682
1686343713492209000,3.087208984375,-0.016836654394865036,-0.004621816333383322,0.028129754588007927
1686343713502228700,3.097228759765625,-0.02275952510535717,-0.011885055340826511,0.023624751716852188
1686343713512248800,3.107248779296875,-0.03431500867009163,-0.01962827332317829,0.03537483513355255
1686343713522268700,3.1172685546875,-0.015689924359321594,0.02244434505701065,0.0465577132999897
1686343713532288800,3.127288818359375,-0.010167015716433525,0.002577527891844511,0.03160944581031799
1686343713542307800,3.137307861328125,-0.00013808347284793854,-0.0021365336142480373,0.023414630442857742
1686343713552328000,3.147327880859375,0.0023807063698768616,-0.002304388675838709,0.008138690143823624
1686343713562347800,3.15734765625,0.0014552581124007702,0.0020378953777253628,0.0024054364766925573
1686343713572368000,3.167367919921875,0.0025469432584941387,0.0009155252482742071,0.002322443760931492
1686343713582388000,3.177387939453125,0.006425571162253618,-0.00950462557375431,0.00895983912050724
1686343713592408000,3.187407958984375,-0.0015499452129006386,-0.022481758147478104,0.01547133456915617
1686343713602428000,3.197427978515625,-0.006278653629124165,-0.016476862132549286,0.024755647405982018
1686343713612446700,3.20744677734375,-0.00503627909347415,-0.007491213735193014,0.03194471821188927
1686343713622466800,3.217466796875,-0.006325515452772379,0.010459823533892632,0.029280491173267365
1686343713632487000,3.22748681640625,-0.013452225364744663,0.01741056703031063,0.02559971995651722
1686343713642506800,3.2375068359375,-0.008432700298726559,0.021542195230722427,0.02343989536166191
1686343713652526800,3.24752685546875,-0.006201614160090685,0.008794579654932022,0.025962159037590027
1686343713662547000,3.257546875,-0.001738689374178648,-0.011529866605997086,0.01598196290433407
1686343713672566000,3.26756591796875,0.002081376500427723,-0.021398134529590607,0.012535348534584045
1686343713682585900,3.2775859375,0.004581019282341003,-0.031211350113153458,0.014202486723661423
1686343713692605700,3.287605712890625,0.0015932726673781872,-0.006228347308933735,0.020228520035743713
1686343713702625800,3.297625732421875,-0.0001018294133245945,0.002481787232682109,0.02309621311724186
1686343713712645000,3.30764501953125,-0.003276747651398182,-0.011788422241806984,0.024263979867100716
1686343713722665000,3.3176650390625,-0.005419527180492878,-0.030872901901602745,0.014022527262568474
1686343713732683800,3.327683837890625,-0.003573159221559763,-0.011219659820199013,0.00022167409770190716
1686343713742703900,3.337703857421875,0.00656602717936039,-0.030549680814146996,-0.015626797452569008
1686343713752724000,3.347723876953125,0.013260352425277233,-0.021212048828601837,-0.03128979355096817
1686343713762744000,3.357744140625,0.01249043270945549,-0.050328921526670456,-0.042031385004520416
1686343713772764000,3.367763916015625,0.015282739885151386,-0.04980270192027092,-0.03859724476933479
1686343713782784000,3.377783935546875,0.007051707711070776,-0.047364044934511185,-0.025601550936698914
1686343713792803000,3.387802978515625,0.014138763770461082,-0.04538610950112343,-0.009438672102987766
1686343713802823200,3.3978232421875,0.01291797123849392,-0.040905874222517014,0.0004824013449251652
1686343713812843000,3.407843017578125,0.005859089083969593,-0.04138673469424248,0.013495153747498989
1686343713822863000,3.417863037109375,0.003049187595024705,-0.046465914696455,0.01703343167901039
1686343713832883200,3.42788330078125,-0.00015150010585784912,-0.03671952709555626,0.01640184409916401
1686343713842902800,3.43790283203125,0.0015156385488808155,-0.011629089713096619,0.018672455102205276
1686343713852921900,3.447921875,-0.001675168052315712,0.014954941347241402,0.01592317409813404
1686343713862942000,3.45794189453125,-0.0035590878687798977,0.019961152225732803,0.014550315216183662
1686343713872962000,3.467962158203125,0.00036208610981702805,0.016783438622951508,0.020483072847127914
1686343713882982000,3.47798193359375,0.004070005379617214,0.004272972233593464,0.01761777698993683
1686343713893002000,3.488001953125,0.002402148675173521,-0.009450065903365612,0.01871594600379467
1686343713903022000,3.49802197265625,0.002908681984990835,-0.01578093320131302,0.01805548183619976
1686343713913041200,3.508041259765625,0.006403943989425898,-0.023438701406121254,0.012904416769742966
1686343713923061000,3.51806103515625,0.00971451960504055,-0.028756767511367798,0.0057727377861738205
1686343713933080800,3.528080810546875,0.008118128404021263,-0.03206993639469147,0.009073088876903057
1686343713943101000,3.538100830078125,0.0045731947757303715,-0.0346718430519104,0.01255304180085659
1686343713953121000,3.54812109375,0.002457662718370557,-0.03679060563445091,0.0077683753333985806
1686343713963140900,3.558140869140625,-0.0028883665800094604,-0.034990839660167694,-0.0030147640500217676
1686343713973160000,3.568159912109375,0.002157046925276518,-0.024508483707904816,-0.023066669702529907
1686343713983180000,3.578179931640625,0.007248212117701769,-0.015715526416897774,-0.03738462179899216
1686343713993200000,3.5882001953125,0.011338598094880581,-0.013238299638032913,-0.05386541411280632
1686343714003220000,3.598219970703125,0.01949239894747734,-0.015521427616477013,-0.06354813277721405
1686343714013240000,3.608239990234375,0.02090618759393692,-0.01300949789583683,-0.06677257269620895
1686343714023259000,3.6182587890625,0.016774026677012444,-0.011736240237951279,-0.05156645178794861
1686343714033279000,3.628279052734375,0.011898044496774673,-0.01529670786112547,-0.03847230598330498
1686343714043299000,3.638299072265625,0.009888689033687115,-0.018603021278977394,-0.034540947526693344
1686343714053319000,3.64831884765625,0.007932562381029129,-0.017804207280278206,-0.033223047852516174
1686343714063339000,3.658339111328125,0.003199591999873519,-0.02005591057240963,-0.027575816959142685
1686343714073359000,3.668359130859375,0.005615785252302885,-0.017157787457108498,-0.01714298501610756
1686343714083378200,3.678378173828125,0.0004620356485247612,-0.0179442185908556,-0.012761286459863186
1686343714093398000,3.68839794921875,0.0018662484362721443,-0.021819470450282097,-0.002993623726069927
1686343714103418000,3.698418212890625,0.0014140438288450241,-0.013668599538505077,0.003634451422840357
1686343714113438000,3.70843798828125,0.0018123425543308258,0.0005911677144467831,-0.005571049638092518
1686343714123457800,3.718457763671875,-0.0006710551679134369,0.011923717334866524,-0.010561014525592327
1686343714133476900,3.728476806640625,0.0003530755639076233,0.01177137903869152,-0.012753745540976524
1686343714143497000,3.7384970703125,-0.0016472246497869492,0.00893324799835682,-0.00998645555227995
1686343714153517000,3.74851708984375,0.0011824681423604488,0.010643848218023777,-0.005914514418691397
1686343714163537200,3.758537109375,-0.0049473294056952,0.009464600123465061,0.005335742607712746
1686343714173557000,3.768556884765625,-0.0019263140857219696,0.002859520260244608,0.01599574275314808
1686343714183577000,3.7785771484375,-0.0007662409916520119,-0.004494000226259232,0.020072510465979576
1686343714193596200,3.78859619140625,-0.0007838550955057144,-0.015995081514120102,0.018104517832398415
1686343714203616000,3.798615966796875,0.0004505198448896408,-0.020412199199199677,0.012134242802858353
1686343714213635800,3.8086357421875,0.0005148677155375481,-0.019148781895637512,0.003333678003400564
1686343714223656000,3.818656005859375,0.0019961181096732616,-0.01575937494635582,-0.0066992491483688354
1686343714233676000,3.828676025390625,0.005219517275691032,-0.012992992997169495,-0.018338344991207123
1686343714243695000,3.838695068359375,0.007679212838411331,-0.01163877546787262,-0.02475682832300663
1686343714253715000,3.84871484375,0.008078365586698055,-0.014678127132356167,-0.030580462887883186
1686343714263735000,3.858735107421875,0.010934606194496155,-0.004421495366841555,-0.030028123408555984
1686343714273755100,3.868755126953125,0.007848845794796944,-0.004334932658821344,-0.027725322172045708
1686343714283775000,3.87877490234375,0.0036503721494227648,-0.011080186814069748,-0.019217588007450104
1686343714293793800,3.888793701171875,0.0038202456198632717,-0.01593499630689621,-0.01495369616895914
1686343714303814000,3.89881396484375,0.0071015264838933945,-0.019033052027225494,-0.011602640151977539
1686343714313834000,3.908833984375,0.00823468342423439,-0.01862614043056965,-0.011515025049448013
1686343714323854000,3.91885400390625,0.008212046697735786,-0.015974698588252068,-0.018088240176439285
1686343714333874000,3.9288740234375,0.007902128621935844,-0.0057501159608364105,-0.01954595372080803
1686343714343894000,3.93889404296875,0.008494148962199688,0.0005221611354500055,-0.014390872791409492
1686343714353913000,3.9489130859375,0.0043103317730128765,0.005197484977543354,0.0018643985968083143
1686343714363933200,3.95893310546875,0.00419528316706419,0.011483077891170979,0.011514895595610142
1686343714373953000,3.968953125,0.0017885295674204826,0.011533435434103012,0.01563887856900692
1686343714383973000,3.97897314453125,-0.0032304637134075165,0.020510418340563774,0.012636698782444
1686343714393992000,3.988991943359375,0.00022332603111863136,0.019940737634897232,0.008137054741382599
1686343714404012000,3.999011962890625,0.002378622069954872,0.022194571793079376,0.01347189862281084
1686343714414032000,4.009031982421875,0.00419318862259388,0.020683633163571358,0.009605771861970425
1686343714424052000,4.019052001953125,0.005848875734955072,0.019236205145716667,0.016919344663619995
1686343714434072000,4.029072021484375,0.008281875401735306,0.0097679253667593,0.020721128210425377
1686343714444092200,4.039092041015625,0.019048502668738365,0.003739061765372753,0.020779184997081757
1686343714454111000,4.049111083984375,0.029916293919086456,0.006653849501162767,0.023361381143331528
1686343714464131000,4.059131103515625,0.032186370342969894,0.013902973383665085,0.029129521921277046
1686343714474151000,4.06915087890625,0.019119849428534508,0.030105257406830788,0.03442481905221939
1686343714484171000,4.0791708984375,0.010791079141199589,0.04557236284017563,0.03229561820626259
1686343714494190800,4.08919091796875,0.007119094952940941,0.06727398931980133,0.031291961669921875
1686343714504210000,4.0992099609375,0.009554022923111916,0.07291030883789062,0.031593963503837585
1686343714514230000,4.10922998046875,0.009093920700252056,0.05673784017562866,0.04207564890384674
1686343714524250000,4.11925,0.005995599087327719,0.03676040470600128,0.051777277141809464
1686343714534270000,4.12927001953125,-0.0005267765372991562,-0.06219634786248207,0.055035073310136795
1686343714544289000,4.1392890625,0.0015454292297363281,-0.07688580453395844,0.06920815259218216
1686343714554308900,4.149308837890625,-0.010072152130305767,-0.003499386366456747,0.057846471667289734
1686343714564329000,4.159328857421875,-0.01008520182222128,0.0386589877307415,0.016256950795650482
1686343714574348800,4.169348876953125,0.005396194756031036,0.03596828505396843,-0.005164467729628086
1686343714584369000,4.179368896484375,0.011985387653112411,0.00878193974494934,0.0006715834606438875
1686343714594388000,4.189387939453125,0.011860311031341553,-0.01213015802204609,0.007797153200954199
1686343714604408000,4.199407958984375,0.004600534215569496,-0.015711311250925064,0.0054578329436481
1686343714614428200,4.20942822265625,0.003931548446416855,-0.0008162515005096793,-0.00599056389182806
1686343714624448000,4.219447998046875,0.0016534803435206413,0.0059998431243002415,-0.014255417510867119
1686343714634468000,4.229468017578125,0.006681711412966251,0.015345977619290352,-0.023743610829114914
1686343714644487000,4.23948681640625,0.007647107355296612,0.01123885065317154,-0.026743661612272263
1686343714654507000,4.249507080078125,0.010274875909090042,0.00808760803192854,-0.029575616121292114
1686343714664526800,4.25952685546875,0.013678129762411118,0.010003485716879368,-0.03242839500308037
1686343714674547000,4.269546875,0.004522173199802637,0.008449919521808624,-0.020054951310157776
1686343714684567000,4.279567138671875,-0.002564231865108013,0.017642619088292122,0.0030437104869633913
1686343714694586000,4.289586181640625,-0.005386761389672756,0.024401063099503517,0.022858677431941032
1686343714704607200,4.299607177734375,-0.007522083818912506,0.026064474135637283,0.03793483227491379
1686343714714627000,4.309626953125,-0.01143399067223072,0.027088865637779236,0.0402577742934227
1686343714724647200,4.319647216796875,-0.0054208398796617985,0.02532132714986801,0.0350789912045002
1686343714734666000,4.329666015625,-0.00427986029535532,0.02847580797970295,0.027804449200630188
1686343714744686000,4.33968603515625,-0.002680099569261074,0.02252470701932907,0.021300476044416428
1686343714754706200,4.3497060546875,0.0022206867579370737,0.02334287203848362,0.012009511701762676
1686343714764726300,4.359726318359375,0.0008345115929841995,0.014068946242332458,0.01185558084398508
1686343714774746000,4.36974609375,0.0005595721304416656,0.011161855421960354,0.014796094037592411
1686343714784765200,4.37976513671875,0.000757178757339716,0.015650877729058266,0.013432555831968784
1686343714794785000,4.389784912109375,-0.00369524909183383,0.022068336606025696,0.015121460892260075
1686343714804805000,4.39980517578125,-0.00492909224703908,0.013226908631622791,0.014359530992805958
1686343714814825000,4.409824951171875,-0.0036932681687176228,0.00920012779533863,0.0016829506494104862
1686343714824844000,4.419843994140625,-0.006259756628423929,0.008922893553972244,-0.01275617629289627
1686343714834864000,4.429864013671875,-0.0024255458265542984,0.007856536656618118,-0.02283259481191635
1686343714844884200,4.43988427734375,-0.0002793041057884693,0.005922549869865179,-0.021997960284352303
1686343714854904000,4.449904052734375,0.0003871740773320198,0.002589209470897913,-0.013344568200409412
1686343714864924200,4.459924072265625,0.0020756181329488754,0.0066989995539188385,-0.002964099170640111
1686343714874943000,4.46994287109375,0.000912827905267477,0.01674056053161621,0.006820256356149912
1686343714884963000,4.479963134765625,-0.0016336869448423386,0.018995460122823715,0.008188588544726372
1686343714894983200,4.489983154296875,-0.001684701070189476,0.014622201211750507,0.009344997815787792
1686343714905003000,4.5000029296875,0.0004681982100009918,0.008912383578717709,0.0006116940639913082
1686343714915022000,4.51002197265625,-0.01323531661182642,-0.07305216044187546,-0.01244280394166708
1686343714925042200,4.520042236328125,0.007869436405599117,-0.16216444969177246,0.0060624368488788605
1686343714935062300,4.530062255859375,-0.010727502405643463,-0.08732054382562637,0.02711937390267849
1686343714945082000,4.54008203125,-0.023619864135980606,-0.0013049653498455882,0.010546255856752396
1686343714955102200,4.550102294921875,-0.0037526721134781837,0.005844344384968281,0.001100068213418126
1686343714965121000,4.56012109375,0.0002170354127883911,-0.027977535501122475,0.015474213287234306
1686343714975141000,4.57014111328125,-0.006250644102692604,-0.056550148874521255,0.03609596937894821
1686343714985161000,4.580160888671875,-0.0053992317989468575,-0.03756500780582428,0.04150405153632164
1686343714995181000,4.59018115234375,-0.001770573202520609,0.026273880153894424,0.025606460869312286
1686343715005200100,4.6002001953125,-0.0024597994051873684,0.04423636570572853,0.000653174240142107
1686343715015220200,4.61022021484375,0.008999552577733994,0.021415429189801216,-0.011295978911221027
1686343715025240000,4.620239990234375,0.010620885528624058,-0.004806854762136936,-0.01664121076464653
1686343715035260200,4.63026025390625,0.005940333940088749,-0.012119992636144161,-0.01604444719851017
1686343715045280300,4.6402802734375,0.004090501926839352,-0.008391832932829857,-0.010216651484370232
1686343715055299000,4.650299072265625,-0.0029035834595561028,-0.010616745799779892,-0.005633633583784103
1686343715065319200,4.660319091796875,-0.0014138109982013702,-0.017478913068771362,-0.0013901530764997005
1686343715075339000,4.670339111328125,0.0014499137178063393,-0.021803809329867363,-0.003778959158807993
1686343715085359000,4.680359130859375,0.003945828415453434,-0.025619320571422577,-0.008782239630818367
1686343715095378200,4.690378173828125,0.009742234833538532,-0.02672670967876911,-0.01676461473107338
1686343715105398300,4.700398193359375,0.00754725793376565,-0.02280467189848423,-0.024402296170592308
1686343715115418000,4.710418212890625,0.009051034227013588,-0.020437514409422874,-0.03193586319684982
1686343715125438200,4.720438232421875,0.009420414455235004,-0.01914721354842186,-0.034776389598846436
1686343715135458300,4.730458251953125,0.008873943239450455,-0.016960348933935165,-0.04138835147023201
1686343715145477000,4.74047705078125,0.007822527550160885,-0.01602664589881897,-0.04413300380110741
1686343715155497000,4.7504970703125,0.004759231116622686,-0.016857612878084183,-0.0457494780421257
1686343715165517000,4.76051708984375,0.010036817751824856,-0.019167639315128326,-0.047865889966487885
1686343715175537200,4.770537109375,0.012130135670304298,-0.02916896529495716,-0.04983679577708244
1686343715185556200,4.78055615234375,0.015434052795171738,-0.037980563938617706,-0.053523942828178406
1686343715195576000,4.790576171875,0.01886877603828907,-0.040256403386592865,-0.05338194593787193
1686343715205596200,4.80059619140625,0.018308181315660477,-0.040206070989370346,-0.055376384407281876
1686343715215616300,4.8106162109375,0.021841591224074364,-0.03547647222876549,-0.049969471991062164
1686343715225635000,4.820635009765625,0.017220472916960716,-0.03440588340163231,-0.04846558719873428
1686343715235655200,4.8306552734375,0.017801206558942795,-0.027514491230249405,-0.04312218725681305
1686343715245675000,4.840675048828125,0.015801971778273582,-0.02778986096382141,-0.043090496212244034
1686343715255695000,4.850695068359375,0.014981238171458244,-0.028384923934936523,-0.04137212783098221
1686343715265714200,4.860714111328125,0.0151309072971344,-0.02522694692015648,-0.04267893731594086
1686343715275734300,4.870734375,0.011997170746326447,-0.019948743283748627,-0.039936862885951996
1686343715285754000,4.880754150390625,0.012034721672534943,-0.0195508673787117,-0.03940422832965851
1686343715295774200,4.890774169921875,0.016033511608839035,-0.02169455774128437,-0.04267902299761772
1686343715305794300,4.900794189453125,0.01583164371550083,-0.026185713708400726,-0.039852075278759
1686343715315813000,4.910813232421875,0.015655849128961563,-0.024816391989588737,-0.03438625484704971
1686343715325833000,4.9208330078125,0.008892751298844814,-0.02183125540614128,-0.021561268717050552
1686343715335853000,4.93085302734375,0.008332017809152603,-0.02046579122543335,-0.007446847856044769
1686343715345873200,4.940873046875,0.0022839789744466543,-0.018195712938904762,-0.005915530025959015
1686343715355892200,4.950892333984375,0.00541410269215703,-0.01768798753619194,-0.00638289749622345
1686343715365912300,4.960912353515625,0.009337471798062325,-0.02004115656018257,-0.01486240141093731
1686343715375932200,4.97093212890625,0.009638216346502304,-0.01700923778116703,-0.026680344715714455
1686343715385952300,4.9809521484375,0.012086726725101471,-0.018977047875523567,-0.03772899881005287
1686343715395971000,4.99097119140625,0.012255551293492317,-0.024299129843711853,-0.050762780010700226
1686343715405991200,5.0009912109375,0.012761818245053291,-0.026289310306310654,-0.049798451364040375
1686343715416011000,5.011010986328125,0.011238261125981808,-0.02819032035768032,-0.04642324149608612
1686343715426031000,5.021031005859375,0.015603181906044483,-0.030868928879499435,-0.03581800311803818
1686343715436051200,5.03105126953125,0.015268532559275627,-0.029141740873456,-0.03213030472397804
1686343715446070300,5.0410703125,0.01228153146803379,-0.03004268743097782,-0.024994097650051117
1686343715456090000,5.051090087890625,0.011276867240667343,-0.0310208722949028,-0.01221480593085289
1686343715466110200,5.061110107421875,0.006906086578965187,-0.0327782928943634,-0.00232968432828784
1686343715476130300,5.07113037109375,0.007595231756567955,-0.029874343425035477,-0.009551526978611946
1686343715486149000,5.081149169921875,0.009026413783431053,-0.021607626229524612,-0.014242684468626976
1686343715496169200,5.091169189453125,0.011437851004302502,-0.021237865090370178,-0.0255135465413332
1686343715506189000,5.10118896484375,0.012491930276155472,-0.01650569587945938,-0.028911208733916283
1686343715516209200,5.111209228515625,0.013435278087854385,-0.02050960436463356,-0.028364628553390503
1686343715526228200,5.121228271484375,0.013253649696707726,-0.019830767065286636,-0.026769394055008888
1686343715536248300,5.131248291015625,0.011163444258272648,-0.01982451044023037,-0.023097144439816475
1686343715546268200,5.14126806640625,0.008621457032859325,-0.0174724068492651,-0.014397927559912205
1686343715556288300,5.151288330078125,0.003852516645565629,-0.009555649943649769,-0.012797105126082897
1686343715566308000,5.16130810546875,0.0065130144357681274,-0.008805970661342144,-0.011048473417758942
1686343715576327200,5.1713271484375,0.008461079560220242,-0.010605421848595142,-0.01672624982893467
1686343715586347000,5.181346923828125,0.007697551045566797,-0.007530003786087036,-0.018704714253544807
1686343715596367000,5.1913671875,0.012341911904513836,-0.013329128734767437,-0.01991368643939495
1686343715606387200,5.20138720703125,0.010060381144285202,-0.019465051591396332,-0.015917081385850906
1686343715616406300,5.21140625,0.013286378234624863,-0.02828531339764595,-0.013570551760494709
1686343715626426000,5.221426025390625,0.011805927380919456,-0.030716512352228165,-0.01014519389718771
1686343715636446200,5.2314462890625,0.011843450367450714,-0.0305168516933918,-0.006284990813583136
1686343715646466000,5.241466064453125,0.011488450691103935,-0.025734346359968185,-0.005594433285295963
1686343715656485000,5.251485107421875,0.009357047267258167,-0.0175752155482769,-0.010196029208600521
1686343715666505200,5.261505126953125,0.01169636845588684,-0.011644089594483376,-0.017398549243807793
1686343715676525000,5.271525146484375,0.006808055564761162,0.004088302608579397,-0.016208264976739883
1686343715686545200,5.281545166015625,0.009510897099971771,0.011725183576345444,-0.011633221060037613
1686343715696564200,5.291564208984375,0.008794746361672878,0.0020210803486406803,-0.0084310844540596
1686343715706583300,5.301583251953125,0.008460519835352898,-0.005763606168329716,0.002353119198232889
1686343715716603400,5.311603271484375,0.006401198450475931,-0.010200980119407177,0.010581637732684612
1686343715726623200,5.321623291015625,0.004255755804479122,-0.010701920837163925,0.019603895023465157
1686343715736643300,5.331643310546875,0.003942834213376045,-0.014415166340768337,0.024754449725151062
1686343715746662100,5.341662109375,0.0017766193486750126,-0.016667401418089867,0.02793719246983528
1686343715756682200,5.35168212890625,-0.0028183739632368088,-0.016889607533812523,0.025435026735067368
1686343715766702000,5.3617021484375,0.00035158684477210045,-0.012195254676043987,0.009921845048666
1686343715776722200,5.37172216796875,-0.0005569709464907646,-0.014218952506780624,-0.010344615206122398
1686343715786741200,5.3817412109375,0.004835663828998804,-0.010034328326582909,-0.016945259645581245
1686343715796761300,5.39176123046875,0.006609632633626461,-0.004461443051695824,-0.026438981294631958
1686343715806781200,5.40178125,0.0029800101183354855,-0.006034572143107653,-0.03154825419187546
1686343715816801300,5.41180126953125,0.005022129509598017,-0.010080123320221901,-0.028626717627048492
1686343715826820000,5.421820068359375,0.003637019544839859,-0.01320241391658783,-0.03215327858924866
1686343715836840200,5.431840087890625,0.0036840762477368116,-0.01714332401752472,-0.034459188580513
1686343715846860300,5.4418603515625,0.002239311346784234,-0.020864026620984077,-0.04419490694999695
1686343715856880000,5.451880126953125,-0.00904522743076086,-0.02844667062163353,-0.050981342792510986
1686343715866900200,5.461900146484375,-0.014389925636351109,-0.03779010474681854,-0.05974021181464195
1686343715876919300,5.471919189453125,-0.019804492592811584,-0.05718796327710152,-0.06468793749809265
1686343715886939400,5.481939453125,-0.030289359390735626,-0.07903707027435303,-0.0725724920630455
1686343715896959200,5.491959228515625,-0.04038381204009056,-0.10434674471616745,-0.08611897379159927
1686343715906979300,5.501979248046875,-0.040696464478969574,-0.14492718875408173,-0.08526036888360977
1686343715916998100,5.511998046875,-0.04302569106221199,-0.22948528826236725,-0.058931607753038406
1686343715927018200,5.522018310546875,-0.06396079808473587,-0.3606129586696625,0.0038774479180574417
1686343715937038000,5.5320380859375,-0.06545183062553406,-0.5154938101768494,0.05439789220690727
1686343715947058200,5.54205810546875,-0.06325099617242813,-0.6362181305885315,0.07181975990533829
1686343715957077200,5.5520771484375,-0.046215131878852844,-0.7111347317695618,0.031189311295747757
1686343715967097300,5.562097412109375,-0.008487194776535034,-0.6974322199821472,-0.03196462243795395
1686343715977117200,5.5721171875,0.02424025535583496,-0.6552833914756775,-0.08801278471946716
1686343715987137300,5.58213720703125,0.04545872285962105,-0.5589307546615601,-0.13520851731300354
1686343715997157000,5.5921572265625,0.053001660853624344,-0.3608999252319336,-0.13361065089702606
1686343716007176200,5.60217626953125,0.07274287194013596,-0.2956215739250183,-0.10757718980312347
1686343716017196300,5.6121962890625,0.08490929007530212,-0.19525666534900665,-0.10666035115718842
1686343716027216100,5.622216064453125,0.09934815019369125,-0.0866236537694931,-0.1170101910829544
1686343716037236200,5.632236328125,0.08913088589906693,-0.03397759050130844,-0.13785187900066376
1686343716047255300,5.64225537109375,0.032094500958919525,-0.07589015364646912,-0.17461548745632172
1686343716057275400,5.652275390625,-0.022087793797254562,-0.2518182396888733,-0.2963322401046753
1686343716067295200,5.662295166015625,0.0013400358147919178,-0.241979718208313,-0.4414454996585846
1686343716077315300,5.6723154296875,0.05917275324463844,-0.16041748225688934,-0.5289830565452576
1686343716087334100,5.682334228515625,0.09908874332904816,-0.07514411956071854,-0.5285857319831848
1686343716097354200,5.692354248046875,0.12047655135393143,-0.0271901898086071,-0.4687676727771759
1686343716107374000,5.7023740234375,0.14539813995361328,0.001110689016059041,-0.3927312195301056
1686343716117394200,5.712394287109375,0.1887376457452774,0.027976591140031815,-0.32948946952819824
1686343716127414300,5.722414306640625,0.23340950906276703,0.07765066623687744,-0.2648699879646301
1686343716137433300,5.732433349609375,0.266022652387619,0.12042990326881409,-0.18838033080101013
1686343716147453200,5.742453125,0.27988919615745544,0.13813085854053497,-0.13074739277362823
1686343716157473300,5.752473388671875,0.2860172390937805,0.11273584514856339,-0.07674247026443481
1686343716167493000,5.7624931640625,0.27968212962150574,0.08195822685956955,-0.036778002977371216
1686343716177512200,5.77251220703125,0.2658207416534424,0.04725877195596695,0.0007824872154742479
1686343716187532300,5.7825322265625,0.25581392645835876,0.013971390202641487,0.05592057481408119
1686343716197552000,5.79255224609375,0.24949100613594055,-0.023424990475177765,0.12064874172210693
1686343716207572200,5.802572265625,0.2414783537387848,-0.05865514650940895,0.190242737531662
1686343716217591300,5.81259130859375,0.24055354297161102,-0.08391847461462021,0.24404855072498322
1686343716227611400,5.822611328125,0.24637041985988617,-0.08761148154735565,0.28176742792129517
1686343716237631200,5.83263134765625,0.24313199520111084,-0.08859284967184067,0.3114699721336365
1686343716247651000,5.842651123046875,0.23973913490772247,-0.09047996252775192,0.3292151391506195
1686343716257671200,5.852671142578125,0.23472504317760468,-0.08959614485502243,0.3375447988510132
1686343716267690200,5.862690185546875,0.22571903467178345,-0.09485801309347153,0.32733476161956787
1686343716277710000,5.8727099609375,0.2082369476556778,-0.0860811099410057,0.3035545349121094
1686343716287730200,5.882730224609375,0.18862409889698029,-0.08817755430936813,0.278107225894928
1686343716297750300,5.892750244140625,0.16093844175338745,-0.10419464856386185,0.2496003955602646
1686343716307769300,5.902769287109375,0.13263437151908875,-0.09961693733930588,0.20544520020484924
1686343716317789400,5.91278955078125,0.1107858270406723,-0.0761813148856163,0.16591115295886993
1686343716327809300,5.922809326171875,0.08937720954418182,-0.045992251485586166,0.12078949064016342
1686343716337829000,5.9328291015625,0.0713811069726944,-0.012335195206105709,0.09383438527584076
1686343716347848200,5.94284814453125,0.059568651020526886,0.02030690386891365,0.06617319583892822
1686343716357868300,5.952868408203125,0.05251830071210861,0.042621780186891556,0.04662254452705383
1686343716367888100,5.96288818359375,0.06438641250133514,0.04493074119091034,0.026660822331905365
1686343716377908200,5.972908203125,0.08362048864364624,0.036804813891649246,0.021687086671590805
1686343716387928300,5.98292822265625,0.09650886058807373,-0.024219390004873276,0.0012380043044686317
1686343716397947400,5.992947509765625,0.09273402392864227,-0.050764888525009155,-0.0631117895245552
1686343716407967200,6.00296728515625,0.07773563265800476,-0.04824686795473099,-0.14029046893119812
1686343716417987000,6.012987060546875,0.0650724247097969,0.0032862485386431217,-0.19844429194927216
1686343716428007200,6.023007080078125,0.047621533274650574,0.06471046060323715,-0.2155521661043167
1686343716438026200,6.033026123046875,0.03349469229578972,0.09526696056127548,-0.1906374841928482
1686343716448046000,6.043046142578125,0.009690027683973312,0.11525744944810867,-0.1276598423719406
1686343716458066200,6.053066162109375,-0.02124062366783619,0.12800465524196625,-0.0492439791560173
1686343716468086300,6.063086181640625,-0.06202826648950577,0.12948857247829437,0.019354255869984627
1686343716478105300,6.073105224609375,-0.08995289355516434,0.10831495374441147,0.04276547580957413
1686343716488125400,6.08312548828125,-0.11492269486188889,0.08288522809743881,0.02653084509074688
1686343716498145000,6.09314501953125,-0.15226344764232635,0.06171460077166557,-0.005661498289555311
1686343716508165000,6.1031650390625,-0.19825385510921478,0.07083885371685028,-0.04976211115717888
1686343716518185200,6.113185302734375,-0.2464708834886551,0.10505083948373795,-0.07967589050531387
1686343716528204300,6.123204345703125,-0.2929462194442749,0.13828203082084656,-0.09103107452392578
1686343716538224000,6.13322412109375,-0.31678807735443115,0.16861289739608765,-0.09178686141967773
1686343716548244200,6.143244140625,-0.31804296374320984,0.19642429053783417,-0.09080308675765991
1686343716558264300,6.153264404296875,-0.30008774995803833,0.2224644273519516,-0.08010825514793396
1686343716568283400,6.163283447265625,-0.2869226634502411,0.2540074288845062,-0.06211433559656143
1686343716578303000,6.173302978515625,-0.26646631956100464,0.2751859128475189,-0.0349414199590683
1686343716588323000,6.183322998046875,-0.2501020133495331,0.27815374732017517,-0.017469488084316254
1686343716598343200,6.19334326171875,-0.24346923828125,0.2718670070171356,0.005479220300912857
1686343716608363300,6.20336328125,-0.24083350598812103,0.25762468576431274,0.01585170067846775
1686343716618382300,6.21338232421875,-0.2438415139913559,0.23483261466026306,0.032971881330013275
1686343716628402200,6.223402099609375,-0.24495579302310944,0.2157934010028839,0.047599293291568756
1686343716638422300,6.23342236328125,-0.245061457157135,0.21100792288780212,0.06677849590778351
1686343716648442400,6.2434423828125,-0.2428228110074997,0.20346558094024658,0.10629475116729736
1686343716658461400,6.25346142578125,-0.23765279352664948,0.19642585515975952,0.14883986115455627
1686343716668481000,6.26348095703125,-0.22801773250102997,0.18947741389274597,0.18006755411624908
1686343716678501000,6.273501220703125,-0.21122337877750397,0.17433731257915497,0.1990322321653366
1686343716688521200,6.283521240234375,-0.17768752574920654,0.14831742644309998,0.201900452375412
1686343716698541000,6.293541015625,-0.1437457799911499,0.1276109665632248,0.19691354036331177
1686343716708560000,6.303559814453125,-0.1186622753739357,0.12182844430208206,0.19437874853610992
1686343716718580000,6.313580078125,-0.09995947778224945,0.11964162439107895,0.2007678896188736
1686343716728600000,6.32360009765625,-0.07814845442771912,0.13318325579166412,0.19966773688793182
1686343716738620200,6.3336201171875,-0.05539559945464134,0.14860503375530243,0.2019898146390915
1686343716748639000,6.343638916015625,-0.038201168179512024,0.14644068479537964,0.22148548066616058
1686343716758658800,6.353658935546875,-0.05177707225084305,0.07442332804203033,0.19437186419963837
1686343716768679000,6.363678955078125,-0.06059000641107559,0.11911915987730026,0.15023130178451538
1686343716778699000,6.373698974609375,-0.0576157383620739,0.1462121158838272,0.1043541356921196
1686343716788718800,6.38371875,-0.05938221141695976,0.19361905753612518,0.07551369816064835
1686343716798738000,6.393738037109375,-0.06796355545520782,0.22524672746658325,0.059373147785663605
1686343716808758000,6.403758056640625,-0.09381885826587677,0.21707534790039062,0.05686578154563904
1686343716818778000,6.413778076171875,-0.11067476868629456,0.22349980473518372,0.0758582130074501
1686343716828798000,6.4237978515625,-0.14343485236167908,0.22751851379871368,0.10382193326950073
1686343716838816800,6.433816650390625,-0.15423542261123657,0.2231277972459793,0.1282118558883667
1686343716848836900,6.4438369140625,-0.13418182730674744,0.1998927742242813,0.13420715928077698
1686343716858857000,6.45385693359375,-0.10752891004085541,0.1607038676738739,0.12564007937908173
1686343716868877000,6.463876953125,-0.08399882167577744,0.1328788846731186,0.115007683634758
1686343716878895900,6.473895751953125,-0.07283055782318115,0.10992772877216339,0.12036667764186859
1686343716888916000,6.483916015625,-0.07112373411655426,0.10679132491350174,0.14081494510173798
1686343716898936000,6.49393603515625,-0.07929970324039459,0.10073056071996689,0.15739618241786957
1686343716908956200,6.5039560546875,-0.08090692013502121,0.1106383204460144,0.15913335978984833
1686343716918976000,6.51397607421875,-0.0755867138504982,0.10913208872079849,0.1484575867652893
1686343716928994800,6.523994873046875,-0.06242483854293823,0.11102026700973511,0.11820169538259506
1686343716939015000,6.534014892578125,-0.06113458424806595,0.12229128926992416,0.07364331930875778
1686343716949035000,6.544034912109375,-0.05565433204174042,0.15217435359954834,0.04733314737677574
1686343716959054800,6.554054931640625,-0.04632438346743584,0.17227786779403687,0.03442801907658577
1686343716969075000,6.564074951171875,-0.04651613160967827,0.18820729851722717,0.008785770274698734
1686343716979094000,6.574093994140625,-0.048720505088567734,0.16585654020309448,-0.003877928014844656
1686343716989114000,6.584114013671875,-0.03920396417379379,0.1320202797651291,0.02068520523607731
1686343716999134000,6.594134033203125,-0.04310103505849838,0.11492941528558731,0.047815658152103424
1686343717009154000,6.604154052734375,-0.04604595899581909,0.08681789040565491,0.06855342537164688
1686343717019172900,6.6141728515625,-0.04076904058456421,0.07988174259662628,0.07104821503162384
1686343717029193000,6.62419287109375,-0.03204479068517685,0.06200633943080902,0.057832006365060806
1686343717039213000,6.634213134765625,-0.01104683242738247,0.04889453202486038,0.027724705636501312
1686343717049233000,6.64423291015625,-0.006317589897662401,0.0420888215303421,-0.00020466349087655544
1686343717059253000,6.6542529296875,-0.014968117699027061,0.0408218614757061,-0.009713797830045223
1686343717069272000,6.66427197265625,-0.018048595637083054,0.05961685627698898,-0.016476629301905632
1686343717079292200,6.674292236328125,-0.029543550685048103,0.0779256522655487,-0.031602002680301666
1686343717089312000,6.68431201171875,-0.029154198244214058,0.05248580873012543,-0.03352853283286095
1686343717099331800,6.694331787109375,-0.011545466259121895,0.014661620371043682,-0.020519539713859558
1686343717109351000,6.704350830078125,-0.0020776637829840183,-0.012814744375646114,-0.01012016087770462
1686343717119371000,6.71437109375,0.005932812578976154,-0.03470788896083832,-0.00856013223528862
1686343717129390800,6.724390869140625,0.009864171035587788,-0.040656059980392456,-0.010953781194984913
1686343717139411000,6.734410888671875,0.009611379355192184,-0.03670097142457962,-0.021018583327531815
1686343717149431000,6.74443115234375,0.0163132231682539,-0.02864118292927742,-0.031859781593084335
1686343717159450000,6.7544501953125,0.01745939627289772,-0.026066860184073448,-0.050682567059993744
1686343717169470000,6.764469970703125,0.022242963314056396,-0.02348625659942627,-0.05968431755900383
1686343717179489800,6.77448974609375,0.024771738797426224,-0.021379977464675903,-0.08402333408594131
1686343717189510000,6.784510009765625,0.025276673957705498,-0.018149830400943756,-0.0976904109120369
1686343717199530000,6.794530029296875,0.027567625045776367,-0.01881749927997589,-0.11297573149204254
1686343717209549000,6.804549072265625,0.026236576959490776,-0.006525413133203983,-0.1074555367231369
1686343717219569000,6.81456884765625,0.021241111680865288,-0.006861841306090355,-0.09377157688140869
1686343717229589000,6.824589111328125,0.012719528749585152,-0.007173431105911732,-0.07443410158157349
1686343717239609000,6.834609130859375,0.007564739789813757,-0.0034556679893285036,-0.052125103771686554
1686343717249628200,6.844628173828125,-0.0005571027286350727,-0.0036759115755558014,-0.03326113522052765
1686343717259648000,6.85464794921875,-0.0038154497742652893,0.0006569477263838053,-0.017937971279025078
1686343717269667800,6.864667724609375,-0.005902568809688091,0.004067125264555216,-0.017697753384709358
1686343717279688000,6.87468798828125,-0.004381600767374039,0.008512694388628006,-0.020449412986636162
1686343717289707800,6.884707763671875,-0.006291087716817856,0.022396018728613853,-0.025325395166873932
1686343717299726800,6.894726806640625,-0.008162738755345345,0.029879702255129814,-0.033246252685785294
1686343717309747000,6.904746826171875,-0.0012276009656488895,0.029944682493805885,-0.04394150897860527
1686343717319767000,6.91476708984375,0.0016696141101419926,0.02687925286591053,-0.04934808611869812
1686343717329787100,6.924787109375,0.004290697164833546,0.025709860026836395,-0.04752408713102341
1686343717339807000,6.934806884765625,0.0008444390259683132,0.017133796587586403,-0.026561038568615913
1686343717349825800,6.94482568359375,-0.0014091283082962036,0.008680657483637333,-0.001894041197374463
1686343717359846000,6.954845947265625,0.001147718634456396,0.0019291243515908718,0.015916550531983376
1686343717369866000,6.964865966796875,0.0004433123394846916,0.00246015889570117,0.026435237377882004
1686343717379885800,6.9748857421875,0.003392561338841915,0.008093041367828846,0.017562350258231163
1686343717389906000,6.984906005859375,0.0031084020156413317,0.020629871636629105,0.0008337029721587896
1686343717399925000,6.994925048828125,0.005931774619966745,0.03479057177901268,-0.01704384759068489
1686343717409945000,7.004945068359375,0.006560280919075012,0.04501950740814209,-0.0339067168533802
1686343717419965000,7.01496484375,0.008920419961214066,0.04394075646996498,-0.03347976133227348
1686343717429985000,7.024985107421875,0.007813078351318836,0.033983197063207626,-0.03333967924118042
1686343717440005000,7.035005126953125,0.010441984981298447,0.03595684841275215,-0.024317540228366852
1686343717450024000,7.04502392578125,0.006248038727790117,0.03974493220448494,-0.024325795471668243
1686343717460044000,7.0550439453125,0.010264433920383453,0.038237545639276505,-0.017296232283115387
1686343717470063900,7.06506396484375,0.009185055270791054,0.028368404135107994,-0.015278356149792671
1686343717480084000,7.075083984375,0.006311265751719475,0.02278924733400345,-0.0095497602596879
1686343717490103000,7.08510302734375,0.003939720802009106,0.02254876308143139,-0.009907688945531845
1686343717500123100,7.095123046875,-0.0028950804844498634,0.030827613547444344,-0.014264141209423542
1686343717510143000,7.10514306640625,-0.0034980205819010735,0.03813213109970093,-0.013144015334546566
1686343717520163000,7.1151630859375,0.0019252048805356026,0.04287562146782875,-0.012567803263664246
1686343717530183200,7.12518310546875,0.002253039972856641,0.04270784184336662,-0.013111621141433716
1686343717540202000,7.135201904296875,0.0012689931318163872,0.03885756433010101,-0.0037150592543184757
1686343717550221800,7.145221923828125,0.007642203941941261,0.024563048034906387,-0.0035438179038465023
1686343717560242000,7.155241943359375,0.003007348161190748,0.008650258183479309,-0.00022097304463386536
1686343717570262000,7.165261962890625,0.00008825724944472313,-0.00046228012070059776,0.0007606681901961565
1686343717580281900,7.17528173828125,-0.000344966072589159,0.0046587977558374405,0.0013266026508063078
1686343717590301000,7.185301025390625,-0.00972302071750164,0.010352369397878647,0.0014922511763870716
1686343717600321000,7.195321044921875,-0.00761748943477869,0.016073858365416527,0.001287104794755578
1686343717610341000,7.205341064453125,-0.004357513971626759,0.020801236853003502,-0.010441455990076065
1686343717620361000,7.21536083984375,0.0008785543031990528,0.02343864180147648,-0.027126377448439598
1686343717630380800,7.225380859375,0.006674391683191061,0.03300232067704201,-0.03955135494470596
1686343717640400000,7.23539990234375,0.009314008057117462,0.03207523375749588,-0.05060287192463875
1686343717650420000,7.245419921875,0.01219181902706623,0.02160714566707611,-0.06186777725815773
1686343717660440000,7.255440185546875,0.019152715802192688,0.015845755115151405,-0.0687529519200325
1686343717670460000,7.2654599609375,0.02248299866914749,0.010900530964136124,-0.0680360272526741
1686343717680480000,7.27547998046875,0.02348259463906288,0.009919817559421062,-0.06928902119398117
1686343717690499000,7.2854990234375,0.02064632624387741,0.012708679772913456,-0.06759072095155716
1686343717700519000,7.295518798828125,0.017004212364554405,0.0063088275492191315,-0.0663667693734169
1686343717710540000,7.3055400390625,0.01306300051510334,0.007548796012997627,-0.05174468830227852
1686343717720560000,7.31556005859375,0.010476743802428246,0.01200565043836832,-0.04408824443817139
1686343717730580000,7.325580078125,0.005374127067625523,0.0188441164791584,-0.023188557475805283
1686343717740599000,7.33559912109375,0.005458788014948368,0.020782021805644035,-0.017528057098388672
1686343717750619000,7.345618896484375,0.010771794244647026,0.018307147547602654,-0.016219647601246834
1686343717760639000,7.355638916015625,0.01586061343550682,0.020367614924907684,-0.024253414943814278
1686343717770659000,7.3656591796875,0.02031048759818077,0.017917506396770477,-0.045844193547964096
1686343717780678100,7.37567822265625,0.026897408068180084,-0.0010544966207817197,-0.05491707846522331
1686343717790698000,7.385697998046875,0.029805846512317657,-0.01745504140853882,-0.06248072162270546
1686343717800718000,7.395718017578125,0.031550172716379166,-0.029422765597701073,-0.06548020243644714
1686343717810738000,7.405738037109375,0.030097683891654015,-0.03391551598906517,-0.06416167318820953
1686343717820757800,7.4157578125,0.026142578572034836,-0.030527541413903236,-0.0655905082821846
1686343717830776800,7.42577685546875,0.021061532199382782,-0.015543265268206596,-0.06040400639176369
1686343717840797000,7.435796875,0.01770792528986931,-0.006673479452729225,-0.057822585105895996
1686343717850817000,7.445817138671875,0.011321131139993668,0.003122691996395588,-0.06217099353671074
1686343717860836900,7.4558369140625,0.004607858136296272,0.005459608044475317,-0.06365787237882614
1686343717870857000,7.46585693359375,0.005453677847981453,0.003518695943057537,-0.07075653225183487
1686343717880876000,7.4758759765625,0.010500160977244377,0.008452706970274448,-0.07376784831285477
1686343717890896100,7.485896240234375,0.00868495088070631,0.010135292075574398,-0.06492854654788971
1686343717900916000,7.495916015625,0.00609413580968976,0.015511040575802326,-0.04312846064567566
1686343717910935800,7.505935791015625,0.0012059039436280727,0.018709231168031693,-0.019107813015580177
1686343717920956000,7.515955810546875,-0.006052498240023851,0.015668977051973343,-0.0018415100639685988
1686343717930975000,7.52597509765625,-0.009837117046117783,0.018371552228927612,0.013917746022343636
1686343717940995000,7.5359951171875,-0.014187957160174847,0.03403719887137413,0.01574883796274662
1686343717951015000,7.546014892578125,-0.01856645941734314,0.04343602806329727,0.019276460632681847
1686343717961035000,7.556034912109375,-0.020249053835868835,0.04703114926815033,0.023013541474938393
1686343717971055000,7.56605517578125,-0.01864955946803093,0.05077821761369705,0.024033531546592712
1686343717981074000,7.576073974609375,-0.016953356564044952,0.060306694358587265,0.03503895923495293
1686343717991093800,7.58609375,-0.01711687445640564,0.07573918253183365,0.03904275596141815
1686343718001113900,7.59611376953125,-0.020253986120224,0.08450587838888168,0.05393916368484497
1686343718011134000,7.606134033203125,-0.01792238838970661,0.0776493102312088,0.05593626946210861
1686343718021154000,7.616154052734375,-0.010794823057949543,0.06396393477916718,0.05660519003868103
1686343718031172900,7.6261728515625,-0.009616374038159847,0.06295912712812424,0.06572731584310532
1686343718041193000,7.63619287109375,-0.016768036410212517,0.0695124939084053,0.06762335449457169
1686343718051213000,7.646213134765625,-0.01588386669754982,0.0856400653719902,0.08052849769592285
1686343718061233200,7.656233154296875,-0.00874193012714386,0.0864621177315712,0.09566037356853485
1686343718071252000,7.666251953125,-0.0059690470807254314,0.06090934947133064,0.10506346821784973
1686343718081271800,7.676271728515625,-0.006226786412298679,0.046347878873348236,0.09874708205461502
1686343718091292000,7.6862919921875,-0.009053465910255909,0.05141560733318329,0.08275213837623596
1686343718101312000,7.69631201171875,-0.01449788548052311,0.030841168016195297,0.054496731609106064
1686343718111331800,7.706331787109375,-0.011180650442838669,-0.0816720575094223,0.032295286655426025
1686343718121351000,7.716350830078125,-0.0003980640321969986,-0.12607727944850922,0.039132509380578995
1686343718131371000,7.72637109375,-0.010586253367364407,-0.0641808807849884,0.027032170444726944
1686343718141391000,7.73639111328125,-0.0036654318682849407,-0.009451293386518955,0.004508718848228455
1686343718151411000,7.746410888671875,0.0005085403099656105,0.015484414994716644,-0.00430581159889698
1686343718161431000,7.75643115234375,-0.006001041270792484,-0.017407242208719254,-0.011422581039369106
1686343718171449900,7.766449951171875,0.009780851192772388,-0.0486019141972065,-0.015045012347400188
1686343718181470000,7.776469970703125,0.004884675145149231,-0.02508290857076645,-0.033403728157281876
1686343718191490000,7.786489990234375,0.001151988748461008,0.001296501373872161,-0.05372284725308418
1686343718201510000,7.796510009765625,-0.0008179331198334694,0.01169607788324356,-0.058882009238004684
1686343718211529000,7.806529052734375,-0.0024371352046728134,0.01037035696208477,-0.04483436793088913
1686343718221549000,7.816549072265625,0.0010949233546853065,0.007492437027394772,-0.026233000680804253
1686343718231569200,7.826569091796875,-0.009036540053784847,0.013939417898654938,-0.009395165368914604
1686343718241589000,7.836589111328125,-0.008391376584768295,0.01394234225153923,0.009625512175261974
1686343718251608800,7.84660888671875,-0.005862971767783165,0.00936143845319748,0.01805628091096878
1686343718261628000,7.8566279296875,-0.0043445187620818615,-0.005635851062834263,0.02418353408575058
1686343718271648000,7.86664794921875,-0.005647869314998388,-0.014427478425204754,0.02262638323009014
1686343718281667800,7.876667724609375,-0.0031644171103835106,-0.011385994963347912,0.01684928499162197
1686343718291688000,7.88668798828125,-0.003445114940404892,-0.004458313807845116,0.009364472702145576
1686343718301708000,7.8967080078125,0.0012317798100411892,-0.006759366020560265,0.007197790779173374
1686343718311727000,7.90672705078125,0.0012988918460905552,0.0023369272239506245,0.004966328851878643
1686343718321747000,7.916746826171875,0.00011883815750479698,0.006943339016288519,0.0013563649263232946
1686343718331767000,7.92676708984375,0.0008205813355743885,0.004819734953343868,0.008763947524130344
1686343718341787000,7.936786865234375,0.0015007699839770794,-0.013169186189770699,0.017209546640515327
1686343718351806000,7.946805908203125,0.002348188078030944,-0.010890052653849125,0.018865766003727913
1686343718361826000,7.956825927734375,-0.0019802656024694443,-0.007625749334692955,0.01328013651072979
1686343718371846000,7.966845947265625,0.0011710533872246742,-0.0019963597878813744,0.0016676883678883314
1686343718381866000,7.976865966796875,-0.0032909722067415714,0.0001970045268535614,-0.004653174430131912
1686343718391886000,7.986885986328125,-0.00928548164665699,-0.017187844961881638,-0.005491004325449467
1686343718401905200,7.9969052734375,-0.009083880111575127,-0.041909437626600266,0.009477024897933006
1686343718411925000,8.006925048828125,-0.02059006690979004,-0.08417966216802597,0.018129637464880943
1686343718421944800,8.01694482421875,-0.023398885503411293,-0.1387055516242981,0.032481059432029724
1686343718431965000,8.02696484375,-0.014373166486620903,-0.12763932347297668,0.06594528257846832
1686343718441984000,8.03698388671875,-0.021998420357704163,-0.05308503285050392,0.06157714128494263
1686343718452003800,8.04700390625,-0.010155078023672104,-0.02610800974071026,0.02555868960916996
1686343718462024000,8.05702392578125,0.008581812493503094,-0.023757513612508774,-0.0037264584098011255
1686343718472044000,8.0670439453125,0.00775942811742425,-0.024001458659768105,-0.01259158831089735
1686343718482064100,8.077064208984375,0.008602126501500607,-0.018256135284900665,-0.023823458701372147
1686343718492083200,8.087083251953125,0.009817326441407204,-0.01702016219496727,-0.030426766723394394
1686343718502102800,8.097102783203125,0.01280253753066063,-0.012333890423178673,-0.023942135274410248
1686343718512123000,8.107122802734375,0.0045488690957427025,-0.01634381152689457,-0.024537350982427597
1686343718522143000,8.11714306640625,0.007570298388600349,-0.03697061911225319,-0.024461351335048676
1686343718532162000,8.127162109375,0.007469098083674908,-0.05695151910185814,-0.012522133067250252
1686343718542182000,8.137181884765624,0.003394010942429304,-0.07837393134832382,-0.0011813575401902199
1686343718552202000,8.147201904296875,0.002098382916301489,-0.09290839731693268,0.009283533319830894
1686343718562222000,8.15722216796875,0.0028561637736856937,-0.09311049431562424,0.010206781327724457
1686343718572242000,8.167241943359375,0.002223130315542221,-0.08833091706037521,0.010539676994085312
1686343718582260700,8.1772607421875,-0.0032077161595225334,-0.06911148130893707,0.013301441445946693
1686343718592280800,8.18728076171875,0.002850442659109831,-0.01945231482386589,0.01779898814857006
1686343718602301000,8.197301025390624,-0.00689483480527997,0.04115758091211319,0.0031551134306937456
1686343718612321000,8.207321044921875,0.0002823839895427227,0.030641287565231323,-0.012425177730619907
1686343718622339800,8.21733984375,0.0012238756753504276,0.027472689747810364,-0.01929163932800293
1686343718632360000,8.22735986328125,-0.009096140041947365,0.025843635201454163,-0.02097662165760994
1686343718642380000,8.237380126953125,-0.009259292855858803,0.03467448428273201,-0.006571076810359955
1686343718652400000,8.247400146484376,-0.012026051059365273,0.03442920744419098,-0.01315787248313427
1686343718662419200,8.257419189453126,-0.002329842187464237,0.03324434906244278,-0.015418021939694881
1686343718672438800,8.267438720703124,-0.003879268653690815,0.024538744240999222,-0.0177147313952446
1686343718682459000,8.277458984375,-0.0001514269970357418,0.003401434049010277,-0.015014566481113434
1686343718692479000,8.28747900390625,0.010859412141144276,-0.007932713255286217,-0.004431697074323893
1686343718702498800,8.297498779296875,0.008831709623336792,-0.005948316305875778,0.0023154704831540585
1686343718712518000,8.307517822265625,0.010248777456581593,-0.013319413177669048,0.00847722589969635
1686343718722538000,8.3175380859375,0.01149227935820818,-0.008883832022547722,0.010356100276112556
1686343718732558000,8.32755810546875,0.004322250839322805,0.001881730742752552,0.005575193557888269
1686343718742578000,8.337577880859374,0.00957412552088499,-0.0005787590052932501,0.01316242478787899
1686343718752597000,8.347596923828124,0.006036914885044098,0.03291928023099899,0.02290373481810093
1686343718762617000,8.3576171875,-0.00646075839176774,0.03664545342326164,0.028442446142435074
1686343718772637000,8.367636962890625,0.0058457087725400925,0.01821904070675373,0.037718236446380615
1686343718782657000,8.377656982421875,-0.0029809260740876198,0.028108950704336166,0.040288832038640976
1686343718792676000,8.387676025390626,-0.005774848163127899,0.017393454909324646,0.03291906416416168
1686343718802696000,8.397696044921876,0.004124489612877369,0.012210395187139511,0.031700022518634796
1686343718812716000,8.407716064453124,0.007346647791564465,0.00786811113357544,0.033247850835323334
1686343718822736100,8.417736083984375,0.0064981007017195225,0.015116672962903976,0.0365494042634964
1686343718832755200,8.427755126953125,0.0009699109941720963,0.01077651884406805,0.04166373610496521
1686343718842775000,8.437775146484375,0.0023188558407127857,-0.00574957299977541,0.043160535395145416
1686343718852795100,8.447795166015625,-0.003983248025178909,-0.002366559347137809,0.04295094311237335
1686343718862815000,8.45781494140625,-0.002889762632548809,-0.012551343068480492,0.030350416898727417
1686343718872834000,8.467833984375,0.0005297362804412842,-0.008328101597726345,0.028191126883029938
1686343718882854000,8.47785400390625,0.005926420912146568,0.0010205458384007215,0.025668678805232048
1686343718892874000,8.4878740234375,0.003611867781728506,-0.00036509684287011623,0.013049289584159851
1686343718902894000,8.49789404296875,0.0033992361277341843,-0.014199192635715008,0.008379507809877396
1686343718912913200,8.5079130859375,0.004821364302188158,-0.02368910051882267,0.015791617333889008
1686343718922933000,8.51793310546875,0.008478252217173576,-0.036092523485422134,0.026371972635388374
1686343718932953000,8.527953125,0.009741655550897121,-0.033268507570028305,0.031026111915707588
1686343718942973000,8.537972900390624,-0.0016542705707252026,-0.030031820759177208,0.032303500920534134
1686343718952992000,8.547991943359374,-0.005784833803772926,-0.011836038902401924,0.03364307060837746
1686343718963012000,8.55801220703125,-0.0037968833930790424,-0.0028656991198658943,0.034282077103853226
1686343718973032000,8.568031982421875,-0.005687994416803122,-0.002540793502703309,0.032290033996105194
1686343718983052000,8.578052001953125,0.0014734109863638878,-0.0024417086970061064,0.017791103571653366
1686343718993071000,8.588071044921875,0.004909154959022999,0.0018300018273293972,0.0012579336762428284
1686343719003091200,8.59809130859375,0.0019307155162096024,0.00592873664572835,-0.013137156143784523
1686343719013111000,8.608111083984374,0.002391974674537778,0.007887225598096848,-0.02257087267935276
1686343719023131000,8.618130859375,0.008166883140802383,0.006196512375026941,-0.031950242817401886
1686343719033150000,8.62814990234375,0.005410511512309313,0.011246664449572563,-0.02782553806900978
1686343719043170000,8.638170166015625,0.0044279880821704865,0.02288675867021084,-0.021748440340161324
1686343719053190000,8.64818994140625,-0.001232826616615057,0.03196227550506592,-0.003416304010897875
1686343719063210000,8.6582099609375,-0.0049612331204116344,0.030846966430544853,0.019716182723641396
1686343719073229000,8.66822900390625,-0.007948501035571098,0.02270515076816082,0.04428837075829506
1686343719083249200,8.678249267578124,-0.011279532685875893,0.009782140143215656,0.055687155574560165
1686343719093269000,8.68826904296875,-0.01463591493666172,0.005497646518051624,0.04907479137182236
1686343719103288800,8.698288818359375,-0.019176986068487167,0.007103524170815945,0.043084390461444855
1686343719113308000,8.708307861328125,-0.016227535903453827,0.019637959077954292,0.026071850210428238
1686343719123328000,8.718327880859375,-0.006927555426955223,0.03351159766316414,0.020200060680508614
1686343719133348000,8.72834814453125,-0.0068346112966537476,0.035542793571949005,0.005921255797147751
1686343719143368000,8.738367919921876,-0.006988855078816414,0.03224445879459381,0.002304986584931612
1686343719153387000,8.748386962890624,-0.003247113898396492,0.02134573645889759,0.007306935731321573
1686343719163407000,8.758406982421874,-0.007272007409483194,0.006158643402159214,0.014116542413830757
1686343719173427200,8.76842724609375,-0.004644532222300768,0.0003913016989827156,0.013334373012185097
1686343719183447000,8.778447021484375,-0.0006322842091321945,0.00007385364733636379,0.016104666516184807
1686343719193465900,8.7884658203125,-0.000773431733250618,-0.003795719239860773,0.02285631187260151
1686343719203486000,8.79848583984375,-0.003387635573744774,-0.002955501666292548,0.020215025171637535
1686343719213506000,8.808506103515626,-0.004893386736512184,-0.0038212952204048634,0.012869762256741524
1686343719223525000,8.818525146484374,-0.005276783835142851,-0.005556181073188782,-0.001736814621835947
1686343719233545000,8.828544921875,-0.009026514366269112,-0.0002527618780732155,-0.0027413589414209127
1686343719243565000,8.83856494140625,-0.007940475828945637,0.005473388358950615,0.0002680998295545578
1686343719253585200,8.848585205078125,-0.008485890924930573,0.001343890791758895,0.005471117794513702
1686343719263604000,8.85860400390625,-0.008162611164152622,0.004779469687491655,0.014060206711292267
1686343719273624000,8.8686240234375,-0.007497886195778847,0.009941741824150085,0.02214210294187069
1686343719283644000,8.878643798828126,-0.009087223559617996,0.012351322919130325,0.032922495156526566
1686343719293664000,8.8886640625,-0.009733307175338268,0.008764045313000679,0.03939158096909523
1686343719303683000,8.89868310546875,-0.011270666494965553,0.018475046381354332,0.03630014881491661
1686343719313703200,8.908703125,-0.008308964781463146,0.033603131771087646,0.02536121755838394
1686343719323723000,8.918722900390625,-0.01569497585296631,0.05245405435562134,0.023522570729255676
1686343719333743000,8.9287431640625,-0.022278310731053352,0.060860853642225266,0.02854422852396965
1686343719343762000,8.938761962890625,-0.026825767010450363,0.07148860394954681,0.030310949310660362
1686343719353782000,8.948781982421876,-0.028642043471336365,0.056325893849134445,0.044891491532325745
1686343719363801900,8.9588017578125,-0.02813190035521984,0.026267144829034805,0.0525357648730278
1686343719373821000,8.968821044921874,-0.023176822811365128,0.014435253106057644,0.0586266815662384
1686343719383841000,8.978841064453125,-0.022419219836592674,-0.007719880901277065,0.0592309832572937
1686343719393861000,8.988861083984375,-0.017065199092030525,-0.009924712590873241,0.05501813068985939
1686343719403881000,8.998880859375,-0.018807310611009598,0.0008939078543335199,0.03704145923256874
1686343719413899800,9.008899658203125,-0.004586563445627689,-0.0010557924397289753,0.019364194944500923
1686343719423919900,9.018919921875,0.0024885833263397217,0.02942817099392414,0.0036562371533364058
1686343719433940000,9.02893994140625,0.0003170417621731758,0.022936183959245682,-0.015137158334255219
1686343719443960000,9.0389599609375,0.013113200664520264,-0.000953465816564858,-0.027202576398849487
1686343719453979100,9.048979248046875,0.006158887874335051,-0.013624252751469612,-0.019847458228468895
1686343719463999000,9.0589990234375,0.0010169572196900845,-0.01864911988377571,-0.02052374929189682
1686343719474019000,9.06901904296875,0.0023144495207816362,-0.02159750834107399,-0.01432950422167778
1686343719484038100,9.0790380859375,0.0022549768909811974,-0.03710425645112991,-0.004678887315094471
1686343719494058000,9.08905810546875,0.007187684066593647,-0.037171900272369385,0.002011239994317293
1686343719504077800,9.099077880859374,0.0064546638168394566,-0.032079678028821945,-0.0009127979865297675
1686343719514098000,9.109097900390625,0.006400601472705603,-0.024923764169216156,-0.014553243294358253
1686343719524117000,9.119116943359375,0.006386496126651764,-0.02483014389872551,-0.023930897936224937
1686343719534137000,9.12913720703125,0.007241104729473591,-0.027079982683062553,-0.027206052094697952
1686343719544157000,9.139156982421875,0.007496960926800966,-0.023328829556703568,-0.027948375791311264
1686343719554177000,9.149177001953126,0.005544065032154322,-0.01905765011906624,-0.02756408229470253
1686343719564196000,9.159196044921876,0.003215959295630455,-0.022719182074069977,-0.02820323035120964
1686343719574216000,9.1692158203125,0.005828786641359329,-0.021139396354556084,-0.03499535471200943
1686343719584236000,9.179236083984375,0.002571029355749488,-0.01225273311138153,-0.03836571052670479
1686343719594254800,9.1892548828125,0.0013979068025946617,-0.0022648139856755733,-0.043942902237176895
1686343719604275000,9.19927490234375,0.008329056203365326,-0.011451243422925472,-0.04627729207277298
1686343719614295000,9.209294921875,0.006939419079571962,-0.021140355616807938,-0.03792029246687889
1686343719624315100,9.219315185546876,0.008281821385025978,-0.030985871329903603,-0.030979271978139877
1686343719634334200,9.229334228515626,0.005627449136227369,-0.045860424637794495,-0.029019450768828392
1686343719644354000,9.23935400390625,0.006770208012312651,-0.053821854293346405,-0.026163119822740555
1686343719654374100,9.2493740234375,0.003884939244017005,-0.06265662610530853,-0.024541521444916725
1686343719664393000,9.25939306640625,0.001485553104430437,-0.0711282268166542,-0.020361362025141716
1686343719674413000,9.2694130859375,0.00431462936103344,-0.07680261880159378,-0.029492542147636414
1686343719684433000,9.279432861328125,0.007177188992500305,-0.07258807867765427,-0.02930382452905178
1686343719694453000,9.289452880859375,0.004622152075171471,-0.039776336401700974,-0.019176889210939407
1686343719704472000,9.29947216796875,0.010113561525940895,-0.018686305731534958,-0.01854044198989868
1686343719714492200,9.3094921875,0.008234701119363308,-0.01605723425745964,-0.019455503672361374
1686343719724511700,9.31951171875,0.014859737828373909,-0.01487545296549797,-0.018899720162153244
1686343719734530800,9.32953076171875,0.017791878432035446,-0.0044579654932022095,-0.020161526277661324
1686343719744551000,9.339551025390625,0.019176233559846878,0.0026980473194271326,-0.030408518388867378
1686343719754571000,9.349571044921875,0.019875314086675644,-0.0067521799355745316,-0.027152804657816887
1686343719764591000,9.359591064453125,0.025805741548538208,-0.014409315772354603,-0.015976432710886
1686343719774610000,9.36960986328125,0.0224461629986763,-0.011535231955349445,-0.013067727908492088
1686343719784630000,9.379630126953124,0.01686127856373787,0.004834761843085289,-0.005326136015355587
1686343719794650000,9.389650146484374,0.009385517798364162,0.020220909267663956,0.0017972870264202356
1686343719804670000,9.399669921875,0.008838431909680367,0.023212796077132225,0.006730691529810429
1686343719814689000,9.40968896484375,0.0064402553252875805,0.02203194983303547,0.011530506424605846
1686343719824708900,9.419708984375,0.0028603605460375547,0.02533063292503357,0.0069894492626190186
1686343719834729000,9.42972900390625,0.0012129293754696846,0.032952070236206055,0.0035670215729624033
1686343719844748000,9.439748046875,-0.0016068010590970516,0.037759773433208466,0.0035290776286274195
1686343719854768000,9.44976806640625,0.0021919317077845335,0.03247472643852234,0.00559835322201252
1686343719864788000,9.4597880859375,0.004219738766551018,0.01644018664956093,0.013841914013028145
1686343719874808000,9.46980810546875,0.0024796295911073685,0.011485908180475235,0.015599068254232407
1686343719884827000,9.479826904296875,0.006071286741644144,0.0061295004561543465,0.019586505368351936
1686343719894847000,9.489846923828125,0.00266084261238575,0.00006468314677476883,0.017713770270347595
1686343719904866800,9.49986669921875,0.005736332852393389,-0.008838355541229248,0.008108116686344147
1686343719914886000,9.509885986328126,0.0074045369401574135,-0.013024045154452324,0.0019242565613240004
1686343719924906000,9.519906005859376,0.0020648627541959286,-0.0067293522879481316,-0.010391715914011002
1686343719934926000,9.529926025390624,-0.0017165597528219223,0.005411732941865921,-0.02380898781120777
1686343719944946200,9.5399462890625,0.004482501186430454,0.016336482018232346,-0.032053954899311066
1686343719954965000,9.549965087890625,0.00043928995728492737,0.010744111612439156,-0.0377453938126564
1686343719964984800,9.55998486328125,0.005257186479866505,-0.0032199835404753685,-0.03188302740454674
1686343719975005000,9.5700048828125,0.0036781984381377697,-0.010539415292441845,-0.027292272076010704
1686343719985024000,9.58002392578125,0.002295265207067132,-0.008797965943813324,-0.020243452861905098
1686343719995044000,9.590044189453126,-0.0014832275919616222,-0.0037198499776422977,-0.010361794382333755
1686343720005064000,9.60006396484375,-0.0087660551071167,0.011212234385311604,-0.002985750325024128
1686343720015084000,9.610083984375,-0.012056657113134861,0.018728474155068398,-0.002220890484750271
1686343720025102800,9.620102783203125,-0.012730062939226627,0.022465817630290985,-0.0019401743775233626
1686343720035123000,9.630123046875,-0.012756959535181522,0.022034119814634323,0.0019411167595535517
1686343720045142800,9.640142822265625,-0.011203199625015259,0.023970145732164383,0.0026094058994203806
1686343720055163000,9.650162841796876,-0.010073486715555191,0.02400556579232216,0.0010296187829226255
1686343720065182000,9.660181884765626,-0.01029152236878872,0.025945762172341347,-0.001629804028198123
1686343720075202000,9.6702021484375,-0.0102920550853014,0.02344372123479843,0.004044060595333576
1686343720085222000,9.680221923828125,-0.014868386089801788,0.018178218975663185,0.010805878788232803
1686343720095241000,9.690240966796875,-0.009508774615824223,0.020096493884921074,0.029456526041030884
1686343720105260800,9.7002607421875,-0.02229284681379795,0.044085729867219925,0.032948583364486694
1686343720115281000,9.710281005859375,-0.019598793238401413,0.052386004477739334,0.027906952425837517
1686343720125301000,9.720301025390626,-0.017792154103517532,0.04806102439761162,0.024558065459132195
1686343720135320000,9.730320068359376,-0.00896963570266962,0.033964116126298904,0.021240565925836563
1686343720145340000,9.74033984375,-0.00456918915733695,0.019005563110113144,0.018559353426098824
1686343720155360000,9.750360107421875,-0.004803014453500509,0.017803411930799484,0.019051505252718925
1686343720165379000,9.760379150390625,-0.005004670936614275,0.011728323996067047,0.018735557794570923
1686343720175399200,9.770399169921875,-0.009222319349646568,0.014253533445298672,0.01720397360622883
1686343720185419000,9.7804189453125,-0.01313223596662283,0.015562683343887329,0.016989922150969505
1686343720195438800,9.79043896484375,-0.017033766955137253,0.011242503300309181,0.011774122714996338
1686343720205458000,9.8004580078125,-0.015482648275792599,0.01836416870355606,0.006326907780021429
1686343720215478000,9.81047802734375,-0.012776610441505909,0.019108789041638374,-0.0030836383812129498
1686343720225497900,9.820497802734375,-0.006097172852605581,0.018680065870285034,-0.019606605172157288
1686343720235518000,9.83051806640625,-6.644986569881439e-7,0.01332045253366232,-0.02569006383419037
1686343720245537000,9.840537109375,0.0032435422763228416,0.012487797066569328,-0.02660389430820942
1686343720255557000,9.85055712890625,0.004551953170448542,0.009018231183290482,-0.026138106361031532
1686343720265577000,9.860576904296876,0.0009483364410698414,0.003313633380457759,-0.021904759109020233
1686343720275595800,9.870595703125,0.0004354119300842285,0.0003577910829335451,-0.013811145909130573
1686343720285615900,9.880615966796874,0.003351686056703329,-0.0009346031583845615,-0.01850983314216137
1686343720295636000,9.890635986328125,-0.0022984761744737625,0.013432618230581284,-0.020068582147359848
1686343720305656000,9.900656005859375,-0.0038751158863306046,0.019126182422041893,-0.018914328888058662
1686343720315675100,9.910675048828125,-0.005237056873738766,0.023238103836774826,-0.014727308414876461
1686343720325695000,9.920695068359375,-0.0012673740275204182,0.01862747222185135,-0.011508750729262829
1686343720335715000,9.930715087890626,0.000647971872240305,0.014782133512198925,-0.009911652654409409
1686343720345734000,9.94073388671875,-0.0024440628476440907,0.011846903711557388,-0.0036439625546336174
1686343720355754000,9.95075390625,-0.006742405239492655,0.016297312453389168,-0.003727053292095661
1686343720365773800,9.96077392578125,-0.004656048491597176,0.02022862434387207,-0.00022587738931179047
1686343720375794000,9.9707939453125,-0.005754603073000908,0.01751566305756569,0.006481826305389404
1686343720385813000,9.98081298828125,-0.008021198213100433,0.014605823904275894,0.013263212516903877
1686343720395833000,9.9908330078125,-0.007250212598592043,0.016357118263840675,0.011764917522668839
1686343720405853000,10.00085302734375,-0.007352642714977264,0.021553730592131615,0.01148357056081295
1686343720415871700,10.010871826171876,-0.010709290392696857,0.027811625972390175,0.015908412635326385
1686343720425891800,10.020891845703124,-0.008650848641991615,0.023260485380887985,0.013383578509092331
1686343720435912000,10.030911865234375,-0.007387978490442038,0.020327812060713768,0.012733235955238342
1686343720445932000,10.04093212890625,-0.00699471402913332,0.015102222561836243,0.01455419510602951
1686343720455950800,10.050950927734375,-0.005860473960638046,0.006226172670722008,0.014637019485235214
1686343720465971000,10.060970947265625,-0.002433525864034891,0.004786322824656963,0.009449047036468983
1686343720475991000,10.070990966796876,-0.0006199134513735771,-0.0005128348711878061,0.0070263696834445
1686343720486011100,10.08101123046875,-0.002493354957550764,0.00021404866129159927,0.0008643628098070621
1686343720496030000,10.091030029296874,0.0030201871413737535,-0.00269891694188118,0.0008065723814070225
1686343720506049800,10.1010498046875,0.001643284223973751,-0.004852889105677605,-0.0071767475455999374
1686343720516070000,10.11106982421875,-0.001834804192185402,-0.013335855677723885,-0.01609327644109726
1686343720526089000,10.1210888671875,0.0010482403449714184,-0.015708038583397865,-0.02063850872218609
1686343720536109000,10.131109130859375,-0.0032996363006532192,-0.01897813379764557,-0.014960914850234985
1686343720546129000,10.14112890625,0.003027495229616761,-0.026708370074629784,-0.011705603450536728
1686343720556149000,10.15114892578125,0.00750986160710454,-0.036408137530088425,-0.005105757620185614
1686343720566168000,10.16116796875,0.016111120581626892,-0.07051656395196915,-0.0034985775128006935
1686343720576188000,10.17118798828125,0.012929175049066544,-0.06138618290424347,-0.017007196322083473
1686343720586207700,10.181207763671875,0.01911204308271408,-0.07105781137943268,-0.021344318985939026
1686343720596227800,10.191227783203125,0.02952260710299015,-0.0737670436501503,-0.012479454278945923
1686343720606247000,10.201246826171875,0.0316016785800457,-0.0956149697303772,-0.021767061203718185
1686343720616267000,10.21126708984375,0.024727262556552887,-0.08518070727586746,-0.015451639890670776
1686343720626287000,10.221287109375,0.017090115696191788,-0.08472424000501633,0.0029159155674278736
1686343720636306000,10.231305908203124,0.002593198325484991,-0.057804740965366364,0.03895115107297897
1686343720646326000,10.241325927734374,-0.017232071608304977,0.0012529706582427025,0.04733625799417496
1686343720656346000,10.25134619140625,-0.022684894502162933,0.046365320682525635,0.03475788235664368
1686343720666366000,10.261365966796875,-0.01961306668817997,0.0697142630815506,0.01823516935110092
1686343720676385000,10.271385009765625,-0.01719624735414982,0.06982957571744919,0.012219088152050972
1686343720686404900,10.28140478515625,-0.014435970224440098,0.05988616868853569,0.018992163240909576
1686343720696425000,10.291425048828126,-0.009294470772147179,0.061648380011320114,0.014167314395308495
1686343720706445000,10.301445068359374,-0.0037605520337820053,0.045998815447092056,0.0002705114893615246
1686343720716464000,10.311464111328124,0.006482231896370649,0.012567623518407345,-0.008806873112916946
1686343720726484000,10.32148388671875,0.009213615208864212,-0.01913854293525219,-0.015035421587526798
1686343720736504000,10.331504150390625,0.011292744427919388,-0.02984205260872841,-0.02134205400943756
1686343720746523100,10.341523193359375,0.008566733449697495,-0.02991289272904396,-0.01814998872578144
1686343720756543200,10.351543212890626,0.008840239606797695,-0.02112898975610733,-0.009215349331498146
1686343720766563000,10.36156298828125,0.003899425035342574,-0.015635693445801735,0.007731256075203419
1686343720776583200,10.371583251953124,-0.010127976536750793,0.0037286835722625256,0.029962260276079178
1686343720786602000,10.38160205078125,-0.01821189932525158,0.026371899992227554,0.04685879871249199
1686343720796622000,10.3916220703125,-0.022391198202967644,0.02466641180217266,0.09038843214511871
1686343720806642200,10.40164208984375,-0.053238771855831146,-0.06775303930044174,0.11197802424430847
1686343720816662000,10.411662109375,-0.020360715687274933,-0.15862703323364258,0.07488071918487549
1686343720826681000,10.42168115234375,-0.0045864395797252655,-0.1694856733083725,0.011719882488250732
1686343720836701200,10.431701171875,-0.027861665934324265,-0.13089673221111298,-0.04094945639371872
1686343720846721300,10.44172119140625,-0.02746482752263546,-0.06420550495386124,-0.08708201348781586
1686343720856741000,10.4517412109375,-0.007122272625565529,-0.010462913662195206,-0.12717697024345398
1686343720866760000,10.461760009765625,-0.00005874922499060631,0.013403467833995819,-0.1418880969285965
1686343720876780000,10.471780029296875,0.0072364481166005135,0.0230901837348938,-0.14013759791851044
1686343720886800100,10.481800048828125,0.029964756220579147,0.06480710953474045,-0.1045641377568245
1686343720896819200,10.491819091796875,0.03165985643863678,0.12120327353477478,-0.06412696838378906
1686343720906839000,10.501839111328126,0.0252402164041996,0.1505272388458252,-0.04651656374335289
1686343720916859100,10.511859130859374,0.016080273315310478,0.09979508072137833,-0.06997289508581161
1686343720926879200,10.521879150390625,0.022801145911216736,-0.004156461916863918,-0.1180458515882492
1686343720936898000,10.53189794921875,0.03136613965034485,-0.06363443285226822,-0.12544943392276764
1686343720946918000,10.54191796875,0.018192334100604057,-0.060420259833335876,-0.10350289940834045
1686343720956938000,10.55193798828125,0.0034208442084491253,0.0032971978653222322,-0.05909975245594978
1686343720966958000,10.5619580078125,0.007306431885808706,0.026525774970650673,-0.027099289000034332
1686343720976977200,10.57197705078125,0.012468969449400902,-0.01874423399567604,0.017224766314029694
1686343720986997200,10.581997314453124,0.020162256434559822,-0.03373301401734352,0.06751624494791031
1686343720997017000,10.59201708984375,0.012456133961677551,-0.0033817668445408344,0.08619139343500137
1686343721007037200,10.602037109375,0.015247097238898277,0.00017052236944437027,0.06128143519163132
1686343721017056000,10.612055908203125,0.02915439009666443,-0.046233195811510086,0.022289561107754707
1686343721027076000,10.622076171875,0.03615099936723709,-0.0847664549946785,0.0016131175216287374
1686343721037096000,10.632095947265626,0.020720377564430237,-0.07103652507066727,0.006069650873541832
1686343721047115000,10.642114990234376,-0.0012916838750243187,-0.040087856352329254,0.03317854925990105
1686343721057135000,10.652135009765624,-0.017656808719038963,-0.011643964797258377,0.062354542315006256
1686343721067155200,10.6621552734375,-0.025708774104714394,0.006958199664950371,0.10036545246839523
1686343721077175000,10.672175048828125,-0.038063980638980865,0.04654715582728386,0.13890698552131653
1686343721087194000,10.682194091796875,-0.05427819490432739,0.055630557239055634,0.1373777985572815
1686343721097214000,10.6922138671875,-0.050742316991090775,0.0832800343632698,0.11093606054782867
1686343721107234000,10.702234130859376,-0.06567150354385376,0.09434829652309418,0.09652218222618103
1686343721117254100,10.712254150390624,-0.04607916623353958,-0.03097793646156788,0.05205671489238739
1686343721127273000,10.72227294921875,-0.008724862709641457,-0.1313544660806656,0.00269675743766129
1686343721137293000,10.73229296875,-0.0075275045819580555,-0.1516011506319046,-0.04419751465320587
1686343721147313200,10.742313232421875,0.0003728847950696945,-0.1177428662776947,-0.0854993537068367
1686343721157333200,10.752333251953125,0.014342229813337326,-0.06420773267745972,-0.10967153310775757
1686343721167352300,10.762352294921875,0.024225760251283646,-0.024130742996931076,-0.12439761310815811
1686343721177372000,10.772371826171875,0.023067818954586983,-0.013766786083579063,-0.12276669591665268
1686343721187392000,10.78239208984375,0.02061765268445015,0.008967137895524502,-0.10253368318080902
1686343721197412000,10.792412109375,0.01179965864866972,0.031771253794431686,-0.07891783863306046
1686343721207431200,10.80243115234375,0.0055357967503368855,0.029805975034832954,-0.06387633085250854
1686343721217451000,10.812450927734375,0.003086487529799342,0.024644237011671066,-0.05000844970345497
1686343721227471000,10.82247119140625,-0.005703635513782501,0.02356235682964325,-0.041824303567409515
1686343721237491200,10.8324912109375,-0.0072946082800626755,0.025214049965143204,-0.033639609813690186
1686343721247510300,10.84251025390625,-0.0030049318447709084,0.014596739783883095,-0.02990659512579441
1686343721257529900,10.85252978515625,0.0074525028467178345,0.003794691525399685,-0.022770388051867485
1686343721267550000,10.862550048828124,0.007446780800819397,-0.0036164140328764915,-0.011131774634122849
1686343721277570000,10.872570068359375,0.007114684209227562,-0.009320106357336044,0.00281386892311275
1686343721287589000,10.882589111328125,0.002839583670720458,-0.0027019749395549297,0.015070636756718159
1686343721297609200,10.892609130859375,-0.0019682208076119423,-0.002039913088083267,0.02189471945166588
1686343721307629000,10.902629150390625,-0.002060229890048504,-0.004908730275928974,0.02370866760611534
1686343721317648100,10.912648193359376,-0.0011164061725139618,-0.010104823857545853,0.026743073016405106
1686343721327668200,10.922668212890626,0.0021412018686532974,-0.006076717749238014,0.021321991458535194
1686343721337688300,10.932688232421874,0.0006024274043738842,-0.001475574099458754,0.011584143154323101
1686343721347708000,10.9427080078125,0.003385020885616541,0.005743637681007385,0.004437878727912903
1686343721357727000,10.95272705078125,-0.001200410071760416,0.011511778458952904,-0.003999814391136169
1686343721367747000,10.9627470703125,0.0005798195488750935,0.011931919492781162,-0.009028409607708454
1686343721377767200,10.97276708984375,-0.009535131976008415,0.021181875839829445,0.002052471274510026
1686343721387787000,10.982787109375,-0.00527176633477211,0.013407085090875626,0.01148604229092598
1686343721397806000,10.99280615234375,-0.0029209936037659645,-0.003168695606291294,0.0190182626247406
1686343721407826200,11.002826171875,0.002583905588835478,-0.009956449270248413,0.016920195892453194
1686343721417846300,11.01284619140625,0.0006323410198092461,-0.00048038968816399574,0.008547218516469002
1686343721427865900,11.022865966796875,0.0017609959468245506,0.012617181055247784,0.001852699788287282
1686343721437885000,11.032885009765625,0.002282709116116166,0.019866570830345154,-0.00022509857080876827
1686343721447905000,11.042905029296875,-0.000052508432418107986,0.028549406677484512,-0.0016027316451072693
1686343721457925000,11.052925048828126,0.0008329926058650017,0.03893866389989853,-0.0017396180192008615
1686343721467945200,11.0629453125,-0.009614777751266956,0.06416870653629303,0.006197907030582428
1686343721477964300,11.07296435546875,-0.018170181661844254,0.08981707692146301,0.030957581475377083
1686343721487984000,11.082984130859375,-0.023466624319553375,0.07688477635383606,0.042849618941545486
1686343721498004200,11.093004150390625,-0.014131713658571243,0.035088058561086655,0.05404661223292351
1686343721508024000,11.103024169921875,-0.0036240387707948685,0.00005620112642645836,0.055072981864213943
1686343721518043100,11.113043212890625,-0.002982483245432377,-0.012910730205476284,0.0569039061665535
1686343721528063000,11.12306298828125,0.0010479451157152653,-0.02008928172290325,0.03923170268535614
1686343721538083000,11.1330830078125,0.0044272299855947495,-0.01869724690914154,0.025485262274742126
1686343721548103200,11.143103271484375,0.008329836651682854,-0.018765395507216454,0.022688953205943108
1686343721558122200,11.153122314453125,0.012862270697951317,-0.0215127132833004,0.016663018614053726
1686343721568142000,11.16314208984375,0.004616048187017441,-0.026365820318460464,0.00683887442573905
1686343721578162200,11.173162109375,-0.004414197988808155,-0.027624163776636124,0.0032238997519016266
1686343721588182000,11.18318212890625,-0.014126220718026161,-0.01676606759428978,0.012166125699877739
1686343721598201000,11.193201171875,-0.00876101665198803,0.001747695030644536,0.023088281974196434
1686343721608221000,11.203220947265624,-0.006805983372032642,-0.002904701279476285,0.02152993530035019
1686343721618241000,11.213240966796874,-0.006115958094596863,0.010755716823041439,0.02177734300494194
1686343721628261000,11.22326123046875,-0.0061153387650847435,0.010971393436193466,0.01587272621691227
1686343721638281200,11.23328125,-0.00007981620728969574,0.007781192660331726,0.004424063954502344
1686343721648300300,11.24330029296875,0.0058324504643678665,-0.004040067084133625,-0.003720756620168686
1686343721658320100,11.253320068359375,0.0033083062153309584,-0.008835088461637497,-0.012991487048566341
1686343721668340200,11.26334033203125,0.003984085749834776,-0.01233773771673441,-0.016431955620646477
1686343721678360000,11.273360107421874,-0.001310544554144144,-0.00987804215401411,-0.016954468563199043
1686343721688379100,11.283379150390624,-0.0025001554749906063,-0.011725015938282013,-0.008514733985066414
1686343721698399000,11.29339892578125,-0.0003627021797001362,-0.009479704312980175,0.005358471535146236
1686343721708419000,11.303419189453125,-0.0014759623445570469,-0.01180852297693491,0.013565972447395325
1686343721718438100,11.313438232421875,-0.0002961819991469383,-0.008712065406143665,0.006234822329133749
1686343721728457200,11.323457275390625,0.0017778580076992512,-0.0063653625547885895,-0.009364957921206951
1686343721738477300,11.333477294921876,0.004274304956197739,-0.0031384106259793043,-0.02648588828742504
1686343721748497200,11.3434970703125,0.003392621176317334,-0.006342235021293163,-0.03206666558980942
1686343721758517200,11.353517333984374,0.004253088496625423,-0.007398444227874279,-0.03417855128645897
1686343721768536300,11.363536376953125,-0.0019851885735988617,-0.01331488136202097,-0.018503595143556595
1686343721778556400,11.373556396484375,-0.002257363870739937,-0.009653301909565926,-0.012387911789119244
1686343721788576300,11.383576171875,-0.0015962785109877586,-0.0015546700451523066,0.003094517858698964
1686343721798596000,11.39359619140625,-0.00688291946426034,0.01052276510745287,0.008673840202391148
1686343721808615200,11.403615234375,-0.0022604702971875668,0.020638251677155495,0.012637423351407051
1686343721818635300,11.41363525390625,-0.001818652730435133,0.025162694975733757,0.004881765693426132
1686343721828655400,11.4236552734375,-0.0024823308922350407,0.035500772297382355,0.0013133566826581955
1686343721838675200,11.43367529296875,-0.007517303805798292,0.03877592831850052,0.010649067349731922
1686343721848694300,11.4436943359375,-0.011398517526686192,0.036716703325510025,0.03478915989398956
1686343721858714400,11.45371435546875,-0.014980469830334187,0.024142323061823845,0.04736221209168434
1686343721868734500,11.463734375,-0.014874424785375595,0.017154965549707413,0.06112881377339363
1686343721878754000,11.473754150390626,-0.013975076377391815,0.007745219394564629,0.061697136610746384
1686343721888773000,11.483773193359376,-0.008612346835434437,-0.004648921545594931,0.05763370916247368
1686343721898793200,11.493793212890624,-0.0036056041717529297,-0.007083317264914513,0.04152637720108032
1686343721908813300,11.503813232421875,0.00022979220375418663,-0.008050802163779736,0.02388092875480652
1686343721918833200,11.513833251953125,-0.0008445270359516144,0.0027597674634307623,0.017050985246896744
1686343721928853200,11.523853271484375,-0.008915545418858528,0.007178648840636015,0.039308298379182816
1686343721938872300,11.533872314453125,-0.020709354430437088,-0.015390574932098389,0.06472896784543991
1686343721948892400,11.543892333984376,-0.012907876633107662,-0.03427502512931824,0.06394360959529877
1686343721958912300,11.553912353515624,-0.022183135151863098,-0.028287172317504883,0.037942904978990555
1686343721968932000,11.56393212890625,-0.04709779471158981,-0.043412160128355026,0.024833930656313896
1686343721978951200,11.573951171875,-0.03895891085267067,-0.06948664039373398,0.002348594833165407
1686343721988971300,11.58397119140625,-0.007159947417676449,-0.05684657022356987,-0.05663495510816574
1686343721998991400,11.593991455078125,-0.0031500253826379776,-0.026613833382725716,-0.10613805800676346
1686343722009011200,11.60401123046875,0.00790612306445837,-0.0075869252905249596,-0.1292937994003296
1686343722019030300,11.6140302734375,0.01599600724875927,0.00925863441079855,-0.13534076511859894
1686343722029050400,11.62405029296875,0.010637009516358376,0.015373865142464638,-0.12389742583036423
1686343722039070500,11.634070556640625,0.00985617097467184,0.006833373568952084,-0.11581073701381683
1686343722049090000,11.644090087890625,0.015259277075529099,0.013516245409846306,-0.10840783268213272
1686343722059109000,11.654109130859375,0.021136874333024025,0.015412949025630951,-0.1242658942937851
1686343722069129200,11.664129150390625,0.01472996361553669,0.007161589339375496,-0.12997299432754517
1686343722079149300,11.6741494140625,0.011597021482884884,0.01497903186827898,-0.11708062887191772
1686343722089169200,11.684169189453126,-0.002779936883598566,0.020959585905075073,-0.08108797669410706
1686343722099188200,11.694188232421874,-0.00832463800907135,0.037396881729364395,-0.05626092106103897
1686343722109208300,11.704208251953125,-0.005427544470876455,0.03961237519979477,-0.035789284855127335
1686343722119228400,11.714228515625,0.00022767763584852219,0.017729712650179863,-0.022720888257026672
1686343722129248300,11.724248291015625,0.0064588552340865135,0.0016469224356114864,-0.008359669707715511
1686343722139268000,11.73426806640625,0.003481973661109805,-0.008251780644059181,0.004156654700636864
1686343722149287200,11.744287109375,0.003580113872885704,-0.00664861872792244,0.01730741187930107
1686343722159307300,11.754307373046874,0.009056905284523964,-0.01922033727169037,0.024247342720627785
1686343722169327400,11.764327392578124,0.013856016099452972,-0.035664454102516174,0.025959236547350883
1686343722179347200,11.77434716796875,0.016229957342147827,-0.03268783539533615,0.009621809236705303
1686343722189366300,11.7843662109375,-0.0025077005848288536,-0.001030252198688686,-0.004829860292375088
1686343722199386400,11.794386474609375,-0.00988465640693903,0.0168539397418499,-0.02057233825325966
1686343722209406500,11.804406494140625,-0.0006323684938251972,0.013912981376051903,-0.015091517940163612
1686343722219426000,11.814426025390626,0.0024409194011241198,0.0010720172431319952,-0.008853862062096596
1686343722229445000,11.824445068359376,0.0045364550314843655,-0.0025055387523025274,0.0005950115155428648
1686343722239465200,11.83446533203125,0.006224366370588541,0.0005400523077696562,0.005487238522619009
1686343722249485300,11.8444853515625,0.00788784772157669,-0.0033093704842031,0.00584127614274621
1686343722259505200,11.854505126953125,0.010426105931401253,-0.016762329265475273,0.0025032698176801205
1686343722269524200,11.864524169921875,0.007546661421656609,-0.01830398663878441,-0.005446717143058777
1686343722279544300,11.87454443359375,0.0008416208438575268,-0.005395113490521908,-0.017155304551124573
1686343722289564400,11.884564453125,-0.006562268361449242,0.013735216110944748,-0.033145107328891754
1686343722299584300,11.894584228515624,-0.008380941115319729,0.014393549412488937,-0.03570147603750229
1686343722309604000,11.90460400390625,0.001145014539361,0.0035548554733395576,-0.024887166917324066
1686343722319623200,11.914623046875,0.0055669271387159824,-0.010832339525222778,-0.014117341488599777
1686343722329643300,11.924643310546875,0.008495846763253212,-0.011955855414271355,-0.012265289202332497
1686343722339663400,11.934663330078125,0.007410875521600246,-0.018752241507172585,-0.002778843976557255
1686343722349683200,11.94468310546875,0.006243008654564619,-0.017983565106987953,-0.0007107363780960441
1686343722359702300,11.954702392578126,0.005569228902459145,-0.020109565928578377,-0.006771025713533163
1686343722369722400,11.964722412109374,0.009608604945242405,-0.016879815608263016,-0.006362251006066799
1686343722379742200,11.9747421875,0.0016870321705937386,0.0012635020539164543,-0.004792584106326103
1686343722389762000,11.984761962890625,-0.007081679999828339,0.036314457654953,0.0130548644810915
1686343722399781000,11.994781005859375,-0.022354111075401306,0.0756932869553566,0.04698806628584862
1686343722409801200,12.00480126953125,-0.04021291062235832,0.10766156762838364,0.09546811878681183
1686343722419821300,12.0148212890625,-0.05128740146756172,0.10968343913555145,0.13887497782707214
1686343722429841200,12.024841064453126,-0.041153792291879654,0.07927510142326355,0.1584421694278717
1686343722439860200,12.034860107421874,-0.025656327605247498,0.030935537070035934,0.1276424378156662
1686343722449880300,12.04488037109375,0.006729477550834417,-0.013593833893537521,0.0692325159907341
1686343722459900200,12.054900146484375,0.02949737384915352,-0.0318351574242115,0.016610056161880493
1686343722469920300,12.064920166015625,0.03978036716580391,-0.03800691291689873,-0.020747574046254158
1686343722479940000,12.074940185546875,0.04712510108947754,-0.049245186150074005,-0.03263459354639053
1686343722489959200,12.084959228515626,0.04520665481686592,-0.062210146337747574,-0.019061248749494553
1686343722499979300,12.094979248046876,0.029442869126796722,-0.05296098813414574,0.013098819181323051
1686343722509999400,12.104999267578124,0.005815973971039057,-0.041492946445941925,0.0397840291261673
1686343722520019200,12.115019287109375,-0.005406054202467203,-0.040880151093006134,0.0555744431912899
