time,seconds_elapsed,z,y,x
1686343710530092800,0.1250927734375,-0.015447932295501232,0.00010040117194876075,0.05836450681090355
1686343710540112600,0.135112548828125,-0.011384746991097927,0.004381699021905661,0.04530249908566475
1686343710550132700,0.1451328125,-0.00905874278396368,-0.005922071170061827,0.04663621261715889
1686343710560152800,0.15515283203125,-0.017167001962661743,-0.009515740908682346,0.054172955453395844
1686343710570172000,0.165171875,-0.025080852210521698,-0.00011291803093627095,0.07305743545293808
1686343710580191700,0.175191650390625,-0.02803483046591282,0.0020748688839375973,0.08141949027776718
1686343710590211800,0.1852119140625,-0.032164327800273895,-0.02552160434424877,0.08320461213588715
1686343710600231700,0.195231689453125,-0.034029871225357056,-0.04202255234122276,0.09363275021314621
1686343710610251800,0.205251708984375,-0.046114496886730194,-0.017189638689160347,0.11689625680446625
1686343710620271600,0.215271728515625,-0.04356878250837326,-0.015082280151546001,0.13066107034683228
1686343710630290700,0.225290771484375,-0.033897511661052704,-0.04189445450901985,0.13829289376735687
1686343710640310800,0.235310791015625,-0.022788936272263527,-0.07185874134302139,0.13120675086975098
1686343710650331000,0.245330810546875,-0.017462613061070442,-0.08914478868246078,0.12363432347774506
1686343710660350700,0.255350830078125,-0.014399179257452488,-0.06709301471710205,0.1424839049577713
1686343710670370800,0.265370849609375,-0.023985227569937706,-0.05266107991337776,0.17752258479595184
1686343710680391000,0.275390869140625,-0.02761085517704487,-0.03726827725768089,0.18590036034584045
1686343710690410800,0.28541064453125,-0.018571287393569946,-0.04410860687494278,0.18182864785194397
1686343710700429600,0.2954296875,-0.007113835774362087,-0.06256084889173508,0.178725004196167
1686343710710449700,0.30544970703125,-0.0033068470656871796,-0.07285849750041962,0.17429004609584808
1686343710720469800,0.3154697265625,0.0038842204958200455,-0.05477376654744148,0.16359852254390717
1686343710730489900,0.32548974609375,0.005080778617411852,-0.030011162161827087,0.15421752631664276
1686343710740509700,0.335509765625,0.0023278691805899143,-0.00624138442799449,0.14474253356456757
1686343710750529800,0.34552978515625,0.004287689458578825,0.009530121460556984,0.13976189494132996
1686343710760548900,0.355548828125,0.0022650184109807014,0.011124822311103344,0.1246710941195488
1686343710770568700,0.365568603515625,0.0005281048361212015,0.012436163611710072,0.09541147202253342
1686343710780588500,0.375588623046875,-0.0033752904273569584,0.015509717166423798,0.06488898396492004
1686343710790608600,0.385608642578125,-0.0006351639167405665,0.031626369804143906,0.023995880037546158
1686343710800628700,0.395628662109375,0.004799815360456705,0.042023349553346634,-0.014877483248710632
1686343710810648600,0.405648681640625,0.0140196792781353,0.029695311561226845,-0.04379435256123543
1686343710820667600,0.415667724609375,0.015614911913871765,0.0059969061985611916,-0.07834859937429428
1686343710830687700,0.425687744140625,0.004412058740854263,-0.01613183133304119,-0.12984934449195862
1686343710840707800,0.435707763671875,0.015750467777252197,-0.018508169800043106,-0.17266817390918732
1686343710850727700,0.445727783203125,0.01961844228208065,-0.030785342678427696,-0.20658326148986816
1686343710860747800,0.455747802734375,0.0064863949082791805,-0.031014641746878624,-0.2247188687324524
1686343710870767900,0.465767822265625,0.002129463478922844,-0.03762460872530937,-0.23254349827766418
1686343710880786700,0.47578662109375,0.00887791346758604,-0.06518592685461044,-0.2334441840648651
1686343710890806800,0.485806884765625,0.006531136110424995,-0.07769586145877838,-0.24815867841243744
1686343710900826600,0.49582666015625,0.005997971165925264,-0.05608910322189331,-0.25585174560546875
1686343710910846700,0.5058466796875,0.00857138354331255,-0.03218590095639229,-0.26967117190361023
1686343710920866800,0.51586669921875,0.012807141989469528,-0.03931518271565437,-0.2803592085838318
1686343710930886700,0.52588671875,0.019083678722381592,-0.07238871604204178,-0.30736100673675537
1686343710940906800,0.53590673828125,0.04873105511069298,-0.10661192983388901,-0.36221441626548767
1686343710950925800,0.54592578125,0.08942442387342453,-0.15830601751804352,-0.43688279390335083
1686343710960945700,0.555945556640625,0.11858390271663666,-0.20028835535049438,-0.5024663209915161
1686343710970965500,0.565965576171875,0.1500917673110962,-0.21511496603488922,-0.5368067026138306
1686343710980985600,0.575985595703125,0.17449350655078888,-0.1930171251296997,-0.5501755475997925
1686343710991005700,0.586005615234375,0.3065628707408905,-0.01967277005314827,-0.5279466509819031
1686343711001025800,0.59602587890625,0.4932355284690857,0.005560946650803089,-0.6111611127853394
1686343711011044900,0.606044921875,0.5311549305915833,-0.08096036314964294,-0.7440712451934814
1686343711021064700,0.616064697265625,0.6178576350212097,-0.18173490464687347,-0.8085522055625916
1686343711031084800,0.626084716796875,0.6504421830177307,-0.23352859914302826,-0.8586279153823853
1686343711041105000,0.63610498046875,0.5850967764854431,-0.28851380944252014,-0.9390226006507874
1686343711051124700,0.646124755859375,0.5801163911819458,-0.21600499749183655,-0.9751438498497009
1686343711061144800,0.656144775390625,0.5799968242645264,-0.08903693407773972,-0.9831700921058655
1686343711071163600,0.66616357421875,0.5711561441421509,0.0234717708081007,-0.9144594669342041
1686343711081183700,0.676183837890625,0.5306066274642944,0.019989686086773872,-0.8410904407501221
1686343711091203600,0.68620361328125,0.4478091895580292,-0.09356483817100525,-0.7428986430168152
1686343711101223700,0.6962236328125,0.3325987160205841,0.010748251341283321,-0.685079038143158
1686343711111243800,0.706243896484375,0.2828253209590912,0.12357067316770554,-0.6341345906257629
1686343711121263600,0.716263671875,0.21216659247875214,0.30849286913871765,-0.6444780826568604
1686343711131282700,0.72628271484375,0.18126486241817474,0.542820394039154,-0.6552481651306152
1686343711141302800,0.736302734375,0.15739281475543976,0.7416368126869202,-0.6513849496841431
1686343711151322600,0.746322509765625,0.16454260051250458,0.737835705280304,-0.639064371585846
1686343711161342700,0.7563427734375,0.14976686239242554,0.5093277096748352,-0.6287289261817932
1686343711171362600,0.766362548828125,0.09912072122097015,0.3494855761528015,-0.6076886057853699
1686343711181382700,0.776382568359375,0.08498679846525192,0.3030237853527069,-0.5978420972824097
1686343711191402800,0.78640283203125,0.08893786370754242,0.2749072015285492,-0.5837846398353577
1686343711201421800,0.796421875,0.06799396127462387,0.2500084936618805,-0.5267743468284607
1686343711211441700,0.806441650390625,-0.013154418207705021,0.22494442760944366,-0.42527034878730774
1686343711221461800,0.816461669921875,-0.10767612606287003,0.16455352306365967,-0.299360066652298
1686343711231481900,0.82648193359375,-0.20228545367717743,0.02544490620493889,-0.18198764324188232
1686343711241501700,0.836501708984375,-0.32414504885673523,-0.08913227170705795,-0.06323729455471039
1686343711251521800,0.846521728515625,-0.3768250346183777,0.0014511564513668418,0.1203482523560524
1686343711261540600,0.85654052734375,-0.3475446403026581,0.5061540007591248,0.32594773173332214
1686343711271560700,0.866560791015625,-0.41213029623031616,0.9002240896224976,0.43426355719566345
1686343711281580800,0.876580810546875,-0.40411925315856934,1.1096327304840088,0.5664117336273193
1686343711291600600,0.8866005859375,-0.32021501660346985,1.0168678760528564,0.677996039390564
1686343711301620700,0.896620849609375,-0.24780580401420593,0.5209009647369385,0.7105124592781067
1686343711311640800,0.906640869140625,-0.18351469933986664,-0.13700951635837555,0.6712212562561035
1686343711321660000,0.916659912109375,-0.07615868002176285,-0.6406673192977905,0.5971395969390869
1686343711331679700,0.9266796875,0.06959692388772964,-0.9041066765785217,0.5172130465507507
1686343711341699600,0.936699462890625,0.19859378039836884,-0.9914000630378723,0.42907971143722534
1686343711351719700,0.9467197265625,0.3098878264427185,-1.0035890340805054,0.3738468289375305
1686343711361739500,0.956739501953125,0.36562246084213257,-0.9953122138977051,0.3134676516056061
1686343711371759600,0.966759521484375,0.3565045893192291,-0.9446874260902405,0.2325562834739685
1686343711381779700,0.97677978515625,0.34172165393829346,-0.8072930574417114,0.1945098340511322
1686343711391798800,0.986798828125,0.3314130902290344,-0.6332666873931885,0.1743619441986084
1686343711401819000,0.99681884765625,0.35659274458885193,-0.5016037225723267,0.15775100886821747
1686343711411838700,1.006838623046875,0.4067603051662445,-0.36762356758117676,0.13638447225093842
1686343711421858800,1.01685888671875,0.42691537737846375,-0.1333862841129303,0.05980287864804268
1686343711431879000,1.02687890625,0.4257611632347107,-0.14596545696258545,-0.04541914537549019
1686343711441898800,1.036898681640625,0.3985782861709595,-0.10638555884361267,-0.1940578818321228
1686343711451917600,1.04691748046875,0.3237706124782562,-0.08650612831115723,-0.28879132866859436
1686343711461937700,1.056937744140625,0.19386987388134003,-0.10478340089321136,-0.3221905529499054
1686343711471957800,1.066957763671875,0.027946945279836655,-0.0682605430483818,-0.2649562954902649
1686343711481977600,1.0769775390625,-0.159389927983284,0.10908734053373337,-0.10756667703390121
1686343711491997700,1.086997802734375,-0.29866552352905273,0.3277336657047272,0.0888875275850296
1686343711502017800,1.097017822265625,-0.28733590245246887,0.3931821882724762,0.26253068447113037
1686343711512036900,1.107036865234375,-0.21980133652687073,0.32996273040771484,0.41132548451423645
1686343711522056700,1.117056640625,-0.1835850030183792,0.30889952182769775,0.5229974389076233
1686343711532076500,1.12707666015625,-0.17564159631729126,0.35922953486442566,0.5291967391967773
1686343711542096600,1.1370966796875,-0.21196205914020538,0.30390530824661255,0.36478808522224426
1686343711552116700,1.14711669921875,-0.22199498116970062,0.3565645217895508,0.1679983288049698
1686343711562136600,1.157136474609375,-0.13031938672065735,0.47710877656936646,-0.0063031697645783424
1686343711572155600,1.16715576171875,-0.015334481373429298,0.4899257719516754,-0.10872381925582886
1686343711582175700,1.17717578125,0.06240452080965042,0.3529583215713501,0.05987957864999771
1686343711592195800,1.18719580078125,0.017544105648994446,-0.05699777230620384,0.09927172213792801
1686343711602215700,1.197215576171875,-0.038612641394138336,-0.13419109582901,0.18804633617401123
1686343711612235800,1.20723583984375,-0.12830311059951782,-0.1581350415945053,0.37296026945114136
1686343711622255900,1.217255859375,-0.20429694652557373,-0.17804083228111267,0.6521807312965393
1686343711632275700,1.227275634765625,-0.3070286512374878,-0.29238125681877136,0.8787334561347961
1686343711642294500,1.23729443359375,-0.4366031587123871,-0.5096606016159058,1.0117127895355225
1686343711652314600,1.247314697265625,-0.48113173246383667,-0.6545682549476624,0.9760655760765076
1686343711662334700,1.257334716796875,-0.4059523046016693,-0.6065277457237244,0.7821701169013977
1686343711672354800,1.267354736328125,-0.24777650833129883,-0.3345273733139038,0.4639868438243866
1686343711682374700,1.277374755859375,-0.057325609028339386,0.008436894044280052,0.05572584643959999
1686343711692394800,1.287394775390625,0.10582203418016434,0.21568967401981354,-0.3345939517021179
1686343711702413800,1.297413818359375,0.2354458123445511,0.4894173741340637,-0.5199323892593384
1686343711712434000,1.307433837890625,0.24184858798980713,0.754356324672699,-0.5313275456428528
1686343711722453800,1.317453857421875,0.20522212982177734,0.7538370490074158,-0.49279478192329407
1686343711732473900,1.327473876953125,0.2218807339668274,0.7531134486198425,-0.42994925379753113
1686343711742494000,1.337493896484375,0.21843566000461578,0.85147625207901,-0.3923691213130951
1686343711752513500,1.347513427734375,0.19348584115505219,0.8918087482452393,-0.4164526164531708
1686343711762532600,1.35753271484375,0.17448605597019196,0.853491485118866,-0.4557560682296753
1686343711772552700,1.367552734375,0.157110795378685,0.7918800115585327,-0.42979663610458374
1686343711782572800,1.37757275390625,0.12324336916208267,0.7013759613037109,-0.3241357207298279
1686343711792592600,1.387592529296875,0.07989882677793503,0.6054193377494812,-0.1487703025341034
1686343711802612700,1.39761279296875,0.05944574996829033,0.511597752571106,0.060381583869457245
1686343711812632800,1.4076328125,0.020800620317459106,0.4074929356575012,0.2404853105545044
1686343711822652000,1.41765185546875,-0.018571820110082626,0.29604870080947876,0.3685564696788788
1686343711832671700,1.427671630859375,-0.033067673444747925,0.17657849192619324,0.4401704668998718
1686343711842691600,1.437691650390625,-0.03969841077923775,0.03801076486706734,0.46971771121025085
1686343711852711700,1.447711669921875,-0.06269161403179169,-0.10776641219854355,0.47260430455207825
1686343711862731800,1.457731689453125,-0.09214350581169128,-0.17672497034072876,0.49975308775901794
1686343711872751600,1.467751708984375,-0.17927095293998718,-0.2519179880619049,0.520558774471283
1686343711882771700,1.477771728515625,-0.26241084933280945,-0.39413344860076904,0.532514214515686
1686343711892790800,1.487790771484375,-0.3505406975746155,-0.46450456976890564,0.511147141456604
1686343711902811000,1.497810791015625,-0.3540422320365906,-0.34171631932258606,0.5131109952926636
1686343711912830700,1.507830810546875,-0.3415812849998474,-0.26761358976364136,0.49506327509880066
1686343711922850800,1.517850830078125,-0.3168511986732483,-0.39074406027793884,0.43131598830223083
1686343711932871000,1.527870849609375,-0.36479607224464417,-0.3805135190486908,0.2857486605644226
1686343711942890800,1.537890869140625,-0.38569068908691406,-0.3274540305137634,0.2300443798303604
1686343711952909800,1.547909912109375,-0.38069620728492737,-0.2675510048866272,0.2338963747024536
1686343711962929700,1.5579296875,-0.3536320924758911,-0.2265292853116989,0.29134368896484375
1686343711972949800,1.56794970703125,-0.31413477659225464,-0.16711042821407318,0.3879495859146118
1686343711982969900,1.577969970703125,-0.26192402839660645,-0.11810799688100815,0.4843219518661499
1686343711992989700,1.58798974609375,-0.2175014317035675,-0.10976271331310272,0.5202807188034058
1686343712003009800,1.598009765625,-0.18454773724079132,-0.10810303688049316,0.5004180669784546
1686343712013030000,1.60802978515625,-0.16010497510433197,-0.14831677079200745,0.4273039400577545
1686343712023048700,1.618048583984375,-0.13742735981941223,-0.14844033122062683,0.32453441619873047
1686343712033068500,1.628068603515625,-0.11825686693191528,-0.14190733432769775,0.2330596148967743
1686343712043088600,1.638088623046875,-0.10080836713314056,-0.07955394685268402,0.1956632435321808
1686343712053108700,1.648108642578125,-0.07232799381017685,-0.04536987841129303,0.18786443769931793
1686343712063128800,1.65812890625,-0.05342487618327141,-0.08838658779859543,0.17574013769626617
1686343712073148700,1.668148681640625,-0.03677266091108322,-0.12785330414772034,0.16754744946956635
1686343712083167700,1.678167724609375,-0.03448713570833206,-0.16425871849060059,0.16172604262828827
1686343712093187800,1.688187744140625,-0.042697131633758545,-0.2170015573501587,0.16850672662258148
1686343712103208000,1.6982080078125,-0.05392634868621826,-0.2642196714878082,0.19971337914466858
1686343712113227800,1.708227783203125,-0.07360284775495529,-0.2830553948879242,0.23697340488433838
1686343712123247900,1.718247802734375,-0.08732931315898895,-0.2666170299053192,0.26177114248275757
1686343712133267700,1.728267822265625,-0.08230073004961014,-0.20684878528118134,0.260464608669281
1686343712143286800,1.738286865234375,-0.07795418798923492,-0.11528584361076355,0.2378740757703781
1686343712153306600,1.748306640625,-0.07776350528001785,-0.054486677050590515,0.2127455621957779
1686343712163326700,1.75832666015625,-0.07731662690639496,0.0025398568250238895,0.20071019232273102
1686343712173346800,1.768346923828125,-0.07508888840675354,0.03549141436815262,0.1908261477947235
1686343712183366700,1.77836669921875,-0.06436194479465485,0.03482908755540848,0.16979116201400757
1686343712193386800,1.78838671875,-0.06663894653320312,0.0205681249499321,0.1560780107975006
1686343712203405800,1.79840576171875,-0.07198098301887512,-0.0071753547526896,0.16364219784736633
1686343712213426000,1.808426025390625,-0.08544006943702698,-0.04356159269809723,0.19656366109848022
1686343712223445800,1.81844580078125,-0.092640720307827,-0.08609387278556824,0.2334764003753662
1686343712233465600,1.828465576171875,-0.0919131487607956,-0.10934779793024063,0.2590997517108917
1686343712243485700,1.838485595703125,-0.09418375790119171,-0.0891977846622467,0.2766129672527313
1686343712253505800,1.848505859375,-0.0994885042309761,-0.019160911440849304,0.27968624234199524
1686343712263525600,1.858525634765625,-0.09874175488948822,0.0575767420232296,0.27093827724456787
1686343712273544700,1.868544677734375,-0.129130557179451,0.18628865480422974,0.2916204035282135
1686343712283564800,1.878564697265625,-0.12709936499595642,0.11801425367593765,0.22476546466350555
1686343712293585000,1.8885849609375,-0.08888140320777893,0.07301269471645355,0.15570543706417084
1686343712303604700,1.898604736328125,-0.06228680908679962,0.033118270337581635,0.08332578092813492
1686343712313624800,1.908624755859375,-0.04607747867703438,0.0003880225704051554,0.020140156149864197
1686343712323644700,1.918644775390625,-0.03579368442296982,-0.018635736778378487,-0.0182301364839077
1686343712333663700,1.928663818359375,-0.028265459463000298,-0.02622734196484089,-0.02582147717475891
1686343712343683800,1.938683837890625,-0.019331619143486023,0.00046924897469580173,0.01661359705030918
1686343712353703700,1.94870361328125,-0.021889053285121918,0.05826357379555702,0.09038954973220825
1686343712363723800,1.958723876953125,-0.023151392117142677,0.10949533432722092,0.15473099052906036
1686343712373743900,1.968743896484375,-0.021440044045448303,0.11853650212287903,0.15394003689289093
1686343712383763700,1.978763671875,-0.010149040259420872,0.06549245864152908,0.06780754029750824
1686343712393783800,1.98878369140625,0.005282646510750055,0.018823755905032158,-0.019517775624990463
1686343712403803000,1.998802978515625,0.012829245999455452,0.008981244638562202,-0.0840083509683609
1686343712413822700,2.00882275390625,0.00018801917030941695,0.04900509491562843,-0.11132252961397171
1686343712423842600,2.018842529296875,0.0006463492172770202,0.07880107313394547,-0.1159210130572319
1686343712433862700,2.028862548828125,-0.0089365029707551,0.053162287920713425,-0.0893826112151146
1686343712443882800,2.0388828125,-0.007238738238811493,0.012281433679163456,-0.02960290014743805
1686343712458912800,2.053912841796875,-0.010031861253082752,-0.03779691457748413,0.05572185292840004
1686343712468931600,2.063931640625,-0.008857407607138157,-0.05102696642279625,0.062136076390743256
1686343712478951700,2.07395166015625,-0.011320831254124641,-0.07893422991037369,0.05667473003268242
1686343712488971800,2.0839716796875,-0.009781524538993835,-0.12009311467409134,0.03808267042040825
1686343712498991600,2.09399169921875,-0.02124856412410736,-0.15073198080062866,0.02562972903251648
1686343712509011700,2.10401171875,-0.03984514996409416,-0.18462124466896057,0.03600407391786575
1686343712519031800,2.11403173828125,-0.05523689091205597,-0.21513494849205017,0.08698709309101105
1686343712529051000,2.12405078125,-0.06534384936094284,-0.207582488656044,0.1545214056968689
1686343712539070700,2.13407080078125,-0.07065685838460922,-0.18258419632911682,0.20260530710220337
1686343712549090800,2.1440908203125,-0.06482560187578201,-0.15140283107757568,0.2155890166759491
1686343712559110700,2.154110595703125,-0.06296645104885101,-0.12996278703212738,0.19507281482219696
1686343712569130800,2.164130859375,-0.055502939969301224,-0.11404214799404144,0.1770903617143631
1686343712579150600,2.174150634765625,-0.04994519054889679,-0.10016841441392899,0.16298173367977142
1686343712589170700,2.184170654296875,-0.05777221918106079,-0.10927215963602066,0.15840642154216766
1686343712599189800,2.194189697265625,-0.06131475791335106,-0.11233213543891907,0.17204900085926056
1686343712609209900,2.2042099609375,-0.07451071590185165,-0.10216924548149109,0.19904758036136627
1686343712619229700,2.214229736328125,-0.11095608025789261,-0.08578840643167496,0.29863250255584717
1686343712629249800,2.224249755859375,-0.14425118267536163,-0.19196917116641998,0.2833739221096039
1686343712639270000,2.234269775390625,-0.08258089423179626,-0.22630158066749573,0.19134971499443054
1686343712649289700,2.244289794921875,-0.04244173318147659,-0.20996388792991638,0.08341952413320541
1686343712659309800,2.254309814453125,-0.01595286652445793,-0.18810652196407318,0.00797403696924448
1686343712669328600,2.26432861328125,-0.0005360943032428622,-0.15522287786006927,-0.02582307532429695
1686343712679348700,2.2743486328125,-0.0015907060587778687,-0.10872142016887665,-0.031788021326065063
1686343712689368800,2.284368896484375,0.004099936690181494,-0.05895199999213219,-0.02305764891207218
1686343712699388700,2.294388671875,0.012095012702047825,-0.022935941815376282,-0.02648460492491722
1686343712709408800,2.30440869140625,0.015842080116271973,-0.006705839652568102,-0.03139600530266762
1686343712719428900,2.314428955078125,0.009351423941552639,0.012799418531358242,-0.03670049086213112
1686343712729448700,2.32444873046875,0.004506601020693779,0.030658043920993805,-0.05060219019651413
1686343712739467800,2.3344677734375,0.006173740141093731,0.0314687117934227,-0.06734894961118698
1686343712749487900,2.34448779296875,0.014363492839038372,0.018367288634181023,-0.07604816555976868
1686343712759508000,2.354508056640625,0.028628714382648468,-0.0013206616276875138,-0.07267926633358002
1686343712769527800,2.36452783203125,0.04344680905342102,-0.021763885393738747,-0.0687929093837738
1686343712779548000,2.3745478515625,0.05052788928151131,-0.04394508898258209,-0.06895563006401062
1686343712789568000,2.384568115234375,0.06236324459314346,-0.04954571649432182,-0.08283069729804993
1686343712799586800,2.3945869140625,0.06288228929042816,-0.04315599426627159,-0.08220938593149185
1686343712809607000,2.40460693359375,0.05121977627277374,-0.003579554846510291,-0.057739995419979095
1686343712819626800,2.414626708984375,0.043169572949409485,0.030190659686923027,-0.02648567035794258
1686343712829646800,2.424646728515625,0.035832032561302185,0.06476035714149475,0.01104359608143568
1686343712839667000,2.4346669921875,0.03299470245838165,0.097142793238163,0.04659599810838699
1686343712849686800,2.444686767578125,0.043225500732660294,0.11621608585119247,0.044205810874700546
1686343712859707000,2.454706787109375,0.05474473908543587,0.10087255388498306,0.011593272909522057
1686343712869726000,2.464725830078125,0.06702031195163727,0.05810484662652016,-0.021163875237107277
1686343712879745800,2.474745849609375,0.07385238260030746,0.021277857944369316,-0.04495389387011528
1686343712889765600,2.484765625,0.07154449075460434,0.0070888022892177105,-0.06100716069340706
1686343712899785700,2.49478564453125,0.06286311894655228,-0.015416506677865982,-0.05139767751097679
1686343712909805800,2.504805908203125,0.059595152735710144,-0.03870052471756935,-0.022339927032589912
1686343712919826000,2.514825927734375,0.05971313267946243,-0.049863964319229126,0.01125318743288517
1686343712929845800,2.524845703125,0.07234503328800201,-0.058462243527173996,0.035419244319200516
1686343712939864800,2.53486474609375,0.08602196723222733,-0.04679733142256737,0.038050711154937744
1686343712949885000,2.544885009765625,0.09971434623003006,-0.041193243116140366,0.023789485916495323
1686343712959905000,2.554905029296875,0.09746263921260834,-0.03142743185162544,0.0029169602785259485
1686343712969924900,2.5649248046875,0.07801464200019836,-0.016713466495275497,-0.0010807107901200652
1686343712979945000,2.574945068359375,0.049012016505002975,0.0030394657514989376,0.010508300736546516
1686343712989964800,2.58496484375,0.028783177956938744,0.009223858825862408,0.03599315509200096
1686343712999984600,2.594984619140625,0.01107528805732727,0.01531530637294054,0.0596231147646904
1686343713010003700,2.605003662109375,0.003200586885213852,0.01684422791004181,0.08349303156137466
1686343713020023800,2.61502392578125,-0.0011717908782884479,0.012407400645315647,0.09137092530727386
1686343713030044000,2.6250439453125,0.0002615224220789969,0.005556153133511543,0.08663555979728699
1686343713040063700,2.635063720703125,-0.0002407497668173164,0.00034940673504024744,0.07600368559360504
1686343713050083800,2.645083740234375,0.004227768164128065,-0.005739910993725061,0.0625038594007492
1686343713060104000,2.65510400390625,0.005401955917477608,-0.011204984039068222,0.04235944151878357
1686343713070124000,2.6651240234375,-0.0007888282998465002,-0.012518721632659435,0.016158197075128555
1686343713080142800,2.675142822265625,-0.015250591561198235,-0.010805243626236916,-0.001630120910704136
1686343713090162700,2.68516259765625,-0.024651017040014267,0.007846738211810589,-0.00871998816728592
1686343713100182800,2.695182861328125,-0.024105869233608246,0.014186126179993153,-0.005615807604044676
1686343713110203000,2.705202880859375,-0.03488101810216904,0.011938151903450489,0.001859685406088829
1686343713120222700,2.71522265625,-0.03597104921936989,0.011227620765566826,0.008191350847482681
1686343713130242800,2.725242919921875,-0.031007183715701103,-0.0015020228456705809,0.009483516216278076
1686343713140262000,2.735261962890625,-0.025530660524964333,-0.012061456218361855,0.005948436446487904
1686343713150282000,2.745281982421875,-0.028145086020231247,-0.01794038526713848,-0.006343916058540344
1686343713160301800,2.7553017578125,-0.023082416504621506,-0.022953785955905914,-0.01593955233693123
1686343713170322000,2.765322021484375,-0.017195764929056168,0.0038839541375637054,-0.025184715166687965
1686343713180342000,2.775342041015625,-0.007816644385457039,0.0031164311803877354,-0.03897110000252724
1686343713190361900,2.78536181640625,-0.0031755531672388315,0.007815578952431679,-0.041975412517786026
1686343713200381700,2.795381591796875,-0.002532399957999587,0.01588096283376217,-0.03844752535223961
1686343713210400800,2.80540087890625,-0.005030977539718151,0.030882814899086952,-0.0315169133245945
1686343713220420900,2.8154208984375,-0.016890833154320717,0.04418450593948364,-0.021454425528645515
1686343713230441000,2.82544091796875,-0.022159364074468613,0.04199272394180298,-0.010733604431152344
1686343713240460800,2.835460693359375,-0.023542610928416252,0.029864953830838203,-0.009107477962970734
1686343713250481000,2.84548095703125,-0.025530926883220673,0.015626363456249237,-0.016714265570044518
1686343713260501000,2.8555009765625,-0.024448085576295853,0.002286856295540929,-0.021998243406414986
1686343713270520800,2.865520751953125,-0.020498350262641907,0.004277036525309086,-0.027215376496315002
1686343713280539600,2.87553955078125,-0.01477788109332323,0.007733287289738655,-0.020227506756782532
1686343713290559700,2.885559814453125,-0.016159262508153915,0.00475427508354187,-0.01035383716225624
1686343713300579800,2.895579833984375,-0.016819193959236145,0.01338824350386858,0.005017129238694906
1686343713310599700,2.905599609375,-0.017013071104884148,0.019153188914060593,0.019336946308612823
1686343713320619800,2.915619873046875,-0.013391971588134766,0.024760739877820015,0.03109986148774624
1686343713330640000,2.925639892578125,-0.0173781905323267,0.0253349170088768,0.03995167836546898
1686343713340660000,2.935659912109375,-0.01894492842257023,0.02870861068367958,0.03708478435873985
1686343713350679000,2.945678955078125,-0.017616277560591698,0.02683481015264988,0.030049245804548264
1686343713360699000,2.955698974609375,-0.01443939283490181,0.024630777537822723,0.024148479104042053
1686343713370719000,2.965718994140625,-0.015919843688607216,0.02112339437007904,0.029389314353466034
1686343713380738800,2.97573876953125,-0.01859365776181221,0.013675065711140633,0.03748425841331482
1686343713390758700,2.985758544921875,-0.014156565070152283,0.0026519757229834795,0.04676883667707443
1686343713400778800,2.99577880859375,-0.013559751212596893,-0.0020178770646452904,0.04435228556394577
1686343713410797800,3.0057978515625,-0.01745142787694931,0.0009440905996598303,0.03617637977004051
1686343713420818000,3.01581787109375,-0.016225840896368027,0.005626726895570755,0.02100648172199726
1686343713430837800,3.025837646484375,-0.011932026594877243,0.01293683797121048,0.00827870238572359
1686343713440857900,3.03585791015625,-0.008173773996531963,0.014542990364134312,0.0006769755273126066
1686343713450878000,3.0458779296875,-0.010119212791323662,0.0142343295738101,-0.003034672001376748
1686343713460898000,3.05589794921875,-0.010456635616719723,0.011069162748754025,0.0031217574141919613
1686343713470918000,3.06591796875,-0.01142922230064869,0.007378287613391876,0.011698201298713684
1686343713480936700,3.075936767578125,-0.014194115996360779,0.0016221314435824752,0.01582237333059311
1686343713490956800,3.085956787109375,-0.01955639012157917,-0.00045353634050115943,0.027764786034822464
1686343713500977000,3.095976806640625,-0.025351162999868393,-0.00749147217720747,0.02858397364616394
1686343713510996700,3.105996826171875,-0.043048400431871414,-0.017363810911774635,0.035958800464868546
1686343713521016800,3.116016845703125,-0.02303953841328621,0.023089073598384857,0.05025677755475044
1686343713531037000,3.126036865234375,-0.016868995502591133,0.006006759591400623,0.03719690442085266
1686343713541056000,3.136055908203125,-0.005080778617411852,0.002398176584392786,0.0255756676197052
1686343713551075800,3.146075927734375,-0.0036946034524589777,-0.0011773834703490138,0.013196229003369808
1686343713561096000,3.156095947265625,-0.004547613672912121,0.003602457931265235,0.005823534447699785
1686343713571115800,3.16611572265625,-0.0029920614324510098,0.005297826137393713,0.00376064982265234
1686343713581136000,3.176135986328125,-0.0005587312043644488,-0.005601426586508751,0.012281433679163456
1686343713591155700,3.18615576171875,-0.0062304651364684105,-0.017825068905949593,0.016816530376672745
1686343713601175800,3.19617578125,-0.013039369136095047,-0.015363243408501148,0.02984524704515934
1686343713611195000,3.20619482421875,-0.01215866208076477,-0.007482417393475771,0.03429831936955452
1686343713621215000,3.216215087890625,-0.01062041986733675,0.01381035428494215,0.03561418503522873
1686343713631234800,3.22623486328125,-0.018381670117378235,0.01961870864033699,0.03127696365118027
1686343713641255000,3.2362548828125,-0.016637831926345825,0.02305791527032852,0.028303276747465134
1686343713651275000,3.24627490234375,-0.014464426785707474,0.013696104288101196,0.026445722207427025
1686343713661294800,3.256294921875,-0.008200937882065773,-0.007181480061262846,0.017674334347248077
1686343713671313700,3.266313720703125,-0.003142263740301132,-0.01732226461172104,0.016094280406832695
1686343713681333800,3.276333740234375,-0.0027917916886508465,-0.02996881864964962,0.016806410625576973
1686343713691353900,3.286353759765625,-0.0013086773687973619,-0.0054877097718417645,0.02238093875348568
1686343713701373700,3.296373779296875,-0.005854693241417408,0.006305300164967775,0.025294171646237373
1686343713711393000,3.30639306640625,-0.01076902449131012,-0.0046541402116417885,0.027413515374064445
1686343713721412900,3.316412841796875,-0.011086739599704742,-0.030284669250249863,0.017542773857712746
1686343713731432000,3.326431884765625,-0.013263607397675514,-0.011027883738279343,0.004141747951507568
1686343713741452000,3.3364521484375,-0.0020397149492055178,-0.02684919163584709,-0.008715194649994373
1686343713751471900,3.346471923828125,0.009021191857755184,-0.01697685196995735,-0.02845720760524273
1686343713761492000,3.356491943359375,0.0044173854403197765,-0.04489903151988983,-0.03880731761455536
1686343713771512000,3.366511962890625,0.01070777140557766,-0.04639865830540657,-0.038007304072380066
1686343713781532200,3.3765322265625,0.0017334514996036887,-0.045458029955625534,-0.02504010498523712
1686343713791551200,3.38655126953125,0.006094910204410553,-0.04355147108435631,-0.009711749851703644
1686343713801570800,3.39657080078125,0.007834221236407757,-0.03913435339927673,0.0054421694949269295
1686343713811591000,3.4065908203125,0.002837598090991378,-0.038243260234594345,0.012954414822161198
1686343713821611000,3.416611083984375,-0.0013965616235509515,-0.04342443868517876,0.020412864163517952
1686343713831630800,3.426630859375,-0.006100236903876066,-0.036675989627838135,0.022423816844820976
1686343713841651000,3.43665087890625,-0.004523112904280424,-0.01064971461892128,0.02197294309735298
1686343713851670000,3.446669921875,-0.007413974031805992,0.015979498624801636,0.01943708024919033
1686343713861690000,3.456690185546875,-0.010366620495915413,0.021027253940701485,0.01697685196995735
1686343713871710000,3.4667099609375,-0.005173456855118275,0.018430672585964203,0.02353275567293167
1686343713881730000,3.47672998046875,-0.0017757958266884089,0.010175406001508236,0.021685320883989334
1686343713891750100,3.486750244140625,-0.003254116512835026,-0.005784385837614536,0.022584138438105583
1686343713901770200,3.496770263671875,-0.0030221552588045597,-0.013656956143677235,0.0199287012219429
1686343713911789000,3.5067890625,-0.0019110844004899263,-0.019638948142528534,0.014737666584551334
1686343713921809000,3.516808837890625,0.003933755215257406,-0.026101108640432358,0.009377522394061089
1686343713931829000,3.5268291015625,0.0022426480427384377,-0.027397003024816513,0.007863782346248627
1686343713941849000,3.53684912109375,-0.0014045510906726122,-0.030651386827230453,0.014300908893346786
1686343713951869000,3.546868896484375,-0.005083441734313965,-0.033057551831007004,0.00926380604505539
1686343713961889000,3.556888916015625,-0.006686664652079344,-0.03231293335556984,-0.003400856629014015
1686343713971908000,3.566908203125,-0.005638444796204567,-0.02370852418243885,-0.01900511607527733
1686343713981928200,3.57692822265625,0.0026130937039852142,-0.015182681381702423,-0.03417075425386429
1686343713991947800,3.58694775390625,0.004479703027755022,-0.012552543543279171,-0.047273773699998856
1686343714001967900,3.5969677734375,0.016079634428024292,-0.011877432465553284,-0.0598183274269104
1686343714011988000,3.606988037109375,0.012779444456100464,-0.010515491478145123,-0.06444716453552246
1686343714022007000,3.617007080078125,0.010525344870984554,-0.008264055475592613,-0.05403473973274231
1686343714032027000,3.62702685546875,0.007929828017950058,-0.01187902968376875,-0.03839505836367607
1686343714042047000,3.637046875,0.0028519791085273027,-0.01570865511894226,-0.032813604921102524
1686343714052067000,3.647067138671875,0.0006317017832770944,-0.016005864366889,-0.033425334841012955
1686343714062087200,3.657087158203125,0.00019494339358061552,-0.01683890074491501,-0.02430240996181965
1686343714072107000,3.66710693359375,0.0011611381778493524,-0.015499863773584366,-0.01985972560942173
1686343714082125800,3.677125732421875,-0.005057875532656908,-0.01528654433786869,-0.009693906642496586
1686343714092146000,3.68714599609375,-0.0035569178871810436,-0.020796624943614006,0.0005930859479121864
1686343714102166000,3.697166015625,-0.006238188594579697,-0.011898471042513847,0.0059420447796583176
1686343714112185900,3.707185791015625,-0.0051750545389950275,0.0011648666113615036,-0.0008042746339924634
1686343714122206000,3.7172060546875,-0.00618279492482543,0.014061490073800087,-0.007983624003827572
1686343714132225000,3.72722509765625,-0.0059782639145851135,0.014112357050180435,-0.009677660651504993
1686343714142245000,3.7372451171875,-0.006386260036379099,0.012723784893751144,-0.00800173357129097
1686343714152265000,3.747264892578125,-0.007381749805063009,0.014638064429163933,-0.00663553224876523
1686343714162285000,3.75728515625,-0.010246512480080128,0.013226056471467018,0.006178000941872597
1686343714172305200,3.76730517578125,-0.00743208359926939,0.005958290304988623,0.015805860981345177
1686343714182325200,3.7773251953125,-0.006080529186874628,-0.00028069718973711133,0.022229937836527824
1686343714192344000,3.787343994140625,-0.006019276566803455,-0.011965849436819553,0.01925651915371418
1686343714202364000,3.797364013671875,-0.005548163317143917,-0.016575515270233154,0.01537709217518568
1686343714212384000,3.807384033203125,-0.006894125137478113,-0.014741661958396435,0.003629622282460332
1686343714222404000,3.817404052734375,-0.005058141890913248,-0.01224734541028738,-0.004822984803467989
1686343714232424000,3.827423828125,0.0001893507578643039,-0.01142815686762333,-0.013004215434193611
1686343714242443000,3.837443115234375,0.0015339808305725455,-0.00902944803237915,-0.022289859130978584
1686343714252463000,3.847463134765625,0.0023491743486374617,-0.009616674855351448,-0.02654452621936798
1686343714262483200,3.857483154296875,0.0026612968649715185,-0.002547047333791852,-0.02738049067556858
1686343714272502800,3.867502685546875,0.000550475378986448,-0.0021465078461915255,-0.024951156228780746
1686343714282523000,3.87752294921875,-0.003353186184540391,-0.0057319216430187225,-0.016707340255379677
1686343714292542000,3.8875419921875,-0.003385676769539714,-0.012110458686947823,-0.011784753762185574
1686343714302562000,3.89756201171875,0.0014394385507330298,-0.01564580574631691,-0.010142382234334946
1686343714312582000,3.907581787109375,0.0022128205746412277,-0.01552436500787735,-0.008220379240810871
1686343714322602000,3.91760205078125,0.00101120222825557,-0.01375149842351675,-0.012531504034996033
1686343714332622000,3.9276220703125,0.003982757218182087,-0.004969458561390638,-0.018492458388209343
1686343714342642200,3.93764208984375,0.00040426786290481687,0.0019528960110619664,-0.009926133789122105
1686343714352661000,3.947660888671875,-0.002561161993071437,0.007542870938777924,0.0017670074012130499
1686343714362680800,3.957680908203125,-0.0029313412960618734,0.012120312079787254,0.01293603889644146
1686343714372701000,3.967700927734375,-0.003183276392519474,0.0158908162266016,0.019596604630351067
1686343714382721000,3.977720947265625,-0.00515774404630065,0.02165256440639496,0.01600133627653122
1686343714392740000,3.987739990234375,-0.0075668394565582275,0.023390544578433037,0.00929443258792162
1686343714402760000,3.997760009765625,-0.004118045791983604,0.025956498458981514,0.013680658303201199
1686343714412780000,4.007780029296875,-0.0008298410102725029,0.024884311482310295,0.010469951666891575
1686343714422800100,4.017800048828125,-0.002201635157689452,0.025004418566823006,0.020181167870759964
1686343714432820000,4.027820068359375,0.0017235978739336133,0.013363742269575596,0.02010500244796276
1686343714442840000,4.037840087890625,0.011863317340612411,0.005042162723839283,0.022221416234970093
1686343714452859000,4.04785888671875,0.021808359771966934,0.008560731075704098,0.027044666931033134
1686343714462879000,4.05787890625,0.024570856243371964,0.014319284819066525,0.03087562508881092
1686343714472899000,4.067899169921875,0.013583986088633537,0.029858030378818512,0.0359039381146431
1686343714482919000,4.0779189453125,0.005861883983016014,0.04568706080317497,0.036548689007759094
1686343714492939000,4.08793896484375,0.0014772554859519005,0.06821021437644958,0.033429596573114395
1686343714502958000,4.0979580078125,0.0033603766933083534,0.07584469765424728,0.03201732039451599
1686343714512978200,4.107978271484375,0.004485828336328268,0.061403438448905945,0.043961066752672195
1686343714522998000,4.117998046875,0.0014586133183911443,0.045702241361141205,0.05342114716768265
1686343714533018000,4.12801806640625,-0.0070275492034852505,-0.049669552594423294,0.057971157133579254
1686343714543037000,4.138036865234375,-0.004336425103247166,-0.07964982092380524,0.06990078836679459
1686343714553057000,4.14805712890625,-0.015596270561218262,-0.010275807231664658,0.06460162997245789
1686343714563076900,4.158076904296875,-0.017892448231577873,0.04165663197636604,0.02563931606709957
1686343714573097000,4.168096923828125,-0.0013630058383569121,0.040427315980196,-0.0004767058417201042
1686343714583117000,4.178116943359375,0.008047007024288177,0.013672668486833572,0.002030926523730159
1686343714593136000,4.18813623046875,0.006144445389509201,-0.007669903803616762,0.00803342554718256
1686343714603156000,4.198156005859375,0.0005041363765485585,-0.012073973193764687,0.010084858164191246
1686343714613176000,4.208176025390625,-0.0013614079216495156,0.0021438447292894125,-0.0008021441171877086
1686343714623196200,4.218196044921875,-0.0026636936236172915,0.009443568997085094,-0.011871573515236378
1686343714633216000,4.228216064453125,0.0012607404496520758,0.01763918064534664,-0.01906770095229149
1686343714643235000,4.238235107421875,0.0010032127611339092,0.014165620319545269,-0.022337529808282852
1686343714653255000,4.2482548828125,0.004263720940798521,0.011231881566345692,-0.023441409692168236
1686343714663275000,4.25827490234375,0.005823001731187105,0.01079911831766367,-0.029887059703469276
1686343714673295000,4.268295166015625,0.0008050735923461616,0.009218265302479267,-0.016577111557126045
1686343714683315000,4.27831494140625,-0.007098655682057142,0.017902035266160965,0.003769704606384039
1686343714693334000,4.288333984375,-0.012999954633414745,0.027400199323892593,0.0203353650867939
1686343714703355100,4.298355224609375,-0.01335708424448967,0.029216209426522255,0.03753405809402466
1686343714713375000,4.308375,-0.015218101441860199,0.030159765854477882,0.04378582909703255
1686343714723395000,4.31839501953125,-0.012456136755645275,0.02515062689781189,0.0389961339533329
1686343714733414100,4.3284140625,-0.010043046437203884,0.028416460379958153,0.03496330976486206
1686343714743434200,4.338434326171875,-0.004796353168785572,0.027241474017500877,0.023013174533843994
1686343714753454300,4.348454345703125,-0.006731139495968819,0.02906600572168827,0.01835423894226551
1686343714763474200,4.35847412109375,-0.003974501509219408,0.01678989827632904,0.01423539500683546
1686343714773494300,4.368494384765625,-0.004462126176804304,0.013791978359222412,0.018188592046499252
1686343714783513000,4.37851318359375,-0.008825715631246567,0.016516925767064095,0.017057813704013824
1686343714793533200,4.388533203125,-0.010400975123047829,0.02461107075214386,0.017134778201580048
1686343714803553000,4.398552978515625,-0.008405469357967377,0.01564953289926052,0.015894277021288872
1686343714813573000,4.408572998046875,-0.012281966395676136,0.013339773751795292,0.006852047052234411
1686343714823592200,4.41859228515625,-0.011156780645251274,0.011149856261909008,-0.00749067310243845
1686343714833612300,4.4286123046875,-0.008027300238609314,0.012031096033751965,-0.01673423871397972
1686343714843632000,4.438632080078125,-0.004975051153451204,0.009187106974422932,-0.01944693550467491
1686343714853652200,4.44865234375,-0.002721750643104315,0.004855209030210972,-0.014180000871419907
1686343714863672000,4.458672119140625,-0.0028479844331741333,0.009525327943265438,-0.0016466324450448155
1686343714873691100,4.468691162109375,-0.006743390113115311,0.0193081833422184,0.00836578756570816
1686343714883711000,4.4787109375,-0.0052048820070922375,0.02333781309425831,0.009308280423283577
1686343714893731000,4.48873095703125,-0.006088252644985914,0.017015201970934868,0.013465208932757378
1686343714903751200,4.498751220703125,-0.006841128226369619,0.009076319634914398,0.004399542231112719
1686343714913770200,4.508770263671875,-0.019038671627640724,-0.04836753383278847,-0.009284311905503273
1686343714923790300,4.518790283203125,-0.0018194715958088636,-0.16137903928756714,0.005067729391157627
1686343714933810200,4.52881005859375,-0.011718973517417908,-0.09587619453668594,0.026557840406894684
1686343714943830000,4.538830078125,-0.028498221188783646,-0.0037856835406273603,0.018924688920378685
1686343714953850000,4.54885009765625,-0.010712831281125546,0.00951201282441616,0.004608866758644581
1686343714963869200,4.558869140625,-0.009819607250392437,-0.02178412489593029,0.01498241163790226
1686343714973889000,4.568888916015625,-0.010874219238758087,-0.04999472200870514,0.034937210381031036
1686343714983909000,4.5789091796875,-0.011949869804084301,-0.03989015892148018,0.04434642568230629
1686343714993929200,4.58892919921875,-0.011118697002530098,0.021324729546904564,0.03343918174505234
1686343715003948300,4.5989482421875,-0.010891796089708805,0.04839709401130676,0.006957774516195059
1686343715013968100,4.608968017578125,0.004160390235483646,0.027756797149777412,-0.006253102328628302
1686343715023988200,4.61898828125,0.002304965863004327,0.00047643951256759465,-0.014272679574787617
1686343715034008000,4.629008056640625,0.0009739180095493793,-0.009336509741842747,-0.015323296189308167
1686343715044028200,4.639028076171875,-0.00261841993778944,-0.007166832685470581,-0.008927182294428349
1686343715054047200,4.649047119140625,-0.007185741327702999,-0.007213437929749489,-0.0024642229545861483
1686343715064067000,4.659067138671875,-0.004114584065973759,-0.013545902445912361,-0.00010519486386328936
1686343715074087200,4.669087158203125,-0.005084507167339325,-0.016879115253686905,-0.00006125270738266408
1686343715084107300,4.679107177734375,-0.0005605954211205244,-0.02099183388054371,-0.007663778495043516
1686343715094126300,4.689126220703125,0.0033044503070414066,-0.024379907175898552,-0.012538961134850979
1686343715104146200,4.699146240234375,0.0025686188600957394,-0.020001403987407684,-0.023976972326636314
1686343715114166000,4.709166015625,0.0038448055274784565,-0.016050605103373528,-0.030535271391272545
1686343715124186000,4.71918603515625,0.0028639633674174547,-0.0181177519261837,-0.031554464250802994
1686343715134206000,4.7292060546875,0.0017928400775417686,-0.016262326389551163,-0.03928162530064583
1686343715144225000,4.73922509765625,0.00018349179299548268,-0.015174957923591137,-0.04262629151344299
1686343715154245000,4.7492451171875,-0.0013081447687000036,-0.014428740367293358,-0.04384255409240723
1686343715164265200,4.75926513671875,0.002156095113605261,-0.01613263040781021,-0.04488252103328705
1686343715174285000,4.76928515625,0.0021427792962640524,-0.025844380259513855,-0.04904823750257492
1686343715184304000,4.77930419921875,0.007288272958248854,-0.03435557708144188,-0.04936328902840614
1686343715194324000,4.789323974609375,0.012271047569811344,-0.03504373878240585,-0.0508892796933651
1686343715204344000,4.799343994140625,0.012896357104182243,-0.03591166064143181,-0.05163896083831787
1686343715214364200,4.8093642578125,0.014307566918432713,-0.03308524936437607,-0.049140382558107376
1686343715224383200,4.81938330078125,0.013071327470242977,-0.03448687121272087,-0.04553792253136635
1686343715234403000,4.829403076171875,0.00993305817246437,-0.025709092617034912,-0.04102785885334015
1686343715244423200,4.839423095703125,0.011504323221743107,-0.023058447986841202,-0.039075762033462524
1686343715254443300,4.849443359375,0.0075966669246554375,-0.025079254060983658,-0.03714017942547798
1686343715264462300,4.85946240234375,0.011123225092887878,-0.02160036750137806,-0.04204465448856354
1686343715274482200,4.869482177734375,0.005342034623026848,-0.017484450712800026,-0.037766020745038986
1686343715284502000,4.879501953125,0.007903995923697948,-0.0181672852486372,-0.038898397237062454
1686343715294522000,4.889522216796875,0.008264588192105293,-0.0194847509264946,-0.038594529032707214
1686343715304542000,4.8995419921875,0.010490723885595798,-0.02233113907277584,-0.03544960170984268
1686343715314561000,4.90956103515625,0.011962919495999813,-0.022340726107358932,-0.0314740352332592
1686343715324581000,4.9195810546875,0.00737402681261301,-0.019303657114505768,-0.01787114143371582
1686343715334601200,4.929601318359375,0.002906307578086853,-0.018091386184096336,-0.008957542479038239
1686343715344621000,4.93962109375,-0.0010745854815468192,-0.014882010407745838,-0.0029917950741946697
1686343715354640100,4.94964013671875,-0.0004676510870922357,-0.017135843634605408,-0.0018168084789067507
1686343715364660000,4.959659912109375,0.0021608888637274504,-0.01901763305068016,-0.009555155411362648
1686343715374680000,4.96968017578125,0.0018317222129553556,-0.013555489480495453,-0.02473304234445095
1686343715384700200,4.9797001953125,0.003001648932695389,-0.015192534774541855,-0.033603500574827194
1686343715394719200,4.98971923828125,0.0035931370221078396,-0.021166272461414337,-0.04658880829811096
1686343715404739000,4.999739013671875,0.006859770510345697,-0.025660622864961624,-0.047689758241176605
1686343715414759200,5.00975927734375,0.006345247384160757,-0.024210264906287193,-0.04460262134671211
1686343715424779300,5.019779296875,0.011197260580956936,-0.02785639837384224,-0.037390779703855515
1686343715434799000,5.029799072265625,0.009876865893602371,-0.026131736114621162,-0.031325966119766235
1686343715444818000,5.03981787109375,0.008499745279550552,-0.027064107358455658,-0.022110095247626305
1686343715454838000,5.049838134765625,0.0041369544342160225,-0.025672873482108116,-0.00833968911319971
1686343715464858000,5.059858154296875,0.002183525823056698,-0.02852698229253292,-0.00207699928432703
1686343715474878000,5.0698779296875,-0.0009760485263541341,-0.027294205501675606,-0.007533283904194832
1686343715484897000,5.07989697265625,0.0007251787465065718,-0.01902429200708866,-0.010177535936236382
1686343715494917000,5.089917236328125,0.004962800536304712,-0.017857560887932777,-0.022837406024336815
1686343715504937200,5.099937255859375,0.0028461201582103968,-0.015899337828159332,-0.027770910412073135
1686343715514957300,5.109957275390625,0.008223042823374271,-0.016415458172559738,-0.025685124099254608
1686343715524976000,5.11997607421875,0.007783621083945036,-0.016814399510622025,-0.021816348657011986
1686343715534996000,5.129995849609375,0.0056925066746771336,-0.015558453276753426,-0.019659986719489098
1686343715545016000,5.14001611328125,0.0009558085002936423,-0.011840680614113808,-0.013187174685299397
1686343715555036200,5.1500361328125,-0.001915878034196794,-0.00663340138271451,-0.0108257494866848
1686343715565056000,5.160055908203125,-0.0001131843455368653,-0.006871754303574562,-0.009534383192658424
1686343715575075000,5.170074951171875,0.00045806370326317847,-0.007453921716660261,-0.012747487053275108
1686343715585095200,5.18009521484375,0.00276089902035892,-0.005635248962789774,-0.01636672206223011
1686343715595115300,5.190115234375,0.003774498123675585,-0.010569553822278976,-0.016755543649196625
1686343715605135000,5.200135009765625,0.004036819562315941,-0.014494786970317364,-0.012562396936118603
1686343715615154000,5.21015380859375,0.005170261021703482,-0.024028370156884193,-0.010261692106723785
1686343715625174000,5.220174072265625,0.006089850328862667,-0.028061462566256523,-0.01031761895865202
1686343715635194000,5.230194091796875,0.007678692229092121,-0.028441760689020157,-0.006058691535145044
1686343715645214200,5.240214111328125,0.006032059900462627,-0.025347433984279633,-0.0038285604678094387
1686343715655233000,5.25023291015625,0.0036045885644853115,-0.016639163717627525,-0.007756989449262619
1686343715665253000,5.260253173828125,0.0029936593491584063,-0.00951201282441616,-0.01426628790795803
1686343715675273200,5.270273193359375,0.0016761935548856854,0.004297276493161917,-0.015803730115294456
1686343715685293300,5.280293212890625,0.0031156321056187153,0.01489399466663599,-0.011234012432396412
1686343715695312100,5.29031201171875,0.004007258452475071,0.006216350477188826,-0.0070741549134254456
1686343715705331200,5.300331298828125,0.00469595193862915,-0.003448527306318283,0.0034296188969165087
1686343715715351000,5.31035107421875,-0.0007677893154323101,-0.005856557283550501,0.012539760209619999
1686343715725371100,5.32037109375,-0.00105354655534029,-0.009889914654195309,0.02207440882921219
1686343715735391200,5.33039111328125,-0.0020791299175471067,-0.010432933457195759,0.02930009737610817
1686343715745410300,5.340410400390625,-0.005311941262334585,-0.01519839372485876,0.0311691053211689
1686343715755430100,5.35043017578125,-0.007676561828702688,-0.01137089915573597,0.025187378749251366
1686343715765450200,5.3604501953125,-0.007022489327937365,-0.010263822972774506,0.014623683877289295
1686343715775470300,5.37047021484375,-0.006879744119942188,-0.011565576307475567,-0.0037590519059449434
1686343715785489400,5.380489501953125,0.00010705907334340736,-0.009121326729655266,-0.010713097639381886
1686343715795509000,5.390509033203125,0.0000828243064461276,-0.001648230361752212,-0.023366576060652733
1686343715805529000,5.400529052734375,-0.001788312685675919,-0.005094893276691437,-0.024096282199025154
1686343715815549200,5.410549072265625,0.0012756541837006807,-0.007531153038144112,-0.02707289718091488
1686343715825568300,5.420568359375,-0.0007880293414928019,-0.009809221141040325,-0.030972030013799667
1686343715835588000,5.430588134765625,-0.0005725796218030155,-0.015075089409947395,-0.029948044568300247
1686343715845608200,5.440608154296875,-0.002663427498191595,-0.01618536189198494,-0.04194052517414093
1686343715855628300,5.450628173828125,-0.01290541235357523,-0.02412983775138855,-0.04580903425812721
1686343715865648400,5.4606484375,-0.018066352233290672,-0.03311294689774513,-0.05615967512130737
1686343715875667500,5.47066748046875,-0.025655029341578484,-0.05245894566178322,-0.06410042196512222
1686343715885687000,5.48068701171875,-0.0370219349861145,-0.07247287034988403,-0.0678112730383873
1686343715895707100,5.49070703125,-0.047561924904584885,-0.09860300272703171,-0.0831790417432785
1686343715905727200,5.500727294921875,-0.04735979065299034,-0.13568592071533203,-0.08233188837766647
1686343715915746300,5.510746337890625,-0.04858111962676048,-0.21036335825920105,-0.06227429211139679
1686343715925766100,5.52076611328125,-0.06928080320358276,-0.3377700448036194,-0.0009917612187564373
1686343715935786200,5.5307861328125,-0.07401403784751892,-0.4931474030017853,0.05411703139543533
1686343715945806300,5.540806396484375,-0.06884591281414032,-0.6237200498580933,0.0762641429901123
1686343715955825400,5.550825439453125,-0.05596206709742546,-0.7042697668075562,0.042147185653448105
1686343715965845000,5.560844970703125,-0.0211297869682312,-0.7021285891532898,-0.02087865024805069
1686343715975865000,5.570864990234375,0.014256167225539684,-0.6575192809104919,-0.07924342155456543
1686343715985885200,5.58088525390625,0.03778066858649254,-0.5696778297424316,-0.12661200761795044
1686343715995905300,5.5909052734375,0.04384681582450867,-0.3831402063369751,-0.13558952510356903
1686343716005924400,5.60092431640625,0.06665465980768204,-0.30039045214653015,-0.1071765199303627
1686343716015944200,5.610944091796875,0.07587984949350357,-0.2091606706380844,-0.10267578065395355
1686343716025964300,5.62096435546875,0.09269051998853683,-0.09357975423336029,-0.11221522092819214
1686343716035984400,5.630984375,0.08580252528190613,-0.03400670364499092,-0.13281476497650146
1686343716046003200,5.641003173828125,0.035355594009160995,-0.0551639199256897,-0.16247759759426117
1686343716056023000,5.65102294921875,-0.023903468623757362,-0.2394581288099289,-0.2775554358959198
1686343716066043100,5.661043212890625,-0.009558351710438728,-0.2472742348909378,-0.4209485650062561
1686343716076063200,5.671063232421875,0.04909057915210724,-0.16942311823368073,-0.5206040740013123
1686343716086082300,5.681082275390625,0.09050752967596054,-0.08056142181158066,-0.529740571975708
1686343716096102100,5.69110205078125,0.11276276409626007,-0.027516312897205353,-0.4723915159702301
1686343716106122200,5.701122314453125,0.1336667239665985,0.0011867046123370528,-0.40225690603256226
1686343716116142300,5.711142333984375,0.17783550918102264,0.026825223118066788,-0.33508530259132385
1686343716126162200,5.721162109375,0.22320646047592163,0.07269178330898285,-0.2683299779891968
1686343716136181000,5.731180908203125,0.25872477889060974,0.11906087398529053,-0.19684329628944397
1686343716146201000,5.741201171875,0.27067118883132935,0.13921141624450684,-0.13404542207717896
1686343716156221200,5.75122119140625,0.28328365087509155,0.11884462833404541,-0.08104398846626282
1686343716166241300,5.7612412109375,0.2728203535079956,0.08658762276172638,-0.039559658616781235
1686343716176260400,5.77126025390625,0.25959163904190063,0.0554339624941349,0.001219461439177394
1686343716186280200,5.7812802734375,0.24932247400283813,0.021081849932670593,0.05204109847545624
1686343716196300300,5.79130029296875,0.24579325318336487,-0.013319001533091068,0.11443976312875748
1686343716206320400,5.8013203125,0.2365638017654419,-0.05287706479430199,0.18379992246627808
1686343716216339200,5.811339111328125,0.23506498336791992,-0.07790092378854752,0.24010367691516876
1686343716226359000,5.821359130859375,0.2407817244529724,-0.08662490546703339,0.2784465253353119
1686343716236379100,5.831379150390625,0.23829779028892517,-0.08477906882762909,0.30905717611312866
1686343716246399200,5.841399169921875,0.23507829010486603,-0.08850137144327164,0.329616516828537
1686343716256419000,5.851419189453125,0.22635909914970398,-0.0883687436580658,0.33858656883239746
1686343716266438100,5.861438232421875,0.22310765087604523,-0.09154589474201202,0.3305222690105438
1686343716276458200,5.871458251953125,0.20415206253528595,-0.08561503887176514,0.3098667860031128
1686343716286478300,5.881478271484375,0.1836148351430893,-0.07950041443109512,0.28409403562545776
1686343716296498200,5.891498291015625,0.15798483788967133,-0.09904136508703232,0.2562884986400604
1686343716306517200,5.901517333984375,0.12815584242343903,-0.09698433429002762,0.21510058641433716
1686343716316537000,5.911537109375,0.10744922608137131,-0.08059417456388474,0.17087027430534363
1686343716326557200,5.92155712890625,0.08704116195440292,-0.04879124090075493,0.12867489457130432
1686343716336577300,5.931577392578125,0.06842486560344696,-0.013432185165584087,0.09655636548995972
1686343716346596400,5.941596435546875,0.05524567887187004,0.02213726006448269,0.07266195118427277
1686343716356616200,5.9516162109375,0.048722799867391586,0.04174851253628731,0.05281953886151314
1686343716366636300,5.96163623046875,0.0544147714972496,0.04869643226265907,0.027722174301743507
1686343716376656400,5.971656494140625,0.07554508745670319,0.04183240234851837,0.02569151483476162
1686343716386676200,5.98167626953125,0.0900430753827095,-0.012474779039621353,0.007196127437055111
1686343716396695000,5.991695068359375,0.08582915365695953,-0.048471130430698395,-0.04894570633769035
1686343716406715100,6.001715087890625,0.07256634533405304,-0.048166196793317795,-0.1290637105703354
1686343716416735200,6.0117353515625,0.06112567335367203,-0.004076766781508923,-0.1881139874458313
1686343716426755000,6.021755126953125,0.04351605102419853,0.06181170046329498,-0.21054019033908844
1686343716436774100,6.031774169921875,0.028447620570659637,0.09413608908653259,-0.1931777149438858
1686343716446794200,6.041794189453125,0.0073687005788087845,0.11337422579526901,-0.12986771762371063
1686343716456814300,6.051814453125,-0.026792198419570923,0.1286192238330841,-0.056656088680028915
1686343716466834400,6.06183447265625,-0.06248042359948158,0.13194018602371216,0.01606711745262146
1686343716476853200,6.071853271484375,-0.09313526749610901,0.11468636989593506,0.044195689260959625
1686343716486873000,6.081873046875,-0.11636336147785187,0.08889951556921005,0.03050544485449791
1686343716496893200,6.09189306640625,-0.15328675508499146,0.06811673939228058,-0.0021438447292894125
1686343716506913300,6.101913330078125,-0.19644461572170258,0.07183051109313965,-0.04163266345858574
1686343716516933000,6.11193310546875,-0.24632695317268372,0.10279428958892822,-0.078099325299263
1686343716526952200,6.1219521484375,-0.2925224006175995,0.1358148157596588,-0.08761054277420044
1686343716536972300,6.13197216796875,-0.3225266635417938,0.16670909523963928,-0.08608614653348923
1686343716546992400,6.141992431640625,-0.3272300660610199,0.1976129412651062,-0.08839191496372223
1686343716557012200,6.15201220703125,-0.3096920847892761,0.219090536236763,-0.08072573691606522
1686343716567031000,6.162031005859375,-0.2935405373573303,0.25238510966300964,-0.058752529323101044
1686343716577051100,6.172051025390625,-0.27574288845062256,0.27664437890052795,-0.03442908078432083
1686343716587071200,6.1820712890625,-0.2596515417098999,0.28248974680900574,-0.016996027901768684
1686343716597091000,6.192091064453125,-0.25121599435806274,0.27766117453575134,0.004008856136351824
1686343716607111200,6.202111083984375,-0.24625557661056519,0.26392698287963867,0.017004016786813736
1686343716617130200,6.212130126953125,-0.2501046359539032,0.24159663915634155,0.03146364912390709
1686343716627150300,6.222150390625,-0.25210121273994446,0.2184782773256302,0.04610677435994148
1686343716637170400,6.23217041015625,-0.2523922920227051,0.21379511058330536,0.06594652682542801
1686343716647190300,6.242190185546875,-0.25038135051727295,0.206180602312088,0.10189946740865707
1686343716657209000,6.252208984375,-0.24347764253616333,0.19921164214611053,0.14833781123161316
1686343716667229200,6.262229248046875,-0.23487509787082672,0.19167809188365936,0.1800917387008667
1686343716677249300,6.272249267578125,-0.21999602019786835,0.1803165078163147,0.1995599865913391
1686343716687269000,6.28226904296875,-0.18773899972438812,0.15351977944374084,0.2046535462141037
1686343716697289200,6.292289306640625,-0.15548786520957947,0.1304948925971985,0.20000526309013367
1686343716707308000,6.30230810546875,-0.12807168066501617,0.12416961789131165,0.19665953516960144
1686343716717328100,6.312328125,-0.11026445776224136,0.12133681774139404,0.20322449505329132
1686343716727348000,6.322347900390625,-0.08971497416496277,0.1331966668367386,0.19867128133773804
1686343716737367800,6.332367919921875,-0.06373290717601776,0.1480826735496521,0.20084601640701294
1686343716747387000,6.342386962890625,-0.045709431171417236,0.1492813676595688,0.22058163583278656
1686343716757407000,6.352406982421875,-0.05561452731490135,0.08502727746963501,0.20388202369213104
1686343716767427000,6.362427001953125,-0.06827493011951447,0.11141441017389297,0.15776486694812775
1686343716777447000,6.372447021484375,-0.06331904977560043,0.14754605293273926,0.11283493787050247
1686343716787467000,6.382467041015625,-0.06744375824928284,0.18958324193954468,0.08139019459486008
1686343716797486000,6.392486083984375,-0.07114394754171371,0.2250448316335678,0.06592708826065063
1686343716807506200,6.402506103515625,-0.09662774205207825,0.2237934172153473,0.05710482969880104
1686343716817525800,6.41252587890625,-0.11539876461029053,0.22394494712352753,0.07594935595989227
1686343716827545900,6.4225458984375,-0.1452013999223709,0.2289666086435318,0.10362546145915985
1686343716837565000,6.43256494140625,-0.15919391810894012,0.22808296978473663,0.12955133616924286
1686343716847585000,6.4425849609375,-0.1439603716135025,0.2072858065366745,0.13643240928649902
1686343716857604900,6.45260498046875,-0.11574018001556396,0.1678241491317749,0.13060994446277618
1686343716867625000,6.462625,-0.0928601622581482,0.13880608975887299,0.12455444782972336
1686343716877644000,6.47264404296875,-0.07754352688789368,0.11535561829805374,0.12271393835544586
1686343716887664000,6.4826640625,-0.07506119459867477,0.1104612648487091,0.14173422753810883
1686343716897684000,6.49268408203125,-0.08513433486223221,0.10304223001003265,0.16108529269695282
1686343716907703800,6.502703857421875,-0.08924359083175659,0.10969933122396469,0.16273058950901031
1686343716917724000,6.512723876953125,-0.08254601061344147,0.11171668022871017,0.15349474549293518
1686343716927743000,6.522742919921875,-0.06836547702550888,0.11138325184583664,0.12377440184354782
1686343716937763000,6.53276318359375,-0.06627383083105087,0.12452781200408936,0.08091136068105698
1686343716947783000,6.542782958984375,-0.061528075486421585,0.1540774554014206,0.0538451224565506
1686343716957803000,6.552802978515625,-0.05143016576766968,0.17122581601142883,0.03904833272099495
1686343716967823000,6.562822998046875,-0.051530834287405014,0.18811051547527313,0.014624216593801975
1686343716977842000,6.572842041015625,-0.05413727089762688,0.17461521923542023,-0.0018985675415024161
1686343716987861800,6.58286181640625,-0.04472352936863899,0.138131245970726,0.020860275253653526
1686343716997881900,6.5928818359375,-0.04898858070373535,0.11992507427930832,0.04652915149927139
1686343717007902000,6.60290185546875,-0.050872769206762314,0.09539416432380676,0.06550470739603043
1686343717017921000,6.612921142578125,-0.04620637744665146,0.08223149180412292,0.07244890183210373
1686343717027940900,6.62294091796875,-0.039455264806747437,0.06787145882844925,0.06348229944705963
1686343717037961000,6.6329609375,-0.02148372121155262,0.05065598711371422,0.03304210677742958
1686343717047981000,6.64298095703125,-0.013971475884318352,0.04452592134475708,0.005873601883649826
1686343717058001200,6.653001220703125,-0.0193697027862072,0.042271822690963745,-0.006315952632576227
1686343717068020000,6.66302001953125,-0.023305322974920273,0.060979198664426804,-0.012683304958045483
1686343717078039800,6.673039794921875,-0.03435903787612915,0.08180511742830276,-0.027512583881616592
1686343717088060000,6.683059814453125,-0.03776974976062775,0.058108311146497726,-0.03323518484830856
1686343717098080000,6.693080078125,-0.020110860466957092,0.019941484555602074,-0.01973535493016243
1686343717108099000,6.70309912109375,-0.010459830984473228,-0.005742840468883514,-0.008243282325565815
1686343717118119000,6.713118896484375,-0.000922519015148282,-0.030011162161827087,-0.006207562051713467
1686343717128139000,6.723138916015625,0.004375307355076075,-0.03789038956165314,-0.006478671915829182
1686343717138159000,6.7331591796875,0.004831506870687008,-0.03244582563638687,-0.018434667959809303
1686343717148179000,6.743178955078125,0.009287241846323013,-0.02616821974515915,-0.027291009202599525
1686343717158197800,6.75319775390625,0.011836685240268707,-0.022906115278601646,-0.04811559617519379
1686343717168217900,6.7632177734375,0.014853248372673988,-0.02033776231110096,-0.05736821889877319
1686343717178238000,6.773238037109375,0.019390741363167763,-0.018022410571575165,-0.07891985028982162
1686343717188258000,6.783258056640625,0.018989669159054756,-0.01691586710512638,-0.09264205396175385
1686343717198278000,6.79327783203125,0.02105042338371277,-0.014779211953282356,-0.10773658007383347
1686343717208297000,6.803296875,0.01745222695171833,-0.0057588196359574795,-0.10437434166669846
1686343717218317000,6.813317138671875,0.014579208567738533,-0.004991296678781509,-0.09203751385211945
1686343717228337200,6.823337158203125,0.008008924312889576,-0.002799781272187829,-0.07636640965938568
1686343717238357000,6.83335693359375,0.000055393749789800495,-0.0016492956783622503,-0.05475512519478798
1686343717248375800,6.843375732421875,-0.003969175275415182,0.002243446884676814,-0.03380643203854561
1686343717258396000,6.85339599609375,-0.010939466767013073,0.00276169809512794,-0.016760870814323425
1686343717268416000,6.863416015625,-0.010571151971817017,0.0065353973768651485,-0.014795191586017609
1686343717278435800,6.873435791015625,-0.009559416212141514,0.010782606899738312,-0.01666126772761345
1686343717288456000,6.8834560546875,-0.01420610025525093,0.023899206891655922,-0.02149304188787937
1686343717298475000,6.89347509765625,-0.012791162356734276,0.030615167692303658,-0.03145299851894379
1686343717308495000,6.9034951171875,-0.010426009073853493,0.03343838453292847,-0.04102413356304169
1686343717318515000,6.913514892578125,-0.004004861693829298,0.02839355729520321,-0.046851128339767456
1686343717328535000,6.92353515625,-0.00006844323797849938,0.026919765397906303,-0.04381299391388893
1686343717338555000,6.933554931640625,-0.0041585261933505535,0.022429674863815308,-0.02917839214205742
1686343717348574000,6.943573974609375,-0.008755408227443695,0.014416489750146866,-0.004342284053564072
1686343717358594000,6.953593994140625,-0.0038224351592361927,0.004292749334126711,0.014961904846131802
1686343717368614000,6.96361376953125,-0.006054430268704891,0.004051200579851866,0.025547703728079796
1686343717378634000,6.973634033203125,-0.0033987262286245823,0.00926327332854271,0.020830713212490082
1686343717388654000,6.983654052734375,-0.003875964554026723,0.020603012293577194,0.007089600898325443
1686343717398673200,6.993673095703125,-0.0018136126454919577,0.03592977300286293,-0.012437228113412857
1686343717408693000,7.00369287109375,0.0004191815387457609,0.045749910175800323,-0.028622856363654137
1686343717418712800,7.013712890625,0.0023092268966138363,0.04926981031894684,-0.030894799157977104
1686343717428733000,7.02373291015625,-0.00012010856153210625,0.037629399448633194,-0.03164314851164818
1686343717438752800,7.033752685546875,0.0026290726382285357,0.038423288613557816,-0.02255750633776188
1686343717448771800,7.043771728515625,0.001228516222909093,0.0420830063521862,-0.023029685020446777
1686343717458792000,7.0537919921875,0.00446905056014657,0.04090402275323868,-0.015384815633296967
1686343717468812000,7.06381201171875,0.001820803270675242,0.031797610223293304,-0.011379953473806381
1686343717478832000,7.07383203125,0.0017603494925424457,0.026385001838207245,-0.011515242047607899
1686343717488851000,7.083850830078125,-0.000618918624240905,0.02618499845266342,-0.007395864464342594
1686343717498870800,7.093870849609375,-0.008290953002870083,0.03308125585317612,-0.009840646758675575
1686343717508891000,7.103890869140625,-0.0062400526367127895,0.04091867059469223,-0.00953731220215559
1686343717518911000,7.113910888671875,-0.005855492316186428,0.04412271827459335,-0.012169314548373222
1686343717528930800,7.123930908203125,-0.006625678390264511,0.0467536561191082,-0.013105149380862713
1686343717538950000,7.133949951171875,-0.003472495824098587,0.04374508187174797,-0.00446905056014657
1686343717548970000,7.143969970703125,-0.002086320426315069,0.03043939918279648,-0.0008314388687722385
1686343717558990000,7.153989990234375,-0.003534813644364476,0.013934191316366196,0.0018578211311250925
1686343717569010000,7.164010009765625,-0.004539890680462122,0.002766757970675826,0.0005507417372427881
1686343717579030000,7.174030029296875,-0.004816060420125723,0.005878928117454052,0.0034264230635017157
1686343717589048800,7.184048828125,-0.012685701251029968,0.011255583725869656,0.005314338020980358
1686343717599069000,7.19406884765625,-0.015085741877555847,0.01782134175300598,0.005243764258921146
1686343717609089000,7.204089111328125,-0.015362444333732128,0.02269625850021839,-0.005753759294748306
1686343717619108900,7.21410888671875,-0.005829127039760351,0.02340678870677948,-0.019846942275762558
1686343717629129000,7.22412890625,0.0013568805297836661,0.03266952931880951,-0.03478115051984787
1686343717639148000,7.23414794921875,0.0013459615875035524,0.034150779247283936,-0.04785247519612312
1686343717649168100,7.244168212890625,0.009682455100119114,0.02815680392086506,-0.05758606269955635
1686343717659188000,7.25418798828125,0.01196984387934208,0.019206983968615532,-0.06510230153799057
1686343717669208000,7.2642080078125,0.017780061811208725,0.014230601489543915,-0.06826774030923843
1686343717679228200,7.274228271484375,0.015545137226581573,0.014677213504910469,-0.06905470043420792
1686343717689247000,7.2842470703125,0.014544054865837097,0.015558186918497086,-0.0673082023859024
1686343717699266800,7.294266845703125,0.010311493650078773,0.012234562076628208,-0.06326552480459213
1686343717709288000,7.304287841796875,0.008039550855755806,0.006617955397814512,-0.05224562808871269
1686343717719307800,7.314307861328125,0.003022954100742936,0.01401515118777752,-0.04007338359951973
1686343717729327900,7.324327880859375,0.0004620584368240088,0.02016226015985012,-0.02099076844751835
1686343717739347000,7.334346923828125,-0.002442118711769581,0.02610909938812256,-0.014689197763800621
1686343717749367000,7.344366943359375,-0.000009054747351910919,0.022976422682404518,-0.011974104680120945
1686343717759387100,7.35438720703125,0.010611898265779018,0.02232394739985466,-0.01871722936630249
1686343717769407000,7.364406982421875,0.013846839778125286,0.020497284829616547,-0.04015514254570007
1686343717779425800,7.37442578125,0.021220333874225616,0.005331115797162056,-0.049914829432964325
1686343717789446000,7.38444580078125,0.023802269250154495,-0.012626046314835548,-0.05750963091850281
1686343717799466000,7.394466064453125,0.02629844844341278,-0.027824707329273224,-0.06251876801252365
1686343717809485800,7.40448583984375,0.02588379569351673,-0.031242607161402702,-0.06282663345336914
1686343717819506000,7.414505859375,0.021465344354510307,-0.027752269059419632,-0.06103193014860153
1686343717829525000,7.42452490234375,0.015570437535643578,-0.01429265271872282,-0.05806570127606392
1686343717839545000,7.434545166015625,0.012625513598322868,-0.005420065484941006,-0.05389918386936188
1686343717849565000,7.44456494140625,0.005943909287452698,0.005289836786687374,-0.05901538208127022
1686343717859585000,7.4545849609375,-0.00046365635353140533,0.008402805775403976,-0.06096401810646057
1686343717869605000,7.464605224609375,-0.0006471481174230576,0.009771670214831829,-0.06476914137601852
1686343717879624000,7.4746240234375,0.004448544234037399,0.009814014658331871,-0.06958679854869843
1686343717889644000,7.48464404296875,0.001586178783327341,0.01338717807084322,-0.06443438678979874
1686343717899664000,7.494663818359375,0.00036964676110073924,0.01774544082581997,-0.043471045792102814
1686343717909684000,7.50468408203125,-0.006131662055850029,0.02479429543018341,-0.02286936342716217
1686343717919704000,7.5147041015625,-0.010179933160543442,0.017467141151428223,0.0006436860421672463
1686343717929723100,7.52472314453125,-0.013099556788802147,0.020855747163295746,0.012107263319194317
1686343717939743000,7.534742919921875,-0.020556140691041946,0.034323353320360184,0.0150428656488657
1686343717949763000,7.54476318359375,-0.02895069122314453,0.04683142155408859,0.021868014708161354
1686343717959783200,7.554783203125,-0.026152774691581726,0.050156377255916595,0.026091521605849266
1686343717969802800,7.564802734375,-0.0234664436429739,0.05188982933759689,0.026517627760767937
1686343717979821800,7.57482177734375,-0.023365776985883713,0.06030328944325447,0.03544401004910469
1686343717989842000,7.584842041015625,-0.026200445368885994,0.07522977143526077,0.0424843430519104
1686343717999862000,7.594862060546875,-0.02635277807712555,0.08672157675027847,0.05464699864387512
1686343718009881900,7.6048818359375,-0.022944197058677673,0.08176783472299576,0.057251572608947754
1686343718019902000,7.61490185546875,-0.017740381881594658,0.06870103627443314,0.05898795276880264
1686343718029921000,7.624921142578125,-0.015134477987885475,0.06503146141767502,0.06493452191352844
1686343718039941000,7.634941162109375,-0.02219584956765175,0.07049254328012466,0.07252639532089233
1686343718049961000,7.6449609375,-0.022455507889389992,0.08472394198179245,0.0851316750049591
1686343718059980800,7.654980712890625,-0.013679060153663158,0.09099914878606796,0.09577925503253937
1686343718069999900,7.664999755859375,-0.011522965505719185,0.06857160478830338,0.10555731505155563
1686343718080020000,7.67502001953125,-0.011059042997658253,0.04855262115597725,0.10142835229635239
1686343718090040000,7.6850400390625,-0.012446549721062183,0.052923668175935745,0.08590026199817657
1686343718100060000,7.695059814453125,-0.019809924066066742,0.041072335094213486,0.06113632395863533
1686343718110080000,7.705080078125,-0.016982978209853172,-0.06563759595155716,0.037645913660526276
1686343718120099000,7.71509912109375,-0.005525526590645313,-0.12550652027130127,0.04050588235259056
1686343718130119000,7.725118896484375,-0.014164554886519909,-0.06665359437465668,0.03439978510141373
1686343718140138800,7.735138671875,-0.013741378672420979,-0.015472433529794216,0.009301888756453991
1686343718150158800,7.745158935546875,-0.006076801102608442,0.01961551234126091,-0.0008942894637584686
1686343718160179000,7.755178955078125,-0.009813215583562851,-0.008797219954431057,-0.009009740315377712
1686343718170198000,7.765197998046875,0.00152306177187711,-0.04466200992465019,-0.011757057160139084
1686343718180217900,7.7752177734375,0.0018602180061861873,-0.027123495936393738,-0.029465213418006897
1686343718190238000,7.785238037109375,-0.0029470541048794985,0.0026519757229834795,-0.04782824218273163
1686343718200258000,7.795258056640625,-0.007559915538877249,0.015445801429450512,-0.05858714506030083
1686343718210277000,7.805277099609375,-0.006608367897570133,0.014052702113986015,-0.04210670664906502
1686343718220297000,7.815296875,-0.005292233545333147,0.007445931900292635,-0.027091804891824722
1686343718230316800,7.82531689453125,-0.012834039516746998,0.015574698336422443,-0.007781223859637976
1686343718240337000,7.8353369140625,-0.014668690972030163,0.01576378382742405,0.009453422389924526
1686343718250357000,7.84535693359375,-0.01044252049177885,0.010094977915287018,0.01926131173968315
1686343718260376000,7.8553759765625,-0.012477975338697433,0.0004106594424229115,0.026318423449993134
1686343718270396000,7.86539599609375,-0.009953298605978489,-0.012170646339654922,0.02526674047112465
1686343718280416000,7.875416015625,-0.010993795469403267,-0.008217450231313705,0.017732391133904457
1686343718290436000,7.88543603515625,-0.009839314967393875,-0.003329217666760087,0.01335894875228405
1686343718300456000,7.8954560546875,-0.007513309828937054,-0.006621151231229305,0.007752461824566126
1686343718310474800,7.905474853515625,-0.002805107505992055,0.004716191906481981,0.006105563137680292
1686343718320494800,7.915494873046875,-0.007486678194254637,0.010279002599418163,0.0048826392740011215
1686343718330515000,7.925514892578125,-0.004691424313932657,0.009817477315664291,0.011199391447007656
1686343718340535000,7.93553515625,-0.0028634308837354183,-0.007987353019416332,0.019046928733587265
1686343718350554000,7.94555419921875,-0.0057798586785793304,-0.010147974826395512,0.023692013695836067
1686343718360574000,7.955573974609375,-0.007355384528636932,-0.004746019374579191,0.01732412911951542
1686343718370594000,7.965593994140625,-0.0075812204740941525,-0.0001627191377338022,0.006102367304265499
1686343718380614100,7.9756142578125,-0.010729343630373478,0.0035958001390099525,-0.0005046690348535776
1686343718390634000,7.985634033203125,-0.012702745385468006,-0.011782091110944748,-0.005292766261845827
1686343718400652800,7.99565283203125,-0.01575632579624653,-0.035590484738349915,0.009428655728697777
1686343718410673000,8.0056728515625,-0.02425713650882244,-0.07406970113515854,0.02106507122516632
1686343718420693000,8.01569287109375,-0.02947852946817875,-0.1314712017774582,0.030667098239064217
1686343718430712800,8.025712890625,-0.02160595916211605,-0.13257774710655212,0.06506954878568649
1686343718440732000,8.03573193359375,-0.024393223226070404,-0.05931232497096062,0.06802964955568314
1686343718450752000,8.045751953125,-0.01949114352464676,-0.026151176542043686,0.0301445871591568
1686343718460772000,8.055772216796875,0.000639691308606416,-0.01979048177599907,0.0017808558186516166
1686343718470792000,8.0657919921875,0.0025161546654999256,-0.02148824743926525,-0.010243848897516727
1686343718480812000,8.07581201171875,0.0015068164793774486,-0.016233032569289207,-0.019651198759675026
1686343718490830800,8.085830810546875,0.005058674607425928,-0.01272964384406805,-0.027106719091534615
1686343718500851000,8.095850830078126,0.006579339504241943,-0.010030795820057392,-0.02112126350402832
1686343718510871000,8.10587109375,-0.0015049523208290339,-0.012782907113432884,-0.024089889600872993
1686343718520891000,8.115890869140625,0.0012239888310432434,-0.02949264459311962,-0.020482372492551804
1686343718530910000,8.125909912109375,-0.003522563260048628,-0.05246666818857193,-0.011842810548841953
1686343718540930000,8.135929931640625,-0.0008103998843580484,-0.07446704059839249,0.0008788431296125054
1686343718550950100,8.1459501953125,-0.002552639925852418,-0.09038981795310974,0.010746654123067856
1686343718560970000,8.155969970703126,-0.0051718587055802345,-0.09128117561340332,0.01558375358581543
1686343718570989800,8.16598974609375,-0.003297259798273444,-0.08754423260688782,0.015111574903130531
1686343718581009000,8.1760087890625,-0.007477889768779278,-0.06888265907764435,0.01643170416355133
1686343718591029000,8.186029052734375,-0.005185174755752087,-0.02544517256319523,0.01830124296247959
1686343718601048800,8.196048828125,-0.012374644167721272,0.040160201489925385,0.008926915936172009
1686343718611069000,8.20606884765625,-0.010234261862933636,0.03407594561576843,-0.008301871828734875
1686343718621088000,8.216087890625,-0.002725212834775448,0.03152676671743393,-0.01432061567902565
1686343718631108000,8.226108154296876,-0.015077220275998116,0.028481176123023033,-0.01925971545279026
1686343718641128000,8.2361279296875,-0.01387214008718729,0.036732714623212814,-0.0057622818276286125
1686343718651148000,8.24614794921875,-0.020955881103873253,0.03945606201887131,-0.011521367356181145
1686343718661166800,8.256166748046875,-0.008303203620016575,0.031924378126859665,-0.00809068325906992
1686343718671187000,8.26618701171875,-0.009832124225795269,0.02893604338169098,-0.015719307586550713
1686343718681207000,8.27620703125,-0.005762814078480005,0.00865926779806614,-0.009377522394061089
1686343718691227000,8.286226806640625,0.004454403184354305,-0.0035063179675489664,-0.006754841655492783
1686343718701247000,8.2962470703125,0.0028517129831016064,-0.0010937602492049336,0.005129780620336533
1686343718711266000,8.30626611328125,0.0035457327030599117,-0.007675496395677328,0.009666475467383862
1686343718721286100,8.3162861328125,0.0065167550928890705,-0.007782289292663336,0.011244132183492184
1686343718731306000,8.326305908203125,-0.000707868195604533,0.006472812965512276,0.008904811926186085
1686343718741326000,8.336326171875,0.003169161733239889,0.002151035238057375,0.012498481199145317
1686343718751345000,8.346344970703125,-0.00010066748654935509,0.029085181653499603,0.02502812072634697
1686343718761365000,8.356364990234376,-0.013794109225273132,0.04270938038825989,0.030239928513765335
1686343718771384800,8.366384765625,-0.0021859225817024708,0.02281210571527481,0.03742619976401329
1686343718781405000,8.376405029296874,-0.00878230668604374,0.03142503276467323,0.042822033166885376
1686343718791424000,8.386424072265624,-0.010961038060486317,0.023239009082317352,0.0344913974404335
1686343718801444000,8.396444091796875,-0.0027087011840194464,0.014329138211905956,0.03531458228826523
1686343718811464200,8.406464111328125,-0.0011728560784831643,0.010876083746552467,0.03514333814382553
1686343718821484000,8.416484130859375,0.0024623586796224117,0.01549347210675478,0.04077805578708649
1686343718831502800,8.4265029296875,-0.00902891531586647,0.016102271154522896,0.04125715792179108
1686343718841523000,8.43652294921875,-0.004351338837295771,-0.0028506475500762463,0.047272440046072006
1686343718851543000,8.44654296875,-0.00863343570381403,-0.0004346278728917241,0.04241989552974701
1686343718861563000,8.45656298828125,-0.008156729862093925,-0.008268049918115139,0.034328680485486984
1686343718871582000,8.46658203125,-0.004614725708961487,-0.006025401875376701,0.030530478805303574
1686343718881602000,8.47660205078125,0.00032330775866284966,0.0036639769095927477,0.025950640439987183
1686343718891622100,8.4866220703125,-0.004345213528722525,0.001776594785042107,0.015789082273840904
1686343718901642000,8.49664208984375,-0.0036429380998015404,-0.010152502916753292,0.013320865109562874
1686343718911660800,8.506660888671876,-0.000782436749432236,-0.02142646163702011,0.016833042725920677
1686343718921681000,8.516680908203124,0.0009291769238188863,-0.03295528516173363,0.02702682465314865
1686343718931701000,8.526700927734375,0.0035297537688165903,-0.03206579014658928,0.03347593545913696
1686343718941721000,8.53672119140625,-0.004505802411586046,-0.028388498350977898,0.03479020297527313
1686343718951740000,8.546739990234375,-0.009581521153450012,-0.012320049107074738,0.039928242564201355
1686343718961760000,8.556760009765625,-0.010031861253082752,0.0003278351214248687,0.03835431486368179
1686343718971780000,8.566780029296876,-0.011769041419029236,0.0027715517207980156,0.03368739038705826
1686343718981800200,8.57680029296875,-0.004991562571376562,-0.001116130850277841,0.023494141176342964
1686343718991819000,8.586819091796874,-0.003025350859388709,0.0026325348298996687,0.0073567163199186325
1686343719001838800,8.5968388671875,-0.005147091578692198,0.007555387914180756,-0.007251254748553038
1686343719011859000,8.60685888671875,-0.0024913870729506016,0.010613229125738144,-0.01998143084347248
1686343719021879000,8.616879150390625,-0.0000958738019107841,0.009830792434513569,-0.028925390914082527
1686343719031898000,8.626898193359375,0.00253479671664536,0.014463094994425774,-0.027943218126893044
1686343719041918000,8.63691796875,-0.003041330026462674,0.023022228851914406,-0.021686652675271034
1686343719051938000,8.64693798828125,-0.0037947380915284157,0.03389458358287811,-0.0054549528285861015
1686343719061958100,8.656958251953125,-0.010686466470360756,0.036558810621500015,0.018554508686065674
1686343719071977000,8.66697705078125,-0.014356302097439766,0.02582440711557865,0.043298203498125076
1686343719081996800,8.676996826171875,-0.019462114199995995,0.014462029561400414,0.05702253803610802
1686343719092017000,8.687016845703125,-0.019899938255548477,0.009150887839496136,0.052914079278707504
1686343719102037000,8.697037109375,-0.02328241989016533,0.008944492787122726,0.04427372291684151
1686343719112056000,8.70705615234375,-0.024961275979876518,0.022646723315119743,0.028983181342482567
1686343719122076200,8.717076171875,-0.013588513247668743,0.034453049302101135,0.02315884828567505
1686343719132096000,8.727095947265624,-0.012546684592962265,0.03813247010111809,0.008134625852108002
1686343719142116000,8.7371162109375,-0.011773302219808102,0.036127910017967224,0.00498064374551177
1686343719152135000,8.747135009765625,-0.010422813706099987,0.025969281792640686,0.010617224499583244
1686343719162155000,8.757155029296875,-0.015212242491543293,0.010643322952091694,0.015116634778678417
1686343719172174800,8.7671748046875,-0.010538660921156406,0.004496747627854347,0.015793610364198685
1686343719182195000,8.77719482421875,-0.008570052683353424,0.00282002124004066,0.01961018703877926
1686343719192214000,8.787214111328124,-0.00771810719743371,-0.0010958907660096884,0.028846561908721924
1686343719202234000,8.797234130859374,-0.00803289283066988,-0.0002516687090974301,0.022334333509206772
1686343719212254000,8.80725390625,-0.01130858063697815,-0.003746002446860075,0.012148009613156319
1686343719222273000,8.81727294921875,-0.011109109967947006,-0.0044144559651613235,0.0008253136184066534
1686343719232292900,8.82729296875,-0.011379687115550041,-0.000031691615731688216,-0.0007001450285315514
1686343719242313000,8.83731298828125,-0.015172827988862991,0.008946890011429787,0.001731320982798934
1686343719252332800,8.847332763671876,-0.018330005928874016,0.005224322900176048,0.004866660572588444
1686343719262352000,8.857351806640626,-0.013884922489523888,0.004032026045024395,0.016884174197912216
1686343719272372000,8.8673720703125,-0.013706757687032223,0.010893660597503185,0.025602299720048904
1686343719282392000,8.87739208984375,-0.013352557085454464,0.014268684200942516,0.030787207186222076
1686343719292412200,8.887412109375,-0.01575978845357895,0.01293657161295414,0.04272216185927391
1686343719302431200,8.89743115234375,-0.015836220234632492,0.02087998203933239,0.03728878125548363
1686343719312451000,8.907451171875,-0.013560815714299679,0.032404810190200806,0.027653465047478676
1686343719322471000,8.917470947265626,-0.022777484729886055,0.05366269499063492,0.026938140392303467
1686343719332491000,8.927490966796874,-0.02804148755967617,0.06335074454545975,0.029941920191049576
1686343719342510000,8.937510009765624,-0.03346288576722145,0.07233092188835144,0.03176591917872429
1686343719352530000,8.947530029296875,-0.03537103906273842,0.0620868057012558,0.04326038807630539
1686343719362550000,8.957550048828125,-0.035482894629240036,0.033357422798871994,0.05522384122014046
1686343719372569000,8.967569091796875,-0.031681496649980545,0.015262309461832047,0.06226284056901932
1686343719382589200,8.977589111328125,-0.02965376526117325,-0.0026106967125087976,0.062302522361278534
1686343719392609000,8.987609130859376,-0.02533385157585144,-0.008518120273947716,0.05618816986680031
1686343719402628900,8.99762890625,-0.023069899529218674,0.003546531544998288,0.04164118692278862
1686343719412648000,9.00764794921875,-0.01079618837684393,0.00061279337387532,0.024216655641794205
1686343719422668000,9.01766796875,-0.002938798163086176,0.02658660337328911,0.009591907262802124
1686343719432687900,9.02768798828125,-0.007889614440500736,0.02997068129479885,-0.012073973193764687
1686343719442708000,9.0377080078125,0.00577746145427227,0.002633067313581705,-0.02160729095339775
1686343719452727000,9.04772705078125,0.0013638047967106104,-0.007285343483090401,-0.019118301570415497
1686343719462747100,9.0577470703125,-0.004036020487546921,-0.014285195618867874,-0.016994962468743324
1686343719472767200,9.067767333984374,-0.0038549257442355156,-0.017892181873321533,-0.01065344363451004
1686343719482786000,9.0777861328125,-0.005193963181227446,-0.03225674107670784,-0.0032000544015318155
1686343719492806000,9.087805908203125,0.0006205165409483016,-0.036740172654390335,0.004605937283486128
1686343719502826000,9.097825927734375,-0.0023273364640772343,-0.028379976749420166,0.0016801883466541767
1686343719512846000,9.10784619140625,0.0010239854454994202,-0.023906664922833443,-0.009438775479793549
1686343719522865200,9.117865234375,-0.0011201255256310105,-0.02293141558766365,-0.01894998922944069
1686343719532885000,9.127885009765626,0.002385925967246294,-0.026337597519159317,-0.022792397066950798
1686343719542905000,9.137905029296874,0.0006956176948733628,-0.018850119784474373,-0.025975141674280167
1686343719552925200,9.14792529296875,-0.0012607404496520758,-0.01619814522564411,-0.02503131702542305
1686343719562944000,9.157944091796875,-0.001466602785512805,-0.018674617633223534,-0.027232686057686806
1686343719572963800,9.1679638671875,-0.0015646071406081319,-0.01894226484000683,-0.02816266193985939
1686343719582984000,9.17798388671875,-0.003923634998500347,-0.011848137713968754,-0.036852024495601654
1686343719593003000,9.1880029296875,-0.004000067710876465,0.002673813607543707,-0.039982568472623825
1686343719603023000,9.198023193359376,-0.0010458233300596476,-0.006973220966756344,-0.044254280626773834
1686343719613043000,9.20804296875,0.00045566685730591416,-0.018063688650727272,-0.03851117193698883
1686343719623063000,9.21806298828125,0.002840793924406171,-0.0279698483645916,-0.02947773039340973
1686343719633081900,9.228081787109375,-0.0009603358921594918,-0.042876891791820526,-0.02749633975327015
1686343719643102000,9.23810205078125,0.0012532835826277733,-0.049307893961668015,-0.023143403232097626
1686343719653122000,9.2481220703125,-0.0029696908313781023,-0.057729609310626984,-0.02184164896607399
1686343719663141000,9.25814111328125,-0.0046634613536298275,-0.0677364394068718,-0.01907702162861824
1686343719673161000,9.268160888671876,-0.0047087352722883224,-0.07404253631830215,-0.02443024143576622
1686343719683181000,9.27818115234375,-0.0022983080707490444,-0.07003048062324524,-0.02574717439711094
1686343719693201200,9.288201171875,0.0019044264918193221,-0.03734923526644707,-0.018265822902321815
1686343719703220000,9.298219970703125,0.0020871192682534456,-0.01770016737282276,-0.018252240493893623
1686343719713239800,9.30823974609375,0.004583832807838917,-0.011541075073182583,-0.014070811681449413
1686343719723260000,9.318260009765625,0.00797536876052618,-0.0125203188508749,-0.01589134894311428
1686343719733279000,9.328279052734375,0.01255014631897211,-0.003070891136303544,-0.016757940873503685
1686343719743299000,9.338299072265626,0.012800483964383602,0.006395314820110798,-0.02912459522485733
1686343719753319000,9.34831884765625,0.012686500325798988,-0.001618403010070324,-0.02635996788740158
1686343719763339000,9.358339111328124,0.018763568252325058,-0.00971414614468813,-0.016688432544469833
1686343719773357800,9.36835791015625,0.015663914382457733,-0.010239055380225182,-0.009663280099630356
1686343719783378000,9.3783779296875,0.00989444274455309,0.0034525219816714525,-0.005791576579213142
1686343719793398000,9.38839794921875,0.005382515024393797,0.021275993436574936,0.0028964539524167776
1686343719803417900,9.39841796875,0.004626443609595299,0.027406057342886925,0.009460613131523132
1686343719813437000,9.40843701171875,-0.00027856664382852614,0.02576315402984619,0.013709153980016708
1686343719823457000,9.41845703125,-0.00370099488645792,0.02582147717475891,0.011859589256346226
1686343719833477000,9.42847705078125,-0.0048890309408307076,0.035525768995285034,0.003924434073269367
1686343719843496200,9.43849609375,-0.007985754869878292,0.039019305258989334,0.00862997304648161
1686343719853515800,9.448515869140625,-0.0044072652235627174,0.035056788474321365,0.008555138483643532
1686343719863535900,9.458535888671875,-0.0023148194886744022,0.02130129374563694,0.014346448704600334
1686343719873556000,9.468555908203125,-0.0017259946325793862,0.012591958045959473,0.016464993357658386
1686343719883575000,9.478574951171876,-0.0011747203534469008,0.008167382329702377,0.018732141703367233
1686343719893595000,9.488594970703126,-0.003593669505789876,0.0032951291650533676,0.01818219944834709
1686343719903615000,9.498614990234374,0.000532365869730711,-0.005477855913341045,0.013228187337517738
1686343719913634000,9.508634033203125,0.00041998049709945917,-0.012261193245649338,0.008761799894273281
1686343719923654100,9.518654052734375,-0.0047835698351264,-0.005335909314453602,0.0005408879951573908
1686343719933674000,9.528674072265625,-0.006084257736802101,0.005143629387021065,-0.018026936799287796
1686343719943693800,9.53869384765625,-0.0031228226143866777,0.017186444252729416,-0.029197033494710922
1686343719953713000,9.548712890625,-0.0031073763966560364,0.016631973907351494,-0.03725842386484146
1686343719963733000,9.55873291015625,-0.002864762442186475,0.0023409186396747828,-0.03293078392744064
1686343719973753000,9.568753173828124,-0.0027742148377001286,-0.00541367381811142,-0.02515009418129921
1686343719983772200,9.578772216796875,-0.0031547807157039642,-0.007499461527913809,-0.01810896210372448
1686343719993792000,9.5887919921875,-0.005048021674156189,-0.0008279767935164273,-0.010525078512728214
1686343720003812000,9.59881201171875,-0.014796522445976734,0.010696053504943848,-0.0022447784431278706
1686343720013832000,9.60883203125,-0.016222912818193436,0.02105308696627617,0.0006815029191784561
1686343720023851000,9.61885107421875,-0.018854115158319473,0.02514849603176117,0.0019212043844163418
1686343720033870800,9.628870849609376,-0.020376112312078476,0.0234062559902668,0.001026382320560515
1686343720043891000,9.638890869140624,-0.017553692683577538,0.024991368874907494,0.00421285443007946
1686343720053911000,9.6489111328125,-0.016920393332839012,0.02767903171479702,0.00039654469583183527
1686343720063930000,9.65893017578125,-0.017315607517957687,0.02708354964852333,0.0009555422002449632
1686343720073950000,9.668949951171875,-0.015798937529325485,0.028330441564321518,0.006202235817909241
1686343720083970000,9.678969970703125,-0.02088051475584507,0.024751152843236923,0.012709936127066612
1686343720093988900,9.68898876953125,-0.017222929745912552,0.01853160560131073,0.029996780678629875
1686343720104009000,9.699009033203126,-0.02611469104886055,0.045036450028419495,0.03544773906469345
1686343720114029000,9.709029052734374,-0.024898158386349678,0.054663512855768204,0.02979438006877899
1686343720124049000,9.719048828125,-0.02550482749938965,0.051961999386548996,0.028210598975419998
1686343720134068000,9.72906787109375,-0.01575898937880993,0.040039561688899994,0.02707928791642189
1686343720144088000,9.739088134765625,-0.010841196402907372,0.02273407392203808,0.024210264906287193
1686343720154108200,9.749108154296875,-0.011264372617006302,0.019147861748933792,0.02250397764146328
1686343720164127000,9.759126953125,-0.009341304190456867,0.013467338867485523,0.01890658028423786
1686343720174146800,9.769146728515626,-0.01347692683339119,0.01507295947521925,0.020622987300157547
1686343720184167000,9.7791669921875,-0.018612300977110863,0.018853316083550453,0.016599217429757118
1686343720194187000,9.78918701171875,-0.023129554465413094,0.012489426881074905,0.01654142513871193
1686343720204206000,9.7992060546875,-0.0220286026597023,0.021562816575169563,0.008867527358233929
1686343720214226000,9.809225830078125,-0.01811135932803154,0.021619807928800583,-0.0015041533624753356
1686343720224246000,9.81924609375,-0.011931493878364563,0.0220901221036911,-0.012942430563271046
1686343720234266000,9.82926611328125,-0.00586721021682024,0.015920376405119896,-0.022765766829252243
1686343720244285000,9.839284912109376,-0.0020501012913882732,0.016563797369599342,-0.022970829159021378
1686343720254304800,9.8493046875,-0.006882673595100641,0.01136903464794159,-0.02556554786860943
1686343720264324900,9.859324951171875,-0.00469488650560379,0.006682137493044138,-0.021530859172344208
1686343720274344000,9.869343994140625,-0.005751096177846193,0.005486644338816404,-0.016955014318227768
1686343720284364000,9.879364013671875,-0.004235757514834404,0.0013539510546252131,-0.014799718745052814
1686343720294384000,9.889384033203125,-0.009915214963257313,0.011729893274605274,-0.016323579475283623
1686343720304404000,9.899404052734376,-0.010947190225124359,0.02027544379234314,-0.019828299060463905
1686343720314423000,9.909423095703126,-0.014538195915520191,0.023442741483449936,-0.012117915786802769
1686343720324443000,9.91944287109375,-0.008560464717447758,0.01894732564687729,-0.00808828603476286
1686343720334463000,9.929462890625,-0.007642739452421665,0.01690840907394886,-0.009103217162191868
1686343720344482000,9.93948193359375,-0.010098973289132118,0.013859889470040798,-0.004991828929632902
1686343720354502000,9.949501953125,-0.01028805784881115,0.020905548706650734,-0.001886317040771246
1686343720364522000,9.95952197265625,-0.008313057012856007,0.022072546184062958,0.0034613104071468115
1686343720374542000,9.9695419921875,-0.012517656199634075,0.020552147179841995,0.006249640136957169
1686343720384561200,9.97956103515625,-0.012536298483610153,0.018498316407203674,0.016323046758770943
1686343720394581000,9.9895810546875,-0.01236159447580576,0.01932416297495365,0.016326243057847023
1686343720404600800,9.999600830078125,-0.016831444576382637,0.024087758734822273,0.01338877622038126
1686343720414620000,10.009619873046875,-0.018221614882349968,0.02828037366271019,0.015976037830114365
1686343720424640000,10.019639892578125,-0.015329687856137753,0.028022047132253647,0.016397882252931595
1686343720434659800,10.029659912109375,-0.013467338867485523,0.024401746690273285,0.015053251758217812
1686343720444680000,10.039679931640626,-0.014822355471551418,0.01888367533683777,0.014845524914562702
1686343720454699000,10.049698974609376,-0.012893428094685078,0.011993812397122383,0.017475130036473274
1686343720464719000,10.059718994140624,-0.007691209204494953,0.006365753710269928,0.011547466740012169
1686343720474739200,10.0697392578125,-0.007390804588794708,0.0034344124142080545,0.00968831405043602
1686343720484758800,10.0797587890625,-0.008168447762727737,0.001086037140339613,0.0033334787003695965
1686343720494777900,10.08977783203125,-0.0044259075075387955,-0.000597879639826715,0.0023073628544807434
1686343720504798000,10.0997978515625,-0.005411543417721987,-0.002071140334010124,-0.0049646650440990925
1686343720514818000,10.109818115234376,-0.006375341210514307,-0.008779110386967659,-0.012569054961204529
1686343720524837000,10.119837158203126,-0.003775297198444605,-0.012151471339166164,-0.017248228192329407
1686343720534857000,10.12985693359375,-0.011493138037621975,-0.01594088412821293,-0.012734171003103256
1686343720544877000,10.139876953125,-0.003644269658252597,-0.02239318937063217,-0.010068080388009548
1686343720554897200,10.149897216796875,0.0008282430935651064,-0.03116004914045334,-0.005140167195349932
1686343720564916000,10.159916015625,0.006139385048300028,-0.0665353536605835,0.0004748416249640286
1686343720574935800,10.169935791015625,0.0063031697645783424,-0.05729737877845764,-0.013276124373078346
1686343720584956000,10.179955810546875,0.012116583995521069,-0.06594226509332657,-0.020384367555379868
1686343720594976000,10.18997607421875,0.024591097608208656,-0.0702430009841919,-0.010822021402418613
1686343720604995000,10.1999951171875,0.025188444182276726,-0.09408734738826752,-0.01709216833114624
1686343720615015000,10.210014892578124,0.022723155096173286,-0.08111615478992462,-0.017357684671878815
1686343720625035000,10.220034912109375,0.014355503022670746,-0.08467600494623184,0.0011028150329366326
1686343720635053800,10.2300537109375,-0.0012082761386409402,-0.05964522063732147,0.0384102389216423
1686343720645074000,10.240073974609375,-0.022433137521147728,-0.005093828309327364,0.05252818763256073
1686343720655094000,10.250093994140625,-0.029271602630615234,0.043774377554655075,0.04001506045460701
1686343720665113900,10.26011376953125,-0.026451313868165016,0.071224644780159,0.021336713805794716
1686343720675133000,10.2701328125,-0.024451546370983124,0.07238205522298813,0.012419651262462139
1686343720685153000,10.280153076171874,-0.019234415143728256,0.065181665122509,0.015750734135508537
1686343720695173000,10.290173095703125,-0.016347814351320267,0.06616570055484772,0.016706541180610657
1686343720705193000,10.30019287109375,-0.00996288564056158,0.051775313913822174,0.004875981714576483
1686343720715212000,10.3102119140625,-0.0019915117882192135,0.021274128928780556,-0.0029856697656214237
1686343720725232000,10.320232177734376,0.0028719529509544373,-0.015411713160574436,-0.013147227466106415
1686343720735252200,10.330252197265626,0.0060152821242809296,-0.0231695007532835,-0.020498083904385567
1686343720745271300,10.340271240234374,0.002231196267530322,-0.0275645162910223,-0.0177606213837862
1686343720755291000,10.350290771484374,0.0029020465444773436,-0.018748121336102486,-0.008764463476836681
1686343720765311000,10.36031103515625,-0.003269829088822007,-0.014031928963959217,0.008233162574470043
1686343720775331000,10.3703310546875,-0.013949370943009853,0.0024644893128424883,0.028859345242381096
1686343720785350100,10.38035009765625,-0.022506108507514,0.0284111350774765,0.048461541533470154
1686343720795370000,10.390369873046875,-0.02960476279258728,0.028672125190496445,0.08342325687408447
1686343720805390000,10.40039013671875,-0.05864653363823891,-0.04740266874432564,0.11351723968982697
1686343720815410200,10.41041015625,-0.030595725402235985,-0.15047499537467957,0.08218568563461304
1686343720825429200,10.42042919921875,-0.007732488214969635,-0.16843828558921814,0.019532687962055206
1686343720835449000,10.430448974609375,-0.02971581742167473,-0.13560763001441956,-0.03412947431206703
1686343720845469000,10.440468994140625,-0.036503683775663376,-0.07117697596549988,-0.07819706946611404
1686343720855489000,10.450489013671875,-0.013639112934470177,-0.01407667063176632,-0.11805234104394913
1686343720865508000,10.460508056640625,-0.007283479440957308,0.013254553079605103,-0.13994325697422028
1686343720875528200,10.470528076171876,0.0004324973560869694,0.022240590304136276,-0.13939358294010162
1686343720885548000,10.480548095703124,0.020801419392228127,0.061763763427734375,-0.11024181544780731
1686343720895567000,10.490567138671874,0.026609240099787712,0.11772077530622482,-0.06878598779439926
1686343720905587200,10.500587158203125,0.0183505117893219,0.15300419926643372,-0.04274266958236694
1686343720915607000,10.51060693359375,0.011100588366389275,0.11327516287565231,-0.06373796612024307
1686343720925627000,10.520626953125,0.01519679557532072,0.009868343360722065,-0.11309965699911118
1686343720935646000,10.53064599609375,0.026995664462447166,-0.05491997301578522,-0.12253763526678085
1686343720945666000,10.540666015625,0.012856409884989262,-0.05838128551840782,-0.10076016932725906
1686343720955686100,10.55068603515625,-0.0008892294717952609,-0.002825613832101226,-0.06167321652173996
1686343720965706000,10.5607060546875,-0.0014586133183911443,0.02791259065270424,-0.02863191068172455
1686343720975725000,10.57072509765625,0.007876032963395119,-0.010763431899249554,0.012754145078361034
1686343720985745200,10.5807451171875,0.00983505416661501,-0.03197018429636955,0.06516781449317932
1686343720995765200,10.59076513671875,0.006274407263845205,-0.005647499579936266,0.08853226155042648
1686343721005785000,10.60078515625,0.00515747768804431,0.006364688742905855,0.06945710629224777
1686343721015804200,10.61080419921875,0.021690648049116135,-0.037991322576999664,0.029579997062683105
1686343721025824000,10.620823974609374,0.030909979715943336,-0.08092360943555832,0.007537278346717358
1686343721035844000,10.630843994140625,0.01836302876472473,-0.07387182861566544,0.006661631166934967
1686343721045863200,10.64086328125,-0.00478303711861372,-0.041244108229875565,0.02949344366788864
1686343721055883300,10.65088330078125,-0.02251596190035343,-0.011664645746350288,0.06187641620635986
1686343721065903000,10.660903076171875,-0.029256954789161682,0.006932741031050682,0.0989508181810379
1686343721075923200,10.670923095703126,-0.03928588703274727,0.04562287777662277,0.1377171128988266
1686343721085942000,10.68094189453125,-0.059117380529642105,0.05688272416591644,0.14028173685073853
1686343721095962000,10.690962158203124,-0.05624036863446236,0.07936033606529236,0.11456066370010376
1686343721105982000,10.70098193359375,-0.06794256716966629,0.10680527240037918,0.10377725958824158
1686343721116002000,10.711001953125,-0.05867716297507286,-0.010848918929696083,0.0624130442738533
1686343721126021000,10.721021240234375,-0.01594887301325798,-0.12048300355672836,0.014305968768894672
1686343721136041200,10.731041259765625,-0.013539244420826435,-0.15223240852355957,-0.03460564836859703
1686343721146061000,10.74106103515625,-0.006962568499147892,-0.12153388559818268,-0.0748864933848381
1686343721156081200,10.7510810546875,0.009671801701188087,-0.06769862025976181,-0.10745668411254883
1686343721166100000,10.761099853515624,0.01444179005920887,-0.02599271759390831,-0.12070325016975403
1686343721176120000,10.7711201171875,0.017837852239608765,-0.011968245729804039,-0.12028992921113968
1686343721186140200,10.78114013671875,0.01667271926999092,0.00875913631170988,-0.10527902096509933
1686343721196160000,10.791159912109375,0.009673133492469788,0.03128281980752945,-0.07748280465602875
1686343721206179000,10.801178955078125,-0.0007046724203974009,0.033677536994218826,-0.06404156982898712
1686343721216199200,10.81119921875,-0.0018916432745754719,0.026445722207427025,-0.053403571248054504
1686343721226219300,10.82121923828125,-0.010721353814005852,0.027468375861644745,-0.0409809872508049
1686343721236239000,10.831239013671874,-0.014856976456940174,0.026564499363303185,-0.03140532597899437
1686343721246258000,10.8412578125,-0.009008941240608692,0.019651997834444046,-0.026986077427864075
1686343721256278000,10.851278076171875,-0.0001478054327890277,0.00860307551920414,-0.0213063545525074
1686343721266298000,10.861298095703125,0.0023361248895525932,0.00035659727291204035,-0.013585583306849003
1686343721276318000,10.87131787109375,0.0027632960118353367,-0.004006725735962391,0.005029379855841398
1686343721286337000,10.8813369140625,-0.0035459990613162518,-0.0010349043877795339,0.016021044924855232
1686343721296357000,10.891357177734376,-0.007782289292663336,-0.0016354472609236836,0.02604571543633938
1686343721306377200,10.901377197265624,-0.006825149059295654,-0.0025100293569266796,0.02792750485241413
1686343721316396000,10.91139599609375,-0.007427023723721504,-0.008579373359680176,0.029564816504716873
1686343721326416100,10.921416015625,-0.008793491870164871,-0.0037358824629336596,0.024867532774806023
1686343721336436000,10.93143603515625,-0.0043801008723676205,0.0002878876985050738,0.015487346798181534
1686343721346456000,10.9414560546875,-0.006225937977433205,0.0073077138513326645,0.010859837755560875
1686343721356475100,10.95147509765625,-0.0046517434529960155,0.013674266636371613,0.0013470269041135907
1686343721366495200,10.9614951171875,-0.00612154183909297,0.012315521948039532,-0.00458622956648469
1686343721376515000,10.97151513671875,-0.013734454289078712,0.02570483088493347,0.0028418591246008873
1686343721386535200,10.98153515625,-0.011570369824767113,0.018206167966127396,0.013369068503379822
1686343721396554000,10.991553955078125,-0.008519452065229416,0.0015028218040242791,0.019998209550976753
1686343721406574000,11.001573974609375,-0.00381471193395555,-0.0067748152650892735,0.021086642518639565
1686343721416594000,11.011593994140625,-0.004761465825140476,0.0007137271459214389,0.012889167293906212
1686343721426614000,11.021614013671876,-0.003549993736669421,0.011486480012536049,0.007185208611190319
1686343721436633000,11.031633056640626,-0.004458131734281778,0.020124709233641624,0.0009781790431588888
1686343721446653200,11.041653076171874,-0.005446164403110743,0.030070018023252487,0.002013882389292121
1686343721456673000,11.051673095703125,-0.0046480149030685425,0.03957537189126015,0.00020106865849811584
1686343721466693000,11.061693115234375,-0.013518205843865871,0.0661553144454956,0.005067729391157627
1686343721476712000,11.0717119140625,-0.021456290036439896,0.09255683422088623,0.02889210171997547
1686343721486732000,11.08173193359375,-0.028496889397501945,0.08399023860692978,0.04485029727220535
1686343721496752000,11.091752197265626,-0.022562300786376,0.043236687779426575,0.056238237768411636
1686343721506772000,11.10177197265625,-0.012910738587379456,0.007102916948497295,0.05805850774049759
1686343721516791000,11.111791015625,-0.007553523872047663,-0.010746654123067856,0.06067000329494476
1686343721526811100,11.12181103515625,-0.005351089406758547,-0.01477681566029787,0.043349605053663254
1686343721536831200,11.131831298828125,-0.0018407768802717328,-0.017490310594439507,0.02863750420510769
1686343721546851000,11.14185107421875,0.0023635553661733866,-0.014784804545342922,0.02647341974079609
1686343721556870000,11.151869873046875,0.004691690672188997,-0.02028529718518257,0.019410183653235435
1686343721566890000,11.161889892578126,-0.00044554684427566826,-0.021674934774637222,0.01254908088594675
1686343721576910000,11.17191015625,-0.009910421445965767,-0.022039521485567093,0.005181712564080954
1686343721586930000,11.181929931640624,-0.02171541564166546,-0.018568623811006546,0.017827199772000313
1686343721596949000,11.191948974609375,-0.014341921545565128,0.001957956003025174,0.025020398199558258
1686343721606969000,11.201968994140625,-0.011332282796502113,-0.002627741079777479,0.027051856741309166
1686343721616989200,11.2119892578125,-0.011649997904896736,0.01107368990778923,0.023182550445199013
1686343721627009300,11.22200927734375,-0.014096910133957863,0.014023407362401485,0.022374281659722328
1686343721637029000,11.232029052734376,-0.0060174125246703625,0.010067014954984188,0.01002094242721796
1686343721647048000,11.2420478515625,-0.001558748190291226,0.0006974819116294384,-0.001826395862735808
1686343721657068000,11.252068115234374,-0.0016447682864964008,-0.006025934591889381,-0.009959423914551735
1686343721667088100,11.262088134765625,-0.0020956413354724646,-0.010024936869740486,-0.012191951274871826
1686343721677108000,11.27210791015625,-0.0065164887346327305,-0.007191067561507225,-0.014749917201697826
1686343721687127000,11.282126953125,-0.006726612336933613,-0.00791411567479372,-0.00681263254955411
1686343721697147100,11.292147216796875,-0.004050401505082846,-0.005909554194658995,0.008710667490959167
1686343721707167200,11.302167236328126,-0.008688828907907009,-0.00632074661552906,0.014399179257452488
1686343721717186300,11.312186279296874,-0.0051782503724098206,-0.008186290971934795,0.013291570357978344
1686343721727205400,11.322205322265624,-0.007483748719096184,-0.004334028344601393,-0.006292783189564943
1686343721737225200,11.33222509765625,-0.0018820558907464147,-0.00021518341964110732,-0.021705562248826027
1686343721747245300,11.342245361328125,0.0001179780374513939,-0.0025771409273147583,-0.02882285974919796
1686343721757265400,11.352265380859375,-0.001752360025420785,-0.004285026341676712,-0.03092063218355179
1686343721767284200,11.3622841796875,-0.005979595705866814,-0.009280850179493427,-0.02219478413462639
1686343721777304000,11.372303955078126,-0.00875114742666483,-0.006521282717585564,-0.009236907586455345
1686343721787324200,11.38232421875,-0.008288023993372917,0.0006511429091915488,0.0030192257836461067
1686343721797344300,11.39234423828125,-0.011903530918061733,0.013165070675313473,0.008175638504326344
1686343721807363300,11.40236328125,-0.010831874795258045,0.021691713482141495,0.011757589876651764
1686343721817383200,11.412383056640625,-0.009520534425973892,0.028010861948132515,0.008568987250328064
1686343721827403300,11.4224033203125,-0.007142864167690277,0.037637654691934586,0.002953445538878441
1686343721837423400,11.43242333984375,-0.00923451129347086,0.04236583411693573,0.010520284995436668
1686343721847442200,11.442442138671876,-0.016833309084177017,0.03952210769057274,0.032934512943029404
1686343721857462300,11.452462158203126,-0.02130262553691864,0.030851922929286957,0.04668334871530533
1686343721867482000,11.462482177734374,-0.022432072088122368,0.020957479253411293,0.061704907566308975
1686343721877502200,11.472502197265625,-0.020382236689329147,0.009958891198039055,0.06596836447715759
1686343721887521300,11.482521240234375,-0.014181599020957947,-0.0002407497668173164,0.061113156378269196
1686343721897541400,11.492541259765625,-0.01070963591337204,-0.006188653875142336,0.04502100497484207
1686343721907561200,11.502561279296875,-0.006469084415584803,-0.006068012677133083,0.028973860666155815
1686343721917581300,11.512581298828126,-0.005246693734079599,0.0032650355715304613,0.018685802817344666
1686343721927601400,11.522601318359374,-0.014362427406013012,0.008807073347270489,0.03568236529827118
1686343721937620200,11.5326201171875,-0.0281517431139946,-0.008376706391572952,0.06294114887714386
1686343721947640000,11.54264013671875,-0.019098592922091484,-0.029863622039556503,0.07054819911718369
1686343721957660200,11.55266015625,-0.026146115735173225,-0.0249029528349638,0.042281944304704666
1686343721967680300,11.56268017578125,-0.0511968731880188,-0.03844805806875229,0.02780073881149292
1686343721977699300,11.57269921875,-0.05067729204893112,-0.06554438918828964,0.01125025749206543
1686343721987719400,11.582719482421876,-0.013524331152439117,-0.05772161856293678,-0.049201902002096176
1686343721997739300,11.5927392578125,-0.009874735027551651,-0.025078454986214638,-0.09756889939308167
1686343722007759400,11.60275927734375,-0.0008178567513823509,-0.0087820403277874,-0.1250647008419037
1686343722017778200,11.612778076171875,0.010495251044631004,0.0108257494866848,-0.13209864497184753
1686343722027798300,11.62279833984375,0.005048288032412529,0.017716946080327034,-0.12654675543308258
1686343722037818000,11.632818115234375,0.0028306739404797554,0.010385262779891491,-0.11133105307817459
1686343722047838200,11.642838134765626,0.010276872664690018,0.01380955521017313,-0.10356314480304718
1686343722057857300,11.652857177734376,0.013110741972923279,0.019271964207291603,-0.1170126423239708
1686343722067877400,11.66287744140625,0.010233729146420956,0.011638280004262924,-0.1291113793849945
1686343722077897200,11.672897216796875,0.00407596817240119,0.017837585881352425,-0.11769547313451767
1686343722087917300,11.682917236328125,-0.007541805971413851,0.023722639307379723,-0.08252017945051193
1686343722097936100,11.69293603515625,-0.015980031341314316,0.03732313588261604,-0.05293938145041466
1686343722107956200,11.702956298828125,-0.014360830187797546,0.04351099207997322,-0.03581871837377548
1686343722117976000,11.71297607421875,-0.007536479737609625,0.022655244916677475,-0.022416891530156136
1686343722127996200,11.72299609375,0.000020240024241502397,0.005119128152728081,-0.0062309978529810905
1686343722138016300,11.733016357421874,-0.0029678267892450094,-0.001973136095330119,0.005721535068005323
1686343722148035300,11.743035400390625,-0.0011435613268986344,-0.004611263517290354,0.015685485675930977
1686343722158055400,11.753055419921875,0.003579288488253951,-0.012426842004060745,0.02219638228416443
1686343722168075300,11.7630751953125,0.00833675917237997,-0.031684424728155136,0.026850257068872452
1686343722178095400,11.773095458984375,0.009458483196794987,-0.030435936525464058,0.014695056714117527
1686343722188114200,11.7831142578125,-0.008393218740820885,-0.0011731224367395043,-0.0031103058718144894
1686343722198134300,11.79313427734375,-0.015977900475263596,0.01822827197611332,-0.01780296489596367
1686343722208154000,11.803154052734374,-0.008480836637318134,0.016711601987481117,-0.017297230660915375
1686343722218174200,11.81317431640625,-0.003933755215257406,0.007593204732984304,-0.008656605146825314
1686343722228193300,11.823193359375,-0.000035686356568476185,0.001341700553894043,0.0010335728293284774
1686343722238213400,11.83321337890625,-0.0006380933918990195,0.00012863067968282849,0.007556186988949776
1686343722248233200,11.843233154296875,0.0010008158860728145,-0.0017145430902019143,0.00703793577849865
1686343722258253300,11.85325341796875,0.0057321880012750626,-0.012570919468998909,0.006139917764812708
1686343722268272000,11.863272216796876,0.004133225884288549,-0.019650399684906006,-0.001577123999595642
1686343722278292200,11.873292236328124,-0.0022863238118588924,-0.005877329967916012,-0.014762434177100658
1686343722288312300,11.883312255859375,-0.013488644734025002,0.013498498126864433,-0.030294522643089294
1686343722298332200,11.893332275390625,-0.013658820651471615,0.018320417031645775,-0.036007802933454514
1686343722308352300,11.903352294921875,-0.004759601317346096,0.008655539713799953,-0.024333301931619644
1686343722318371300,11.913371337890625,-0.00033688987605273724,-0.007463775109499693,-0.011567173525691032
1686343722328391400,11.923391357421876,0.0023635553661733866,-0.011395932175219059,-0.009282714687287807
1686343722338411300,11.933411376953124,0.0030839405953884125,-0.014552311040461063,0.0000900148443179205
1686343722348431400,11.943431396484375,0.00045912896166555583,-0.014884141273796558,0.0020844561513513327
1686343722358450200,11.9534501953125,0.002088450826704502,-0.016106264665722847,-0.0033246902748942375
1686343722368470300,11.96347021484375,-0.00012596751912496984,-0.014190919697284698,-0.0014327806420624256
1686343722378490000,11.973489990234375,-0.0029912625905126333,0.002394448034465313,-0.0039015309885144234
1686343722388510200,11.98351025390625,-0.009984723292291164,0.03279496356844902,0.010076336562633514
1686343722398529300,11.993529296875,-0.025377795100212097,0.0760396420955658,0.04447132721543312
1686343722408549400,12.00354931640625,-0.04470035806298256,0.109161376953125,0.09169130772352219
1686343722418569200,12.0135693359375,-0.05777621269226074,0.11461925506591797,0.1339215785264969
1686343722428589300,12.02358935546875,-0.051420312374830246,0.08528400212526321,0.1616152673959732
1686343722438608100,12.033608154296875,-0.035288214683532715,0.03994901478290558,0.13605424761772156
1686343722448628200,12.043628173828125,-0.004459196701645851,-0.005257079843431711,0.07748813182115555
1686343722458648300,12.0536484375,0.018744658678770065,-0.027099261060357094,0.021267738193273544
1686343722468668200,12.063668212890626,0.03641499951481819,-0.033011212944984436,-0.012469985522329807
1686343722478688300,12.073688232421874,0.03905206173658371,-0.04316531494259834,-0.0291134100407362
1686343722488707300,12.083707275390625,0.03786642104387283,-0.05970354378223419,-0.01985679566860199
