time,seconds_elapsed,z,y,x
1686325290174544400,0.21354443359375,0,0,0
1686325290179594000,0.218593994140625,0.03103351593017578,0.005973339080810547,-0.0026152953505516052
1686325290184643300,0.223643310546875,0.026853561401367188,-0.027812957763671875,0.004382617771625519
1686325290195975000,0.234974853515625,0.15543174743652344,-0.03045797348022461,0.045141518115997314
1686325290200962000,0.239962158203125,0.21547222137451172,0.004223823547363281,0.055966854095458984
1686325290206011600,0.24501171875,0.2287921905517578,-0.02458953857421875,0.06933854520320892
1686325290211057700,0.2500576171875,0.22553253173828125,-0.047138214111328125,0.07007221132516861
1686325290216166000,0.255165771484375,0.2214517593383789,-0.051415443420410156,0.04856013506650925
1686325290221353000,0.26035302734375,0.1942300796508789,-0.07397651672363281,0.05191219970583916
1686325290226364000,0.265364013671875,0.1516246795654297,-0.034741878509521484,0.05605816841125488
1686325290231333000,0.2703330078125,0.11814212799072266,-0.008319377899169922,0.04539928585290909
1686325290236308500,0.27530859375,0.043487548828125,0.04020261764526367,0.01623879000544548
1686325290241535700,0.28053564453125,0.0011014938354492188,0.04051923751831055,-0.028285793960094452
1686325290246565400,0.2855654296875,-0.04536151885986328,0.025266647338867188,-0.054317113012075424
1686325290251651800,0.29065185546875,-0.10065746307373047,0.02476644515991211,-0.07689550518989563
1686325290256625000,0.295625,-0.1443195343017578,0.03369903564453125,-0.09652750194072723
1686325290261674200,0.30067431640625,-0.17048931121826172,0.056357383728027344,-0.09768993407487869
1686325290266763300,0.30576318359375,-0.19610118865966797,0.08312606811523438,-0.10863781720399857
1686325290271773200,0.310773193359375,-0.1893901824951172,0.034204959869384766,-0.09475279599428177
1686325290276822800,0.31582275390625,-0.15178966522216797,0.038632869720458984,-0.08009070158004761
1686325290281872100,0.3208720703125,-0.13472747802734375,0.05031442642211914,-0.07119330763816833
1686325290286957800,0.325957763671875,-0.1301431655883789,0.05056333541870117,-0.07020703703165054
1686325290292013300,0.331013427734375,-0.1259298324584961,0.05112123489379883,-0.0699109211564064
1686325290297017600,0.336017578125,-0.12196922302246094,0.05178260803222656,-0.06992815434932709
1686325290302072600,0.341072509765625,-0.11829090118408203,0.05262327194213867,-0.07019491493701935
1686325290307119400,0.346119384765625,0.06066703796386719,-0.003937244415283203,0.010919339954853058
1686325290312169000,0.3511689453125,0.07860183715820312,0.025498390197753906,0.03727675601840019
1686325290317218600,0.356218505859375,0.11802291870117188,-0.0005984306335449219,0.028556998819112778
1686325290322307300,0.361307373046875,0.14953327178955078,-0.020531177520751953,0.003061048686504364
1686325290327317500,0.3663173828125,0.1271982192993164,0.01989126205444336,0.003925904631614685
1686325290332366800,0.371366943359375,0.11284351348876953,-0.011809825897216797,0.04875935614109039
1686325290337416400,0.37641650390625,0.05747032165527344,-0.0529789924621582,0.036941807717084885
1686325290342465800,0.3814658203125,0.05616950988769531,-0.05589914321899414,0.06557033210992813
1686325290347515400,0.386515380859375,0.07942962646484375,-0.05896806716918945,0.06361351907253265
1686325290352604400,0.3916044921875,0.1358966827392578,-0.029770374298095703,0.07363642752170563
1686325290357696300,0.3966962890625,0.14327049255371094,-0.02026510238647461,0.002284713089466095
1686325290362705200,0.401705078125,0.12162494659423828,0.0014476776123046875,0.00983060710132122
1686325290367752700,0.406752685546875,0.06935501098632812,-0.04870319366455078,-0.03759684041142464
1686325290372763000,0.411762939453125,0.0547943115234375,-0.0022025108337402344,-0.017227407544851303
1686325290377812200,0.416812255859375,0.022022247314453125,0.02436542510986328,-0.03474314883351326
1686325290382901200,0.4219013671875,0.007706642150878906,0.013902664184570312,-0.04231761768460274
1686325290387911200,0.4269111328125,-0.0296630859375,0.01317453384399414,-0.039262112230062485
1686325290392960800,0.431960693359375,-0.1105184555053711,-0.007442474365234375,-0.053941212594509125
1686325290398092500,0.437092529296875,-0.11711597442626953,0.017036914825439453,-0.06261762231588364
1686325290403059700,0.442059814453125,-0.11083030700683594,0.03174018859863281,-0.0852266252040863
1686325290408109300,0.447109375,-0.0837249755859375,0.0415339469909668,-0.06658226996660233
1686325290413158700,0.45215869140625,-0.09133434295654297,0.05485200881958008,-0.06027182191610336
1686325290418208300,0.457208251953125,-0.06719970703125,0.024576187133789062,-0.04158320277929306
1686325290423297300,0.46229736328125,-0.05892467498779297,0.0009579658508300781,-0.019920285791158676
1686325290428307200,0.46730712890625,-0.057952880859375,-0.03259086608886719,-0.0012900643050670624
1686325290433356800,0.472356689453125,-0.05481147766113281,0.006360530853271484,0.01223248615860939
1686325290438406100,0.47740625,-0.07060718536376953,-0.002277851104736328,0.04893413558602333
1686325290443455700,0.482455810546875,-0.060286521911621094,0.006866931915283203,0.02631571888923645
1686325290448505000,0.487505126953125,-0.027915000915527344,0.01005697250366211,0.006528278812766075
1686325290453554700,0.4925546875,0.0015926361083984375,0.035312652587890625,0.009594261646270752
1686325290458604000,0.49760400390625,-0.016373634338378906,0.03289079666137695,0.004470914602279663
1686325290463653600,0.502653564453125,0.009540557861328125,0.005736827850341797,0.03846779093146324
1686325290468703200,0.507703125,0.03277111053466797,0.0082244873046875,-0.03990764170885086
1686325290473752600,0.512752685546875,0.0026988983154296875,0.018816471099853516,-0.0427752286195755
1686325290478802200,0.51780224609375,-0.0032634735107421875,0.02678394317626953,-0.04071634262800217
1686325290483851500,0.5228515625,-0.02196979522705078,0.049724578857421875,-0.0418802835047245
1686325290488901000,0.527901123046875,-0.04729652404785156,0.015485763549804688,-0.04045277088880539
1686325290493990100,0.532990234375,-0.06286239624023438,0.022004127502441406,-0.029418494552373886
1686325290499000000,0.538,-0.12063217163085938,0.004882335662841797,-0.05961737036705017
1686325290504049700,0.543049560546875,-0.10686206817626953,0.021173954010009766,-0.0656299740076065
1686325290509099000,0.54809912109375,-0.11579322814941406,0.03969001770019531,-0.05368340015411377
1686325290514148600,0.553148681640625,-0.12947368621826172,0.04405403137207031,-0.09850820899009705
1686325290519198000,0.558197998046875,-0.10528850555419922,0.03196430206298828,-0.10605228692293167
1686325290524247600,0.56324755859375,-0.1040029525756836,0.06508111953735352,-0.08995749056339264
1686325290529297000,0.568296875,-0.0779867172241211,0.07178449630737305,-0.08738082647323608
1686325290534346500,0.573346435546875,-0.045365333557128906,0.0655827522277832,-0.0874064490199089
1686325290539396000,0.57839599609375,0.020956993103027344,0.020637989044189453,-0.05136924982070923
1686325290544445400,0.583445556640625,0.015435218811035156,0.01305389404296875,-0.033837392926216125
1686325290549495000,0.5884951171875,0.04059314727783203,0.014053821563720703,-0.0334957018494606
1686325290554544400,0.59354443359375,0.06299209594726562,-0.046269893646240234,0.010166976600885391
1686325290559594000,0.598593994140625,0.07333087921142578,-0.016079425811767578,0.015375500544905663
1686325290564643300,0.603643310546875,0.05399131774902344,-0.012269973754882812,0.03812934458255768
1686325290569693000,0.60869287109375,0.03370857238769531,0.009264469146728516,0.028910992667078972
1686325290574742500,0.613742431640625,0.01738452911376953,0.013691902160644531,0.0021993909031152725
1686325290579792000,0.6187919921875,0.04748344421386719,-0.010497570037841797,-0.0025167316198349
1686325290584841500,0.623841552734375,0.003972053527832031,-0.0037975311279296875,-0.02460082620382309
1686325290589890800,0.628890869140625,0.039081573486328125,-0.011397838592529297,-0.025947056710720062
1686325290594940400,0.6339404296875,0.044274330139160156,-0.0107879638671875,-0.01632223278284073
1686325290599990000,0.638989990234375,0.03410053253173828,-0.019791603088378906,-0.01360420323908329
1686325290605039400,0.644039306640625,0.057259559631347656,-0.013446331024169922,-0.048824530094861984
1686325290610089000,0.6490888671875,0.05290699005126953,0.028372764587402344,-0.052805088460445404
1686325290615138300,0.65413818359375,0.04746532440185547,0.01873493194580078,-0.06739072501659393
1686325290620188000,0.65918798828125,0.040851593017578125,0.019981861114501953,-0.059394851326942444
1686325290625237200,0.6642373046875,0.046158790588378906,0.025952816009521484,-0.03031633421778679
1686325290630286800,0.669286865234375,0.03249931335449219,0.030605316162109375,-0.025510095059871674
1686325290635336200,0.674336181640625,0.046260833740234375,-0.009840011596679688,0.015915926545858383
1686325290640457500,0.67945751953125,0.036185264587402344,-0.02022409439086914,0.02113434113562107
1686325290645435400,0.684435302734375,0.04046440124511719,-0.08740758895874023,0.08060921728610992
1686325290650484700,0.689484619140625,0.048290252685546875,-0.06863641738891602,0.08731196820735931
1686325290655534300,0.694534423828125,0.051260948181152344,-0.05829954147338867,0.11149493604898453
1686325290660583700,0.699583740234375,0.016310691833496094,-0.023240089416503906,0.07984381914138794
1686325290665633300,0.70463330078125,-0.013541221618652344,-0.025267601013183594,0.06280529499053955
1686325290670683000,0.709682861328125,-0.05255413055419922,0.01892566680908203,0.015285301953554153
1686325290675732200,0.714732177734375,-0.06281375885009766,0.03558683395385742,-0.06603872776031494
1686325290680781800,0.71978173828125,-0.051662445068359375,0.039087772369384766,-0.06479766964912415
1686325290685831200,0.7248310546875,-0.02407550811767578,0.0628056526184082,-0.1016688346862793
1686325290690880800,0.729880859375,0.024682998657226562,0.08489799499511719,-0.09673930704593658
1686325290695930000,0.73493017578125,0.02558422088623047,0.07464408874511719,-0.08149823546409607
1686325290700979700,0.739979736328125,0.0205841064453125,0.06324291229248047,-0.019078262150287628
1686325290706029000,0.745029052734375,-0.025855064392089844,0.06495904922485352,-0.018956400454044342
1686325290711078700,0.75007861328125,-0.05412769317626953,-0.006742000579833984,0.0228200051933527
1686325290716128300,0.755128173828125,-0.045383453369140625,-0.0017881393432617188,0.07857811450958252
1686325290721177600,0.760177490234375,-0.07114410400390625,-0.0312652587890625,0.09846857190132141
1686325290726227200,0.765227294921875,-0.11911964416503906,-0.0606536865234375,0.10316643118858337
1686325290731276500,0.770276611328125,-0.14293956756591797,-0.047032833099365234,0.10114050656557083
1686325290736326100,0.775326171875,-0.16546058654785156,-0.04284811019897461,0.07361632585525513
1686325290741375500,0.78037548828125,-0.1463336944580078,-0.06346654891967773,0.0765330046415329
1686325290746425000,0.785425048828125,-0.1275196075439453,-0.0444793701171875,0.058170054107904434
1686325290751474700,0.790474609375,-0.07575511932373047,-0.011211395263671875,0.019481346011161804
1686325290756524000,0.79552392578125,-0.035208702087402344,0.024274349212646484,0.004471808671951294
1686325290761573600,0.80057373046875,-0.0034036636352539062,0.05128002166748047,0.0011291345581412315
1686325290766623000,0.805623046875,0.0411376953125,0.023530006408691406,-0.00625853706151247
1686325290771672600,0.810672607421875,0.07465744018554688,0.011363983154296875,0.013308513909578323
1686325290776722000,0.815721923828125,0.0984659194946289,-0.01033639907836914,0.03114936128258705
1686325290781771500,0.820771484375,0.10914802551269531,-0.020232677459716797,0.048632338643074036
1686325290786821000,0.825821044921875,0.09250068664550781,-0.018310070037841797,0.03605850413441658
1686325290791870500,0.830870361328125,0.11406803131103516,-0.016520977020263672,0.055685315281152725
1686325290796920000,0.835920166015625,0.03456592559814453,-0.022013187408447266,0.06571728736162186
1686325290801969400,0.840969482421875,0.03062725067138672,-0.01334524154663086,0.04840412363409996
1686325290807019000,0.84601904296875,0.004154205322265625,-0.01662731170654297,0.019661586731672287
1686325290812108000,0.85110791015625,-0.016124725341796875,-0.03182840347290039,-0.01106155477464199
1686325290817118000,0.856117919921875,-0.011324882507324219,-0.008826255798339844,-0.00916763860732317
1686325290822167600,0.86116748046875,-0.02921581268310547,-0.029799938201904297,-0.009286176413297653
1686325290827256600,0.866256591796875,-0.02675628662109375,-0.03755378723144531,0.01349109597504139
1686325290832306000,0.871305908203125,-0.03261756896972656,-0.026264190673828125,0.017411233857274055
1686325290837355500,0.87635546875,-0.035971641540527344,-0.03304910659790039,0.013299031183123589
1686325290842365400,0.881365478515625,0.015409469604492188,-0.02685070037841797,-0.015589677728712559
1686325290847414800,0.886414794921875,0.0071544647216796875,-0.03055572509765625,0.01768537051975727
1686325290852464400,0.89146435546875,-0.009348869323730469,-0.03541707992553711,0.032785333693027496
1686325290857514000,0.896513916015625,0.013483047485351562,-0.016483306884765625,0.003776128636673093
1686325290862602800,0.901602783203125,-0.04339599609375,-0.04177379608154297,0.06278301775455475
1686325290867652400,0.90665234375,-0.03566265106201172,-0.050221920013427734,0.043924182653427124
1686325290872662500,0.91166259765625,-0.04702472686767578,-0.021728515625,0.05840551480650902
1686325290877712000,0.9167119140625,-0.10944557189941406,-0.06339120864868164,0.03711526095867157
1686325290882761500,0.921761474609375,-0.11333560943603516,-0.035443782806396484,0.0431944765150547
1686325290887812600,0.9268125,-0.1031045913696289,-0.06560420989990234,0.026609398424625397
1686325290892860400,0.9318603515625,-0.11570453643798828,-0.017960071563720703,0.00890427827835083
1686325290897909800,0.93690966796875,-0.12250804901123047,-0.024861812591552734,-0.016932526603341103
1686325290902959400,0.94195947265625,-0.06633853912353516,-0.009068489074707031,-0.012801547534763813
1686325290908008700,0.9470087890625,-0.035663604736328125,0.00913095474243164,-0.032450057566165924
1686325290913058300,0.952058349609375,0.054015159606933594,0.016745567321777344,-0.031742412596940994
1686325290918108000,0.95710791015625,0.05749702453613281,0.0324711799621582,-0.039518870413303375
1686325290923157200,0.9621572265625,0.0966796875,0.027687549591064453,-0.034107714891433716
1686325290928206800,0.967206787109375,0.11191082000732422,0.025064468383789062,-0.023839429020881653
1686325290933256200,0.972256103515625,0.13786888122558594,0.03282642364501953,-0.0407307893037796
1686325290938305800,0.977305908203125,0.14846515655517578,0.019750595092773438,-0.026436667889356613
1686325290943355400,0.98235546875,0.1224355697631836,0.015726566314697266,-0.02155447006225586
1686325290948404700,0.98740478515625,0.1371622085571289,0.026874542236328125,-0.024782655760645866
1686325290953454300,0.992454345703125,0.11995506286621094,0.012474536895751953,-0.0076055098325014114
1686325290958503700,0.997503662109375,0.1077871322631836,0.033548831939697266,0.009510518983006477
1686325290963553300,1.00255322265625,0.07918548583984375,0.011500835418701172,0.030082305893301964
1686325290968602600,1.0076025390625,0.052069664001464844,0.02396535873413086,-0.011234113946557045
1686325290973652200,1.01265234375,-0.04498100280761719,0.01392221450805664,0.010512638837099075
1686325290978701800,1.017701904296875,-0.02608013153076172,0.01479196548461914,0.031985580921173096
1686325290983751200,1.022751220703125,-0.08476734161376953,0.004220008850097656,0.009052712470293045
1686325290988800800,1.02780078125,-0.11818885803222656,-0.009501457214355469,-0.00790141336619854
1686325290993850000,1.03285009765625,-0.1420297622680664,-0.008459091186523438,-0.0010280348360538483
1686325290998899700,1.037899658203125,-0.1540203094482422,0.027462005615234375,-0.01810702495276928
1686325291003949000,1.042948974609375,-0.1327352523803711,-0.0020813941955566406,-0.019673343747854233
1686325291008998700,1.04799853515625,-0.12599945068359375,0.006863117218017578,-0.045039623975753784
1686325291014048300,1.05304833984375,-0.11353588104248047,0.036226749420166016,-0.05725762993097305
1686325291019097600,1.05809765625,-0.0976104736328125,0.021398544311523438,-0.05269932746887207
1686325291024147200,1.063147216796875,-0.047458648681640625,0.02823638916015625,-0.04725968465209007
1686325291029196500,1.068196533203125,-0.015516281127929688,0.026655197143554688,-0.05868057161569595
1686325291034246100,1.07324609375,0.035140037536621094,0.02157115936279297,-0.05121093615889549
1686325291039295700,1.078295654296875,0.022443771362304688,0.04380178451538086,-0.07254335284233093
1686325291044345000,1.083344970703125,0.03361034393310547,0.031401634216308594,-0.05822814628481865
1686325291049394700,1.088394775390625,0.06371021270751953,0.0487523078918457,-0.06316469609737396
1686325291054444000,1.093444091796875,0.05562114715576172,0.04325056076049805,-0.07055307924747467
1686325291059493600,1.09849365234375,0.09041881561279297,0.04599285125732422,-0.05647715553641319
1686325291064543000,1.10354296875,0.1273965835571289,0.040210723876953125,-0.08291487395763397
1686325291069592600,1.108592529296875,0.13086795806884766,0.04980278015136719,-0.04976686090230942
1686325291074642000,1.113641845703125,0.13199329376220703,0.030690670013427734,-0.05265741050243378
1686325291079691500,1.11869140625,0.12017250061035156,0.015045642852783203,-0.01999586448073387
1686325291084780500,1.123780517578125,0.11440277099609375,0.030389785766601562,0.005388287827372551
1686325291089790500,1.12879052734375,0.09098148345947266,0.019243717193603516,0.05444621294736862
1686325291094879500,1.13387939453125,0.060690879821777344,-0.020435810089111328,0.02005678415298462
1686325291099889700,1.1388896484375,0.08299446105957031,-0.029059886932373047,0.03142286092042923
1686325291104978400,1.143978515625,0.050586700439453125,-0.0318913459777832,0.02511921525001526
1686325291109988600,1.148988525390625,0.035155296325683594,-0.05029106140136719,0.043076835572719574
1686325291115038000,1.154037841796875,0.00574493408203125,-0.024876117706298828,0.07416296750307083
1686325291120087600,1.159087646484375,-0.016234397888183594,-0.047299861907958984,0.057619307190179825
1686325291125137000,1.164136962890625,-0.02606964111328125,-0.037629127502441406,0.06633208692073822
1686325291130186500,1.1691865234375,-0.05482673645019531,-0.024475574493408203,0.050029363483190536
1686325291135236000,1.174236083984375,-0.06433963775634766,-0.02924823760986328,0.05043348670005798
1686325291140346400,1.179346435546875,-0.1130208969116211,-0.04694509506225586,0.05662992596626282
1686325291145335000,1.1843349609375,-0.11634254455566406,-0.03325939178466797,0.01978052221238613
1686325291150384400,1.18938427734375,-0.12109088897705078,-0.04648256301879883,0.014835665933787823
1686325291155434000,1.19443408203125,-0.13435077667236328,-0.03893852233886719,0.03440901264548302
1686325291160483300,1.1994833984375,-0.1287364959716797,-0.03574371337890625,0.023694079369306564
1686325291165533000,1.204532958984375,-0.10194206237792969,-0.0037660598754882812,0.04937677085399628
1686325291170582500,1.20958251953125,-0.08150100708007812,-0.03938579559326172,0.04254349321126938
1686325291175632000,1.2146318359375,-0.08262062072753906,-0.021235942840576172,0.054386742413043976
1686325291180681500,1.219681396484375,-0.08135414123535156,-0.005612850189208984,0.030370526015758514
1686325291185730800,1.224730712890625,-0.0693960189819336,0.012232303619384766,0.022146528586745262
1686325291190780400,1.229780517578125,-0.05743122100830078,0.04159688949584961,0.039317887276411057
1686325291195830000,1.234830078125,-0.09294414520263672,0.002758502960205078,0.05798671394586563
1686325291200879400,1.23987939453125,-0.06986618041992188,-0.033566951751708984,0.07337974011898041
1686325291205929000,1.244928955078125,-0.07429885864257812,-0.04583406448364258,0.06293266266584396
1686325291210978300,1.249978271484375,-0.10351848602294922,-0.03091287612915039,0.06145742908120155
1686325291216028000,1.25502783203125,-0.10158920288085938,-0.019725322723388672,0.034329384565353394
1686325291221077200,1.2600771484375,-0.0949239730834961,-0.008631229400634766,0.028119578957557678
1686325291226126800,1.265126953125,-0.06341743469238281,0.014340877532958984,0.031661421060562134
1686325291231176400,1.270176513671875,-0.028692245483398438,0.012341499328613281,0.011546707712113857
1686325291236225800,1.275225830078125,0.006989479064941406,0.013805866241455078,-0.003637181594967842
1686325291241275400,1.280275390625,-0.010052680969238281,-0.006983757019042969,-0.002053583040833473
1686325291246324700,1.28532470703125,0.05031299591064453,-0.0075244903564453125,0.006422676146030426
1686325291251374300,1.290374267578125,0.05073738098144531,-0.006779670715332031,0.018194200471043587
1686325291256423700,1.295423583984375,0.03812885284423828,0.010518074035644531,-0.015442125499248505
1686325291261473300,1.300473388671875,0.0647735595703125,-0.022121429443359375,0.004395958036184311
1686325291266523000,1.30552294921875,0.059185028076171875,-0.02847433090209961,-0.015314331278204918
1686325291271572200,1.310572265625,0.07263660430908203,-0.008620738983154297,-0.023227088153362274
1686325291276621800,1.315621826171875,0.07412052154541016,-0.0032324790954589844,-0.045607201755046844
1686325291281671200,1.320671142578125,0.05780982971191406,0.004416942596435547,-0.025099461898207664
1686325291286720800,1.325720703125,0.06662654876708984,0.027350425720214844,-0.04656781628727913
1686325291291770400,1.330770263671875,0.030257225036621094,0.026290416717529297,-0.02756679616868496
1686325291296819700,1.33581982421875,0.05243873596191406,0.0025787353515625,-0.03256111219525337
1686325291301869300,1.340869384765625,0.08032608032226562,0.006476402282714844,-0.0362907275557518
1686325291306918700,1.345918701171875,0.05690765380859375,-0.00034809112548828125,-0.04359915107488632
1686325291311968300,1.35096826171875,0.03723621368408203,0.020226001739501953,-0.050951868295669556
1686325291317017900,1.356017822265625,0.016515731811523438,0.0157318115234375,-0.030039798468351364
1686325291322067200,1.361067138671875,0.02312183380126953,0.04129600524902344,0.002390975132584572
1686325291327116800,1.36611669921875,-0.01551055908203125,0.04773664474487305,0.0033437125384807587
1686325291332166100,1.371166259765625,-0.0825510025024414,-0.021451950073242188,-0.021912582218647003
1686325291337216000,1.376216064453125,-0.06597042083740234,-0.01744699478149414,0.022131385281682014
1686325291342265900,1.381265869140625,-0.061545372009277344,-0.0025048255920410156,-0.0029652398079633713
1686325291347315700,1.386315673828125,-0.008528709411621094,0.027892589569091797,-0.03148626908659935
1686325291352365300,1.391365234375,-0.006945610046386719,0.0341191291809082,-0.015787754207849503
1686325291357415200,1.396415283203125,0.02794170379638672,0.024736404418945312,-0.00577464047819376
1686325291362465000,1.401465087890625,0.07701301574707031,0.011426448822021484,-0.01466344203799963
1686325291367552300,1.40655224609375,0.07725811004638672,0.02855396270751953,0.0025184517726302147
1686325291372602000,1.41160205078125,0.06355762481689453,0.00335693359375,-0.004064288921654224
1686325291377652000,1.41665185546875,0.06443309783935547,0.01120758056640625,-0.00479372963309288
1686325291382701800,1.421701904296875,0.028612136840820312,-0.002643108367919922,0.012427488341927528
1686325291387751700,1.426751708984375,-0.019906997680664062,-0.003452777862548828,0.0010686712339520454
1686325291392801500,1.431801513671875,-0.0334930419921875,-0.005606651306152344,-0.010137107223272324
1686325291397810000,1.436809814453125,-0.08983421325683594,0.00197601318359375,-0.04384765028953552
1686325291402859800,1.44185986328125,-0.1457376480102539,0.03687715530395508,-0.002615727949887514
1686325291407909600,1.44690966796875,-0.14315319061279297,0.01601266860961914,-0.021115509793162346
1686325291412959500,1.45195947265625,-0.14203357696533203,0.026715755462646484,-0.039437733590602875
1686325291418009300,1.45700927734375,-0.15066242218017578,0.01760387420654297,-0.03379373252391815
1686325291423059000,1.462058837890625,-0.15353870391845703,0.012642383575439453,-0.06473813205957413
1686325291428106800,1.467106689453125,-0.1399374008178711,0.018761157989501953,-0.03349805623292923
1686325291433156600,1.472156494140625,-0.1075277328491211,0.04043292999267578,-0.030838780105113983
1686325291438206500,1.47720654296875,-0.08260822296142578,0.02766561508178711,-0.01025695726275444
1686325291443256300,1.48225634765625,-0.07814598083496094,0.004431247711181641,-0.025525838136672974
1686325291448306200,1.48730615234375,-0.0998525619506836,0.007521152496337891,-0.0001203375868499279
1686325291453356000,1.49235595703125,-0.07506561279296875,0.005857944488525391,0.0053003160282969475
1686325291458403800,1.49740380859375,-0.03621959686279297,0.01843738555908203,0.013028010725975037
1686325291463453700,1.50245361328125,0.03688812255859375,-0.021627426147460938,0.033733807504177094
1686325291468503600,1.507503662109375,0.07030868530273438,-0.02714681625366211,0.0518917590379715
1686325291473553400,1.512553466796875,0.10001468658447266,-0.04356527328491211,0.06498463451862335
1686325291478603000,1.51760302734375,0.10356521606445312,-0.031783103942871094,0.09047497808933258
1686325291483652900,1.52265283203125,0.12142181396484375,-0.0416417121887207,0.08575566112995148
1686325291488700700,1.52770068359375,0.09402942657470703,-0.03604745864868164,0.07833945751190186
1686325291493750500,1.53275048828125,0.05617523193359375,-0.034062862396240234,0.06485965102910995
1686325291498800400,1.53780029296875,0.012684822082519531,-0.01663064956665039,0.08343367278575897
1686325291503850200,1.542850341796875,0.007508277893066406,0.00196075439453125,0.029503701254725456
1686325291508900000,1.547900146484375,-0.057071685791015625,-0.010367870330810547,-0.008477631956338882
1686325291513950000,1.552949951171875,-0.0642404556274414,-0.012812137603759766,-0.04822670668363571
1686325291518997800,1.557997802734375,-0.07742977142333984,0.01830005645751953,-0.08141448348760605
1686325291524047600,1.563047607421875,-0.07876968383789062,0.058936119079589844,-0.09624149650335312
1686325291529097500,1.568097412109375,-0.03152942657470703,0.08404874801635742,-0.12991458177566528
1686325291534147300,1.573147216796875,0.027159690856933594,0.09595680236816406,-0.09792161732912064
1686325291539197200,1.578197265625,0.08297348022460938,0.09591102600097656,-0.11128385365009308
1686325291544247000,1.5832470703125,0.08256721496582031,0.05534219741821289,-0.10809248685836792
1686325291549294800,1.588294921875,0.09052658081054688,0.05183839797973633,-0.09323637932538986
1686325291554344700,1.5933447265625,0.10564994812011719,0.03508901596069336,-0.030993277207016945
1686325291559394300,1.598394287109375,0.15049457550048828,0.02055215835571289,0.0020381896756589413
1686325291564444200,1.603444091796875,0.13807964324951172,0.0035042762756347656,0.06215982139110565
1686325291569494000,1.608493896484375,0.10695171356201172,-0.005460262298583984,0.09567288309335709
1686325291574544000,1.6135439453125,0.09766006469726562,-0.040877342224121094,0.11252292990684509
1686325291579591700,1.618591796875,0.058892250061035156,-0.0762796401977539,0.12112808227539062
1686325291584641500,1.6236416015625,-0.010293960571289062,-0.06890678405761719,0.09172283858060837
1686325291589691400,1.62869140625,-0.05860614776611328,-0.03805065155029297,0.09865070879459381
1686325291594741200,1.6337412109375,-0.07208442687988281,0.046021461486816406,0.08897373080253601
1686325291599791000,1.638791015625,-0.11175537109375,0.012154579162597656,0.09839337319135666
1686325291604841000,1.643841064453125,-0.1381692886352539,-0.0021457672119140625,0.044992685317993164
1686325291609888800,1.648888671875,-0.1039743423461914,-0.020705223083496094,0.013253070414066315
1686325291614938600,1.653938720703125,-0.07862281799316406,-0.01723957061767578,-0.008045326918363571
1686325291619988500,1.658988525390625,-0.04898834228515625,0.011653423309326172,-0.026279784739017487
1686325291625038000,1.6640380859375,-0.059098243713378906,0.02665853500366211,-0.08797363936901093
1686325291630088000,1.669087890625,-0.051598548889160156,0.015991687774658203,-0.1033439114689827
1686325291635136300,1.67413623046875,-0.0015172958374023438,0.012773990631103516,-0.11775937676429749
1686325291640186000,1.67918603515625,0.09794139862060547,-0.0032949447631835938,-0.11214352399110794
1686325291645235700,1.684235595703125,0.14446258544921875,0.006597995758056641,-0.10678480565547943
1686325291650285600,1.68928564453125,0.19321537017822266,0.012356758117675781,-0.08261790126562119
1686325291655335400,1.69433544921875,0.21932315826416016,0.005535602569580078,-0.04544699564576149
1686325291660385300,1.69938525390625,0.19207382202148438,0.04565238952636719,0.03113618493080139
1686325291665433000,1.70443310546875,0.1464080810546875,0.01700735092163086,0.035247065126895905
1686325291670483000,1.70948291015625,0.1359386444091797,-0.022836685180664062,0.09129688888788223
1686325291675532800,1.71453271484375,0.0997018814086914,-0.040341854095458984,0.07149311900138855
1686325291680582700,1.719582763671875,0.05334281921386719,-0.05229997634887695,0.0775102972984314
1686325291685632500,1.724632568359375,0.0027256011962890625,-0.03705120086669922,0.08147512376308441
1686325291690682400,1.729682373046875,-0.08199787139892578,-0.09184408187866211,0.0714450404047966
1686325291695730200,1.734730224609375,-0.11156368255615234,-0.06978893280029297,0.0008509233593940735
1686325291700780000,1.739780029296875,-0.12569618225097656,-0.039089202880859375,0.01014519389718771
1686325291705830000,1.744829833984375,-0.1435527801513672,-0.012836456298828125,-0.01898534968495369
1686325291710879500,1.74987939453125,-0.1283283233642578,-0.020592212677001953,-0.026879185810685158
1686325291715929300,1.754929443359375,-0.11947059631347656,0.037650108337402344,-0.03392799198627472
1686325291720979200,1.759979248046875,-0.08592891693115234,0.015012741088867188,-0.04725401848554611
1686325291726027000,1.765027099609375,-0.048007965087890625,-0.012000083923339844,-0.04174426198005676
1686325291731076900,1.770076904296875,-0.01282501220703125,-0.03631877899169922,-0.030400235205888748
1686325291736126700,1.775126708984375,0.05661487579345703,-0.020260334014892578,-0.014551464468240738
1686325291741176600,1.780176513671875,0.056748390197753906,-0.028417110443115234,0.0192042738199234
1686325291746226400,1.785226318359375,0.0915231704711914,-0.02502584457397461,0.02452258951961994
1686325291751276300,1.7902763671875,0.09658050537109375,-0.023388385772705078,0.014519372954964638
1686325291756324000,1.795323974609375,0.11366844177246094,-0.030476093292236328,0.019250057637691498
1686325291761374000,1.8003740234375,0.05829906463623047,-0.022344112396240234,0.001759377308189869
1686325291766423800,1.805423828125,0.027227401733398438,0.012875080108642578,0.021620716899633408
1686325291771473700,1.8104736328125,0.008326530456542969,-0.005719184875488281,-0.02495301514863968
1686325291776523500,1.8155234375,-0.03071308135986328,0.0473179817199707,-0.028413603082299232
1686325291781573400,1.820573486328125,-0.061240196228027344,0.06691265106201172,-0.06853745877742767
1686325291786621200,1.82562109375,-0.03929710388183594,0.05674457550048828,-0.07881990820169449
1686325291791671000,1.830671142578125,-0.029554367065429688,0.06356954574584961,-0.09142668545246124
1686325291796721000,1.835720947265625,-0.020008087158203125,0.06700801849365234,-0.0628347173333168
1686325291801770500,1.8407705078125,-0.02843761444091797,0.07414484024047852,-0.08812971413135529
1686325291806820400,1.8458203125,-0.015452384948730469,0.05278587341308594,-0.056586720049381256
1686325291811870200,1.8508701171875,0.009303092956542969,0.03754377365112305,-0.036288388073444366
1686325291816918000,1.85591796875,0.014893531799316406,0.016396045684814453,-0.010477365925908089
1686325291821968000,1.8609677734375,0.01934337615966797,0.021368980407714844,0.020963681861758232
1686325291827017700,1.866017822265625,0.035727500915527344,0.01661062240600586,0.06526635587215424
1686325291832067600,1.871067626953125,0.012938499450683594,0.012753009796142578,0.09500493854284286
1686325291837117400,1.876117431640625,-0.008332252502441406,0.02646350860595703,0.10925258696079254
1686325291842167300,1.881167236328125,-0.034071922302246094,-0.01122426986694336,0.1023053377866745
1686325291847215000,1.886215087890625,-0.09045696258544922,-0.01419973373413086,0.08265344053506851
1686325291852264700,1.8912646484375,-0.11908912658691406,-0.03727293014526367,0.0811920240521431
1686325291857314000,1.89631396484375,-0.13330841064453125,-0.018417835235595703,0.05384528636932373
1686325291862363600,1.90136376953125,-0.1297464370727539,-0.027922630310058594,0.015978246927261353
1686325291867413200,1.906413330078125,-0.14188575744628906,-0.020252704620361328,-0.037026070058345795
1686325291872462800,1.911462890625,-0.16477680206298828,0.010248661041259766,-0.062456611543893814
1686325291877512000,1.916511962890625,-0.1389636993408203,0.024240493774414062,-0.0676114484667778
1686325291882561500,1.9215615234375,-0.11356258392333984,0.03376150131225586,-0.05630408972501755
1686325291887611100,1.926611083984375,-0.09318161010742188,0.04450845718383789,-0.07494793087244034
1686325291892660700,1.93166064453125,-0.08018970489501953,0.037535667419433594,-0.08653079718351364
1686325291897710300,1.93671044921875,-0.08159351348876953,0.027128219604492188,-0.05781913921236992
1686325291902760000,1.941760009765625,-0.031864166259765625,0.002460956573486328,0.03235930576920509
1686325291907809000,1.94680908203125,0.029397010803222656,0.02180624008178711,0.04217088967561722
1686325291912858600,1.951858642578125,0.04265022277832031,-0.007730960845947266,0.0863688588142395
1686325291917908200,1.956908203125,0.06073951721191406,-0.03504323959350586,0.11957840621471405
1686325291922957800,1.961957763671875,0.09539985656738281,-0.03380870819091797,0.12531989812850952
1686325291928007200,1.967007080078125,0.10623645782470703,-0.04015493392944336,0.09171198308467865
1686325291933056800,1.972056884765625,0.07663345336914062,-0.03939199447631836,0.09186261147260666
1686325291938106000,1.977106201171875,0.1222219467163086,-0.040056705474853516,0.11457890272140503
1686325291943155700,1.98215576171875,0.09380054473876953,-0.0324254035949707,0.09656890481710434
1686325291948205000,1.987205078125,0.0656290054321289,-0.02131795883178711,0.0715235248208046
1686325291953254700,1.992254638671875,0.06028270721435547,-0.01747608184814453,0.06327986717224121
1686325291958304300,1.99730419921875,0.0465850830078125,-0.017066478729248047,0.03250180184841156
1686325291963353900,2.002353759765625,0.025795936584472656,-0.024811267852783203,0.0172926876693964
1686325291968403000,2.00740283203125,-0.011529922485351562,-0.0038213729858398438,-0.01674667000770569
1686325291973452500,2.01245263671875,0.03338909149169922,-0.030469417572021484,-0.009070835076272488
1686325291978502100,2.017502197265625,-0.011174201965332031,-0.014089107513427734,-0.026342427358031273
1686325291983551700,2.0225517578125,0.026578903198242188,-0.009698867797851562,-0.026712575927376747
1686325291988601300,2.027601318359375,0.0033941268920898438,-0.019504547119140625,-0.04721222072839737
1686325291993651000,2.03265087890625,-0.0029687881469726562,-0.01378774642944336,-0.026981022208929062
1686325291998700000,2.037699951171875,0.010958671569824219,0.0048542022705078125,0.0014324840158224106
1686325292003749600,2.04274951171875,0.015302658081054688,-0.05037069320678711,0.014273962005972862
1686325292008799200,2.04779931640625,0.02445507049560547,-0.04237031936645508,0.003439953550696373
1686325292013848800,2.052848876953125,0.03002452850341797,-0.04405641555786133,0.036655597388744354
1686325292018898200,2.057898193359375,-0.004734039306640625,-0.06494331359863281,0.04114605113863945
1686325292023947800,2.06294775390625,0.00001811981201171875,-0.07857608795166016,0.05867578089237213
1686325292028997000,2.0679970703125,-0.0059356689453125,-0.026814937591552734,0.06635766476392746
1686325292034046700,2.073046630859375,-0.04636573791503906,-0.021645069122314453,0.039353951811790466
1686325292039096000,2.078095947265625,-0.03780651092529297,-0.021175861358642578,0.03495541214942932
1686325292044145700,2.083145751953125,-0.11139869689941406,-0.018077373504638672,0.07323625683784485
1686325292049195300,2.0881953125,-0.12155437469482422,-0.009997844696044922,0.05064466595649719
1686325292054244900,2.093244873046875,-0.11153602600097656,-0.025529861450195312,0.0448697991669178
1686325292059294000,2.0982939453125,-0.10770225524902344,-0.01209878921508789,0.02719493955373764
1686325292064343600,2.103343505859375,-0.106353759765625,-0.029498577117919922,-0.0033988282084465027
1686325292069393200,2.10839306640625,-0.05523490905761719,-0.023975849151611328,-0.012358173727989197
1686325292074442800,2.11344287109375,-0.041350364685058594,-0.009018898010253906,-0.06635434925556183
1686325292079492400,2.118492431640625,0.016376495361328125,-0.017966270446777344,-0.03304164484143257
1686325292084542000,2.1235419921875,0.042695045471191406,0.0017614364624023438,-0.05112665146589279
1686325292089591000,2.128591064453125,0.02254009246826172,0.009307861328125,-0.0474463514983654
1686325292094640600,2.133640625,0.10245037078857422,0.010594844818115234,-0.06617674231529236
1686325292099690200,2.138690185546875,0.12476348876953125,0.03546428680419922,-0.04096608608961105
1686325292104739800,2.14373974609375,0.12796592712402344,0.02908039093017578,-0.04572995752096176
1686325292109789200,2.1487890625,0.15140438079833984,-0.010647773742675781,-0.03280011564493179
1686325292114838800,2.1538388671875,0.13438987731933594,0.030466556549072266,0.008551828563213348
1686325292119888100,2.15888818359375,0.12587738037109375,-0.0001220703125,0.0033642947673797607
1686325292124937700,2.163937744140625,0.1056356430053711,-0.006864070892333984,0.05289364233613014
1686325292129987000,2.168987060546875,0.09514617919921875,0.02429485321044922,0.060589421540498734
1686325292135036700,2.17403662109375,0.08005237579345703,-0.0019364356994628906,0.06343411654233932
1686325292140086300,2.179086181640625,0.05209827423095703,-0.0007944107055664062,0.04600375518202782
1686325292145135900,2.184135986328125,0.04098224639892578,-0.013869285583496094,0.08222559094429016
1686325292150185200,2.189185302734375,-0.006805419921875,-0.03526639938354492,0.08509746938943863
1686325292155234800,2.19423486328125,-0.04347991943359375,0.011169910430908203,0.049843091517686844
1686325292160284200,2.1992841796875,-0.03118610382080078,-0.025855064392089844,0.08032451570034027
1686325292165333800,2.204333740234375,-0.0712118148803711,-0.0009007453918457031,0.03942686319351196
1686325292170383400,2.20938330078125,-0.08360671997070312,-0.03312110900878906,0.01676783710718155
1686325292175433000,2.214432861328125,-0.11255073547363281,-0.024642467498779297,-0.02106115221977234
1686325292180482000,2.21948193359375,-0.11282825469970703,0.008873462677001953,-0.05144834145903587
1686325292185531600,2.22453173828125,-0.1072683334350586,-0.0135040283203125,-0.06372992694377899
1686325292190581200,2.229581298828125,-0.09590625762939453,-0.0070018768310546875,-0.058128029108047485
1686325292195630800,2.234630859375,-0.08945941925048828,0.02215576171875,-0.07766604423522949
1686325292200680200,2.23968017578125,-0.03808021545410156,0.003864765167236328,-0.10909335315227509
1686325292205729800,2.244729736328125,0.004444122314453125,0.04059743881225586,-0.09183977544307709
1686325292210779100,2.249779052734375,0.0073719024658203125,0.04148578643798828,-0.07492823898792267
1686325292215828700,2.254828857421875,0.010218620300292969,0.0020999908447265625,-0.07742903381586075
1686325292220878300,2.25987841796875,0.04032707214355469,0.04388236999511719,-0.02543400228023529
1686325292225928000,2.264927978515625,0.04050159454345703,0.04253244400024414,-0.0034384168684482574
1686325292230977300,2.269977294921875,0.07877445220947266,0.0516963005065918,0.012563634663820267
1686325292236027000,2.27502685546875,0.07051944732666016,0.06648921966552734,0.004840433597564697
1686325292241076200,2.280076171875,0.06123638153076172,0.016831398010253906,0.02677067369222641
1686325292246125600,2.28512548828125,0.06636524200439453,0.006619930267333984,0.03181851655244827
1686325292251175200,2.290175048828125,0.040604591369628906,-0.007139682769775391,0.026192687451839447
1686325292256224800,2.295224853515625,0.02587413787841797,-0.022230148315429688,0.02301272749900818
1686325292261274400,2.3002744140625,0.0005521774291992188,-0.01101827621459961,0.014036528766155243
1686325292266324000,2.305323974609375,0.015804290771484375,-0.01885700225830078,-0.015186125412583351
1686325292271373000,2.310373046875,0.005985260009765625,0.0030641555786132812,0.01643555983901024
1686325292276422700,2.315422607421875,-0.0014410018920898438,-0.0023751258850097656,0.04476010054349899
1686325292281472300,2.32047216796875,-0.03271770477294922,-0.0430750846862793,0.028348848223686218
1686325292286521900,2.32552197265625,-0.11383628845214844,-0.06161069869995117,-0.001096915453672409
1686325292291571500,2.330571533203125,-0.12084197998046875,-0.020182132720947266,-0.010943587869405746
1686325292296621000,2.33562109375,-0.06851673126220703,-0.016873836517333984,-0.010867610573768616
1686325292301670100,2.340670166015625,-0.013063430786132812,0.004224300384521484,-0.0346161350607872
1686325292306719700,2.3457197265625,0.04442787170410156,0.030827999114990234,-0.01771247759461403
1686325292311769300,2.350769287109375,0.05514049530029297,0.03934669494628906,-0.009439125657081604
1686325292316819000,2.35581884765625,0.04796314239501953,0.025203704833984375,-0.014641381800174713
1686325292321868300,2.360868408203125,0.011072158813476562,-0.0076618194580078125,-0.02344687283039093
1686325292326918000,2.36591796875,-0.02187824249267578,-0.009511470794677734,0.006866350769996643
1686325292331967200,2.37096728515625,-0.028432846069335938,0.021935462951660156,0.004916217178106308
1686325292337016800,2.376016845703125,0.009004592895507812,0.015134334564208984,0.030229024589061737
1686325292342066400,2.38106640625,0.02954864501953125,0.0035452842712402344,0.017110958695411682
1686325292347115800,2.38611572265625,0.02018260955810547,-0.018542766571044922,0.003995999693870544
1686325292352165400,2.391165283203125,0.006259918212890625,-0.033555030822753906,-0.010268080979585648
1686325292357215000,2.396215087890625,0.005507469177246094,0.01453399658203125,-0.013756975531578064
1686325292362264000,2.40126416015625,-0.024875640869140625,-0.0032215118408203125,0.00539851188659668
1686325292367313700,2.406313720703125,0.0008306503295898438,-0.0018458366394042969,-0.019479915499687195
1686325292372363300,2.41136328125,-0.049686431884765625,-0.0005064010620117188,0.015565231442451477
1686325292377412600,2.41641259765625,-0.0380096435546875,-0.01107931137084961,-0.0063083842396736145
1686325292382462200,2.421462158203125,-0.06440925598144531,-0.012131214141845703,0.018759503960609436
1686325292387511800,2.42651171875,-0.050208091735839844,-0.01555013656616211,0.01325225830078125
1686325292392561200,2.43156103515625,-0.09911632537841797,-0.024809837341308594,0.0023678094148635864
1686325292397610800,2.43661083984375,-0.031162261962890625,-0.03410959243774414,-0.017458520829677582
1686325292402660400,2.441660400390625,-0.017240524291992188,0.007765293121337891,-0.009377487003803253
1686325292407709700,2.446709716796875,0.055975914001464844,0.015989303588867188,-0.033360593020915985
1686325292412759300,2.45175927734375,0.040686607360839844,0.03839826583862305,-0.016816183924674988
1686325292417808600,2.45680859375,0.09215641021728516,0.018814563751220703,-0.011251643300056458
1686325292422858200,2.461858154296875,0.09803104400634766,0.04341268539428711,-0.033543530851602554
1686325292427907800,2.466907958984375,0.09915447235107422,0.021390438079833984,0.010468721389770508
1686325292432957200,2.471957275390625,0.0836639404296875,0.03157520294189453,0.03362981975078583
1686325292438006800,2.4770068359375,0.04225444793701172,0.02844381332397461,0.036144010722637177
1686325292443056400,2.482056396484375,0.03087615966796875,0.013484954833984375,0.04421403259038925
1686325292448105700,2.487105712890625,-0.008877754211425781,-0.016861915588378906,0.07229921966791153
1686325292453155300,2.4921552734375,-0.05538177490234375,0.007586479187011719,0.03609097748994827
1686325292458204700,2.49720458984375,-0.08612442016601562,-0.027418136596679688,0.03943660855293274
1686325292463254300,2.502254150390625,-0.11900997161865234,-0.02407550811767578,-0.005861423909664154
1686325292468304000,2.507303955078125,-0.1291360855102539,-0.012281417846679688,-0.02441510558128357
1686325292473353200,2.512353271484375,-0.1096649169921875,-0.014462947845458984,-0.03920377045869827
1686325292478402800,2.51740283203125,-0.10349178314208984,0.031025409698486328,-0.06548924744129181
1686325292483452400,2.522452392578125,-0.053524017333984375,0.006268024444580078,-0.061683859676122665
1686325292488501800,2.527501708984375,0.01970386505126953,0.02464151382446289,-0.07590240240097046
1686325292493551400,2.53255126953125,0.04948234558105469,0.06915950775146484,-0.04130113124847412
1686325292498601000,2.53760107421875,0.076629638671875,0.04919147491455078,-0.04889851436018944
1686325292503650300,2.542650390625,0.13089466094970703,0.05428743362426758,-0.04007174074649811
1686325292508700000,2.547699951171875,0.13724517822265625,0.04143381118774414,-0.0935479924082756
1686325292513749500,2.55274951171875,0.11271286010742188,0.02740621566772461,-0.09242197126150131
1686325292518798800,2.557798828125,0.10976696014404297,0.018249034881591797,-0.042873963713645935
1686325292523848400,2.562848388671875,0.09022140502929688,0.055495262145996094,-0.03223567456007004
1686325292528898000,2.56789794921875,0.039971351623535156,0.018769264221191406,-0.0196462944149971
1686325292533947400,2.572947509765625,0.028146743774414062,0.00016736984252929688,0.045276060700416565
1686325292538997000,2.5779970703125,0.011800765991210938,0.008756637573242188,0.06744939833879471
1686325292544046300,2.58304638671875,0.02780914306640625,-0.0329437255859375,0.06042226403951645
1686325292549096000,2.588095947265625,0.028451919555664062,-0.05930376052856445,0.06475374847650528
1686325292554145500,2.5931455078125,0.039852142333984375,-0.05354022979736328,0.06015603989362717
1686325292559195000,2.59819482421875,0.03711128234863281,-0.04114580154418945,0.0655585303902626
1686325292564244500,2.603244384765625,0.016729354858398438,-0.018494606018066406,0.03922087699174881
1686325292569293800,2.6082939453125,0.028564453125,-0.00311279296875,0.04409008473157883
1686325292574343400,2.613343505859375,-0.004801750183105469,0.004943370819091797,0.023986823856830597
1686325292579393000,2.61839306640625,0.03328895568847656,-0.0011320114135742188,0.02292531728744507
1686325292584442400,2.6234423828125,0.04254722595214844,-0.019012451171875,0.020506717264652252
1686325292589492000,2.628491943359375,0.032683372497558594,-0.016457557678222656,0.040240876376628876
1686325292594541600,2.63354150390625,0.022828102111816406,-0.0054454803466796875,0.044049106538295746
1686325292599630300,2.63863037109375,0.024957656860351562,-0.019514083862304688,0.054722607135772705
1686325292604680000,2.643679931640625,0.004382133483886719,0.003612041473388672,0.0484125092625618
1686325292609729500,2.6487294921875,-0.00882720947265625,-0.018731117248535156,0.04692856967449188
1686325292614779000,2.65377880859375,-0.037479400634765625,-0.01214742660522461,0.03835185617208481
1686325292619828500,2.658828369140625,-0.019515037536621094,-0.019989013671875,0.050145238637924194
1686325292624878000,2.663878173828125,-0.0314788818359375,-0.007408618927001953,0.019503526389598846
1686325292629888000,2.668887939453125,-0.04565238952636719,-0.011705398559570312,0.015370123088359833
1686325292634937600,2.6739375,-0.06915855407714844,-0.0006394386291503906,-0.011015936732292175
1686325292639987000,2.678987060546875,-0.023683547973632812,-0.0179595947265625,-0.01789417862892151
1686325292645036500,2.68403662109375,-0.05336284637451172,-0.010310649871826172,-0.03287690132856369
1686325292650086100,2.689086181640625,-0.03649711608886719,0.0008869171142578125,-0.00713542103767395
1686325292655135500,2.694135498046875,-0.017398834228515625,0.00842905044555664,-0.09318587183952332
1686325292660185000,2.69918505859375,-0.015053749084472656,0.00990152359008789,-0.07050973176956177
1686325292665234700,2.704234619140625,0.005124092102050781,0.03623771667480469,0.01935720443725586
1686325292670284000,2.709283935546875,-0.015250205993652344,0.03622293472290039,0.07154684513807297
1686325292675333600,2.714333740234375,-0.004525184631347656,0.0004801750183105469,0.08765511214733124
1686325292680383200,2.71938330078125,-0.027179718017578125,-0.026583194732666016,0.11191453039646149
1686325292685432600,2.7244326171875,-0.017641067504882812,-0.024774551391601562,0.11563523858785629
1686325292690482200,2.729482177734375,-0.011820793151855469,-0.02519512176513672,0.06108408421278
1686325292695531500,2.734531494140625,0.024745941162109375,-0.03255271911621094,0.04849568009376526
1686325292700581000,2.7395810546875,0.028896331787109375,-0.008873939514160156,0.05121558904647827
1686325292705630700,2.744630615234375,0.09601211547851562,0.008572101593017578,0.04786411672830582
1686325292710680000,2.74968017578125,0.08304691314697266,0.024566173553466797,0.039611153304576874
1686325292715729700,2.754729736328125,0.08563518524169922,0.009546279907226562,-0.03903838247060776
1686325292720779000,2.759779052734375,0.055022239685058594,0.025368690490722656,0.006518930196762085
1686325292725828600,2.76482861328125,0.07942485809326172,0.007542133331298828,-0.02068781852722168
1686325292730878200,2.769878173828125,0.08474254608154297,0.02999114990234375,-0.01198432594537735
1686325292735927600,2.774927490234375,0.05328178405761719,0.005740642547607422,-0.01855991780757904
1686325292740977200,2.77997705078125,0.05191993713378906,0.0015783309936523438,-0.014201179146766663
1686325292746026800,2.78502685546875,0.02576923370361328,0.020902633666992188,0.03065010905265808
1686325292751076000,2.790076171875,0.0047054290771484375,0.01961374282836914,0.0327325314283371
1686325292756125700,2.795125732421875,-0.055347442626953125,-0.004302024841308594,0.033785879611968994
1686325292761175300,2.80017529296875,-0.08040428161621094,0.005119800567626953,0.03885136544704437
1686325292766224600,2.805224609375,-0.12659168243408203,0.0013031959533691406,0.07266354560852051
1686325292771274200,2.810274169921875,-0.15105056762695312,-0.01785135269165039,0.04581707715988159
1686325292776323800,2.81532373046875,-0.1742086410522461,-0.02002859115600586,0.04781922698020935
1686325292781373200,2.820373291015625,-0.18304443359375,-0.025493144989013672,0.0367254763841629
1686325292786422800,2.8254228515625,-0.12063789367675781,-0.028325557708740234,0.02314668893814087
1686325292791472000,2.83047216796875,-0.1552143096923828,-0.032968997955322266,0.04274803400039673
1686325292796521700,2.835521728515625,-0.13281917572021484,-0.02261829376220703,0.029559552669525146
1686325292801571300,2.8405712890625,-0.09773921966552734,-0.028558731079101562,-0.0007124841213226318
1686325292806620700,2.84562060546875,-0.04410839080810547,-0.04716157913208008,-0.031213968992233276
1686325292811670300,2.850670166015625,0.014920234680175781,-0.02145099639892578,-0.010846555233001709
1686325292816720000,2.855719970703125,0.010387420654296875,-0.005198955535888672,0.007971763610839844
1686325292821769200,2.860769287109375,0.010621070861816406,0.028781414031982422,-0.016162365674972534
1686325292826818800,2.86581884765625,0.07980060577392578,0.016037940979003906,-0.038917891681194305
1686325292831868400,2.870868408203125,0.07841014862060547,0.034096717834472656,-0.05529633164405823
1686325292836917800,2.875917724609375,0.06659317016601562,0.04077577590942383,-0.038028597831726074
1686325292841967400,2.88096728515625,0.0800027847290039,0.047002315521240234,-0.00985834002494812
1686325292847017000,2.886016845703125,0.060235023498535156,0.06463098526000977,-0.01933044195175171
1686325292852066300,2.89106640625,0.019433975219726562,0.03420114517211914,-0.02336028963327408
1686325292857116000,2.896115966796875,0.01835155487060547,0.01906585693359375,-0.00782187283039093
1686325292862165500,2.90116552734375,-0.03367805480957031,0.014489173889160156,0.00923563539981842
1686325292867214800,2.90621484375,-0.04477119445800781,0.016819477081298828,-0.011596620082855225
1686325292872264400,2.911264404296875,-0.07845020294189453,-0.022208213806152344,-0.008503511548042297
1686325292877313800,2.916313720703125,-0.12140560150146484,0.022349834442138672,0.01836486905813217
1686325292882363400,2.92136328125,-0.10235977172851562,0.007407665252685547,0.0031669512391090393
1686325292887413000,2.9264130859375,-0.08244800567626953,0.021448612213134766,-0.03967149555683136
1686325292892462300,2.93146240234375,-0.09743785858154297,0.0015616416931152344,-0.030516505241394043
1686325292897512000,2.936511962890625,-0.057847023010253906,-0.022510051727294922,-0.04475845396518707
1686325292902561500,2.9415615234375,-0.0426025390625,-0.013748645782470703,-0.007280945777893066
1686325292907611000,2.94661083984375,-0.015769004821777344,-0.00470733642578125,-0.03218672424554825
1686325292912660500,2.951660400390625,-0.009545326232910156,0.0034956932067871094,-0.024213619530200958
1686325292917710000,2.9567099609375,0.03228569030761719,0.002083301544189453,-0.055607616901397705
1686325292922759400,2.961759521484375,0.019073486328125,0.016242027282714844,-0.00948689877986908
1686325292927809000,2.96680908203125,0.10111427307128906,0.014584541320800781,-0.0016850978136062622
1686325292932858600,2.971858642578125,0.13503646850585938,-0.01216745376586914,0.018209442496299744
1686325292937908000,2.976907958984375,0.14983463287353516,-0.005789756774902344,0.021560847759246826
1686325292942957600,2.98195751953125,0.1635284423828125,0.002463817596435547,0.011020317673683167
1686325292948007200,2.987007080078125,0.18798255920410156,-0.015882015228271484,0.023453935980796814
1686325292953056500,2.992056396484375,0.20408344268798828,-0.015422344207763672,0.03599977493286133
1686325292958106000,2.997106201171875,0.18111515045166016,-0.013154983520507812,0.02969859540462494
1686325292963155700,3.00215576171875,0.17868518829345703,-0.03143024444580078,0.021307706832885742
1686325292968205000,3.007205078125,0.15158462524414062,-0.013274192810058594,0.031063929200172424
1686325292973254700,3.012254638671875,0.11062431335449219,-0.018190383911132812,0.03716430068016052
1686325292978304300,3.01730419921875,0.06536293029785156,-0.025678157806396484,0.0161048024892807
1686325292983353600,3.022353515625,0.04425811767578125,-0.030776500701904297,0.02963988482952118
1686325292988403200,3.0274033203125,-0.01348876953125,-0.02870798110961914,0.0477982759475708
1686325292993452500,3.03245263671875,-0.030480384826660156,-0.019294261932373047,0.05139806866645813
1686325292998502100,3.037502197265625,-0.09025382995605469,-0.010796070098876953,0.08091762661933899
1686325293003551700,3.0425517578125,-0.12245368957519531,-0.04461097717285156,0.05425691604614258
1686325293008601000,3.04760107421875,-0.16289901733398438,-0.034960269927978516,0.09414367377758026
1686325293013650700,3.052650634765625,-0.12363243103027344,-0.023758888244628906,0.09303642809391022
1686325293018700300,3.0577001953125,-0.14903926849365234,-0.009831905364990234,0.05607388913631439
1686325293023749600,3.06274951171875,-0.13874435424804688,0.009035587310791016,0.030015066266059875
1686325293028799200,3.06779931640625,-0.10842514038085938,0.021973609924316406,0.005433082580566406
1686325293033848800,3.072848876953125,-0.06527137756347656,0.013376235961914062,0.011997431516647339
1686325293038898200,3.077898193359375,0.0013561248779296875,0.011812686920166016,0.0019837170839309692
1686325293043947800,3.08294775390625,-0.021546363830566406,0.008839607238769531,-0.018527507781982422
1686325293048997400,3.087997314453125,-0.02868366241455078,0.012737274169921875,-0.026846379041671753
1686325293054046700,3.093046630859375,-0.01898193359375,0.041222572326660156,-0.037367649376392365
1686325293059096300,3.098096435546875,-0.038913726806640625,0.050160884857177734,0.003535524010658264
1686325293064146000,3.10314599609375,-0.041954994201660156,0.012491226196289062,0.007478967308998108
1686325293069195300,3.1081953125,-0.08047103881835938,-0.0073299407958984375,0.012625515460968018
1686325293074244900,3.113244873046875,-0.07704925537109375,0.003803253173828125,0.04150912165641785
1686325293079294500,3.11829443359375,-0.09627914428710938,-0.015923023223876953,0.04049009084701538
1686325293084343800,3.12334375,-0.12380695343017578,-0.006674289703369141,0.03820629417896271
1686325293089393400,3.128393310546875,-0.13700294494628906,-0.018552303314208984,0.028485223650932312
1686325293094442800,3.13344287109375,-0.11347770690917969,-0.0073184967041015625,0.004388898611068726
1686325293099492400,3.138492431640625,-0.0963582992553711,-0.0003418922424316406,0.010914623737335205
1686325293104542000,3.1435419921875,-0.07479572296142578,0.0033669471740722656,-0.012554779648780823
1686325293109591300,3.14859130859375,-0.06315422058105469,0.014687538146972656,-0.01238037645816803
1686325293114641000,3.153640869140625,-0.018517494201660156,0.002513885498046875,-0.03847840428352356
1686325293119690500,3.1586904296875,0.026813507080078125,0.010891914367675781,-0.0014208108186721802
1686325293124739800,3.16373974609375,0.06346511840820312,-0.0022025108337402344,-0.027657389640808105
1686325293129789400,3.16878955078125,0.13317584991455078,0.0012068748474121094,0.0024682283401489258
1686325293134839000,3.173839111328125,0.17274093627929688,0.0007419586181640625,-0.014920100569725037
1686325293139888400,3.178888427734375,0.1873493194580078,0.01622772216796875,0.02761426568031311
1686325293144977400,3.183977294921875,0.2413806915283203,-0.000045299530029296875,0.010810628533363342
1686325293150027000,3.189027099609375,0.22875213623046875,0.010472297668457031,0.014753222465515137
1686325293155076400,3.194076416015625,0.2105865478515625,-0.0023021697998046875,0.013028159737586975
1686325293160126000,3.1991259765625,0.18095684051513672,-0.0012822151184082031,0.029441937804222107
1686325293165175600,3.204175537109375,0.13155174255371094,-0.014877796173095703,0.02789255976676941
1686325293170225000,3.209224853515625,0.055294036865234375,0.008341789245605469,-0.012748584151268005
1686325293175235000,3.214235107421875,0.030709266662597656,0.002948760986328125,-0.01537427306175232
1686325293180284700,3.21928466796875,-0.019890785217285156,0.016802310943603516,-0.025313086807727814
1686325293185334300,3.224334228515625,-0.05129241943359375,0.022723674774169922,-0.05699342489242554
1686325293190383600,3.229383544921875,-0.1182861328125,0.006497383117675781,-0.038656339049339294
1686325293195433200,3.23443310546875,-0.11129283905029297,0.019382953643798828,-0.006809502840042114
1686325293200482800,3.23948291015625,-0.12244224548339844,-0.005280971527099609,-0.016906648874282837
1686325293205532200,3.2445322265625,-0.07901191711425781,-0.02941131591796875,-0.016478940844535828
1686325293210581800,3.249581787109375,-0.05859947204589844,-0.01989459991455078,0.012297898530960083
1686325293215631000,3.254631103515625,-0.04671287536621094,-0.007989883422851562,0.030163705348968506
1686325293220680700,3.2596806640625,0.006644248962402344,0.003814697265625,0.04437565803527832
1686325293225730300,3.264730224609375,0.05970573425292969,0.01640176773071289,0.06553499400615692
1686325293230779600,3.269779541015625,0.11718463897705078,-0.011736869812011719,0.04385127127170563
1686325293235829200,3.274829345703125,0.09597301483154297,-0.019824981689453125,0.05553619563579559
1686325293240878800,3.27987890625,0.08220767974853516,-0.04122304916381836,0.06019054353237152
1686325293245928200,3.28492822265625,0.06991100311279297,-0.04616737365722656,0.05306984484195709
1686325293250977800,3.289977783203125,0.0043163299560546875,-0.027434825897216797,0.051169052720069885
1686325293256027400,3.29502734375,-0.002445220947265625,-0.02686166763305664,0.025661572813987732
1686325293261076700,3.30007666015625,-0.05309104919433594,-0.012062549591064453,0.042199164628982544
1686325293266126300,3.305126220703125,-0.09858036041259766,0.019265174865722656,0.005479440093040466
1686325293271176000,3.310176025390625,-0.0808095932006836,0.012469291687011719,-0.003504052758216858
1686325293276225300,3.315225341796875,-0.11077880859375,-0.017859458923339844,-0.03482528775930405
1686325293281275000,3.32027490234375,-0.1133270263671875,0.009386062622070312,-0.012351706624031067
1686325293286324500,3.325324462890625,-0.09927177429199219,0.03887319564819336,0.006488978862762451
1686325293291373800,3.330373779296875,-0.05220603942871094,0.03632783889770508,0.039155423641204834
1686325293296423400,3.33542333984375,-0.03882789611816406,0.010143280029296875,0.05216832458972931
1686325293301473000,3.34047314453125,0.0076446533203125,0.011611461639404297,0.06603488326072693
1686325293306522400,3.3455224609375,-0.01998424530029297,-0.029529571533203125,0.0913536548614502
1686325293311572000,3.350572021484375,0.01916027069091797,-0.029990196228027344,0.1292441338300705
1686325293316621600,3.35562158203125,-0.042957305908203125,-0.03406047821044922,0.1489986926317215
1686325293321671000,3.3606708984375,-0.0724782943725586,-0.04524803161621094,0.1200413852930069
1686325293326720500,3.365720458984375,-0.09220123291015625,-0.05764913558959961,0.14380918443202972
1686325293331770000,3.37077001953125,-0.12472915649414062,-0.1010432243347168,0.10956388711929321
1686325293336819700,3.37581982421875,-0.10587215423583984,-0.0729055404663086,0.10568378865718842
1686325293341869000,3.380869140625,-0.08352375030517578,-0.04875802993774414,0.06883257627487183
1686325293346918700,3.385918701171875,-0.10176944732666016,-0.008135795593261719,0.07403628528118134
1686325293351968300,3.39096826171875,-0.08899688720703125,-0.007025241851806641,-0.01809510588645935
1686325293357017600,3.396017578125,-0.11685562133789062,0.03001546859741211,-0.05256364494562149
1686325293362067200,3.401067138671875,-0.12337875366210938,0.04476737976074219,-0.059592410922050476
1686325293367116800,3.40611669921875,-0.12413597106933594,0.03613853454589844,-0.07166320085525513
1686325293372166100,3.411166259765625,-0.04797935485839844,0.04959821701049805,-0.08399531245231628
1686325293377215700,3.4162158203125,-0.054604530334472656,0.005170345306396484,-0.08599331974983215
1686325293382265000,3.42126513671875,0.02660083770751953,0.04095458984375,-0.10363636910915375
1686325293387314700,3.426314697265625,0.07256889343261719,0.01968526840209961,-0.08933558315038681
1686325293392364300,3.4313642578125,0.10395431518554688,0.016295433044433594,-0.04545613378286362
1686325293397413600,3.43641357421875,0.1815023422241211,0.01866292953491211,-0.02576605975627899
1686325293402463200,3.441463134765625,0.24321556091308594,0.021657943725585938,0.00819164514541626
1686325293407512800,3.446512939453125,0.2821340560913086,0.02282857894897461,0.017076924443244934
1686325293412562200,3.451562255859375,0.2771291732788086,0.007793903350830078,0.013210982084274292
1686325293417611800,3.45661181640625,0.2832489013671875,0.021729469299316406,0.04181191325187683
1686325293422661400,3.461661376953125,0.2742500305175781,-0.00801849365234375,0.101485475897789
1686325293427710700,3.466710693359375,0.21697521209716797,-0.0002651214599609375,0.0660652220249176
1686325293432760300,3.47176025390625,0.12127876281738281,0.015099525451660156,0.07523903250694275
1686325293437810000,3.476809814453125,0.05736827850341797,-0.019788742065429688,0.024110257625579834
1686325293442859300,3.481859375,0.0035037994384765625,-0.011649608612060547,-0.042045846581459045
1686325293447908900,3.486908935546875,-0.047608375549316406,-0.004599571228027344,-0.0401340126991272
1686325293452958500,3.49195849609375,-0.1186838150024414,0.006382465362548828,-0.07649128884077072
1686325293458007800,3.4970078125,-0.18004131317138672,0.0050106048583984375,-0.0937996432185173
1686325293463057400,3.502057373046875,-0.2056713104248047,0.010487556457519531,-0.1291663646697998
1686325293468107000,3.50710693359375,-0.23743438720703125,0.0429234504699707,-0.12780478596687317
1686325293473156400,3.51215625,-0.16722679138183594,-0.0035462379455566406,-0.09823839366436005
1686325293478206000,3.5172060546875,-0.13233661651611328,0.03175640106201172,-0.12867632508277893
1686325293483255600,3.522255615234375,-0.0931844711303711,-0.008825302124023438,-0.0746082216501236
1686325293488305200,3.52730517578125,-0.0034046173095703125,0.015331745147705078,-0.07577789574861526
1686325293493354500,3.5323544921875,0.07511711120605469,0.002089977264404297,-0.009293198585510254
1686325293498404000,3.537404052734375,0.16983413696289062,0.002742290496826172,-0.0003255009651184082
1686325293503453700,3.54245361328125,0.22127723693847656,0.012301445007324219,0.033650800585746765
1686325293508503000,3.5475029296875,0.24176502227783203,-0.0003581047058105469,0.09845508635044098
1686325293513552600,3.552552734375,0.24109172821044922,-0.025616168975830078,0.09744901955127716
1686325293518602200,3.557602294921875,0.21818923950195312,0.002075672149658203,0.10003547370433807
1686325293523651600,3.562651611328125,0.18386554718017578,0.018278121948242188,0.09327048063278198
1686325293528701200,3.567701171875,0.12031173706054688,0.013770580291748047,0.07010269165039062
1686325293533750800,3.572750732421875,0.060871124267578125,0.03775978088378906,0.06390823423862457
1686325293538800400,3.57780029296875,-0.006411552429199219,-0.0013604164123535156,0.05077250301837921
1686325293543849700,3.582849609375,-0.043548583984375,0.017097949981689453,0.03766965866088867
1686325293548899300,3.5878994140625,-0.10315704345703125,0.019220352172851562,-0.02155514806509018
1686325293553949000,3.592948974609375,-0.10547924041748047,0.019423484802246094,-0.02562415599822998
1686325293558998300,3.597998291015625,-0.08062934875488281,0.006911754608154297,-0.06655216962099075
1686325293564048000,3.6030478515625,-0.0823068618774414,0.02103900909423828,-0.04417236149311066
1686325293569097500,3.608097412109375,-0.07331562042236328,0.017305374145507812,-0.03394600749015808
1686325293574146800,3.613146728515625,-0.05252265930175781,0.012417793273925781,-0.03325605392456055
1686325293579196400,3.618196533203125,-0.05924701690673828,-0.0006952285766601562,-0.0051091015338897705
1686325293584246000,3.62324609375,-0.03257179260253906,-0.01507425308227539,0.03130759298801422
1686325293589295400,3.62829541015625,-0.0036773681640625,-0.025910377502441406,0.04015183448791504
1686325293594345000,3.633344970703125,0.00017547607421875,-0.02864837646484375,0.07043251395225525
1686325293599394300,3.638394287109375,0.018349647521972656,-0.03276252746582031,0.052881866693496704
1686325293604444000,3.64344384765625,-0.009892463684082031,-0.029834747314453125,0.08176186680793762
1686325293609493500,3.648493408203125,-0.029539108276367188,-0.005645751953125,0.06036089360713959
1686325293614542800,3.65354296875,-0.05729961395263672,0.006390571594238281,0.06643079221248627
1686325293619592400,3.658592529296875,-0.06950855255126953,-0.019423484802246094,0.03669656813144684
1686325293624642000,3.66364208984375,-0.07929134368896484,-0.005705356597900391,-0.0073583126068115234
1686325293629691600,3.668691650390625,-0.08319377899169922,-0.007238864898681641,-0.009773164987564087
1686325293634741000,3.673740966796875,-0.04913806915283203,0.017558574676513672,0.006458058953285217
1686325293639790600,3.67879052734375,-0.03214740753173828,0.029413700103759766,-0.021641477942466736
1686325293644840200,3.683840087890625,-0.027260780334472656,0.037796974182128906,-0.05460900068283081
1686325293649889500,3.6888896484375,-0.028464317321777344,0.030904769897460938,-0.02557377517223358
1686325293654939100,3.693939208984375,-0.0011625289916992188,-0.0056018829345703125,-0.05133723467588425
1686325293659988700,3.69898876953125,0.0045757293701171875,0.026993751525878906,-0.00678040087223053
1686325293665038000,3.7040380859375,0.03764915466308594,0.014038562774658203,0.006706744432449341
1686325293670087700,3.709087646484375,0.03958320617675781,-0.011919975280761719,0.014310061931610107
1686325293675137300,3.71413720703125,0.03683662414550781,-0.024787425994873047,0.003183141350746155
1686325293680186600,3.7191865234375,0.03531837463378906,-0.028093814849853516,0.0007685422897338867
1686325293685236200,3.724236328125,0.012574195861816406,-0.019802093505859375,0.02117614448070526
1686325293690285800,3.729285888671875,0.010262489318847656,-0.024761199951171875,0.01676708459854126
1686325293695335400,3.73433544921875,0.03528594970703125,0.0023889541625976562,0.03283247351646423
1686325293700384800,3.739384765625,-0.017076492309570312,0.011425495147705078,0.005132943391799927
1686325293705434400,3.744434326171875,-0.005951881408691406,-0.03565073013305664,-0.011525511741638184
1686325293710483700,3.749483642578125,-0.005631446838378906,0.003230571746826172,0.02781100571155548
1686325293715533300,3.754533203125,0.03988933563232422,-0.005861759185791016,0.020383790135383606
1686325293720583000,3.7595830078125,0.026810646057128906,-0.030272483825683594,-0.0013773739337921143
1686325293725632500,3.764632568359375,0.0020093917846679688,0.007189750671386719,-0.006528183817863464
1686325293730681900,3.769681884765625,-0.013090133666992188,0.003980159759521484,0.014283925294876099
1686325293735731500,3.7747314453125,0.0028209686279296875,-0.0015783309936523438,0.0003123283386230469
1686325293740781000,3.779781005859375,-0.028944015502929688,0.010799884796142578,0.0005737990140914917
1686325293745830400,3.784830322265625,-0.06282711029052734,0.03853940963745117,-0.017209112644195557
1686325293750880000,3.7898798828125,-0.07156181335449219,0.004449367523193359,0.014985322952270508
1686325293755929600,3.7949296875,-0.05883312225341797,0.006252288818359375,-0.022096902132034302
1686325293760979000,3.79997900390625,-0.10212326049804688,-0.0024595260620117188,-0.0018077492713928223
1686325293766028500,3.805028564453125,-0.07387924194335938,0.017597675323486328,-0.03390116989612579
1686325293771078100,3.810078125,-0.13030242919921875,0.04244852066040039,-0.0075164735317230225
1686325293776127500,3.81512744140625,-0.08064460754394531,0.03048419952392578,-0.029991865158081055
1686325293781177000,3.820177001953125,-0.10279083251953125,0.0046253204345703125,-0.03674359619617462
1686325293786226700,3.825226806640625,-0.06545829772949219,0.024306774139404297,-0.00642867386341095
1686325293791276000,3.830276123046875,-0.053381919860839844,0.024820804595947266,-0.04042170196771622
1686325293796325600,3.83532568359375,-0.015309333801269531,0.02658843994140625,-0.05155263841152191
1686325293801375200,3.840375244140625,0.024810791015625,0.02598857879638672,-0.02927500009536743
1686325293806424600,3.845424560546875,0.030218124389648438,0.06801176071166992,-0.021390274167060852
1686325293811474200,3.85047412109375,0.04990959167480469,0.02043914794921875,-0.0218125581741333
1686325293816523800,3.855523681640625,0.04340839385986328,-0.007946491241455078,-0.007991611957550049
1686325293821573400,3.860573486328125,0.06554508209228516,0.03144407272338867,0.016395315527915955
1686325293826622700,3.865622802734375,0.053165435791015625,0.0013790130615234375,0.05240604281425476
1686325293831672300,3.87067236328125,0.06473636627197266,-0.017933368682861328,0.030999600887298584
1686325293836722000,3.875721923828125,0.04781341552734375,-0.005251884460449219,0.05143648386001587
1686325293841771500,3.880771484375,0.020355224609375,-0.01526784896850586,0.05263809859752655
1686325293846820900,3.88582080078125,0.005028724670410156,-0.013369083404541016,0.05961716175079346
1686325293851870500,3.890870361328125,-0.030408859252929688,-0.0030803680419921875,0.05354972183704376
1686325293856920000,3.895920166015625,-0.05605792999267578,-0.023736953735351562,0.052199721336364746
1686325293861969400,3.900969482421875,-0.07690811157226562,-0.0046710968017578125,0.048439472913742065
1686325293867019000,3.90601904296875,-0.04184913635253906,-0.025960445404052734,0.012591332197189331
1686325293872068600,3.911068603515625,-0.03806495666503906,-0.025478839874267578,0.028072386980056763
1686325293877118000,3.916117919921875,-0.018980979919433594,-0.0010104179382324219,-0.005450129508972168
1686325293882167600,3.92116748046875,0.005816459655761719,0.044775962829589844,0.023048311471939087
1686325293887217200,3.926217041015625,0.020904541015625,-0.0024666786193847656,0.006135731935501099
1686325293892266500,3.9312666015625,0.05246257781982422,-0.0017323493957519531,-0.005858927965164185
1686325293897316000,3.936316162109375,0.061202049255371094,-0.015277862548828125,-0.0036481469869613647
1686325293902365700,3.94136572265625,0.06166362762451172,-0.005190372467041016,-0.0036999285221099854
1686325293907415000,3.9464150390625,0.09311389923095703,0.02002096176147461,-0.009617015719413757
1686325293912464600,3.951464599609375,0.0650777816772461,-0.005219936370849609,0.022827744483947754
1686325293917514200,3.95651416015625,0.05758476257324219,0.005124568939208984,0.05293290317058563
1686325293922563600,3.9615634765625,0.1133413314819336,-0.0338129997253418,0.04836307466030121
1686325293927613200,3.96661328125,0.06894874572753906,-0.02629232406616211,0.0652918666601181
1686325293932662800,3.971662841796875,0.053544044494628906,-0.011944293975830078,0.04063548147678375
1686325293937712400,3.97671240234375,-0.021142959594726562,-0.000045299530029296875,0.03161199390888214
1686325293942761700,3.98176171875,-0.03821277618408203,-0.004827976226806641,0.04983973503112793
1686325293947811300,3.986811279296875,-0.07902240753173828,-0.01524972915649414,0.015795081853866577
1686325293952861000,3.99186083984375,-0.07093620300292969,0.02579498291015625,-0.018118485808372498
1686325293957910300,3.99691015625,-0.06902408599853516,-0.009165763854980469,-0.026854634284973145
1686325293962960000,4.0019599609375,-0.10291290283203125,0.006381034851074219,-0.03450634330511093
1686325293968009500,4.007009521484375,-0.07957172393798828,-0.008942604064941406,-0.03643925487995148
1686325293973058800,4.012058837890625,-0.08860206604003906,0.020044803619384766,-0.050433382391929626
1686325293978108400,4.0171083984375,-0.04538536071777344,0.02165985107421875,-0.0608518123626709
1686325293983158000,4.022157958984375,-0.03820514678955078,0.025732994079589844,-0.07358135282993317
1686325293988207600,4.02720751953125,-0.008541107177734375,0.01913166046142578,-0.0482398197054863
1686325293993257000,4.032257080078125,0.012617111206054688,0.03147125244140625,-0.04442984610795975
1686325293998306600,4.037306640625,0.003979682922363281,0.013849735260009766,0.014244802296161652
1686325294003356200,4.042356201171875,0.032421112060546875,0.01854228973388672,0.007315188646316528
1686325294008405500,4.047405517578125,0.02513599395751953,0.0038847923278808594,0.023175813257694244
1686325294013455000,4.052455078125,0.0060977935791015625,0.005836009979248047,0.052227623760700226
1686325294018504700,4.057504638671875,-0.043541908264160156,-0.0043659210205078125,0.05863342434167862
1686325294023554000,4.062553955078125,-0.05002117156982422,-0.010898590087890625,0.06874402612447739
1686325294028603600,4.067603759765625,-0.07085514068603516,-0.033677101135253906,0.028870515525341034
1686325294033653200,4.0726533203125,-0.08082294464111328,-0.023009300231933594,0.010518357157707214
1686325294038702600,4.07770263671875,-0.10515785217285156,0.01174783706665039,-0.015031792223453522
1686325294043752200,4.082752197265625,-0.06042003631591797,0.04151344299316406,-0.007472440600395203
1686325294048801800,4.0878017578125,-0.07446098327636719,0.0453495979309082,-0.025411315262317657
1686325294053851400,4.092851318359375,-0.06722545623779297,0.02230691909790039,-0.06135571002960205
1686325294058900700,4.097900634765625,-0.050704002380371094,-0.013279914855957031,-0.06738931685686111
1686325294063950300,4.102950439453125,-0.02843475341796875,-0.024696826934814453,-0.0782279223203659
1686325294069000000,4.108,0.011429786682128906,-0.0038781166076660156,-0.05206121504306793
1686325294074049300,4.11304931640625,0.06645774841308594,0.0071506500244140625,-0.039103880524635315
1686325294079099000,4.118098876953125,0.11165523529052734,0.008305549621582031,-0.021285511553287506
1686325294084148500,4.1231484375,0.11623191833496094,-0.003920555114746094,-0.003273487091064453
1686325294089198000,4.128197998046875,0.13527774810791016,-0.010646820068359375,0.01839977502822876
1686325294094247400,4.133247314453125,0.1733112335205078,-0.020000934600830078,0.05682510882616043
1686325294099297000,4.138297119140625,0.12682723999023438,-0.024806499481201172,0.08197277039289474
1686325294104346600,4.1433466796875,0.12478923797607422,-0.025058269500732422,0.08801088482141495
1686325294109396000,4.14839599609375,0.08841419219970703,-0.017183303833007812,0.09747770428657532
1686325294114445600,4.153445556640625,0.09163093566894531,-0.0535120964050293,0.13172203302383423
1686325294119495200,4.1584951171875,0.056858062744140625,-0.03380918502807617,0.0907772034406662
1686325294124544500,4.16354443359375,0.018802642822265625,-0.05700969696044922,0.06792569905519485
1686325294129594000,4.168593994140625,-0.03675079345703125,-0.015879154205322266,0.04047394543886185
1686325294134643700,4.173643798828125,-0.051566123962402344,-0.0021767616271972656,0.010765105485916138
1686325294139693000,4.178693115234375,-0.07589244842529297,-0.0025577545166015625,-0.059160925447940826
1686325294144782000,4.183781982421875,-0.07042121887207031,0.017467975616455078,-0.06799615919589996
1686325294149831700,4.188831787109375,-0.07702922821044922,0.0032143592834472656,-0.06751254945993423
1686325294154881300,4.19388134765625,-0.0659322738647461,0.016753673553466797,-0.08260054886341095
1686325294159930600,4.1989306640625,-0.014629364013671875,0.02324199676513672,-0.07528910040855408
1686325294164980200,4.203980224609375,-0.0006723403930664062,0.029889583587646484,-0.08485344052314758
1686325294170029800,4.20902978515625,0.036934852600097656,0.024582862854003906,-0.0065338462591171265
1686325294175040000,4.2140400390625,0.038641929626464844,0.027534008026123047,0.025957144796848297
1686325294180089300,4.21908935546875,0.04274272918701172,-0.014739036560058594,0.08902929723262787
1686325294185139000,4.224138916015625,0.059952735900878906,0.0013751983642578125,0.13388705253601074
1686325294190188500,4.2291884765625,0.029561996459960938,-0.02552175521850586,0.1440919041633606
