time,seconds_elapsed,z,y,x
1686424775412221200,0.10522119140625,-9.395127300438284,-2.808765919370949,0.11312741668187082
1686424775422167300,0.115167236328125,-9.387164358735085,-2.830508964623511,0.19937088155876845
1686424775432113200,0.125113037109375,-9.377132209542394,-2.851849274294078,0.32670199749693274
1686424775442059800,0.135059814453125,-9.363509342381358,-2.870827823269367,0.5034122075015679
1686424775452005600,0.145005615234375,-9.343838427227736,-2.887935025414824,0.7231140024926513
1686424775461951700,0.15495166015625,-9.315825215664505,-2.9070301865071055,0.9669333533152937
1686424775471897600,0.164897705078125,-9.278793415865302,-2.9316479104131457,1.2164751734379677
1686424775481843700,0.17484375,-9.233602275007962,-2.9624384777352213,1.4611401813045144
1686424775491789600,0.18478955078125,-9.182596894913912,-2.995628799675405,1.6960275261960922
1686424775501735700,0.194735595703125,-9.129685973459482,-3.022494302508235,1.9193072892718015
1686424775511681800,0.204681884765625,-9.080170539662241,-3.0345167487353084,2.1242877178080377
1686424775521627600,0.214627685546875,-9.038525693109632,-3.02932911696434,2.3018686827652153
1686424775531573800,0.22457373046875,-9.005047201877831,-3.0079031748369336,2.4560183571219443
1686424775541519600,0.23451953125,-8.975687251880764,-2.9698534301668404,2.605262285389006
1686424775551465700,0.2444658203125,-8.944603546831011,-2.9177082323879002,2.7661209558650848
1686424775561411600,0.25441162109375,-8.907575838685036,-2.857792985129356,2.942532292521
1686424775571357700,0.264357666015625,-8.863868214383722,-2.796311511467397,3.127758511534333
1686424775581303600,0.274303466796875,-8.816326126486063,-2.735678179067373,3.31041371101588
1686424775591249700,0.284249755859375,-8.770195074430108,-2.676986628384888,3.4767522742077706
1686424775601195500,0.294195556640625,-8.729920347186923,-2.6218501398354768,3.6172891644060607
1686424775611141600,0.3041416015625,-8.697851722753047,-2.571600254283845,3.7288916365429756
1686424775621087700,0.314087646484375,-8.67449773517251,-2.5261677058860657,3.813390413177013
1686424775631033600,0.32403369140625,-8.657145618355274,-2.4843925109520555,3.879691854341328
1686424775640979700,0.333979736328125,-8.63921014869213,-2.443715632648766,3.9449569381952285
1686424775650925600,0.343925537109375,-8.613320505154132,-2.402897884570062,4.025813851195574
1686424775660871700,0.35387158203125,-8.57261089362502,-2.3610918561063707,4.135936606168746
1686424775670817500,0.363817626953125,-8.509669576543569,-2.317308974611759,4.287888916611672
1686424775680763600,0.373763671875,-8.420538756194711,-2.2708407995559274,4.484216375353932
1686424775690708700,0.383708740234375,-8.304413545936345,-2.2227260263368485,4.7187487693279975
1686424775700654800,0.39365478515625,-8.16342745066583,-2.1736570211328563,4.980366738626361
1686424775710600700,0.4036005859375,-8.004223561659455,-2.1252700068436563,5.252239559957385
1686424775720546800,0.413546875,-7.8348542524695395,-2.078840556363016,5.519407564598321
1686424775730492700,0.42349267578125,-7.657410357895493,-2.035529530163854,5.778500983855128
1686424775740438800,0.433438720703125,-7.467582782566547,-1.9970823106087743,6.0346717936635015
1686424775750384600,0.443384521484375,-7.262741177979112,-1.9628942098028956,6.290470847550034
1686424775760330800,0.453330810546875,-7.048119937655329,-1.9271615099035202,6.540676026952267
1686424775770276900,0.46327685546875,-6.815255769154429,-1.8882935807183383,6.793895585739612
1686424775780222700,0.47322265625,-6.555777149972319,-1.8449606349483132,7.05608287935853
1686424775790168800,0.4831689453125,-6.27807664540112,-1.7966010931879282,7.316309102037549
1686424775800114700,0.49311474609375,-6.001927461925149,-1.745047577691823,7.556589684274792
1686424775810060800,0.503060791015625,-5.74645690934062,-1.6948349554106592,7.763771129986643
1686424775820006700,0.513006591796875,-5.525137632682919,-1.650160824164748,7.932225662419199
1686424775829952800,0.522952880859375,-5.336598343598842,-1.6128857171289621,8.067818374213577
1686424775839898600,0.532898681640625,-5.164941800254583,-1.5775075297556818,8.185672600221633
1686424775849844700,0.5428447265625,-5.001845579984784,-1.5400804470285772,8.293376019093394
1686424775859790800,0.552790771484375,-4.819717619247735,-1.5022767860740422,8.407370647063852
1686424775869736700,0.56273681640625,-4.594862861940264,-1.4692838864021003,8.538080847513676
1686424775879682800,0.572682861328125,-4.340589410185814,-1.4433976038649678,8.67446091029346
1686424775889628700,0.582628662109375,-4.067222258643806,-1.4261112457603216,8.808761828711628
1686424775899574800,0.59257470703125,-3.7678292699635025,-1.4201650507070123,8.941867399865389
1686424775909520600,0.602520751953125,-3.4580347142562267,-1.4269438971921802,9.065109164130687
1686424775919466800,0.612466796875,-3.1879812173068522,-1.4481768009655176,9.16023601002395
1686424775929412600,0.62241259765625,-2.9570351573869584,-1.4863720915861427,9.231308026590943
1686424775939358700,0.632358642578125,-2.7371353921383617,-1.5413168569557367,9.28993089595139
1686424775949304600,0.6423046875,-2.5234131464809177,-1.6092533519759773,9.33879458784163
1686424775959250700,0.652250732421875,-2.3158310110136866,-1.686210481058806,9.378913247740268
1686424775969196800,0.66219677734375,-2.1040669136866925,-1.7675636531434953,9.4137671189785
1686424775979141600,0.6721416015625,-1.8832422886781393,-1.846664662387222,9.445296814230083
1686424775989087500,0.68208740234375,-1.6560069198444485,-1.9193293549731372,9.473341005453467
1686424775999033600,0.69203369140625,-1.4163395010694861,-1.9873823159798978,9.49814110018909
1686424776008979700,0.701979736328125,-1.1666443900812418,-2.0548536777064204,9.517714400187135
1686424776018925600,0.711925537109375,-0.9181203686989843,-2.1246754019513725,9.529595976638793
1686424776028871700,0.72187158203125,-0.6748941614639014,-2.194396442300826,9.534123683196306
1686424776038817500,0.731817626953125,-0.44073206210695204,-2.2575275828659533,9.533084403276442
1686424776048763600,0.741763671875,-0.21736641084607689,-2.304522412144393,9.529548045843839
1686424776058709500,0.75170947265625,-0.011612159809574949,-2.328955865524709,9.526080661994218
1686424776068655600,0.761655517578125,0.16890474215177817,-2.3291525571405884,9.524542784902453
1686424776078601500,0.7716015625,0.31973793063797057,-2.306834196218103,9.526105211913585
1686424776088547600,0.781547607421875,0.44223830195143815,-2.265854827836901,9.531040330228208
1686424776098493700,0.79149365234375,0.5413333208233118,-2.207605175703019,9.539593639039992
1686424776108439800,0.801439697265625,0.624801293104887,-2.1326035646021366,9.551545358118414
1686424776118385700,0.8113857421875,0.7132737226102501,-2.0444057873196897,9.564625204443931
1686424776128331800,0.821331787109375,0.8439571811836213,-1.9499305372029543,9.57370867460966
1686424776138278000,0.83127783203125,1.022266314284876,-1.8595877107158303,9.574303133371473
1686424776148223700,0.8412236328125,1.2416171404138208,-1.775715249286592,9.564287350791693
1686424776158169900,0.851169921875,1.4850551637686789,-1.6922718269243835,9.544696515136957
1686424776168115700,0.86111572265625,1.7229834837913511,-1.60153678624928,9.520335396340489
1686424776178061800,0.871061767578125,1.9360856978543102,-1.4942831569716333,9.496794946277141
1686424776188007700,0.881007568359375,2.1150851513072846,-1.359920717624575,9.478788749465346
1686424776197953800,0.890953857421875,2.2615527467288077,-1.1935975711975246,9.467369529828428
1686424776207899600,0.900899658203125,2.3779143960915503,-1.0006289944291114,9.461219190505146
1686424776217845800,0.910845703125,2.465620590464771,-0.7898361532870679,9.458712176120281
1686424776227792000,0.9207919921875,2.5260949329108,-0.5713228008955716,9.458479536408186
1686424776237737700,0.93073779296875,2.5584777378603816,-0.35412962772455064,9.460400859859584
1686424776247683800,0.940683837890625,2.5663442334517836,-0.14086925482465884,9.463850708052515
1686424776257628700,0.950628662109375,2.5506395915806293,0.06917370409842115,9.468888117697835
1686424776267574800,0.96057470703125,2.508065355223417,0.27977139256112277,9.476378181192278
1686424776277520600,0.970520751953125,2.437752486460656,0.4982565417714417,9.485752158737181
1686424776287466800,0.980466796875,2.340935641653836,0.7309124012839049,9.495061254352331
1686424776297412600,0.99041259765625,2.2207377751290798,0.9792256294596939,9.5015693210721
1686424776307358700,1.000358642578125,2.080568110807985,1.238224721496552,9.503075049459934
1686424776317304600,1.0103046875,1.9216097209952772,1.5011518736973404,9.498648465189337
1686424776327250700,1.020250732421875,1.7417065967008472,1.766112431421876,9.487765252125262
1686424776337196500,1.030196533203125,1.53342654209733,2.034935071402043,9.469849071684479
1686424776347142700,1.040142578125,1.2908655938379465,2.3102733768865464,9.442811427155137
1686424776357088500,1.050088623046875,1.0114584314793347,2.5896146344020963,9.404318907153606
1686424776367034600,1.06003466796875,0.7087902205206453,2.874153168299794,9.349183295387029
1686424776376980700,1.069980712890625,0.3921184359876439,3.1721339520946144,9.27115020763576
1686424776386926600,1.079926513671875,0.06740725611490198,3.4928979378446936,9.163269094109534
1686424776396872700,1.089872802734375,-0.2665070930467918,3.836679811088741,9.021044981476663
1686424776406818600,1.099818603515625,-0.6045239364907146,4.194452215762436,8.84372792815268
1686424776416764700,1.1097646484375,-0.9347791694898158,4.552110346406698,8.635674375781417
1686424776426710500,1.11971044921875,-1.2536167902871966,4.89212526833266,8.406303894615172
1686424776436656600,1.12965673828125,-1.5594123394861816,5.198462377062439,8.167901381209493
1686424776446602200,1.139602294921875,-1.847894642573595,5.4605812816202635,7.933329239746928
1686424776456548400,1.14954833984375,-2.1165042243249714,5.673816620543599,7.7135338116556404
1686424776466494200,1.159494140625,-2.369577798770368,5.837205686280131,7.515484935948252
1686424776476440300,1.1694404296875,-2.6188708317637444,5.953922432690859,7.339122991392016
1686424776486386400,1.179386474609375,-2.8805928459584713,6.028447804582119,7.178468903577327
1686424776496332300,1.189332275390625,-3.1613901475012303,6.064063307842612,7.0287354382276535
1686424776506278400,1.1992783203125,-3.4510730585500595,6.064071491149067,6.891119111651181
1686424776516224500,1.209224609375,-3.7318405494764444,6.033222763898968,6.770818661534785
1686424776526170400,1.21917041015625,-3.9885312915056943,5.977569265738129,6.673130440720915
1686424776536116500,1.229116455078125,-4.210306202976406,5.903572886157035,6.602389848065376
1686424776546062600,1.2390625,-4.39280621189624,5.817863856950402,6.5594286582171915
1686424776556007400,1.24900732421875,-4.539932417356968,5.722929318758845,6.542743480876088
1686424776565953500,1.25895361328125,-4.6592134612977505,5.617925221973657,6.5498869228899474
1686424776575899400,1.2688994140625,-4.758704639880359,5.500845487469435,6.577675678047537
1686424776585845500,1.278845458984375,-4.848966510085761,5.369551934173703,6.620107291063666
1686424776595791400,1.288791259765625,-4.936417122262716,5.222989500075578,6.672522537955642
1686424776605737500,1.298737548828125,-5.022994750997424,5.060114229080081,6.73313804243803
1686424776615683300,1.308683349609375,-5.104788068065047,4.87984358664751,6.804310596770048
1686424776625629400,1.31862939453125,-5.173140304279327,4.682944173236191,6.890503610101342
1686424776635575600,1.328575439453125,-5.220677716001868,4.475120337967574,6.992009927898645
1686424776645521400,1.338521484375,-5.245573087805509,4.2686821118384595,7.101598429864644
1686424776655467500,1.348467529296875,-5.248962145721912,4.075317886815965,7.211833997562527
1686424776665413400,1.358413330078125,-5.234041055443883,3.9019071932807563,7.317808400684594
1686424776675359500,1.368359375,-5.206572033759952,3.749863405162096,7.4162337036013595
1686424776685305300,1.378305419921875,-5.169432681933045,3.6103555657505986,7.510836817881464
1686424776695251500,1.38825146484375,-5.116627558940649,3.4731180093586445,7.611041989952326
1686424776705197300,1.398197265625,-5.03372598837018,3.340171135897934,7.724976412168145
1686424776715143400,1.408143310546875,-4.912569213685393,3.2219311254426835,7.852147332575917
1686424776725089500,1.418089599609375,-4.762769405101239,3.1375188580483195,7.977617878806591
1686424776735035400,1.428035400390625,-4.609527931630611,3.134015818363428,8.068493496996163
1686424776744981500,1.4379814453125,-4.466150557309389,3.2085569723457095,8.119670726525783
1686424776754927400,1.44792724609375,-4.3228789814501996,3.2987957539364694,8.160947324287891
1686424776764873500,1.45787353515625,-4.1593496304601425,3.3592493458554147,8.221049034029244
1686424776774819300,1.4678193359375,-3.988300405359268,3.3836288770914074,8.295474452677368
1686424776784765400,1.477765380859375,-3.8392742114961145,3.375304408599436,8.368852408099174
1686424776794711300,1.487711181640625,-3.7216970488637684,3.3404151737868784,8.435696577838062
1686424776804657400,1.497657470703125,-3.6340398081988092,3.2882346124336124,8.494212479692697
1686424776814603300,1.507603271484375,-3.5749317856699228,3.231024240219593,8.541119192296266
1686424776824548600,1.517548583984375,-3.5446459529995917,3.1789854254245755,8.573210028561949
1686424776834494500,1.527494384765625,-3.538800149580836,3.1366169407725333,8.591212133720516
1686424776844440600,1.537440673828125,-3.5500822988346217,3.1047908929228782,8.598115337237715
1686424776854386400,1.547386474609375,-3.5658135364517567,3.085295626597106,8.598623286759853
1686424776864332500,1.55733251953125,-3.577523263467848,3.0793960471644994,8.595872526746987
1686424776874278700,1.567278564453125,-3.576441605710983,3.0872520213618873,8.593505797615647
1686424776884224500,1.577224609375,-3.5566441415682433,3.103812987801432,8.595754453325272
1686424776894170600,1.587170654296875,-3.5102369029194116,3.1227821844264865,8.60795284064114
1686424776904116500,1.597116455078125,-3.433121806795895,3.1358386498764155,8.634266262549161
1686424776914062600,1.6070625,-3.3354446918979286,3.1365324773594736,8.672216930758953
1686424776924008400,1.617008544921875,-3.234804343280196,3.1301112121403216,8.712566476804017
1686424776933954600,1.62695458984375,-3.1430574952140446,3.126668085949123,8.747314549580215
1686424776943900400,1.636900390625,-3.066161010277271,3.1324259188234804,8.772510365635156
1686424776953846500,1.646846435546875,-3.0095053493365644,3.143303286668658,8.78822465211749
1686424776963792400,1.65679248046875,-2.976398614026606,3.1502827702924607,8.796995987594126
1686424776973738500,1.666738525390625,-2.963516628360748,3.1506621249988673,8.801208636853099
1686424776983684600,1.6766845703125,-2.958162407851219,3.1426389775410293,8.805877213186026
1686424776993630500,1.68663037109375,-2.934771887652576,3.12542305432409,8.81981981382072
1686424777003576600,1.69657666015625,-2.8626129526317117,3.097240039151907,8.853414040386676
1686424777013522400,1.7065224609375,-2.718337752687931,3.051959174184501,8.914402469834684
1686424777023468500,1.716468505859375,-2.5090400454744697,2.974839694146812,9.00141206024587
1686424777033414400,1.726414306640625,-2.2936764623507857,2.868222316946089,9.09300547131598
1686424777043360500,1.736360595703125,-2.1306375252261756,2.7761329390525815,9.160996473002433
1686424777053306400,1.746306396484375,-2.044379483834654,2.736668651409447,9.192472976762057
1686424777063252500,1.75625244140625,-2.032902396530658,2.747260188050568,9.191859228777885
1686424777073198300,1.7661982421875,-2.0701694663904604,2.791109558910131,9.170304984095692
1686424777083144400,1.77614453125,-2.109188056092709,2.8381238235414026,9.146953334602713
1686424777093090600,1.786090576171875,-2.108273863857239,2.8655115966826674,9.13862155958712
1686424777103035400,1.796035400390625,-2.0520799752093852,2.8645138178169725,9.15171660348177
1686424777112981200,1.805981201171875,-1.9194702247485518,2.830478569485247,9.190995889946818
1686424777122927400,1.81592724609375,-1.7083913332067429,2.76216754206419,9.2532270129323
1686424777132873500,1.82587353515625,-1.4571483351893721,2.667129543498158,9.323815045374632
1686424777142819300,1.8358193359375,-1.1973963058933614,2.5644980210632085,9.38935456225574
1686424777152765400,1.845765380859375,-0.9551516570415347,2.468805942502618,9.442620288497208
1686424777162711300,1.855711181640625,-0.7446710236538201,2.381320259012282,9.483943063488603
1686424777172657400,1.865657470703125,-0.5612586491294205,2.287569669908285,9.519581363102793
1686424777182603300,1.875603271484375,-0.3825481686856597,2.172935282729566,9.55522959958911
1686424777192549400,1.88554931640625,-0.18616697046216577,2.0319373508907854,9.592025252544879
1686424777202495200,1.8954951171875,0.00366776554534008,1.8705412125371395,9.626600891363621
1686424777212441300,1.90544140625,0.16032660942599175,1.7071442557550967,9.655585578307509
1686424777222387500,1.915387451171875,0.27980233568865803,1.556921691714227,9.678227033704518
1686424777232333300,1.925333251953125,0.3629744668288156,1.4368981588430703,9.694016723510622
1686424777242279400,1.935279541015625,0.42312319404967125,1.361709062346071,9.702426824459433
1686424777252225300,1.945225341796875,0.4605650724871084,1.344642922863364,9.70310428532958
1686424777262171400,1.95517138671875,0.4737951774708926,1.3666956185869872,9.699385557067394
1686424777272117500,1.965117431640625,0.46999527373127636,1.4164813937582075,9.692422732317446
1686424777282063400,1.9750634765625,0.4630363945040852,1.5040702453620731,9.679553313872217
1686424777292009500,1.985009521484375,0.47467502904534337,1.637109619411826,9.657378306943178
1686424777301955600,1.99495556640625,0.5108865619702264,1.809342062947899,9.624742696276307
1686424777311901400,2.0049013671875,0.5814472680142149,1.9966805979400872,9.58361047542095
1686424777321847600,2.01484765625,0.6885221431914716,2.1555152152426538,9.542015897750854
1686424777331793700,2.024793701171875,0.811908284363523,2.2395425749726594,9.512920151647926
1686424777341739500,2.034739501953125,0.9492430905848741,2.229337699561566,9.502599833163618
1686424777351685600,2.044685546875,1.0941299196209757,2.1454183302506804,9.506337850648164
1686424777361631500,2.054631591796875,1.2378031350836156,2.0312840015485882,9.51378582856655
1686424777371577600,2.06457763671875,1.370936909418553,1.9315007081516087,9.516313301217556
1686424777381523500,2.0745234375,1.4864925030954181,1.8788057675354182,9.509511804509163
1686424777391469600,2.084469482421875,1.5900477162465452,1.886846889041364,9.491150802910328
1686424777401415400,2.09441552734375,1.6949913150161504,1.9570953142657874,9.458706915423274
1686424777411361500,2.104361572265625,1.8021034899964927,2.082551831971109,9.412002447393537
1686424777421307400,2.114307373046875,1.8992630107611417,2.2542791024640203,9.35315102997422
1686424777431252500,2.12425244140625,1.9643392940446733,2.461897186027467,9.287132205143571
1686424777441198300,2.1341982421875,1.9599194317758082,2.6905931289330125,9.22441475994587
1686424777451144400,2.14414453125,1.8816374838300047,2.9315736761331554,9.16710005057454
1686424777461090300,2.15409033203125,1.7520159553997217,3.1837738287448882,9.108481272867321
1686424777471036400,2.164036376953125,1.5793039116531609,3.4503847840249535,9.042733666193485
1686424777480982500,2.173982421875,1.385367439700663,3.7361882232919332,8.960582621729374
1686424777490928400,2.183928466796875,1.197281082015857,4.042263173954189,8.854210159200429
1686424777500874500,2.19387451171875,1.0249705317422746,4.358773301652073,8.724730961850286
1686424777510820400,2.2038203125,0.8680220204472542,4.674460130268335,8.577084824168681
1686424777520766500,2.213766357421875,0.7267118808541446,4.981451611253619,8.415902913087606
1686424777530712300,2.22371240234375,0.6210128606073558,5.288713725873827,8.234941365781426
1686424777540658400,2.233658447265625,0.5744833838183433,5.610729172989726,8.02247350409925
1686424777550604300,2.243604248046875,0.5984851677831262,5.9396513307541605,7.780279781717062
1686424777560550400,2.25355029296875,0.6788006673831493,6.266690743511915,7.512536607536673
1686424777570496300,2.263496337890625,0.7840571314942091,6.587352437931298,7.222356560620665
1686424777580442400,2.2734423828125,0.8807062185186892,6.885612915450334,6.926981867671013
1686424777590388500,2.283388427734375,0.9434268055215478,7.154117721652984,6.640702335324883
1686424777600334300,2.293334228515625,0.9607999651268124,7.396573894363641,6.366942677333951
1686424777610280400,2.303280517578125,0.950376697724685,7.616454078128934,6.103834761738777
1686424777620226300,2.313226318359375,0.9336643401157111,7.816675037178396,5.847928155824541
1686424777630172400,2.32317236328125,0.9190801536418497,8.004180891561507,5.590955381983519
1686424777640118300,2.3331181640625,0.9098878893394022,8.186139048689604,5.322555789721012
1686424777650064400,2.343064453125,0.9029094286289066,8.368843640270828,5.0316585344463585
1686424777660010200,2.35301025390625,0.8854376309547572,8.556226160535216,4.709285067673028
1686424777669956400,2.362956298828125,0.8555824447866529,8.746900123560428,4.35087173474729
1686424777679902200,2.372902099609375,0.8258023696813732,8.934300764003396,3.9581162794977423
1686424777689848300,2.382848388671875,0.8100979470059275,9.112052117091416,3.5333591275706886
1686424777699794400,2.39279443359375,0.8102209157984703,9.269762552669643,3.0960338782325385
1686424777709740300,2.402740234375,0.838802209573239,9.398091995462774,2.6725769952490923
1686424777719686400,2.412686279296875,0.8908143555570394,9.498570723778009,2.270240057183802
1686424777729632300,2.42263232421875,0.9415584543664007,9.572484685772658,1.910864893488586
1686424777739578400,2.432578369140625,0.9780849349919706,9.623587096500396,1.6125614536106585
1686424777749524500,2.4425244140625,1.0003209513932465,9.657631989443301,1.3783663287669419
1686424777759470300,2.45247021484375,1.0085483161862938,9.67913830333054,1.2114132869385181
1686424777769416400,2.46241650390625,0.996069358363375,9.692626145935058,1.109617557740584
1686424777779362600,2.472362548828125,0.9648753248069435,9.703429279500245,1.0406059808347374
1686424777789308700,2.48230859375,0.9193899502433835,9.714232413065433,0.9791890237763523
1686424777799254500,2.492254638671875,0.8591686327103525,9.725424253687262,0.9210648977182805
1686424777809199400,2.502199462890625,0.7827922991901636,9.736433723479509,0.8714815132513641
1686424777819145500,2.5121455078125,0.6890429521951824,9.746524324861168,0.8371803074598312
1686424777829091600,2.522091552734375,0.5811110948624089,9.75429554338455,0.8284874440468847
1686424777839037400,2.532037353515625,0.47568073548916723,9.757608613455295,0.8562627552010118
1686424777848983600,2.541983642578125,0.4059285693490878,9.756743521058558,0.900875876974687
1686424777858929400,2.551929443359375,0.39434250524528325,9.753236974242329,0.9430098952837288
1686424777868875500,2.56187548828125,0.4331857018480077,9.748578334781527,0.9736260558869689
1686424777878821400,2.5718212890625,0.48974539160095154,9.744944946715234,0.9831479174699633
1686424777888767500,2.581767578125,0.5293145643906667,9.744704123696684,0.9648425185158849
1686424777898713300,2.59171337890625,0.5224857047513127,9.74916753284633,0.9225636118434369
1686424777908659500,2.601659423828125,0.47232152472175654,9.755758601674437,0.8789020186409354
1686424777918605300,2.611605224609375,0.40491248764172194,9.761599728918075,0.8471210520420223
1686424777928551400,2.621551513671875,0.3462402627142146,9.76545055912733,0.8285519606504589
1686424777938497500,2.63149755859375,0.31114695669692005,9.767157363045214,0.8223167195226997
1686424777948443400,2.641443359375,0.303729611378815,9.766895497238636,0.8281857576865702
1686424777958389500,2.651389404296875,0.32139643843472004,9.764803493395448,0.8460017656885087
1686424777968335400,2.66133544921875,0.355840084904246,9.761275903791189,0.8725064723849296
1686424777978281500,2.671281494140625,0.39850839275307953,9.756811910119652,0.9034357175253331
1686424777988227300,2.681227294921875,0.44440669549908485,9.752061500722169,0.9328402373164891
1686424777998173400,2.69117333984375,0.49288774474728847,9.747543731036782,0.9554358808103949
1686424778008119300,2.701119384765625,0.5465136826032773,9.743027130395173,0.9721872552555054
1686424778018065400,2.7110654296875,0.6081245182659477,9.736980835968255,0.9958813615106046
1686424778028011300,2.72101123046875,0.6833027280427515,9.726385792195796,1.0492399536672978
1686424778037957400,2.730957275390625,0.767708638761565,9.710296827182173,1.1362808890648186
1686424778047903500,2.740903564453125,0.8486776338342576,9.690840431562066,1.2400475530095398
1686424778057849300,2.750849365234375,0.918102248520404,9.670579733821748,1.3443706817932426
1686424778067795500,2.76079541015625,0.9747513335898518,9.650180504393576,1.4471600251384078
1686424778077741300,2.7707412109375,1.0221223027043045,9.62837374625504,1.5556598550848661
1686424778087687400,2.7806875,1.0637125695254652,9.603575405085087,1.676376484786719
1686424778097633300,2.79063330078125,1.0993491155739874,9.575189853078127,1.8103974172197281
1686424778107579400,2.800579345703125,1.127458407922834,9.54340647532642,1.955158208723366
1686424778117525200,2.810525146484375,1.1454410046633332,9.510998243674635,2.097443988415599
1686424778127471400,2.820471435546875,1.1528084646914154,9.481778578931092,2.222002095976472
1686424778137417200,2.830417236328125,1.156241434814781,9.455532377040386,2.3294636689163744
1686424778147363300,2.84036328125,1.1636124019742011,9.43008638561666,2.4269053676232692
1686424778157309400,2.850309326171875,1.1784657607782631,9.405501394936442,2.513595516821742
1686424778167255300,2.86025537109375,1.1990065906342118,9.38375776516199,2.5841554922133683
1686424778177201400,2.870201416015625,1.226303982078284,9.364676048073171,2.6399627196311948
1686424778187147300,2.880147216796875,1.2597764819607138,9.349121336066723,2.6790470680460334
1686424778197093400,2.89009326171875,1.298651425408572,9.337773428100347,2.699983765351772
1686424778207039200,2.900039306640625,1.3433103590853512,9.330075274813174,2.704738266402483
1686424778216985300,2.9099853515625,1.393569450856745,9.324088017097115,2.6999516166478394
1686424778226931500,2.919931396484375,1.449189923530817,9.317586380118131,2.693104527232051
1686424778236877600,2.929877685546875,1.5099638334453105,9.309603564670681,2.687317468263209
1686424778246822400,2.939822509765625,1.5757393510393798,9.300116189879178,2.6823998856052755
1686424778256768500,2.9497685546875,1.6472269626699387,9.29011560486853,2.674095875379443
1686424778266714400,2.95971435546875,1.731716679214686,9.283446794629096,2.643708628161251
1686424778276660500,2.969660400390625,1.851128509928286,9.281695567047596,2.567850546361506
1686424778286606600,2.979606689453125,2.0303591417886317,9.276556450593471,2.4481654516644773
1686424778296552400,2.989552490234375,2.2718210427649317,9.258962341713906,2.2980001707687974
1686424778306498600,2.99949853515625,2.5571535035192965,9.225023247233032,2.1284410380952057
1686424778316444400,3.0094443359375,2.8548142615795133,9.176559952837229,1.9522234704457222
1686424778326390500,3.019390625,3.1375472073599693,9.117970985746384,1.7857088200345634
1686424778336336400,3.02933642578125,3.3929169299185276,9.051952160915732,1.6494322176292537
1686424778346282500,3.039282470703125,3.6143566180855036,8.984110796833038,1.546787543451786
1686424778356228400,3.049228271484375,3.789292621491849,8.926966183331608,1.4563279587171971
1686424778366174500,3.059174560546875,3.897904095119238,8.897281823685764,1.3472443375334142
1686424778376120300,3.069120361328125,3.946253115485608,8.891985470843315,1.2369466643847524
1686424778386066400,3.07906640625,3.9634535488724705,8.89542538216412,1.154488234471902
1686424778396012500,3.089012451171875,3.9743399768069385,8.895514814013243,1.1157223043564706
1686424778405958400,3.09895849609375,3.9851366806313395,8.89055514577925,1.1167376188788563
1686424778415904500,3.108904541015625,3.9937846819892524,8.884197885707021,1.1362778933901339
1686424778425850400,3.118850341796875,3.9975665386155246,8.880323090100289,1.1531458068870006
1686424778435796500,3.12879638671875,3.994300230295956,8.880947359478473,1.1596102536607533
1686424778445742600,3.13874267578125,3.983451211762428,8.886143759077786,1.1571213594544678
1686424778455688700,3.148688720703125,3.9665757725462316,8.894332910752295,1.1521784231595695
1686424778465634600,3.158634521484375,3.9445203003436324,8.904346355244517,1.1505495798487215
1686424778475580700,3.16858056640625,3.915284853509068,8.91704100164473,1.152093009898439
1686424778485526500,3.178526611328125,3.8778441806480286,8.933035274112225,1.1548233847104012
1686424778495472600,3.18847265625,3.833378431455791,8.951442452940345,1.1607065975300968
1686424778505418500,3.19841845703125,3.780703072322905,8.97206087807715,1.1742169442273676
1686424778515364600,3.208364501953125,3.718549690748751,8.994725714349746,1.1990303368359803
1686424778525310500,3.218310546875,3.6464568067014214,9.019156391251087,1.236342853272706
1686424778535256600,3.228256591796875,3.564207562559843,9.045175214126706,1.2851422477550805
1686424778545202400,3.238202392578125,3.472229243825376,9.07299144181311,1.3397162801161409
1686424778555148500,3.2481484375,3.3713176770508286,9.102864602029323,1.393728148549795
1686424778565094700,3.2580947265625,3.26481340483576,9.133986885523795,1.4427952540576456
1686424778575040500,3.26804052734375,3.1578105354487893,9.16473215239942,1.4853602841950952
1686424778584986600,3.277986572265625,3.055484133440256,9.193561941042542,1.5208051070638
1686424778594932500,3.287932373046875,2.9643881504982708,9.219075737005472,1.5464333231866358
1686424778604878600,3.297878662109375,2.888359388306737,9.240741040846705,1.560922159527242
1686424778614824400,3.307824462890625,2.8279563575312494,9.25882030289471,1.564392758247256
1686424778624770600,3.3177705078125,2.7800840147659183,9.274393719601632,1.5579143560133875
1686424778634716400,3.32771630859375,2.7390862339451907,9.28882790314555,1.544488764990121
1686424778644662500,3.33766259765625,2.6979040364682674,9.303813875353336,1.5266738529667256
1686424778654608400,3.3476083984375,2.650615046548843,9.320248877325653,1.5091586545422673
1686424778664554500,3.357554443359375,2.591845462194085,9.338685282248258,1.4972183336406946
1686424778674500600,3.36750048828125,2.5161966392308472,9.36044703220129,1.4903579463519154
1686424778684446500,3.377446533203125,2.4235367679730055,9.386161903694271,1.482163095588982
1686424778694392600,3.387392578125,2.318853865966201,9.415275185453892,1.464884482399374
1686424778704338400,3.39733837890625,2.2071337587989865,9.447013555020094,1.4328031446143985
1686424778714284500,3.407284423828125,2.090304638054967,9.480687861084938,1.3847589524134993
1686424778724230400,3.41723046875,1.9690470333442092,9.51477308603823,1.3275452191986143
1686424778734176500,3.427176513671875,1.843890667629242,9.547687513646483,1.2697015175171196
1686424778744122600,3.43712255859375,1.7131779829613862,9.579707622763515,1.2102176474131643
1686424778754068700,3.44706884765625,1.576641560576111,9.610404958844184,1.150955603366345
1686424778764013600,3.457013671875,1.433981394613534,9.639307812723517,1.094462001119554
1686424778773960700,3.466960693359375,1.292210432575643,9.664581370189785,1.0470979732025414
1686424778783905500,3.476905517578125,1.1769818788960575,9.683934305435418,1.003261388759315
1686424778793851600,3.4868515625,1.1195279071845115,9.695912912520766,0.9520040066655725
1686424778803797500,3.496797607421875,1.1236085275616496,9.701195236837863,0.8914541878305375
1686424778813743600,3.50674365234375,1.1706237420409917,9.702139239689707,0.8176341146644205
1686424778823689700,3.516689697265625,1.2410795264057815,9.70091992702782,0.722686570860818
1686424778833635600,3.526635498046875,1.3238916651271282,9.69803238889277,0.6048851710185408
1686424778843581700,3.536581787109375,1.4180493737272917,9.69228595419526,0.46811249219197776
1686424778853527600,3.546527587890625,1.5255150383204221,9.682088969829678,0.31679592236932363
1686424778863473700,3.5564736328125,1.650562098442018,9.665452892327307,0.15829154166812076
1686424778873419500,3.56641943359375,1.794729161836207,9.641021630904078,0.0022637219896598252
1686424778883365600,3.57636572265625,1.9566966703370212,9.608440380772947,-0.13987518401970156
1686424778893311500,3.5863115234375,2.1275883667886255,9.569402501848339,-0.2650874903061427
1686424778903257600,3.596257568359375,2.2966066705837846,9.526852815410495,-0.3674574209291488
1686424778913203700,3.60620361328125,2.450828679524362,9.484754379871488,-0.45082671860922124
1686424778923149600,3.616149658203125,2.58124281963706,9.446555874380469,-0.5197730117265135
1686424778933095700,3.626095703125,2.6880700401961803,9.41335795365572,-0.5774035821139812
1686424778943041500,3.63604150390625,2.7714167241856456,9.38598070190847,-0.6269281490657478
1686424778952987600,3.645987548828125,2.832285911168158,9.365300317451357,-0.6630839697480201
1686424778962933500,3.65593359375,2.8706010287761687,9.352284184011816,-0.6817820943467319
1686424778972879600,3.665879638671875,2.8888246677309275,9.346832348346709,-0.6795424987263977
1686424778982825500,3.675825439453125,2.892890894256532,9.346958605074882,-0.6602397592980415
1686424778992771600,3.685771484375,2.8921505972832438,9.349138871723413,-0.6320446883618831
1686424779002717400,3.695717529296875,2.8935879366099835,9.350839830422402,-0.5994187223061919
1686424779012663600,3.70566357421875,2.898775276120007,9.351246073135734,-0.5671637449873611
1686424779022609700,3.715609619140625,2.9062749842256306,9.35069311542809,-0.537118041215837
1686424779032555500,3.725555419921875,2.914519957740605,9.349857249125838,-0.5060670693919063
1686424779042501600,3.735501708984375,2.9220436312437057,9.349476725375652,-0.46837245830241586
1686424779052447500,3.745447509765625,2.9269930703446265,9.350290379846095,-0.41853108048643917
1686424779062393600,3.7553935546875,2.928906502750516,9.352484675019978,-0.35066421663630754
1686424779072339500,3.76533935546875,2.927736874449253,9.35580183674395,-0.2601846120269969
1686424779082285600,3.77528564453125,2.9191937947705386,9.360895360490678,-0.14954671060591934
1686424779092231400,3.7852314453125,2.8955829098194834,9.369374435022472,-0.028780670538078992
1686424779102177500,3.795177490234375,2.8517224330440163,9.38243323855996,0.08966408697534352
1686424779112123400,3.805123291015625,2.788844536587596,9.39970469135642,0.19572050582505762
1686424779122069500,3.815069580078125,2.7120535578519105,9.419969480749964,0.2816138238237239
1686424779132015600,3.825015625,2.627710556301474,9.441745259228348,0.344932102725096
1686424779141961500,3.83496142578125,2.541553198805451,9.463643202781677,0.3877826718056574
1686424779151907600,3.844907470703125,2.4587647332206366,9.484489591455459,0.41147659539766607
1686424779161853400,3.854853515625,2.3852739650741217,9.502973927173018,0.4175026872867718
1686424779171799600,3.864799560546875,2.3262701335720717,9.518024781310558,0.4075306342508644
1686424779181745400,3.874745361328125,2.283106845280528,9.529470304432511,0.38343251377213744
1686424779191691500,3.88469140625,2.255919417016953,9.537314003670215,0.34770014266632493
1686424779201637600,3.8946376953125,2.242328552429378,9.54202583462298,0.3034297151167877
1686424779211583500,3.90458349609375,2.238596380163729,9.544386718535423,0.2524801203305833
1686424779221529600,3.914529541015625,2.240531147618592,9.545303833380341,0.19384528653770683
1686424779231475700,3.924475830078125,2.2417431537568566,9.546129762810468,0.12805390465422534
1686424779241421800,3.934421875,2.2357744546107945,9.548193125081061,0.0608810144176241
1686424779251367700,3.94436767578125,2.2193961512617766,9.55220645237565,0.0017631484887409897
1686424779261313800,3.954313720703125,2.1918711616069078,9.55847311155498,-0.04122521920131985
1686424779271259600,3.964259765625,2.1567884500488637,9.56630512035489,-0.06662533935643732
1686424779281205800,3.974205810546875,2.1206742034859953,9.574302548849582,-0.07645264559283386
1686424779291151600,3.984151611328125,2.0928321107059715,9.580450550085306,-0.07357626817261334
1686424779301097700,3.99409765625,2.078737242119014,9.583590601676702,-0.06338743058086838
1686424779311043600,4.004043701171875,2.081420051462203,9.583051087972521,-0.056277849737415085
1686424779320989700,4.01398974609375,2.1051650841869414,9.577867547854781,-0.055724211609759364
1686424779330935800,4.023935791015625,2.1546552374124524,9.56682826744616,-0.060468625091295684
1686424779340881700,4.033881591796875,2.231720356914401,9.549135958889126,-0.061977705346839496
1686424779350827800,4.043827880859375,2.3361400779403745,9.5241377112329,-0.06038654543156735
1686424779360773600,4.053773681640625,2.464844345395267,9.491664597651361,-0.056859069991740396
1686424779370719700,4.0637197265625,2.61394594258219,9.451720709797739,-0.05133381289739627
1686424779380665600,4.07366552734375,2.775237159256637,9.405626482620836,-0.05098267963847611
1686424779390611700,4.08361181640625,2.933245408737659,9.357488766917585,-0.06230062172485049
1686424779400557600,4.0935576171875,3.0741239519804715,9.312002442505955,-0.08242511216513812
1686424779410503700,4.103503662109375,3.1905861391082406,9.272496946069598,-0.10641790910586714
1686424779420449500,4.113449462890625,3.2750974829629063,9.242538445657491,-0.14008853450943715
1686424779430395600,4.123395751953125,3.3229715792939065,9.224446908649801,-0.19445465060770512
1686424779440341800,4.133341796875,3.3345269925311207,9.218021844038367,-0.2818426458772272
1686424779450287000,4.143287109375,3.3222961642503734,9.217669961860775,-0.40897484170980747
1686424779460232000,4.15323193359375,3.313371976299584,9.212661193788051,-0.5646585572334006
1686424779470178000,4.163177978515625,3.33118089697361,9.195450531268119,-0.7192255436867475
1686424779480124000,4.1731240234375,3.3758670109182596,9.168260326525568,-0.8466961776934564
1686424779490070000,4.183070068359375,3.4113436902299523,9.146260676163434,-0.9375589364014565
1686424779500015900,4.193015869140625,3.4328891670837995,9.13338190536797,-0.9833473124995827
1686424779509962000,4.2029619140625,3.463994499443471,9.121701988968253,-0.9826789847839623
1686424779519907800,4.212907958984375,3.5142096059426664,9.106561118459702,-0.944060427249968
1686424779529854000,4.22285400390625,3.5791061487451192,9.08724150096178,-0.8845483539648353
1686424779539800000,4.232800048828125,3.6448245293244717,9.066694972017407,-0.8250166991963982
1686424779549746000,4.242745849609375,3.697828097498417,9.0494772952348,-0.776792255057767
1686424779559692000,4.252692138671875,3.7327600024089214,9.038277855828404,-0.7392002640925347
1686424779569638000,4.262637939453125,3.750661569802463,9.033486529898642,-0.7064432920683175
1686424779579584000,4.272583984375,3.7549332557722925,9.034102031448484,-0.6751914639100433
1686424779589530000,4.282530029296875,3.747303199285269,9.03940539855361,-0.6459798363424837
1686424779599476200,4.292476318359375,3.7283907012835145,9.048984543281794,-0.6207987794652581
1686424779609422000,4.302422119140625,3.6988580250680445,9.062440821704268,-0.6008025413474067
1686424779619368200,4.3123681640625,3.6611698071867225,9.078747228860854,-0.5852801241753622
1686424779629314000,4.32231396484375,3.6198099150553342,9.096198714399337,-0.5713967063819989
1686424779639260200,4.33226025390625,3.579107317788899,9.113236358439922,-0.5561550058474763
1686424779649206300,4.342206298828125,3.5376150314494965,9.130628222745656,-0.5359887083923444
1686424779659152100,4.352152099609375,3.492728718757629,9.149432291936874,-0.509056862325035
1686424779669098200,4.36209814453125,3.4446690367266535,9.169535753288864,-0.47357978115454313
1686424779679044000,4.372044189453125,3.3950089337617158,9.190254716190696,-0.4284073084650561
1686424779688990200,4.381990234375,3.3453046993941067,9.210928086385131,-0.37165154815074053
1686424779698936000,4.39193603515625,3.296972922423482,9.230903537443279,-0.30132337222099304
1686424779708882200,4.401882080078125,3.2504175074756145,9.249782425436377,-0.21605629636188967
1686424779718828000,4.411828125,3.205732270313799,9.267179550439119,-0.11405484285824931
1686424779728774100,4.421774169921875,3.1612291117206213,9.283154533684254,0.004281597725779284
1686424779738720000,4.431719970703125,3.1133412791252133,9.29830651010871,0.13788052133745513
1686424779748666000,4.441666015625,3.0592917090296745,9.31290786691308,0.2843616429608315
1686424779758612200,4.4516123046875,2.9957869128465653,9.327579950866102,0.43810478234328326
1686424779768558000,4.46155810546875,2.9192966706231234,9.343354443103074,0.5914351762063801
1686424779778504200,4.471504150390625,2.827131304883957,9.361451825329661,0.735490668984875
1686424779788450000,4.481449951171875,2.718298297460377,9.382987365311383,0.8606935041900724
1686424779798396200,4.491396240234375,2.5939438957780596,9.408647291746735,0.9587335341162979
1686424779808342000,4.501342041015625,2.4564804216757414,9.438629173034428,1.0238859513759613
1686424779818288000,4.5112880859375,2.3128293449796735,9.471379349991679,1.0555674761883913
1686424779828234000,4.52123388671875,2.171338953448832,9.503812131562828,1.0645424444783478
1686424779838180000,4.53118017578125,2.0383422494970262,9.533317042988537,1.0636926227159798
1686424779848126200,4.541126220703125,1.9172249300397932,9.558651975253223,1.0615021999996155
1686424779858072000,4.551072021484375,1.809863310343027,9.579368600067495,1.063253573711589
1686424779868018200,4.56101806640625,1.7148127445563672,9.596081834459305,1.07004951746203
1686424779877964000,4.570964111328125,1.6279204969145358,9.610213820186257,1.0789167875938117
1686424779887910100,4.58091015625,1.5402049501910804,9.624107905504108,1.0838301324680446
1686424779897856000,4.59085595703125,1.4435539634704588,9.639424717101454,1.0807611002862454
1686424779907802000,4.600802001953125,1.335421359401196,9.656102880179882,1.0708473898414521
1686424779917748000,4.610748046875,1.2213546891078353,9.672689273321629,1.057231536943093
1686424779927694000,4.620694091796875,1.113064556389302,9.687916068547963,1.0371958070650695
1686424779937640000,4.630639892578125,1.027209542840719,9.700717097932099,1.0056466764606535
1686424779947586000,4.6405859375,0.979570132048428,9.709937930741905,0.9632793608523905
1686424779957532200,4.6505322265625,0.9754751178197563,9.715159464782475,0.9135095139026641
1686424779967478000,4.66047802734375,1.0124419626239687,9.716482237818836,0.8575104171745479
1686424779977424100,4.670424072265625,1.0852779931887984,9.714078683808445,0.7932447196215391
1686424779987370000,4.680369873046875,1.1859889958899468,9.708048755994438,0.719446492961049
1686424779997316000,4.690316162109375,1.3070040970817207,9.698276719042658,0.6368306074641644
1686424780007262000,4.700261962890625,1.442250187395513,9.684355161195993,0.5510059890538453
1686424780017208000,4.7102080078125,1.5888944545581936,9.66552478851974,0.4727059939946979
1686424780027154000,4.72015380859375,1.7398258975207805,9.64235960150957,0.4102912215379998
1686424780037100000,4.73010009765625,1.88025231308192,9.61779682266116,0.36474549508932974
1686424780047046000,4.7400458984375,1.9981687906712293,9.595252982419728,0.32991379915028807
1686424780056992000,4.749991943359375,2.0843428070411085,9.577848258632422,0.3011866671640426
1686424780066938000,4.759938232421875,2.1325246541470286,9.567955225649476,0.2774644125266932
1686424780076884000,4.769884033203125,2.140680926465243,9.56656581711769,0.262137243932113
1686424780086830000,4.779830078125,2.1135861449211832,9.572678747040033,0.25887254304774104
1686424780096776000,4.78977587890625,2.062232535911351,9.583564298191666,0.2699689056721516
1686424780106722000,4.79972216796875,1.9990062644086777,9.596254268416763,0.2936983207026496
1686424780116668000,4.80966796875,1.9340667592473326,9.608574236285685,0.32418256202191115
1686424780126614000,4.819614013671875,1.8733363962136207,9.619529345542192,0.354528308185935
1686424780136559900,4.829559814453125,1.8188631938785313,9.629050038081408,0.3788691513793543
1686424780146506000,4.839506103515625,1.7710811597451566,9.6373420656085,0.39405656444337217
1686424780156451800,4.849451904296875,1.7299546379782258,9.644520578935742,0.4010871937325224
1686424780166398000,4.85939794921875,1.6949904382333159,9.650648706427216,0.4029563486052677
1686424780176344000,4.869343994140625,1.6647497598789631,9.655925185525417,0.4026136726474389
1686424780186290000,4.8792900390625,1.6376397807657719,9.660613051080704,0.40132732263132925
1686424780196236000,4.889236083984375,1.6126364185430109,9.664877722787857,0.39991679824627935
1686424780206182000,4.899181884765625,1.5886508550606666,9.668926705917716,0.39802733123786743
1686424780216128000,4.9091279296875,1.5656972649745642,9.67281494552791,0.3945117973975837
1686424780226073900,4.919073974609375,1.5426891682222486,9.676724812448024,0.3892212897740304
1686424780236020000,4.92902001953125,1.5188009276345371,9.680792500278352,0.38192389930747445
1686424780245966000,4.938966064453125,1.4922626109294592,9.685327805620432,0.3713779919063672
1686424780255912200,4.948912109375,1.4643683495707809,9.690182844436167,0.3555034733610227
1686424780265858000,4.958858154296875,1.436139157169312,9.695213239818811,0.3327701018968597
1686424780275804200,4.96880419921875,1.4107451881937683,9.69985960431993,0.30485041383598
1686424780285750300,4.978750244140625,1.393711197414994,9.703228203970193,0.27447874777941034
1686424780295696100,4.988696044921875,1.3879093792684376,9.704833885601163,0.2455332786010578
1686424780305642200,4.998642333984375,1.3938247407920659,9.704546885353325,0.22224963457668198
1686424780315588000,5.008588134765625,1.4093657165341078,9.702593413197993,0.20919777223663402
1686424780325534200,5.0185341796875,1.4316469603165984,9.699358669060468,0.20785656849443912
1686424780335480000,5.02847998046875,1.4564054078675805,9.695468091362715,0.21723825442176312
1686424780345426200,5.03842626953125,1.4813140775442122,9.691285252720117,0.2346774467342533
1686424780355372000,5.0483720703125,1.5084293173544108,9.68656173132956,0.2560219576559029
1686424780365318100,5.058318115234375,1.5413864150606096,9.680785486015678,0.2773086191767827
1686424780375264300,5.06826416015625,1.5817887142062186,9.673644966611265,0.29822204520478846
1686424780385210000,5.078210205078125,1.6285307377673686,9.665160631382465,0.3208796114863828
1686424780395156200,5.08815625,1.6785181729905305,9.655785484793782,0.34461547452397645
1686424780405102000,5.09810205078125,1.7280089107379317,9.646216861459612,0.3672471026467159
1686424780415047200,5.108047119140625,1.7736384430125354,9.637219316011667,0.3854464474104345
1686424780424994000,5.117994140625,1.8131084297440945,9.629394321474432,0.3972099139077589
1686424780434939100,5.127939208984375,1.8462188183158634,9.622864627444743,0.4029232135206461
1686424780444886800,5.13788671875,1.8748203511610626,9.617291211226583,0.40392807971425354
1686424780454831600,5.14783154296875,1.9002496837109326,9.612397593966126,0.40156489424686875
1686424780464777700,5.15777783203125,1.9224580083876848,9.608182022097706,0.3967539503011852
1686424780474723600,5.1677236328125,1.941470313502103,9.604640988489985,0.3898016104126349
1686424780484669700,5.177669677734375,1.9578350267171858,9.601593875879049,0.38295488632302727
1686424780494615800,5.18761572265625,1.9726862666293978,9.598641455814242,0.38076139486674215
1686424780504561700,5.197561767578125,1.9917124541386961,9.594543957367538,0.38493835175782437
1686424780514507800,5.2075078125,2.0262923307411373,9.58709831753671,0.38997024497780947
1686424780524453600,5.21745361328125,2.0881981672950087,9.573922025099396,0.3870582665212452
1686424780534399700,5.227399658203125,2.1815492356874047,9.553781738868356,0.3694041345501318
1686424780544345600,5.237345703125,2.3003704070314765,9.52717664053738,0.33407884640786795
1686424780554291700,5.247291748046875,2.437513855399191,9.494588376143573,0.28579779497748237
1686424780564237600,5.257237548828125,2.5911779381960627,9.45522667209208,0.23423426954401655
1686424780574183700,5.26718359375,2.764657020792365,9.40697789722979,0.18927030677236614
1686424780584129500,5.277129638671875,2.9617946268737314,9.347397581014036,0.15588091859612613
1686424780594075600,5.28707568359375,3.18343480604887,9.274667860367893,0.12912721470785327
1686424780604021800,5.297021728515625,3.4171991382598876,9.19151143825352,0.0961074635616038
1686424780613967600,5.306967529296875,3.6314474536180494,9.109403648409247,0.04218009964020457
1686424780623913700,5.316913818359375,3.7944045576781034,9.042781596988439,-0.031012066868937108
1686424780633859600,5.326859619140625,3.899975348435342,8.997196488377451,-0.10521675315517931
1686424780643805700,5.3368056640625,3.9669568808183073,8.966983136421442,-0.1638864025331102
1686424780653751600,5.34675146484375,4.020266446201503,8.942528494122623,-0.1975854777130298
1686424780663697700,5.35669775390625,4.072583785676956,8.918612196484208,-0.2069559663929045
1686424780673643500,5.3666435546875,4.121993421012163,8.896055496761202,-0.19935221339091658
1686424780683589600,5.376589599609375,4.160748975864053,8.878350328722595,-0.18279188627218826
1686424780693535500,5.386535400390625,4.185993014974892,8.866898960381747,-0.16107403025981037
1686424780703481600,5.396481689453125,4.197954378664494,8.861663982337713,-0.13604588065566495
1686424780713427700,5.406427734375,4.199282120136917,8.861417314100265,-0.10825419375547207
1686424780723373600,5.41637353515625,4.193165683083236,8.864610557183623,-0.08013202365874313
1686424780733319700,5.426319580078125,4.180381897094845,8.870824609392882,-0.057281519487779584
1686424780743265500,5.436265625,4.1605911549538375,8.880190988153219,-0.04541899936303962
1686424780753211600,5.446211669921875,4.133430176305771,8.892855239415168,-0.04795475121862255
1686424780763157500,5.456157470703125,4.097514228793979,8.909353369751573,-0.06449148739920929
1686424780773103600,5.466103515625,4.052553681822121,8.929664920896291,-0.09087027529417536
1686424780783049500,5.476049560546875,3.9998675090342757,8.95303585961163,-0.1207903799246531
1686424780792995600,5.48599560546875,3.94204485014081,8.978225830447673,-0.14874010693076997
1686424780802941700,5.495941650390625,3.8815611553445457,9.004185616612434,-0.1689488735544495
1686424780812887600,5.505887451171875,3.8188302661433813,9.030834554085136,-0.17586553934141994
1686424780822833700,5.515833740234375,3.749176884202659,9.060218469479679,-0.162915584739577
1686424780832779500,5.525779541015625,3.6691938314273953,9.09349120900631,-0.12583908728212118
1686424780842725600,5.5357255859375,3.577510403986275,9.130589059779048,-0.0648053117218893
1686424780852671700,5.545671630859375,3.4739886547133323,9.170690768542885,0.0146335386159888
1686424780862617900,5.555617919921875,3.3586902506679293,9.21297975821793,0.10289145201276988
1686424780872563700,5.565563720703125,3.2340909343138335,9.256021027565001,0.19258573319697753
1686424780882509800,5.575509765625,3.1030238832503554,9.29862039836347,0.27798967850981277
1686424780892455700,5.58545556640625,2.9677549965828653,9.340180489242076,0.35195805583912876
1686424780902401800,5.59540185546875,2.82969004945606,9.380656876537204,0.4081012372130528
1686424780912348000,5.605347900390625,2.68958102928102,9.42011093504727,0.4450660361906513
1686424780922293800,5.615293701171875,2.548387136478722,9.458333405935763,0.4647829824430868
1686424780932240000,5.625239990234375,2.406667173975706,9.495074698355793,0.47109512473195786
1686424780942185700,5.635185791015625,2.2642896243467927,9.53017874496281,0.46806496325582264
1686424780952131800,5.6451318359375,2.123498320996016,9.563119476056098,0.45596963445562866
1686424780962077700,5.65507763671875,1.988025290058553,9.593302432873845,0.4320907462181523
1686424780972023800,5.66502392578125,1.8609383946724234,9.62035235236287,0.39512850452382114
1686424780981969700,5.6749697265625,1.7448842038236558,9.64387000607252,0.348575939120166
1686424780991915800,5.684915771484375,1.6399181009612978,9.66392086045444,0.2994918276785873
1686424781001861600,5.694861572265625,1.543480172469467,9.681111649230122,0.2531983516025357
1686424781011807700,5.704807861328125,1.4463028237871824,9.69700538393259,0.21608910265294834
1686424781021753900,5.71475390625,1.3465699454031883,9.711856331583856,0.19230908994637427
1686424781031699700,5.72469970703125,1.2615545975491405,9.72354267772436,0.17778485349882392
1686424781041645800,5.734645751953125,1.2051751232013106,9.730900054749846,0.1659150222838856
1686424781051591700,5.744591796875,1.1800203698091207,9.734204356992244,0.1523405425755307
1686424781061537800,5.754537841796875,1.1789358625080435,9.734428228875995,0.14626211771098896
1686424781071483600,5.764483642578125,1.1901298220217227,9.732845928120613,0.16032191498456522
1686424781081429800,5.7744296875,1.2030745707254855,9.73070599348247,0.19074384992364793
1686424781091375600,5.784375732421875,1.2166066908631472,9.728308869212865,0.22422109904643148
1686424781101321700,5.79432177734375,1.23521706411317,9.725300335046649,0.2513646516356617
1686424781111267600,5.804267578125,1.2642470515035091,9.721040924036503,0.27098345300955695
1686424781121213700,5.814213623046875,1.3072056110031902,9.714926240548492,0.28608050264269114
1686424781131159800,5.824159912109375,1.3654134698219595,9.706571669179201,0.2975282725206576
1686424781141105700,5.834105712890625,1.439913268880546,9.695597270700334,0.3040365401698276
1686424781151051800,5.8440517578125,1.5322320716157554,9.681409170871973,0.30488334799120204
1686424781160997600,5.85399755859375,1.6421530204065142,9.663552027142048,0.29910301102409137
1686424781170943700,5.86394384765625,1.7633523190587759,9.642525605726242,0.28756959042297675
1686424781180889600,5.8738896484375,1.887382603353262,9.619487259966135,0.2714249131667428
1686424781190835700,5.883835693359375,2.007012606862187,9.595741058197618,0.25303663996849207
1686424781200781600,5.893781494140625,2.1147098882541058,9.573030044695734,0.23558120890725404
1686424781210727700,5.903727783203125,2.20011540446952,9.554104979473351,0.22122138750748707
1686424781220673800,5.913673828125,2.251137735698372,9.542443183252216,0.21108769590277224
1686424781230619600,5.92361962890625,2.257630750979483,9.541070725855231,0.2035434910682961
1686424781240565800,5.933565673828125,2.216080743103474,9.550947976747155,0.19687932047136128
1686424781250511600,5.94351171875,2.135254225241393,9.56943991124928,0.1920567956857383
1686424781260457700,5.953457763671875,2.0342180091738697,9.591459435355663,0.1903889172724448
1686424781270403600,5.963403564453125,1.9306978673361241,9.612815527117252,0.1912696638960391
1686424781280349700,5.973349609375,1.8345688586629927,9.63160147612989,0.1924066137704067
1686424781290295600,5.983295654296875,1.7495783529892563,9.647439681252836,0.19046649428699164
1686424781300241700,5.99324169921875,1.676023725826293,9.660606036818027,0.1844680575897917
1686424781310187500,6.0031875,1.6135924040935932,9.67141735368967,0.17436368341110645
1686424781320133600,6.013133544921875,1.5610301499463617,9.68027578292787,0.16063154718931763
1686424781330079700,6.023079833984375,1.517206644180417,9.687498719918727,0.14428454316086134
1686424781340025600,6.033025634765625,1.4795749787919223,9.693568979743123,0.12632966554434968
1686424781349971700,6.0429716796875,1.4459940500989557,9.698860656410455,0.10769188369759358
1686424781359917600,6.05291748046875,1.4139995138145982,9.703760703411698,0.0895978533387184
1686424781369863700,6.06286376953125,1.3824313862487674,9.708449738010763,0.07284614553346763
1686424781379809500,6.0728095703125,1.3531903864562511,9.712676415795087,0.05652864159413147
1686424781389755600,6.082755615234375,1.336487673458457,9.715083476936817,0.036617433144920504
1686424781399701500,6.092701416015625,1.3454821501664818,9.713907418894767,0.00903856929478934
1686424781409647600,6.102647705078125,1.3860672585330902,9.708165660372376,-0.02633176356559852
1686424781419593500,6.112593505859375,1.4487508014611898,9.698837860056758,-0.06368484262486454
1686424781429539600,6.12253955078125,1.5130688137233257,9.688750765806436,-0.09544494453226215
1686424781439485700,6.132485595703125,1.5556345745131372,9.681772743487358,-0.11684092077966779
1686424781449431300,6.142431396484375,1.567558967193216,9.679759065577388,-0.12404448634977451
1686424781459377400,6.15237744140625,1.5642175478108227,9.680441202622651,-0.11252550526596605
1686424781469323500,6.162323486328125,1.568685340874642,9.680009825468062,-0.08368971614032052
1686424781479269600,6.17226953125,1.591721202416718,9.676517307177186,-0.0427635118516162
1686424781489215500,6.182215576171875,1.6312797442145646,9.67001800828576,0.0047963274735084264
1686424781499161600,6.19216162109375,1.6814619713574648,9.661265377509594,0.05509986459976062
1686424781509107500,6.202107421875,1.737844076053798,9.650852704566717,0.10661674701306037
1686424781519053600,6.212053466796875,1.7977065702117978,9.639162266772985,0.15867997473012654
1686424781528999400,6.22199951171875,1.859619859419763,9.626434302625059,0.20970068025747313
1686424781538945500,6.231945556640625,1.9227324414148925,9.612869887652993,0.2573166188426316
1686424781548891600,6.2418916015625,1.9870038380563257,9.598618659460543,0.29783534744214263
1686424781558837500,6.25183740234375,2.051174696932733,9.58409621311128,0.3288961100077256
1686424781568783600,6.26178369140625,2.1130391785629095,9.569902268064022,0.3498626909950748
1686424781578729500,6.2717294921875,2.170326707666367,9.556621930730342,0.3619873554876074
1686424781588675600,6.281675537109375,2.221301108100265,9.544646246254443,0.3687435882821679
1686424781598621400,6.291621337890625,2.266715097928047,9.533753096318245,0.3740639430547133
1686424781608567600,6.301567626953125,2.3101652403369544,9.52309200157225,0.3798515134802088
1686424781618513400,6.311513427734375,2.361992896599322,9.51026116157174,0.3824865381589159
1686424781628459500,6.32145947265625,2.437411564068496,9.491531911182403,0.3744946991547942
1686424781638405400,6.3314052734375,2.546736446662247,9.463733803674579,0.3496951889410615
1686424781648350500,6.3413505859375,2.689428176806867,9.425619469335675,0.30832831907961517
1686424781658297600,6.351297607421875,2.8596169856861233,9.37696912793517,0.25573618125077335
1686424781668242400,6.361242431640625,3.0494664805859326,9.318321708655358,0.20005402325103058
1686424781678188300,6.371188232421875,3.252555688548088,9.250347073581814,0.14943947823862544
1686424781688134400,6.381134521484375,3.453321421998739,9.177851746213436,0.10951254151980391
1686424781698080500,6.39108056640625,3.6270758144050834,9.110911714884638,0.07728036968782544
1686424781708026400,6.4010263671875,3.75537661562562,9.058976944985986,0.04993657268560491
1686424781717972500,6.410972412109375,3.8461788763180373,9.020875470128654,0.03339549825661815
1686424781727918300,6.42091845703125,3.9250218191474673,8.986854542583227,0.0327859903394361
1686424781737864400,6.430864501953125,4.000511944417656,8.953439764237404,0.04713774488046765
1686424781747810300,6.440810302734375,4.06496688093245,8.924235297062992,0.06706339284698479
1686424781757756400,6.45075634765625,4.114667315907776,8.901268847495317,0.08550317703676409
1686424781767702300,6.460702392578125,4.151891423408687,8.883826129785179,0.09912057343823835
1686424781777648400,6.4706484375,4.178607288637757,8.871221499755977,0.10520821365569717
1686424781787594200,6.48059423828125,4.195863543865085,8.863128794193267,0.10031579283848405
1686424781797540400,6.490540283203125,4.204309300649166,8.859280302071571,0.0856548696002923
1686424781807486500,6.500486572265625,4.203816840957105,8.859685960263013,0.06535046058241277
1686424781817432300,6.510432373046875,4.192273702679574,8.865282172834872,0.04432209380469285
1686424781827378400,6.52037841796875,4.168574554923176,8.876524282339215,0.02676245345030911
1686424781837324300,6.53032421875,4.134708525678515,8.892383530250191,0.011612384713505161
1686424781847270400,6.5402705078125,4.094745056341588,8.910856760051846,-0.00593603556054295
1686424781857216300,6.55021630859375,4.051560579131543,8.930538781121372,-0.02695185909216525
1686424781867162400,6.560162353515625,4.006987570172548,8.950524753573536,-0.05043736181459389
1686424781877108200,6.570108154296875,3.962212316639721,8.970271072050929,-0.07431706290282308
1686424781887054300,6.580054443359375,3.9180800371855495,8.989446312642096,-0.09432332922434433
1686424781897000400,6.59000048828125,3.87012030839771,9.010110915008188,-0.10238980436725541
1686424781906946300,6.5999462890625,3.8123169387266036,9.034858402773738,-0.08922295561172068
1686424781916892400,6.609892333984375,3.7420956937700507,9.064474373358488,-0.048769985724799333
1686424781926838300,6.61983837890625,3.656810150672495,9.09932473746538,0.0205971608697786
1686424781936784400,6.629784423828125,3.555883678589761,9.138564276441931,0.11274509370024316
1686424781946730500,6.63973046875,3.4429417745426294,9.179883544301987,0.21507614448443055
1686424781956676600,6.649676513671875,3.323001097649336,9.221207488337159,0.3120551941156387
1686424781966622500,6.65962255859375,3.2014941943526267,9.26104031703174,0.39236956120450045
1686424781976568600,6.669568603515625,3.0812369988560673,9.299078079003095,0.4511402415378019
1686424781986514400,6.679514404296875,2.9647710123360156,9.334978828945756,0.48851913774162525
1686424781996460500,6.68946044921875,2.852784217056632,9.368956501871347,0.5046143498329445
1686424782006406700,6.69940673828125,2.7403102227821945,9.402696858909726,0.5003780639700591
1686424782016352500,6.7093525390625,2.61735838137418,9.438727372711897,0.4798365765269845
1686424782026298600,6.719298583984375,2.4772636819854377,9.477880986970662,0.45088728969004005
1686424782036244500,6.729244384765625,2.3222245114430784,9.518443883505464,0.42059900933429595
1686424782046190600,6.739190673828125,2.1583254503577947,9.558238133755326,0.39002778385132547
1686424782056136400,6.749136474609375,1.9965534644290803,9.594756723335385,0.35324952042177316
1686424782066082600,6.75908251953125,1.8509522765785456,9.625634092158078,0.3026086445248686
1686424782076028400,6.7690283203125,1.7306338524140417,9.649835051956773,0.23662755788872017
1686424782085974500,6.778974609375,1.6338042942561208,9.668224695128202,0.16274751642998306
1686424782095920400,6.78892041015625,1.5478753386884927,9.68327905639708,0.09258561871154233
1686424782105866500,6.798866455078125,1.4618049288235604,9.697013567239045,0.037561424580321176
1686424782115812600,6.8088125,1.3800406917199493,9.709058809819817,0.0030783482848273703
1686424782125758500,6.818758544921875,1.3201580315567552,9.717359605175256,-0.02242230535415001
1686424782135704600,6.82870458984375,1.2904274946816265,9.721277655401826,-0.04386733577451669
1686424782145650400,6.838650390625,1.2843806157328188,9.722055654036998,-0.04875304372315295
1686424782155596500,6.848596435546875,1.286664927277714,9.72183002858758,-0.02971330946240341
1686424782165542400,6.85854248046875,1.2877676278226078,9.721730075344443,0.004115572103277372
1686424782175488500,6.868488525390625,1.288273677648604,9.721581022262573,0.039847062715911305
1686424782185434400,6.878434326171875,1.292364307963103,9.72087959599495,0.06841465675889048
1686424782195380500,6.88838037109375,1.302759737510234,9.719339965337515,0.08754834606354124
1686424782205326300,6.898326416015625,1.3194704876840113,9.716964468377828,0.09991243620198219
1686424782215272400,6.9082724609375,1.345105571939051,9.713373165887594,0.10705247154920361
1686424782225218600,6.918218505859375,1.3928681707195938,9.706602648839354,0.11042078807167709
1686424782235164400,6.928164306640625,1.4805295030377805,9.693584761834144,0.11333056543800048
1686424782245110500,6.938110595703125,1.6069968052208423,9.673382516282796,0.11663375343554652
1686424782255056400,6.948056396484375,1.7557121795691548,9.647464231172204,0.11958061140924692
1686424782265002500,6.95800244140625,1.9128766717024146,9.617513329544662,0.12131794746271334
1686424782274948400,6.9679482421875,2.0669088571593166,9.58560895576179,0.11992382622319273
1686424782284894500,6.97789453125,2.2049325954928993,9.554860181754828,0.11526103117708116
1686424782294840300,6.98784033203125,2.298770278358459,9.532842995736003,0.10462406622534617
1686424782304786400,6.997786376953125,2.3127502883940934,9.529664950221777,0.08391644670143723
1686424782314732500,7.007732666015625,2.252219393455237,9.54429787120819,0.06538565975995735
1686424782324678400,7.017678466796875,2.159487918265909,9.56571183063686,0.06471998522572685
1686424782334624500,7.02762451171875,2.0640756795600055,9.586642390462755,0.07912786071803421
1686424782344570400,7.0375703125,1.9764219460263848,9.604939679175615,0.09637027921625413
1686424782354516500,7.0475166015625,1.8963535530552267,9.620943888515233,0.10792738208705559
1686424782364462300,7.05746240234375,1.8223297009453177,9.635227849933505,0.10904323437446728
1686424782374408400,7.067408447265625,1.7548415342144668,9.647843001356721,0.10013115698657929
1686424782384354300,7.077354248046875,1.6962063898943363,9.658477208095789,0.08433824317692779
1686424782394300400,7.087300537109375,1.6469649507328867,9.6671480058074,0.06454302579020149
1686424782404246300,7.097246337890625,1.6062113539315759,9.67412252099514,0.04273718096711673
1686424782414192400,7.1071923828125,1.5740518363438545,9.679480833157896,0.020043056951242033
1686424782424138500,7.117138427734375,1.5515269930638371,9.683137017577886,-0.0031187890368368242
1686424782434084400,7.12708447265625,1.5425084048278628,9.684544546288251,-0.02628751343191834
1686424782444030500,7.137030517578125,1.5504804066203535,9.683190793591738,-0.04695325515903532
1686424782453976800,7.146976806640625,1.5774989080578088,9.67874608914256,-0.06153309881791938
1686424782463923000,7.1569228515625,1.6212125237084924,9.671488080838323,-0.06630407151281834
1686424782473869000,7.166869140625,1.674283604160696,9.662481183040141,-0.06044206131135579
1686424782483815000,7.17681494140625,1.721550674509257,9.654232994654775,-0.049412484879419204
1686424782493761000,7.186760986328125,1.7441070819713174,9.650220836403966,-0.04124632135485299
1686424782503707000,7.196706787109375,1.739215072146058,9.651128598898648,-0.03562412952494342
1686424782513653000,7.206653076171875,1.7260704900212585,9.653517539861797,-0.02562697629710892
1686424782523598800,7.216598876953125,1.7220288134150206,9.654271573099493,-0.007457650499852025
1686424782533545000,7.226544921875,1.7322338349565862,9.652432667234539,0.017457093295361846
1686424782543490800,7.23649072265625,1.755470333637297,9.648138769432903,0.04607429406715091
1686424782553437000,7.24643701171875,1.7888759057633579,9.641813658064603,0.07575121019205544
1686424782563382800,7.2563828125,1.830712329365313,9.633673021706938,0.10605638231709599
1686424782573329000,7.266328857421875,1.8803350229293108,9.623711599662899,0.13749836275260896
1686424782583275000,7.27627490234375,1.9370397837087512,9.611927638366819,0.17059649463100357
1686424782593220900,7.286220947265625,1.9971544990621506,9.598960020244121,0.20419121438730506
1686424782603167000,7.2961669921875,2.0555894446350633,9.58588952626884,0.23593663474880158
1686424782613112800,7.30611279296875,2.108678499135375,9.573629764154553,0.26354873643154275
1686424782623059000,7.316058837890625,2.157014075498283,9.562187748163938,0.28676048426348716
1686424782633004800,7.3260048828125,2.2028642647862435,9.551099367916583,0.30710166336148975
1686424782642951000,7.335950927734375,2.2475293359428643,9.53995545808971,0.32906039719134567
1686424782652896800,7.345896728515625,2.293564380278438,9.52807446615994,0.35461079883761704
1686424782662843000,7.3558427734375,2.346014113961905,9.514349307668208,0.37913010387048124
1686424782672788700,7.365788818359375,2.4104759186089035,9.497694525465368,0.3921597909113392
1686424782682734800,7.37573486328125,2.487143563225865,9.478201889488101,0.3849639611231163
1686424782692681000,7.385680908203125,2.5741385405898094,9.456108715623616,0.3552562571343034
1686424782702626800,7.395626708984375,2.672807296873629,9.430411379787325,0.3063102937880903
1686424782712573000,7.405572998046875,2.7882290350377557,9.398683531615138,0.24676735044065862
1686424782722519000,7.41551904296875,2.9263331451311707,9.35805867576003,0.18364762631868942
1686424782732465200,7.425465087890625,3.0884003146141765,9.306833515435457,0.12271404146361164
1686424782742411000,7.435410888671875,3.2663477747961878,9.24643662213981,0.06904394480548799
1686424782752357000,7.445357177734375,3.4440775005742905,9.181941061353683,0.02526988137157168
1686424782762303000,7.455302978515625,3.5973175127401946,9.123028269135952,-0.006131196802217164
1686424782772249000,7.4652490234375,3.708081488226354,9.07855024498403,-0.02059092520852573
1686424782782195200,7.4751953125,3.781497145310044,9.048229341000319,-0.013097165069787297
1686424782792141000,7.48514111328125,3.8304528993979092,9.027612669429182,0.015931742325029336
1686424782802087200,7.495087158203125,3.8613857978001236,9.014209582498669,0.06442694339617155
1686424782812033000,7.505032958984375,3.8770398785278197,9.00686097330153,0.12393155489405616
1686424782821979100,7.514979248046875,3.8814688008859752,9.003948300725222,0.18307192705627529
1686424782831925000,7.524925048828125,3.8791310055881736,9.003815029734373,0.23243712046155704
1686424782841871000,7.53487109375,3.87276819255799,9.005615941676497,0.2663525600722059
1686424782851817000,7.54481689453125,3.863547944270074,9.009077480307221,0.282704505137261
1686424782861763000,7.55476318359375,3.8517607681035995,9.014121904215216,0.28271097141066565
1686424782871709000,7.564708984375,3.8376910339578982,9.020501376119256,0.2703227058121934
1686424782881655000,7.574655029296875,3.822352010528743,9.027600978991389,0.24984394487440584
1686424782891601200,7.58460107421875,3.8057548037320372,9.035314914369582,0.22290939539335666
1686424782901547000,7.594547119140625,3.7881618638962506,9.04350523508787,0.18767324683926997
1686424782911493000,7.6044931640625,3.7696494711279867,9.052019965454935,0.14507187587996012
1686424782921439000,7.61443896484375,3.7486417544126507,9.061348934814333,0.10025746851367875
1686424782931385000,7.624385009765625,3.723695821465552,9.07198431059718,0.06013063900831621
1686424782941331000,7.6343310546875,3.6945223339512943,9.084048257878422,0.031021282221854195
1686424782951277000,7.644277099609375,3.6583462741985917,9.09871040495932,0.019697969840618314
1686424782961223000,7.654222900390625,3.6113498374849557,9.11743497917354,0.029966738517489284
1686424782971169000,7.6641689453125,3.552519170592725,9.140364019340277,0.06120984907976817
1686424782981115000,7.674114990234375,3.4829593121543523,9.166636524716019,0.11027856658939271
1686424782991061000,7.68406103515625,3.406217140996456,9.194499514153598,0.1710310683896765
1686424783001007000,7.694007080078125,3.3252368938773866,9.222743027341366,0.23273261454310268
1686424783010953000,7.703952880859375,3.2417595692455765,9.250890094417333,0.2871538309626281
1686424783020899000,7.713899169921875,3.1558053331062195,9.279161664655804,0.3293414060898125
1686424783030845000,7.723844970703125,3.066837886625528,9.30788916196823,0.3578639554146677
1686424783040791000,7.733791015625,2.9742320836424825,9.33720527282357,0.3754508673684671
1686424783050737000,7.74373681640625,2.876179997952282,9.367574692124128,0.38281153232958165
1686424783060683000,7.75368310546875,2.766654039828479,9.400561015924811,0.38142296404801307
1686424783070627800,7.7636279296875,2.6386916767820714,9.437616196599603,0.37289241505730897
1686424783080574000,7.773573974609375,2.488386841285229,9.478872336095572,0.359593446088396
1686424783090519800,7.783519775390625,2.318630432473868,9.522388237217069,0.34420119463466103
1686424783100466000,7.7934658203125,2.1359274483278394,9.565629997572302,0.3269745673606172
1686424783110411800,7.803411865234375,1.9500747679792343,9.606040918415784,0.3026490678668022
1686424783120358000,7.81335791015625,1.7816034305423498,9.640117960062623,0.25382218258930367
1686424783130303700,7.8233037109375,1.6565392731554804,9.6642914473325,0.16651386495986953
1686424783140249900,7.833249755859375,1.580391122367978,9.678331663122773,0.05132805444346741
1686424783150196000,7.843196044921875,1.52957059732154,9.686436643645166,-0.06119377929437905
1686424783160141800,7.853141845703125,1.4629901930853724,9.696002928891778,-0.13242305051600559
1686424783170088000,7.863087890625,1.3760912234418092,9.70843804757297,-0.15163199244737624
1686424783180034000,7.873033935546875,1.2964945396356284,9.719566759830712,-0.1396365164256189
1686424783189980000,7.88297998046875,1.2337247797288,9.72802186896503,-0.11775583453434518
1686424783199926000,7.892926025390625,1.190536795387417,9.733671857550739,-0.09300848376611247
1686424783209872100,7.9028720703125,1.1676178382232785,9.736707279723882,-0.059679205446387634
1686424783219818000,7.91281787109375,1.1567162127196788,9.738173260623215,-0.018886215066316072
1686424783229764000,7.92276416015625,1.1566679896637797,9.738176183232664,0.020310190304694695
1686424783239710200,7.932710205078125,1.1711473275236786,9.736343707108498,0.048868171702534886
1686424783249656000,7.942656005859375,1.2020310530219227,9.732487031680344,0.06474930265175644
1686424783259602200,7.952602294921875,1.2477766859568655,9.726686820968984,0.07082862713201903
1686424783269548000,7.962548095703125,1.303199882493168,9.71942296744585,0.06982327688122168
1686424783279494100,7.972494140625,1.3631238975800573,9.711240245512128,0.0640034846865572
1686424783289440000,7.98243994140625,1.4275040152929723,9.702029934096336,0.05676514006401412
1686424783299386000,7.99238623046875,1.499321151138842,9.6912238779217,0.05092972560853232
1686424783309332000,8.00233203125,1.5818617794424294,9.678104284107684,0.04895943474913947
1686424783319278000,8.012278076171874,1.6769468320205807,9.662067341542244,0.05196703733359463
1686424783329224000,8.022223876953126,1.7837769751891492,9.642875734338164,0.058867980395047925
1686424783339170000,8.032170166015625,1.8984585625104604,9.62089361963272,0.06817988445521332
1686424783349116200,8.0421162109375,2.015327723003924,9.597028759920596,0.07667977344617247
1686424783359062000,8.05206201171875,2.1279716670177877,9.572651859033106,0.08052353459382429
1686424783369008000,8.062008056640625,2.2245275228008627,9.550704815641044,0.07697512139724567
1686424783378954000,8.0719541015625,2.2843390174239873,9.536678628376126,0.06268996810230892
1686424783388900000,8.081900146484376,2.2809704177737236,9.537624384793638,0.03549613064754521
1686424783398846000,8.091845947265625,2.2135219985313714,9.553568972900509,0.0031258983414023532
1686424783408792000,8.1017919921875,2.107286752516031,9.57753320133388,-0.02451733455477515
1686424783418738000,8.111738037109374,1.9896414930835364,9.602593992832302,-0.043561338565265756
1686424783428684000,8.12168408203125,1.8739033824466167,9.625788405936955,-0.0556447394656483
1686424783438630000,8.1316298828125,1.761939383520931,9.64685282127559,-0.06463371344807092
1686424783448575700,8.14157568359375,1.653534976772964,9.665952074021101,-0.07445660380425397
1686424783458521900,8.15152197265625,1.5502622338250278,9.682948801529406,-0.08707893845350481
1686424783468468000,8.161468017578125,1.4545622642189264,9.697631991398334,-0.10284726581117137
1686424783478413800,8.171413818359374,1.3685615585893391,9.709933839088677,-0.12095501416814512
1686424783488360000,8.18135986328125,1.29258920276016,9.720078801006078,-0.14032403289889916
1686424783498305800,8.191305908203125,1.2265838219329714,9.72833692626357,-0.15919619889026507
1686424783508252000,8.201251953125,1.1736406056441366,9.734550393950938,-0.1774306514999829
1686424783518197800,8.21119775390625,1.1437817662142216,9.73769862884879,-0.19843860567733645
1686424783528144000,8.221143798828125,1.1492562521025538,9.736400990253687,-0.22826725089838726
1686424783538089700,8.23108984375,1.1881971734587102,9.730693134000896,-0.26865722028538586
1686424783548035800,8.241035888671876,1.2453441981129347,9.722169635805487,-0.31447840267457067
1686424783557982000,8.25098193359375,1.2992990756623446,9.713664257788658,-0.35630956557951865
1686424783567927800,8.260927734375,1.3359465523190797,9.707623224058747,-0.3842911398954689
1686424783577874000,8.2708740234375,1.3579868269525468,9.704154086643458,-0.3945268853688612
1686424783587819800,8.28081982421875,1.3773014760144053,9.70172189106047,-0.3873248450355604
1686424783597766000,8.290765869140625,1.4033635535098612,9.698879361110926,-0.36430648261755705
1686424783607711700,8.300711669921874,1.4408869362182914,9.694612351316213,-0.32974969462975856
1686424783617657900,8.310657958984375,1.4903938944481312,9.68847954764962,-0.28716500994376837
1686424783627603700,8.320603759765625,1.549938262567669,9.680421913400291,-0.23983039078433066
1686424783637549800,8.3305498046875,1.6144225713074207,9.670954412353039,-0.19152773031033574
1686424783647495700,8.34049560546875,1.676712292612344,9.661148473131655,-0.1456729287793394
1686424783657441800,8.35044189453125,1.731640399108082,9.651985507988929,-0.10481405410580337
1686424783667388000,8.360387939453124,1.7780504142358897,9.643855977547169,-0.0704274624526035
1686424783677333800,8.370333740234376,1.8194786954283713,9.636288172641397,-0.04312870103535242
1686424783687279900,8.38027978515625,1.8587008448787032,9.628867667251825,-0.022623369467759037
1686424783697225700,8.390225830078125,1.8966709484413264,9.621485155785082,-0.006233578322813264
1686424783707171800,8.400171875,1.9334788763567805,9.614153497722745,0.00841204117332527
1686424783717117700,8.41011767578125,1.9689942802436649,9.606919454815984,0.02329240500285523
1686424783727063800,8.420063720703125,2.004089851283282,9.599600656235218,0.04068074619423132
1686424783737009700,8.430009765625,2.0397015551514923,9.591990765753389,0.061022605712246145
1686424783746955800,8.439955810546875,2.0776596760153767,9.583671850219368,0.08327169165764935
1686424783756901600,8.449901611328125,2.1213483033552762,9.573888707351683,0.1046587996120099
1686424783766847700,8.45984765625,2.177276380673796,9.561160743203759,0.11855050117652863
1686424783776793900,8.4697939453125,2.256883147482574,9.542741873937844,0.11382159122480079
1686424783786739700,8.47973974609375,2.365873683555424,9.516619590687752,0.08358349755317904
1686424783796685800,8.489685791015624,2.5009321423426267,9.482340304467082,0.031129423338023477
1686424783806631700,8.499631591796875,2.65560949383527,9.44017757152021,-0.034419192448281684
1686424783816577800,8.509577880859375,2.827085712176561,9.389773664450646,-0.1007210217716638
1686424783826524000,8.51952392578125,3.0145182090625164,9.330542307803034,-0.15499043602980672
1686424783836470000,8.529469970703126,3.2016581527426835,9.267267228722572,-0.19374264814713968
1686424783846416000,8.539415771484375,3.3559836220577357,9.211912421247362,-0.22003243345124646
1686424783856362000,8.549362060546875,3.456206037524342,9.1744305395931,-0.23414671912472693
1686424783866307800,8.559307861328126,3.509377363480627,9.15438260782063,-0.22794008303694427
1686424783876254000,8.56925390625,3.5383623426854607,9.14386413641572,-0.20037551029035822
1686424783886200000,8.579199951171875,3.5570860401168463,9.137477065727115,-0.15496974030165
1686424783896146000,8.58914599609375,3.5678877123773094,9.134062288847565,-0.09717517499150707
1686424783906092000,8.599092041015625,3.5676097722187636,9.134604725161195,-0.03940229179020971
1686424783916038000,8.609037841796875,3.5542063930273056,9.13991043035388,0.007744982966184034
1686424783925984000,8.61898388671875,3.529963639913499,9.149204912921785,0.041835770581406535
1686424783935929900,8.628929931640625,3.499637182971835,9.160709472754597,0.06564554823858197
1686424783945876000,8.6388759765625,3.466764840939641,9.17304989888966,0.08437204498182982
1686424783955821800,8.64882177734375,3.4332159148201344,9.185484433048963,0.10134969333033077
1686424783965768000,8.658767822265625,3.3988901591092344,9.19805925246179,0.1167416342568118
1686424783975714000,8.668714111328125,3.363208312614262,9.211011088493466,0.12841688361456616
1686424783985660000,8.678659912109374,3.3284383202672,9.223569541293383,0.13289079589191824
1686424783995606000,8.68860595703125,3.2961905398741362,9.235204449507593,0.12845173573223873
1686424784005551900,8.6985517578125,3.2657351958557963,9.246169495636224,0.11697692258371971
1686424784015498000,8.708498046875,3.2336323768913746,9.257596898579598,0.10457684781644493
1686424784025443800,8.71844384765625,3.193406749486923,9.271603796622157,0.09952109879683703
1686424784035390000,8.728389892578125,3.140704794608056,9.289518223497272,0.1059077767597977
1686424784045335800,8.738335693359375,3.074570526704192,9.31139453974068,0.12401077587641775
1686424784055282000,8.748281982421876,2.9944530338943003,9.337074924442172,0.15056615331415085
1686424784065227800,8.758227783203125,2.9021833309978247,9.36564869249761,0.1797881561452523
1686424784075174000,8.768173828125,2.800406964087486,9.395987716659903,0.20856462543224916
1686424784085120000,8.7781201171875,2.69328251414746,9.42663595290184,0.23486286803744733
1686424784095065900,8.78806591796875,2.5847663175880906,9.45636181360185,0.2580975766198709
1686424784105012000,8.798011962890625,2.475849139012396,9.484869530683754,0.2788891298338771
1686424784114957800,8.807957763671874,2.3668533422425386,9.51208720795512,0.29768055873923
1686424784124904000,8.817904052734375,2.260520773332566,9.537453119879961,0.3121085682706907
1686424784134849800,8.827849853515625,2.1601396601729093,9.560440612235665,0.3196655229888856
1686424784144796000,8.8377958984375,2.0670412513673306,9.581011691099405,0.3193008909275755
1686424784154741800,8.84774169921875,1.9805195906035602,9.599565000399947,0.3103153281783685
1686424784164688000,8.85768798828125,1.8987531615428626,9.616613165834545,0.29301092296037823
1686424784174633700,8.8676337890625,1.8198368612162767,9.632558922985195,0.2690660568146035
1686424784184579800,8.877579833984376,1.7412046385280786,9.64782605022192,0.24094180435864254
1686424784194526000,8.88752587890625,1.6595529218882321,9.662909053063393,0.2108727745104581
1686424784204471800,8.897471923828125,1.5730300920806823,9.677968675029277,0.18133401561407372
1686424784214418000,8.90741796875,1.4825406967297194,9.692688689777254,0.15572739026853813
1686424784224363800,8.91736376953125,1.3902796155311166,9.706682143816352,0.13344530623583123
1686424784234310000,8.927309814453125,1.3010096789725125,9.719302555936574,0.11371422186018898
1686424784244255700,8.937255859375,1.2190331873577087,9.730113288286327,0.09620535271181724
1686424784254201900,8.947201904296875,1.1479971188869327,9.738916772466897,0.07751627906924113
1686424784264147700,8.957147705078125,1.0919851626772432,9.745512517470122,0.054085522758332075
1686424784274093800,8.96709375,1.0565127211492509,9.749540457811952,0.024425706181989516
1686424784284039700,8.977039794921875,1.048078654802963,9.750479199966788,-0.007992109003002406
1686424784293985800,8.98698583984375,1.074476978515461,9.747541392949223,-0.03616191021305276
1686424784303932000,8.996931884765624,1.1400629648867995,9.739982940393686,-0.05800966023239307
1686424784313877800,9.006877685546876,1.2414011595755814,9.727412212634086,-0.08224865048653446
1686424784323823900,9.016823974609375,1.3689388674691318,9.70994903665781,-0.11525087510924786
1686424784333769700,9.026769775390624,1.5063383364245295,9.689089788502454,-0.151330050358735
1686424784343715800,9.0367158203125,1.6331895233586429,9.668017774379253,-0.1803064991972409
1686424784353661700,9.04666162109375,1.7226384697459638,9.652176062124967,-0.19598525770846753
1686424784363607800,9.05660791015625,1.739919274892658,9.648928458505868,-0.20305011806078255
1686424784373553700,9.0665537109375,1.6660454987779258,9.661911858719586,-0.20525752844456582
1686424784383499800,9.076499755859375,1.535940863005817,9.68370926450789,-0.1924514940917492
1686424784393446000,9.08644580078125,1.3966184631638228,9.70535995530188,-0.16074021346187217
1686424784403391700,9.096391845703126,1.2721879275053738,9.723038819855452,-0.12007188379121944
1686424784413336800,9.1063369140625,1.1679883520361036,9.736501528018712,-0.08204446968394331
1686424784423283700,9.11628369140625,1.0819747869249432,9.746624862626195,-0.05499139469002839
1686424784433229000,9.12622900390625,1.0099582560494542,9.75441010967493,-0.0433076788980281
1686424784443175000,9.1361748046875,0.951707507937029,9.760245391699671,-0.04758390404565725
1686424784453120800,9.146120849609375,0.9087352121729403,9.7642394297719,-0.06482217152514494
1686424784463067000,9.15606689453125,0.8805292545165866,9.766621940994263,-0.09033582135760225
1686424784473013000,9.166012939453125,0.8627224527344107,9.767886846363544,-0.12025422722133808
1686424784482958800,9.175958740234375,0.8494855161510407,9.768625682032107,-0.15065905576199293
1686424784492905000,9.185905029296874,0.8344368539705872,9.769463886421919,-0.17800624116454272
1686424784502850800,9.195850830078125,0.8128846551150083,9.770880767482518,-0.19875143448617308
1686424784512797000,9.205796875,0.7805556261792779,9.773232883566617,-0.2121834004512988
1686424784522742800,9.21574267578125,0.7348240948349237,9.776666949668526,-0.21722241753181443
1686424784532689000,9.22568896484375,0.6748784524381161,9.781053786450624,-0.21425224261460823
1686424784542634800,9.235634765625,0.5992186331568286,9.786146141153573,-0.20657617329508066
1686424784552580900,9.245580810546874,0.5090227043271065,9.791462952262163,-0.1963198964903131
1686424784562526700,9.255526611328126,0.408827030736953,9.796339618387817,-0.18702075601359827
1686424784572472800,9.265472900390625,0.30510051613952965,9.80027111261785,-0.17881185845900327
1686424784582419000,9.2754189453125,0.20386320627564564,9.80308733908236,-0.16827588793002068
1686424784592364800,9.28536474609375,0.11060936031318269,9.804833890488743,-0.15302544696661644
1686424784602311000,9.295310791015625,0.030148938100424127,9.805718272107839,-0.13183071064604446
1686424784612256800,9.3052568359375,-0.03214851898638298,9.80605320315063,-0.10331415267055853
1686424784622203000,9.315202880859376,-0.0717595787060447,9.806157832568884,-0.06715000711793545
1686424784632148700,9.325148681640625,-0.08695063589871861,9.806234404936433,-0.02443645590486703
1686424784642094800,9.3350947265625,-0.07839017582694068,9.806309223738312,0.022862527968897484
1686424784652040700,9.345040771484374,-0.04864596205290872,9.8062589548558,0.07295234585430008
1686424784661986800,9.35498681640625,0.0018728607928998825,9.805869663277267,0.12360913627296685
1686424784671932700,9.3649326171875,0.07250995868192986,9.804846165448426,0.17350401610815896
1686424784681878800,9.374878662109374,0.16235269015980883,9.802810860228538,0.22122224602401255
1686424784691825000,9.384824951171876,0.27267332405894995,9.79928151705861,0.26483221863713113
1686424784701770800,9.394770751953125,0.40537210451010613,9.793591196462511,0.30273024334423243
1686424784711716900,9.404716796875,0.558882019658573,9.78495956171751,0.335525793813169
1686424784721662700,9.414662841796876,0.7292490711815655,9.772749483963846,0.36321273256409914
1686424784731608800,9.42460888671875,0.9113291741888969,9.756612003633379,0.3852001810317859
1686424784741554700,9.4345546875,1.096999264512211,9.736837043583392,0.40119832595679905
1686424784751500800,9.444500732421876,1.2744696087017655,9.714897598975897,0.40848972507398573
1686424784761446700,9.45444677734375,1.4253914070531726,9.694459791103005,0.39505620647259054
1686424784771392800,9.464392822265625,1.53483012528494,9.679609427973627,0.34616577270589766
1686424784781338600,9.474338623046876,1.6100991551503538,9.669739775866269,0.27217052563596517
1686424784791284700,9.48428466796875,1.6658194349370896,9.662066757020353,0.19970670765070245
1686424784801230800,9.49423095703125,1.7156173389375209,9.654169281768798,0.15517870687721297
1686424784811176700,9.5041767578125,1.766307223341614,9.645021514195204,0.15527005668878555
1686424784821122800,9.514122802734375,1.819344109263271,9.634393152675033,0.19714679403482005
1686424784831068700,9.524068603515625,1.8737731801956892,9.622588733112812,0.25523067941404876
1686424784841014800,9.534014892578124,1.9310588096030055,9.609746787196396,0.30682967801969496
1686424784850960600,9.543960693359375,1.9930080469071865,9.595932781377433,0.34118140842206773
1686424784860906800,9.55390673828125,2.0602474995739755,9.581198153582214,0.35552524680141356
1686424784870852600,9.5638525390625,2.1355546694926915,9.564763151609897,0.3536613891582936
1686424784880798700,9.573798828125,2.232865727557242,9.5429201531142,0.34257731975987554
1686424784890744800,9.583744873046875,2.364743510481715,9.511798454141616,0.3226166278794408
1686424784900690700,9.593690673828124,2.527319798530638,9.47107832121849,0.28591409656722094
1686424784910636800,9.60363671875,2.70454800452739,9.423599361684918,0.22708869037199764
1686424784920582700,9.613582763671875,2.881126514443755,9.372723160928487,0.14688487098552286
1686424784930528800,9.62352880859375,3.044535746185481,9.321941068196296,0.05103234573279042
1686424784940474600,9.633474609375,3.185281018437445,9.274783011180162,-0.05244056399632245
1686424784950420700,9.643420654296875,3.2967291767954823,9.234574334910512,-0.1568238620020449
1686424784960366800,9.653366943359375,3.3756109903305767,9.203737882620096,-0.2585663997080177
1686424784970313000,9.66331298828125,3.4222651894778013,9.18327260221839,-0.35496268101520834
1686424784980258800,9.6732587890625,3.4399744491696356,9.172740102288126,-0.44472131440620866
1686424784990205000,9.683204833984375,3.434276822049916,9.170517750063539,-0.5269734446246177
1686424785000151000,9.693151123046874,3.411301604653895,9.174632199645043,-0.599608326594159
1686424785010097000,9.703096923828125,3.3759453368514776,9.18360577969551,-0.6593997282773256
1686424785020043000,9.71304296875,3.3308497653231024,9.196856306412815,-0.7026382006969303
1686424785029988900,9.72298876953125,3.278399154856801,9.21374431284964,-0.727607879845798
1686424785039935000,9.73293505859375,3.220882200911641,9.233207138210535,-0.7376795573312789
1686424785049880800,9.742880859375,3.159741503511369,9.254303702253102,-0.7377579563297331
1686424785059827000,9.752826904296874,3.097062344497442,9.275953224003315,-0.7316499217782169
1686424785069772800,9.762772705078126,3.038021541985869,9.296116306588052,-0.7232284957177937
1686424785079719000,9.772718994140625,2.988630611351132,9.312338542592524,-0.72027929052338
1686424785089664800,9.782664794921875,2.9536244721606373,9.322651846814155,-0.7311811352226882
1686424785099611000,9.79261083984375,2.936542988978326,9.325539384949208,-0.7624859356772155
1686424785109557000,9.802556884765625,2.9390266224876043,9.321031552135944,-0.8067603270158171
1686424785119502800,9.8125029296875,2.9599112973451613,9.31081761663556,-0.8473379827283323
1686424785129449000,9.822448974609374,2.9943095337703824,9.297081936749816,-0.8767865608569234
1686424785139394800,9.832394775390625,3.035862610386312,9.281671017128229,-0.8969394873738288
1686424785149341000,9.8423408203125,3.078857702504098,9.266481631302833,-0.9073694767776876
1686424785159286800,9.852286865234374,3.119267162042856,9.25348829421699,-0.9019456250980495
1686424785169233000,9.86223291015625,3.149629859341681,9.245997646200657,-0.8727882119357585
1686424785179178800,9.8721787109375,3.1587519079521296,9.248465497618913,-0.8115220615249127
1686424785189124900,9.882124755859374,3.1421640535056587,9.262229819077254,-0.7129398875460028
1686424785199070700,9.89207080078125,3.105102735351026,9.284033654606342,-0.5791774964513257
1686424785209016800,9.902016845703125,3.0576793053969737,9.308048736444116,-0.4257022507574409
1686424785218963000,9.911962890625,3.01233881919682,9.328267348608374,-0.28224255018131805
1686424785228908800,9.92190869140625,2.9806977725252506,9.340888929772376,-0.1832947029614821
1686424785238855000,9.93185498046875,2.9608751739412544,9.347852923566103,-0.14576595909134485
1686424785248800800,9.94180078125,2.9440038263782857,9.353008991155027,-0.15629528981698676
1686424785258747000,9.951746826171876,2.9291324204608795,9.357187153622508,-0.18328721377477047
1686424785268692700,9.961692626953125,2.9173738858669993,9.360511329609155,-0.20030145867345853
1686424785278638800,9.971638916015625,2.9091289123520254,9.363137586459517,-0.19746422595353796
1686424785288584700,9.981584716796876,2.904907203003764,9.364837960636615,-0.1779749327108264
1686424785298530800,9.99153076171875,2.9050799292221665,9.36525998544097,-0.15094665879802777
1686424785308477000,10.001476806640625,2.9122324313253163,9.363436861667036,-0.12384531964901833
1686424785318422800,10.0114228515625,2.9302815904960036,9.358089655420184,-0.1000902678537648
1686424785328369000,10.021368896484375,2.9626188027381897,9.348100760847329,-0.07948218144788406
1686424785338314800,10.031314697265625,3.0097999483689666,9.333158627781271,-0.06045537288407795
1686424785348260900,10.0412607421875,3.0694816791325805,9.313801016360522,-0.042055021088966166
1686424785358206700,10.051206787109376,3.138219992054999,9.290932181948422,-0.0228872788176639
1686424785368152800,10.06115283203125,3.2116011623471974,9.265849763140082,-0.0016726821671632932
1686424785378098700,10.0710986328125,3.28645737362802,9.239538679319619,0.02254059112170944
1686424785388044800,10.081044921875,3.3592627898588776,9.213218827670811,0.04812927666846663
1686424785397990700,10.09099072265625,3.4251088884711263,9.188777629375457,0.0734848635621136
1686424785407936800,10.100936767578125,3.480304705992341,9.167803814929723,0.09617907662624493
1686424785417883000,10.1108828125,3.5235625406995412,9.151059600877762,0.11402346133929676
1686424785427828700,10.120828857421875,3.5548987592056394,9.138776457887888,0.12601801491244696
1686424785437774800,10.13077490234375,3.574711128656566,9.130983612054585,0.13031746567203661
1686424785447720700,10.140720703125,3.5841248536899686,9.127343209725618,0.1266195062032435
1686424785457666800,10.150666748046875,3.583558451978862,9.127690415728091,0.11738363108793273
1686424785467613000,10.160613037109375,3.5736686338663097,9.131716017982363,0.10502579716034233
1686424785477558800,10.170558837890624,3.554631632702052,9.139306619241832,0.0897407050086651
1686424785487505000,10.1805048828125,3.528052545595169,9.149784758636354,0.06831885910106357
1686424785497450800,10.19045068359375,3.495623563416302,9.162398156493902,0.03835482856389135
1686424785507396900,10.20039697265625,3.457303477372229,9.17700535851717,0.0005727501810881222
1686424785517343000,10.210343017578126,3.4133912704095244,9.193333392983675,-0.04176408901810646
1686424785527288800,10.220288818359375,3.366014894467592,9.210493202099203,-0.08437357935179024
1686424785537235000,10.23023486328125,3.316889044509828,9.227849410569668,-0.12414313355181365
1686424785547180800,10.240180908203126,3.2671649363979696,9.245005128031968,-0.16088769564116373
1686424785557127000,10.250126953125,3.21713541559875,9.261827668017148,-0.19743140139617024
1686424785567072800,10.26007275390625,3.166916801968217,9.278194280928373,-0.2370109129168093
1686424785577019000,10.270018798828126,3.1157357730463144,9.294286168551444,-0.28072178862113506
1686424785586964700,10.27996484375,3.0634093734815715,9.310130218893288,-0.32767639548704025
1686424785596910800,10.289910888671875,3.0089000769197938,9.326013432201743,-0.3772797998286784
1686424785606856700,10.299856689453126,2.9513273011341687,9.342215209940075,-0.42787437063213435
1686424785616802800,10.309802734375,2.890597522622347,9.358789912644028,-0.4773411795146763
1686424785626749000,10.3197490234375,2.8259084850907326,9.3760379845649,-0.5239467537472025
1686424785636694800,10.32969482421875,2.757302566376328,9.394021385022997,-0.5657028786545619
1686424785646641000,10.339640869140625,2.685472424918413,9.41257060267031,-0.6017819077735767
1686424785656587000,10.3495869140625,2.610743931670487,9.431548274862767,-0.6327012525744736
1686424785666533000,10.359533203125,2.532571727709472,9.4509918110013,-0.6597029490076005
1686424785676479000,10.36947900390625,2.450410746373236,9.470907056304812,-0.6839522049274295
1686424785686425000,10.379425048828125,2.362736554573476,9.491699668964744,-0.7039131890688091
1686424785696371000,10.389370849609374,2.2614123153448102,9.515330135399102,-0.7175759498488158
1686424785706317000,10.399317138671876,2.1253012787647543,9.54621977918148,-0.7233025838673114
1686424785716262000,10.409261962890625,1.920938105344027,9.589864275118709,-0.7175489157114178
1686424785726209000,10.419208984375,1.6335177323997019,9.64398223427534,-0.7039960450466722
1686424785736153900,10.42915380859375,1.3116082298763097,9.693992173591255,-0.6903583456426858
1686424785746100000,10.439099853515625,1.0050012912292032,9.731518478909134,-0.6766848442729562
1686424785756045800,10.4490458984375,0.732287269833684,9.756989020252227,-0.6597554829124361
1686424785765992000,10.458991943359376,0.4972921902513131,9.77317267781198,-0.6388799412094056
1686424785775938000,10.46893798828125,0.2986068250049837,9.78285119126141,-0.6140609225776046
1686424785785884000,10.4788837890625,0.13931311142384073,9.788117733487486,-0.5862890820221975
1686424785795830000,10.488830078125,0.028138379162724592,9.790705411893128,-0.5582660797173157
1686424785805776000,10.49877587890625,-0.03010689134027343,9.79221523193419,-0.5310238159939646
1686424785815722000,10.508721923828125,-0.032227625804312994,9.793674783092737,-0.5032830646965653
1686424785825667800,10.518667724609376,0.029561199057055634,9.795466927206515,-0.4673112222790718
1686424785835614000,10.528614013671875,0.15143213162687605,9.796478150075673,-0.42010461341347544
1686424785845559800,10.538559814453125,0.3112441334610805,9.794598327678441,-0.3732909493882209
1686424785855506000,10.548505859375,0.49266131558027115,9.78867010667324,-0.33106190973948685
1686424785865452000,10.5584521484375,0.6861638896275312,9.77824632781446,-0.2922903536008671
1686424785875398000,10.56839794921875,0.8851583025567233,9.763310624489188,-0.25428990969890725
1686424785885344000,10.578343994140624,1.0847698975361884,9.744165779036283,-0.21185292638791725
1686424785895289900,10.588289794921875,1.2819327841892838,9.721123341622947,-0.1636556442508474
1686424785905236000,10.598236083984375,1.4757840620763598,9.69434054863751,-0.11053946428159252
1686424785915181800,10.608181884765624,1.6664460424028336,9.663860654699802,-0.05605672693317756
1686424785925128000,10.6181279296875,1.8550139730595052,9.629605918398498,-0.004906168498063925
1686424785935073800,10.62807373046875,2.0402078972384334,9.59198608957827,0.04169627991232555
1686424785945020000,10.63802001953125,2.2145469576649366,9.552945288044214,0.08611208444903604
1686424785954965800,10.6479658203125,2.3626785407759248,9.51688379458189,0.130588263703743
1686424785964911900,10.657911865234375,2.4701897980764507,9.488781151169539,0.17778819623338057
1686424785974858000,10.66785791015625,2.5294372290760276,9.47213922844827,0.22568980162581428
1686424785984803800,10.677803955078126,2.5502865403592585,9.46559375232756,0.2626392751701176
1686424785994750000,10.68775,2.55665286052078,9.462995552527904,0.29256719778086987
1686424786004695800,10.69769580078125,2.5610773989647626,9.460700719588994,0.3262095012722537
1686424786014642000,10.707641845703124,2.5683836303249,9.457065577957033,0.37110801585856823
1686424786024587800,10.717587890625,2.5815768738970157,9.451037988230585,0.42866384050939227
1686424786034534000,10.727533935546875,2.603039056381583,9.441972638243437,0.4936989880649373
1686424786044479700,10.737479736328124,2.6358298576101657,9.429303126284479,0.5577043541813269
1686424786054425900,10.74742578125,2.683764159695804,9.412226319277286,0.6146352883994579
1686424786064371700,10.757371826171875,2.750130482789874,9.389812827417254,0.6622624242320656
1686424786074317800,10.76731787109375,2.834364763268828,9.362101229149102,0.698436949614808
1686424786084264000,10.777263916015626,2.932380900862813,9.330232511201501,0.7199160101689398
1686424786094209800,10.787209716796875,3.03670549095124,9.296317382118106,0.7261612612340599
1686424786104156000,10.797156005859375,3.1386805953040717,9.262985605880617,0.718452148161456
1686424786114101800,10.807101806640626,3.230826087298989,9.232611510404944,0.7007260104000568
1686424786124048000,10.8170478515625,3.3083968182355163,9.206781488099693,0.6782836577717214
1686424786133994000,10.826993896484375,3.3663010179325936,9.187324507957696,0.6568711596477776
1686424786143940000,10.836940185546876,3.402635775378346,9.175198016834258,0.6388859325587749
1686424786153886000,10.846885986328125,3.4157056848317384,9.17135478540957,0.6241600725919008
1686424786163832000,10.85683203125,3.404849944296479,9.17631328459978,0.6104505500607192
1686424786173778000,10.86677783203125,3.3729517079934475,9.189196731570362,0.5935009130971506
1686424786183724000,10.87672412109375,3.324717838439345,9.208312350928782,0.5688812529623508
1686424786193670100,10.886670166015625,3.2654847282260655,9.231680951556562,0.5320100140197203
1686424786203616000,10.896615966796874,3.2018262027859685,9.25686390812993,0.47872156448978925
1686424786213562000,10.90656201171875,3.1429742008447645,9.28051307926476,0.4051972593998536
1686424786223508000,10.916508056640625,3.0989661322921513,9.298972865062952,0.3097205406229943
1686424786233454000,10.9264541015625,3.07246683242321,9.310821708288788,0.19731232332745566
1686424786243400000,10.93639990234375,3.0591181060284374,9.316974385699629,0.07866281875586137
1686424786253346000,10.946345947265625,3.0502649374872446,9.320139571732282,-0.0360712705042446
1686424786263292000,10.9562919921875,3.0387644693076608,9.322902606704831,-0.14060470387064852
1686424786273238000,10.966238037109376,3.0208938815742727,9.326902489995955,-0.23121061087390407
1686424786283184000,10.97618408203125,2.999353080895543,9.331850467792153,-0.30142233908344057
1686424786293130000,10.9861298828125,2.9884067394673823,9.333946563288569,-0.342393451092951
1686424786303076000,10.996076171875,2.9966198565393682,9.33137349793017,-0.34077721153534946
1686424786313022000,11.00602197265625,3.008726473918557,9.32924466920793,-0.28835065779807045
1686424786322968000,11.015968017578125,2.9972262979999185,9.335478595161437,-0.189433150917571
1686424786332914000,11.025913818359374,2.950087530206144,9.35218481529057,-0.0635132260847371
1686424786342860000,11.035860107421875,2.880779016180336,9.373774715808034,0.0619961954181781
1686424786352806000,11.045805908203125,2.8068907731488344,9.394880632200836,0.16720476983347907
1686424786362752000,11.055751953125,2.743063905404508,9.412265482243894,0.23506582499733195
1686424786372697900,11.06569775390625,2.70801655742079,9.421998356229066,0.2509624457766302
1686424786382644000,11.07564404296875,2.71503871114254,9.420933941867947,0.2120676833834499
1686424786392590000,11.085590087890624,2.7601336981490254,9.409242335030436,0.13500229902002028
1686424786402536000,11.095535888671876,2.8310613378092646,9.389009694340825,0.044220108434674325
1686424786412482000,11.10548193359375,2.9183760486468673,9.36227424762845,-0.035920737851341256
1686424786422428000,11.115427978515624,3.0157033271938563,9.331061947762965,-0.08493072917736134
1686424786432374000,11.1253740234375,3.1136659810349343,9.298763021704554,-0.0920650928356219
1686424786442320000,11.13531982421875,3.198789903829992,9.270080532577634,-0.06084379681292921
1686424786452265500,11.145265380859374,3.2611662805050607,9.248522780764102,-0.005107387875299901
1686424786462211600,11.155211669921876,3.3019662006661292,9.233805688625573,0.06514605145095848
1686424786472157700,11.16515771484375,3.3321117480829354,9.222052706989645,0.14561222070120275
1686424786482103600,11.175103515625,3.3643957688331603,9.208491214627028,0.23425976931145415
1686424786492049700,11.185049560546876,3.404217199350893,9.190984784030913,0.32789226672742516
1686424786501995500,11.19499560546875,3.452976846344769,9.169161074757575,0.4169389524567872
1686424786511941600,11.204941650390625,3.5105203960359095,9.143616299134493,0.490865664335154
1686424786521887500,11.214887451171874,3.57641004152894,9.115110920140147,0.5426430517150089
1686424786531833600,11.22483349609375,3.6483737462386485,9.084581341841817,0.5745631710562855
1686424786541779500,11.234779541015625,3.7242759594410657,9.052510379320383,0.5934426435712724
1686424786551725600,11.2447255859375,3.8010917803570625,9.019815731942654,0.604158829505369
1686424786561671400,11.25467138671875,3.873433378468454,8.988569529807567,0.6103343398025259
1686424786571617500,11.264617431640625,3.9381355677425858,8.960349982017279,0.6112102093216032
1686424786581563600,11.274563720703124,3.993065427803993,8.93643660698831,0.6049169543962926
1686424786591509500,11.284509521484376,4.03524774223417,8.91838657103479,0.5912024999616667
1686424786601455600,11.29445556640625,4.063673918512463,8.906872074329852,0.5697632599612698
1686424786611401500,11.3044013671875,4.078896037563681,8.901680935427546,0.5413699995718896
1686424786621347600,11.31434765625,4.081572855557501,8.902409249702096,0.5081916603304445
1686424786631293400,11.32429345703125,4.071860439838469,8.908827884572744,0.47237409515921025
1686424786641239600,11.334239501953125,4.0517113857790825,8.920019140672682,0.43276809749044476
1686424786651185400,11.344185302734376,4.02294910941422,8.935086361423135,0.3878792640479281
1686424786661131500,11.354131591796875,3.9879713195353745,8.952804388943314,0.33729897749815135
1686424786671077400,11.364077392578125,3.9492245325118303,8.971893704816699,0.2813557574094273
1686424786681023500,11.3740234375,3.9089448368325828,8.991190525960922,0.2215103605167009
1686424786690969600,11.383969482421875,3.8692558005228634,9.009670770025252,0.15832674084566534
1686424786700915500,11.39391552734375,3.8304698505327104,9.027171939924358,0.08978661737646908
1686424786710861600,11.403861572265624,3.7920591635957357,9.04380626386106,0.015745041238557314
1686424786720807700,11.4138076171875,3.7534929938361046,9.059678371253609,-0.06242146705896593
1686424786730753500,11.42375341796875,3.7133112055733797,9.07530556397438,-0.14322646720898335
1686424786740699600,11.43369970703125,3.6697418206989765,9.091371148112415,-0.2244124934326857
1686424786750645800,11.443645751953126,3.620608371956646,9.108764181461929,-0.3032886078793555
1686424786760591600,11.453591552734375,3.5652170318633316,9.127833623591064,-0.3771547486769035
1686424786770537700,11.463537841796875,3.503601994949579,9.148691118180752,-0.4434396770978346
1686424786780483600,11.473483642578126,3.4347546686947346,9.171797853001951,-0.5009667871108279
1686424786790429700,11.4834296875,3.357749754947424,9.197435567605496,-0.5505226259836927
1686424786800375800,11.493375732421875,3.2715722314462066,9.225822873178124,-0.5927582415036857
1686424786810321700,11.50332177734375,3.175994719175994,9.256835851079225,-0.628035160459578
1686424786820266500,11.5132666015625,3.0713349057838317,9.290108590605854,-0.6566231762360781
1686424786830213600,11.523213623046875,2.9573925925225018,9.325454044753313,-0.6783252318911254
1686424786840158700,11.53315869140625,2.827142118538916,9.364861341512203,-0.6906753026373684
1686424786850104600,11.5431044921875,2.658871710501611,9.414116663068532,-0.6893243994850665
1686424786860050700,11.55305078125,2.4319483302265406,9.476604391163587,-0.6708371411580591
1686424786869996500,11.56299658203125,2.1307697733037174,9.551047345468401,-0.6385205333124846
1686424786879942700,11.572942626953125,1.7554767633780837,9.629764323830605,-0.596951893801242
1686424786889888500,11.582888427734375,1.3425224235780537,9.698550859808922,-0.553284930303879
1686424786899834600,11.592834716796874,0.9268284296810626,9.749177469718456,-0.5146964756472036
1686424786909780500,11.602780517578125,0.5226472885211929,9.78072411610484,-0.48444388765934854
1686424786919726600,11.6127265625,0.13276620139786974,9.794804079383612,-0.46321675603967155
1686424786929672700,11.622672607421874,-0.24078381905164567,9.793374923363327,-0.44966746557150034
1686424786939618600,11.63261865234375,-0.5813169196328148,9.779411279940605,-0.44225978313088415
1686424786949564700,11.642564697265625,-0.8174949253894388,9.763256263953446,-0.4253591364081949
1686424786959510500,11.652510498046874,-0.8521092157181351,9.762921917432546,-0.3601137801680714
1686424786969456600,11.66245654296875,-0.7333036072693765,9.77554291407466,-0.2672555002612993
1686424786979402500,11.672402587890625,-0.5290739240352064,9.79051836488843,-0.19032315855985507
1686424786989348600,11.6823486328125,-0.29133224915843453,9.801084767088293,-0.15570380846355109
1686424786999294500,11.69229443359375,-0.04703099657036364,9.805210907107591,-0.1613161136536859
1686424787009240600,11.702240478515625,0.19506368588414041,9.802868727895618,-0.19000939816925674
1686424787019186400,11.7121865234375,0.4337951389832422,9.794514741048216,-0.22287401355272157
1686424787029132500,11.722132568359376,0.6690167938631028,9.780659234175085,-0.2479938234956935
1686424787039078700,11.73207861328125,0.9015683892834931,9.761735922518373,-0.2570449622943997
1686424787049024500,11.7420244140625,1.1303952650923281,9.738225867593288,-0.24396949988305566
1686424787058970600,11.751970703125,1.3511479208432138,9.710934540563821,-0.2061890736736357
1686424787068916500,11.76191650390625,1.559179553643614,9.68077905627489,-0.147826727546053
1686424787078862600,11.771862548828125,1.750419041597098,9.648855393269658,-0.07753183283139951
1686424787088808400,11.781808349609374,1.9185704994298516,9.617144496232271,-0.00040205983558826115
1686424787098754600,11.791754638671875,2.053552970371395,9.588888708084822,0.0807909533583559
1686424787108700400,11.801700439453125,2.150750923450291,9.566486322140694,0.1643770355942659
1686424787118646500,11.811646484375,2.2109474718682467,9.55088075672984,0.2505674185770564
1686424787128592400,11.82159228515625,2.236778224825859,9.54196445982456,0.34367859553266317
1686424787138538500,11.83153857421875,2.234672776979208,9.538165067541598,0.4472369504889473
1686424787148484600,11.841484619140624,2.213892000887543,9.53725029078424,0.5566751937966793
1686424787158430500,11.851430419921876,2.1868065716937184,9.536695579510926,0.6631084466021507
1686424787168376600,11.86137646484375,2.161990987128019,9.5349174639225,0.7625641885451973
1686424787178322400,11.871322509765625,2.1453746372394265,9.530825810694694,0.8550566673468798
1686424787188268500,11.8812685546875,2.1434460072644055,9.523086156353354,0.9417205861255527
1686424787198214700,11.891214599609375,2.168669295848161,9.509400160828232,1.0191143530599773
1686424787208160500,11.901160400390625,2.230047747527063,9.487831887620686,1.0855038378339261
1686424787218106600,11.911106689453124,2.3247350329592824,9.458556108775735,1.1409325873281806
1686424787228052700,11.921052734375,2.444668841720372,9.423339249444007,1.1809671491399407
1686424787237998600,11.93099853515625,2.580934776601195,9.384823933088779,1.1976138211015612
1686424787247944700,11.94094482421875,2.7249899040535093,9.34505773988962,1.1894140019025652
1686424787257890800,11.950890869140625,2.8709762918293475,9.305234848067164,1.157780992406979
1686424787267836700,11.960836669921875,3.0148090087026356,9.26579598712623,1.1073952785812318
1686424787277782800,11.97078271484375,3.1523142761200664,9.227026403748988,1.0465473535824565
1686424787287728600,11.980728759765626,3.278552007330954,9.189861332958936,0.9838167566422372
1686424787297674800,11.9906748046875,3.3899572033300993,9.155420718696712,0.9256771407540887
1686424787307620600,12.00062060546875,3.4848169227197765,9.124605309194326,0.8763640976611524
1686424787317566700,12.010566650390626,3.562577331009507,9.098087304624915,0.8385808949727565
1686424787327512600,12.0205126953125,3.621977322222292,9.077081925997138,0.8113296807579695
1686424787337458700,12.030458740234375,3.6610593325495717,9.0631475086689,0.7914357705034315
1686424787347404800,12.04040478515625,3.674481708702445,9.059687723603844,0.7685526883702725
1686424787357350700,12.0503505859375,3.643422261311114,9.07713277940154,0.708173549927026
1686424787367296800,12.060296875,3.5469387401118873,9.12420608074367,0.5817759154466912
1686424787377242600,12.07024267578125,3.389222751575708,9.192715553346275,0.421374304555729
1686424787387188700,12.080188720703125,3.2039842576026913,9.26376243547201,0.29596116933440786
1686424787397134600,12.090134521484375,3.0317022758364676,9.323298328024148,0.23506763336192815
1686424787407080700,12.100080810546874,2.895471850660443,9.366907168126106,0.21838320493949576
1686424787417026600,12.110026611328125,2.8015272002890703,9.395623559522628,0.2099701631149277
1686424787426972700,12.11997265625,2.748260305003822,9.41188262040615,0.18407239106940104
1686424787436918500,12.12991845703125,2.7299352515012023,9.418118884447216,0.12992521495143883
1686424787446864600,12.13986474609375,2.741469914211333,9.415530621519684,0.05041957499615382
1686424787456810200,12.149810302734375,2.779431980597973,9.404426459181309,-0.04379327502446249
1686424787466756000,12.159756103515624,2.842685432368517,9.384510044834018,-0.1431819430806674
1686424787476702200,12.1697021484375,2.9272508444979786,9.356591525816917,-0.23623879603315143
1686424787486648000,12.17964794921875,2.9979852996736764,9.331896645021438,-0.31330084679517894
1686424787496594200,12.18959423828125,3.0066902919158336,9.327315746971964,-0.3625030864574015
1686424787506540300,12.199540283203126,2.9714067970886826,9.338590005180238,-0.3631203781055286
1686424787516486100,12.209486083984375,2.931044976083934,9.352921897393465,-0.31976430718824267
1686424787526432300,12.219432373046875,2.901901006925106,9.364022552600503,-0.25389376825448123
1686424787536378000,12.229378173828126,2.8868925306245683,9.37027576777637,-0.1848284884000197
1686424787546324200,12.23932421875,2.887984125253558,9.370909974026679,-0.12648863723203538
1686424787556270000,12.24927001953125,2.909444846433401,9.364674879029392,-0.091542320203688
1686424787566216200,12.25921630859375,2.9521058842912313,9.351417338049412,-0.08023905509663745
1686424787576162000,12.269162109375,3.011469635146856,9.332449018207193,-0.08260814971500076
1686424787586108200,12.279108154296875,3.0787448897793888,9.310451121410727,-0.08504148694230243
1686424787596054000,12.289053955078124,3.1445237683743237,9.288505831584335,-0.07739868057155981
1686424787606000000,12.299000244140625,3.2021248934715985,9.2689488981992,-0.05824042764781043
1686424787615946200,12.3089462890625,3.244689192956686,9.25425226432681,-0.03504333167901495
1686424787625892000,12.31889208984375,3.2663220558330415,9.246692058205603,-0.014618196058028842
1686424787635838200,12.328838134765626,3.2693887499272822,9.24561829149425,0.003513722336165665
1686424787645784000,12.3387841796875,3.2622663507014513,9.248090234565735,0.02812961590095656
1686424787655730200,12.348730224609374,3.2530317816272376,9.251169495880603,0.06384967323117889
1686424787665676000,12.358676025390626,3.246531021431088,9.25306100871563,0.1063334365596529
1686424787675622100,12.3686220703125,3.245197727000713,9.252961639994382,0.1475799405775964
1686424787685568000,12.378568115234375,3.251099059998989,9.250295635655522,0.1810673275019042
1686424787695513300,12.388513427734376,3.266452111953497,9.244355724212527,0.20625762713151052
1686424787705460000,12.3984599609375,3.2944974722206593,9.233954157185554,0.22539611590886488
1686424787715406000,12.408406005859375,3.336644715337455,9.218456143802404,0.23929257584689184
1686424787725351200,12.41835107421875,3.3936315079286694,9.197352565497159,0.2497160807110369
1686424787735297300,12.42829736328125,3.4630703703358767,9.171256585732102,0.2561073526507243
1686424787745243100,12.4382431640625,3.5396015290915965,9.14194105939865,0.2579566703118384
1686424787755189200,12.448189208984376,3.6167756619259714,9.111792004850507,0.2541285999236628
1686424787765135400,12.45813525390625,3.687523268844187,9.083742552930117,0.24128356700101866
1686424787775081200,12.468081298828125,3.7463282167732714,9.060251787227392,0.2174024502738379
1686424787785027300,12.47802734375,3.7888536455526944,9.043331047564745,0.18202839108640326
1686424787794973200,12.48797314453125,3.8127015541300175,9.034111383798718,0.13605617372081613
1686424787804919300,12.497919189453125,3.8177693589136004,9.032610331586003,0.08351793976998888
1686424787814865200,12.507865234375,3.8047923884406685,9.038429831519723,0.027578174296964422
1686424787824811300,12.517811279296875,3.7734102849662303,9.05156345385909,-0.03067735958843259
1686424787834757000,12.527757080078125,3.7245410401180385,9.071390436357259,-0.08969245455330237
1686424787844703200,12.537703125,3.660965224525332,9.096476946818829,-0.14777790170195512
1686424787854649000,12.547649169921876,3.5860973228067157,9.125181063255667,-0.20328801846988498
1686424787864595200,12.55759521484375,3.503526299364865,9.155865539854764,-0.256502672111243
1686424787874541300,12.567541259765624,3.4165073566034434,9.187099467030167,-0.3083833737351
1686424787884487200,12.577487060546876,3.3271400971502065,9.217937672886253,-0.3607203312264755
1686424787894433300,12.587433349609375,3.2372596274778247,9.247663533586262,-0.4138267752530053
1686424787904379100,12.597379150390625,3.1479955361381173,9.275938026434183,-0.46633021188508716
1686424787914325200,12.6073251953125,3.0612977881550787,9.302323929056525,-0.5154100672766566
1686424787924271000,12.61727099609375,2.9797298042759297,9.326285819402337,-0.5585421932449564
1686424787934217200,12.62721728515625,2.9048034503683446,9.347683412218093,-0.5944041455471888
1686424787944163000,12.6371630859375,2.8373797271758314,9.366496249237656,-0.62321504682675
1686424787954109200,12.647109130859375,2.777513872016966,9.382903194159269,-0.6457030652277171
1686424787964055300,12.65705517578125,2.7247300840735433,9.397198846015334,-0.662467372219637
1686424787974001200,12.667001220703124,2.678089621190727,9.409798215347529,-0.6737247523583472
1686424787983947300,12.676947265625,2.6362331777140495,9.42118820888996,-0.6795988320235162
1686424787993893000,12.68689306640625,2.5979393951550125,9.431759287264942,-0.6804500420253723
1686424788003839200,12.696839111328124,2.560959325543046,9.442082528358698,-0.6774681766703724
1686424788013785000,12.70678515625,2.5139196342095733,9.454356903520226,-0.6824176888365298
1686424788023731200,12.716731201171875,2.431451925011724,9.471923539870977,-0.7355792240511626
1686424788033677000,12.726677001953124,2.3322063917532563,9.489184471273422,-0.8285825749844312
1686424788043623200,12.736623046875,2.263283077652752,9.497548394992947,-0.9189696059394628
1686424788053569000,12.746569091796875,2.248678798238933,9.494311897289752,-0.9858372296191752
1686424788063515100,12.75651513671875,2.2751699148014186,9.484007360896468,-1.0235355305030942
1686424788073461200,12.766461181640626,2.318905888414383,9.472534949767589,-1.0315766520090401
1686424788083407000,12.776406982421875,2.3612238119229674,9.464176871266961,-1.0121166761923581
1686424788093353200,12.786353271484375,2.3950924715161324,9.460082879951596,-0.9699074006900191
1686424788103299000,12.796299072265626,2.420644407532364,9.45994434826374,-0.9057068773277104
1686424788113245200,12.8062451171875,2.4426779601641,9.461944582170247,-0.8217733333609998
1686424788123191000,12.81619091796875,2.469023384645581,9.463049913063644,-0.7245615709524601
1686424788133137200,12.82613720703125,2.5061457853376865,9.46043067047596,-0.624403087567538
1686424788143083000,12.8360830078125,2.5564883176088333,9.452468897816539,-0.5344321631327271
1686424788153029000,12.846029052734375,2.6164085333034395,9.439937917545437,-0.46078762919660654
