time,seconds_elapsed,z,y,x
1686424775412221200,0.10522119140625,0.5313761830329895,0.9154776334762573,0.2190285325050354
1686424775422167300,0.115167236328125,0.5675325393676758,1.2868285179138184,0.2231588512659073
1686424775432113200,0.125113037109375,0.5206544995307922,1.7844430208206177,0.2017052173614502
1686424775442059800,0.135059814453125,0.4399174451828003,2.2933411598205566,0.1661863625049591
1686424775452005600,0.145005615234375,0.37081828713417053,2.6528947353363037,0.1583113968372345
1686424775461951700,0.15495166015625,0.3152275085449219,2.789734125137329,0.19607344269752502
1686424775471897600,0.164897705078125,0.24917127192020416,2.7714571952819824,0.26881101727485657
1686424775481843700,0.17484375,0.1747351437807083,2.6716480255126953,0.3337745666503906
1686424775491789600,0.18478955078125,0.10761469602584839,2.5505833625793457,0.3295190930366516
1686424775501735700,0.194735595703125,0.06220557913184166,2.3990187644958496,0.21140585839748383
1686424775511681800,0.204681884765625,0.0423320047557354,2.148958206176758,0.026574235409498215
1686424775521627600,0.214627685546875,0.06040101870894432,1.8367772102355957,-0.16487109661102295
1686424775531573800,0.22457373046875,0.028607401996850967,1.6569366455078125,-0.33851853013038635
1686424775541519600,0.23451953125,-0.09220800548791885,1.6856812238693237,-0.4889385402202606
1686424775551465700,0.2444658203125,-0.23840409517288208,1.8213777542114258,-0.5736523866653442
1686424775561411600,0.25441162109375,-0.3415383994579315,1.9525505304336548,-0.5800266861915588
1686424775571357700,0.264357666015625,-0.410876989364624,1.9845590591430664,-0.5504637360572815
1686424775581303600,0.274303466796875,-0.4542146623134613,1.8753997087478638,-0.5119374394416809
1686424775591249700,0.284249755859375,-0.4528316557407379,1.6339871883392334,-0.4777030348777771
1686424775601195500,0.294195556640625,-0.41008085012435913,1.3284659385681152,-0.4365764558315277
1686424775611141600,0.3041416015625,-0.3483668863773346,1.0192867517471313,-0.40254393219947815
1686424775621087700,0.314087646484375,-0.2941277325153351,0.7583625912666321,-0.3720611333847046
1686424775631033600,0.32403369140625,-0.2724299132823944,0.6434261798858643,-0.3510615825653076
1686424775640979700,0.333979736328125,-0.2818710505962372,0.7414944171905518,-0.3445868194103241
1686424775650925600,0.343925537109375,-0.31220418214797974,0.9965330958366394,-0.33492138981819153
1686424775660871700,0.35387158203125,-0.36951857805252075,1.4138031005859375,-0.3215605914592743
1686424775670817500,0.363817626953125,-0.3874776065349579,1.959560751914978,-0.3388245403766632
1686424775680763600,0.373763671875,-0.35670197010040283,2.497727632522583,-0.3757716119289398
1686424775690708700,0.383708740234375,-0.2838495969772339,2.957090377807617,-0.4317709803581238
1686424775700654800,0.39365478515625,-0.14592675864696503,3.292335033416748,-0.5118638277053833
1686424775710600700,0.4036005859375,0.03073510155081749,3.4136435985565186,-0.6184624433517456
1686424775720546800,0.413546875,0.2185101956129074,3.4308013916015625,-0.7328200936317444
1686424775730492700,0.42349267578125,0.36611855030059814,3.4575414657592773,-0.8192628622055054
1686424775740438800,0.433438720703125,0.5273675322532654,3.60349178314209,-0.9005668759346008
1686424775750384600,0.443384521484375,0.6092477440834045,3.6627941131591797,-1.001960277557373
1686424775760330800,0.453330810546875,0.6125760078430176,3.7220048904418945,-1.09945547580719
1686424775770276900,0.46327685546875,0.5458771586418152,3.9612977504730225,-1.1452484130859375
1686424775780222700,0.47322265625,0.42297491431236267,4.175098896026611,-1.1580642461776733
1686424775790168800,0.4831689453125,0.2780075967311859,4.142688751220703,-1.1361339092254639
1686424775800114700,0.49311474609375,0.1456431746482849,3.8144781589508057,-1.0470061302185059
1686424775810060800,0.503060791015625,0.04169440641999245,3.3064663410186768,-0.8998321890830994
1686424775820006700,0.513006591796875,-0.05620904639363289,2.696882963180542,-0.6591187715530396
1686424775829952800,0.522952880859375,-0.1829637885093689,2.358325242996216,-0.3926351070404053
1686424775839898600,0.532898681640625,-0.3964999318122864,2.000197172164917,-0.07014431804418564
1686424775849844700,0.5428447265625,-0.5962265729904175,1.974373459815979,0.21097151935100555
1686424775859790800,0.552790771484375,-0.6712185144424438,2.3538625240325928,0.41833603382110596
1686424775869736700,0.56273681640625,-0.6422558426856995,2.7797319889068604,0.5434162020683289
1686424775879682800,0.572682861328125,-0.5736983418464661,2.941127061843872,0.641745388507843
1686424775889628700,0.582628662109375,-0.4691828489303589,3.147399663925171,0.7068964838981628
1686424775899574800,0.59257470703125,-0.3063809871673584,3.383073329925537,0.7452916502952576
1686424775909520600,0.602520751953125,-0.16286376118659973,3.179333209991455,0.8108506798744202
1686424775919466800,0.612466796875,-0.0035377461463212967,2.527146339416504,0.9423084259033203
1686424775929412600,0.62241259765625,0.15442152321338654,2.2444937229156494,1.1154792308807373
1686424775939358700,0.632358642578125,0.28749939799308777,2.13409686088562,1.3041707277297974
1686424775949304600,0.6423046875,0.3970693051815033,2.0073399543762207,1.447203516960144
1686424775959250700,0.652250732421875,0.4880989193916321,1.9528212547302246,1.4987783432006836
1686424775969196800,0.66219677734375,0.5504312515258789,2.0442168712615967,1.4392104148864746
1686424775979141600,0.6721416015625,0.5447697043418884,2.1226696968078613,1.3267056941986084
1686424775989087500,0.68208740234375,0.5198257565498352,2.2068614959716797,1.2592709064483643
1686424775999033600,0.69203369140625,0.5231519341468811,2.355761766433716,1.2360646724700928
1686424776008979700,0.701979736328125,0.5709950923919678,2.3779296875,1.2525120973587036
1686424776018925600,0.711925537109375,0.6210644841194153,2.3104562759399414,1.2878742218017578
1686424776028871700,0.72187158203125,0.6231768727302551,2.2206151485443115,1.3166173696517944
1686424776038817500,0.731817626953125,0.5373198986053467,2.091076612472534,1.3646364212036133
1686424776048763600,0.741763671875,0.34916597604751587,1.9261791706085205,1.4708794355392456
1686424776058709500,0.75170947265625,0.12717391550540924,1.6468970775604248,1.6421644687652588
1686424776068655600,0.761655517578125,-0.0946202501654625,1.300933599472046,1.8694071769714355
1686424776078601500,0.7716015625,-0.2671252489089966,0.9140310883522034,2.12864351272583
1686424776088547600,0.781547607421875,-0.4151080548763275,0.5981096029281616,2.3648223876953125
1686424776098493700,0.79149365234375,-0.5614155530929565,0.3519221544265747,2.54706072807312
1686424776108439800,0.801439697265625,-0.6931344270706177,0.23502109944820404,2.6726889610290527
1686424776118385700,0.8113857421875,-0.7770158052444458,0.5161413550376892,2.7336177825927734
1686424776128331800,0.821331787109375,-0.7472046613693237,1.0895329713821411,2.70719575881958
1686424776138278000,0.83127783203125,-0.6282177567481995,1.5894567966461182,2.6209964752197266
1686424776148223700,0.8412236328125,-0.5389928221702576,2.0182721614837646,2.5239224433898926
1686424776158169900,0.851169921875,-0.5197810530662537,2.1573455333709717,2.45458984375
1686424776168115700,0.86111572265625,-0.5813778042793274,2.0000908374786377,2.443535089492798
1686424776178061800,0.871061767578125,-0.750506579875946,1.6878550052642822,2.4962234497070312
1686424776188007700,0.881007568359375,-1.0209156274795532,1.3462649583816528,2.572845935821533
1686424776197953800,0.890953857421875,-1.3050051927566528,1.0679726600646973,2.597777843475342
1686424776207899600,0.900899658203125,-1.5324742794036865,0.8093882203102112,2.504354238510132
1686424776217845800,0.910845703125,-1.6995123624801636,0.5992931723594666,2.318498373031616
1686424776227792000,0.9207919921875,-1.7536981105804443,0.35734817385673523,2.1468396186828613
1686424776237737700,0.93073779296875,-1.7434210777282715,0.1324998140335083,2.0195322036743164
1686424776247683800,0.940683837890625,-1.7235137224197388,-0.06808282434940338,1.9102225303649902
1686424776257628700,0.950628662109375,-1.7271405458450317,-0.2855291962623596,1.8396445512771606
1686424776267574800,0.96057470703125,-1.77645742893219,-0.5482244491577148,1.822083592414856
1686424776277520600,0.970520751953125,-1.9041749238967896,-0.7898693084716797,1.8616383075714111
1686424776287466800,0.980466796875,-2.0628321170806885,-1.0074942111968994,1.9740087985992432
1686424776297412600,0.99041259765625,-2.1975278854370117,-1.1617411375045776,2.1489152908325195
1686424776307358700,1.000358642578125,-2.245981454849243,-1.2696455717086792,2.395643711090088
1686424776317304600,1.0103046875,-2.238774299621582,-1.3510514497756958,2.7319140434265137
1686424776327250700,1.020250732421875,-2.2418136596679688,-1.4581326246261597,3.15132737159729
1686424776337196500,1.030196533203125,-2.3053596019744873,-1.6041358709335327,3.59126353263855
1686424776347142700,1.040142578125,-2.420435905456543,-1.8298944234848022,3.9570183753967285
1686424776357088500,1.050088623046875,-2.5596585273742676,-2.0134243965148926,4.097353935241699
1686424776367034600,1.06003466796875,-2.806565284729004,-2.1055045127868652,4.018794536590576
1686424776376980700,1.069980712890625,-3.179953098297119,-2.1941659450531006,3.7750606536865234
1686424776386926600,1.079926513671875,-3.6335363388061523,-2.2673237323760986,3.5037100315093994
1686424776396872700,1.089872802734375,-4.032214164733887,-2.3631980419158936,3.3169233798980713
1686424776406818600,1.099818603515625,-4.321742534637451,-2.2770838737487793,3.231494665145874
1686424776416764700,1.1097646484375,-4.451821327209473,-2.073720932006836,3.2455294132232666
1686424776426710500,1.11971044921875,-4.388486862182617,-1.8158870935440063,3.3033158779144287
1686424776436656600,1.12965673828125,-4.153462886810303,-1.5416836738586426,3.350653648376465
1686424776446602200,1.139602294921875,-3.804189682006836,-1.2089494466781616,3.36411714553833
1686424776456548400,1.14954833984375,-3.367173671722412,-0.9273733496665955,3.3357348442077637
1686424776466494200,1.159494140625,-2.8992745876312256,-0.7636323571205139,3.2943062782287598
1686424776476440300,1.1694404296875,-2.46201229095459,-0.8178615570068359,3.2542550563812256
1686424776486386400,1.179386474609375,-2.0361545085906982,-1.1460366249084473,3.1669652462005615
1686424776496332300,1.189332275390625,-1.5930116176605225,-1.5426678657531738,2.991471529006958
1686424776506278400,1.1992783203125,-1.1231733560562134,-1.8167660236358643,2.719834804534912
1686424776516224500,1.209224609375,-0.6425254940986633,-1.922588586807251,2.3620026111602783
1686424776526170400,1.21917041015625,-0.17360647022724152,-1.8772976398468018,1.954176425933838
1686424776536116500,1.229116455078125,0.24689733982086182,-1.6987581253051758,1.5449435710906982
1686424776546062600,1.2390625,0.5988289713859558,-1.4679206609725952,1.1692371368408203
1686424776556007400,1.24900732421875,0.9304834604263306,-1.2710782289505005,0.8639438152313232
1686424776565953500,1.25895361328125,1.2420620918273926,-1.0986827611923218,0.6419645547866821
1686424776575899400,1.2688994140625,1.5323965549468994,-1.0056132078170776,0.4975738525390625
1686424776585845500,1.278845458984375,1.8103834390640259,-1.00849187374115,0.40883708000183105
1686424776595791400,1.288791259765625,2.052692413330078,-1.0196497440338135,0.37583357095718384
1686424776605737500,1.298737548828125,2.26656436920166,-0.9808453917503357,0.39189112186431885
1686424776615683300,1.308683349609375,2.4628145694732666,-0.8174337148666382,0.442889004945755
1686424776625629400,1.31862939453125,2.596421957015991,-0.5107243657112122,0.5065276026725769
1686424776635575600,1.328575439453125,2.6395716667175293,-0.19391418993473053,0.5137597918510437
1686424776645521400,1.338521484375,2.536855936050415,0.060220614075660706,0.42055633664131165
1686424776655467500,1.348467529296875,2.336108684539795,0.27450716495513916,0.3281570374965668
1686424776665413400,1.358413330078125,2.0482890605926514,0.4383525550365448,0.24617138504981995
1686424776675359500,1.368359375,1.7712050676345825,0.5558585524559021,0.23999285697937012
1686424776685305300,1.378305419921875,1.6211167573928833,0.729511022567749,0.3158540427684784
1686424776695251500,1.38825146484375,1.539136528968811,1.0333584547042847,0.40092733502388
1686424776705197300,1.398197265625,1.4639296531677246,1.4610249996185303,0.2966906726360321
1686424776715143400,1.408143310546875,1.3592890501022339,1.7933063507080078,0.03392074257135391
1686424776725089500,1.418089599609375,0.7762809991836548,1.8869441747665405,-0.21564355492591858
1686424776735035400,1.428035400390625,-0.39054620265960693,1.7477850914001465,-0.2658880949020386
1686424776744981500,1.4379814453125,-1.1241190433502197,1.6576179265975952,-0.1376350373029709
1686424776754927400,1.44792724609375,-0.896432638168335,1.8142465353012085,-0.13444171845912933
1686424776764873500,1.45787353515625,-0.4577482044696808,2.0728282928466797,-0.12190062552690506
1686424776774819300,1.4678193359375,-0.11511104553937912,2.0107779502868652,0.06728064268827438
1686424776784765400,1.477765380859375,0.1500665694475174,1.71589195728302,0.2751763164997101
1686424776794711300,1.487711181640625,0.3610210418701172,1.372280478477478,0.4147660732269287
1686424776804657400,1.497657470703125,0.4784429967403412,1.0535744428634644,0.4535970985889435
1686424776814603300,1.507603271484375,0.4947364032268524,0.6656520962715149,0.39553743600845337
1686424776824548600,1.517548583984375,0.4654024839401245,0.2901546061038971,0.2212412804365158
1686424776834494500,1.527494384765625,0.44083911180496216,-0.0673927590250969,-0.018513798713684082
1686424776844440600,1.537440673828125,0.4081466794013977,-0.2642299234867096,-0.24942636489868164
1686424776854386400,1.547386474609375,0.3455899655818939,-0.34909307956695557,-0.46539074182510376
1686424776864332500,1.55733251953125,0.27366384863853455,-0.3333551287651062,-0.6995819211006165
1686424776874278700,1.567278564453125,0.22510544955730438,-0.21904072165489197,-0.9158923029899597
1686424776884224500,1.577224609375,0.22182708978652954,-0.019922029227018356,-1.072800636291504
1686424776894170600,1.587170654296875,0.2533615231513977,0.31535613536834717,-1.1330546140670776
1686424776904116500,1.597116455078125,0.3495498299598694,0.6574966907501221,-1.1012756824493408
1686424776914062600,1.6070625,0.44722530245780945,0.8167915344238281,-1.0101059675216675
1686424776924008400,1.617008544921875,0.42050448060035706,0.7929794192314148,-0.9308815002441406
1686424776933954600,1.62695458984375,0.3220692574977875,0.6462490558624268,-0.9194586277008057
1686424776943900400,1.636900390625,0.22638586163520813,0.43109551072120667,-0.9769607782363892
1686424776953846500,1.646846435546875,0.24525445699691772,0.13755197823047638,-1.0543545484542847
1686424776963792400,1.65679248046875,0.3500642478466034,-0.17521284520626068,-1.1678627729415894
1686424776973738500,1.666738525390625,0.47298380732536316,-0.3914612829685211,-1.2843785285949707
1686424776983684600,1.6766845703125,0.6165859699249268,-0.4086490571498871,-1.4099069833755493
1686424776993630500,1.68663037109375,0.7726783752441406,-0.07132840156555176,-1.5647337436676025
1686424777003576600,1.69657666015625,0.9920030236244202,0.5474048256874084,-1.8537240028381348
1686424777013522400,1.7065224609375,1.3917258977890015,1.2350444793701172,-2.413414716720581
1686424777023468500,1.716468505859375,1.8905400037765503,1.5732473134994507,-2.9085144996643066
1686424777033414400,1.726414306640625,1.9514644145965576,1.244605541229248,-2.933365821838379
1686424777043360500,1.736360595703125,1.4478737115859985,0.4972687065601349,-2.956815004348755
1686424777053306400,1.746306396484375,0.826857328414917,-0.4362920820713043,-3.1633005142211914
1686424777063252500,1.75625244140625,0.3883439302444458,-1.2223035097122192,-3.311741352081299
1686424777073198300,1.7661982421875,0.16204972565174103,-1.5053534507751465,-3.229919195175171
1686424777083144400,1.77614453125,0.17804519832134247,-1.0519441366195679,-2.658607006072998
1686424777093090600,1.786090576171875,0.23293940722942352,-0.25958719849586487,-1.6815125942230225
1686424777103035400,1.796035400390625,0.31159186363220215,0.8146840333938599,-0.5810721516609192
1686424777112981200,1.805981201171875,0.4809173047542572,2.051666736602783,0.38466551899909973
1686424777122927400,1.81592724609375,0.6995663046836853,2.9468393325805664,1.1901777982711792
1686424777132873500,1.82587353515625,0.8161746859550476,3.3391499519348145,1.8301608562469482
1686424777142819300,1.8358193359375,0.790294349193573,3.3503737449645996,2.3034889698028564
1686424777152765400,1.845765380859375,0.7073813080787659,3.066765308380127,2.45881986618042
1686424777162711300,1.855711181640625,0.7582252621650696,2.59212327003479,2.1556003093719482
1686424777172657400,1.865657470703125,0.9773919582366943,2.231290817260742,1.5945258140563965
1686424777182603300,1.875603271484375,1.3174169063568115,2.1615846157073975,0.799129843711853
1686424777192549400,1.88554931640625,1.6046696901321411,2.1102168560028076,0.011001565493643284
1686424777202495200,1.8954951171875,1.7432934045791626,1.7697038650512695,-0.33855992555618286
1686424777212441300,1.90544140625,1.6359072923660278,1.374610185623169,-0.23649227619171143
1686424777222387500,1.915387451171875,1.4384472370147705,1.0430539846420288,-0.1485091596841812
1686424777232333300,1.925333251953125,1.055195689201355,0.6701322793960571,-0.29810264706611633
1686424777242279400,1.935279541015625,0.42323029041290283,0.40450990200042725,-0.7295331954956055
1686424777252225300,1.945225341796875,-0.12998263537883759,0.08116639405488968,-1.2314094305038452
1686424777262171400,1.95517138671875,-0.4448614716529846,-0.18759210407733917,-1.5822672843933105
1686424777272117500,1.965117431640625,-0.7695541381835938,-0.35336628556251526,-1.7005926370620728
1686424777282063400,1.9750634765625,-1.2183878421783447,-0.24214334785938263,-1.5460281372070312
1686424777292009500,1.985009521484375,-1.6690319776535034,0.06172489747405052,-1.0934007167816162
1686424777301955600,1.99495556640625,-1.9765466451644897,0.4428834319114685,-0.41070395708084106
1686424777311901400,2.0049013671875,-1.8922094106674194,1.0513070821762085,0.38213083148002625
1686424777321847600,2.01484765625,-1.2743501663208008,1.4915273189544678,1.174548625946045
1686424777331793700,2.024793701171875,-0.2379501760005951,1.7975423336029053,1.7610437870025635
1686424777341739500,2.034739501953125,0.771654486656189,1.9806349277496338,1.9993418455123901
1686424777351685600,2.044685546875,1.3532220125198364,1.9647785425186157,1.88759183883667
1686424777361631500,2.054631591796875,1.408023476600647,1.809024691581726,1.5187368392944336
1686424777371577600,2.06457763671875,0.9922056198120117,1.5147722959518433,0.9810816049575806
1686424777381523500,2.0745234375,0.3069727420806885,1.2097551822662354,0.37501779198646545
1686424777391469600,2.084469482421875,-0.45186397433280945,1.0467544794082642,-0.19104357063770294
1686424777401415400,2.09441552734375,-1.1596813201904297,1.0206525325775146,-0.5626463890075684
1686424777411361500,2.104361572265625,-1.7497071027755737,0.9582483172416687,-0.7622926235198975
1686424777421307400,2.114307373046875,-2.236935615539551,0.7283618450164795,-0.8481553196907043
1686424777431252500,2.12425244140625,-2.5730855464935303,0.16808080673217773,-0.8641431331634521
1686424777441198300,2.1341982421875,-2.748774528503418,-0.7440963387489319,-0.8553328514099121
1686424777451144400,2.14414453125,-2.868832588195801,-1.4203271865844727,-0.806522011756897
1686424777461090300,2.15409033203125,-2.9754583835601807,-1.9356839656829834,-0.640116810798645
1686424777471036400,2.164036376953125,-3.1226229667663574,-2.2171249389648438,-0.3247135877609253
1686424777480982500,2.173982421875,-3.321326971054077,-2.1901657581329346,-0.012290969491004944
1686424777490928400,2.183928466796875,-3.5297467708587646,-1.9735668897628784,0.22187456488609314
1686424777500874500,2.19387451171875,-3.6238296031951904,-1.6962792873382568,0.369158536195755
1686424777510820400,2.2038203125,-3.6103367805480957,-1.5200514793395996,0.45884549617767334
1686424777520766500,2.213766357421875,-3.5796775817871094,-1.2322121858596802,0.5141188502311707
1686424777530712300,2.22371240234375,-3.8003900051116943,-0.6662526726722717,0.48437589406967163
1686424777540658400,2.233658447265625,-4.083494186401367,0.126905620098114,0.3855648934841156
1686424777550604300,2.243604248046875,-4.219193935394287,0.9892870783805847,0.3299020826816559
1686424777560550400,2.25355029296875,-4.324554920196533,1.639830470085144,0.36600467562675476
1686424777570496300,2.263496337890625,-4.318166732788086,1.8156003952026367,0.3612993061542511
1686424777580442400,2.2734423828125,-4.058412075042725,1.6015756130218506,0.3820626437664032
1686424777590388500,2.283388427734375,-3.792954206466675,1.0384376049041748,0.4155554473400116
1686424777600334300,2.293334228515625,-3.5810441970825195,0.5004357099533081,0.45288392901420593
1686424777610280400,2.303280517578125,-3.368652820587158,0.3474142253398895,0.4904271960258484
1686424777620226300,2.313226318359375,-3.227473020553589,0.40349453687667847,0.5178516507148743
1686424777630172400,2.32317236328125,-3.2035577297210693,0.6148515939712524,0.5856847763061523
1686424777640118300,2.3331181640625,-3.309452772140503,0.8672170042991638,0.6419115662574768
1686424777650064400,2.343064453125,-3.5537168979644775,1.0387377738952637,0.7377994656562805
1686424777660010200,2.35301025390625,-3.898932695388794,0.957978367805481,0.8342298269271851
1686424777669956400,2.362956298828125,-4.248990058898926,0.7824031710624695,0.7585279941558838
1686424777679902200,2.372902099609375,-4.552957057952881,0.5777831673622131,0.5442804098129272
1686424777689848300,2.382848388671875,-4.799870491027832,0.49560728669166565,0.24469414353370667
1686424777699794400,2.39279443359375,-4.609106063842773,0.6099495887756348,0.0824090987443924
1686424777709740300,2.402740234375,-4.387949466705322,0.9147699475288391,-0.23047137260437012
1686424777719686400,2.412686279296875,-3.946040391921997,1.3632608652114868,-0.25821325182914734
1686424777729632300,2.42263232421875,-3.2614877223968506,2.229053020477295,-0.010617759078741074
1686424777739578400,2.432578369140625,-2.451326370239258,3.1188762187957764,0.21866044402122498
1686424777749524500,2.4425244140625,-1.792881965637207,3.075814723968506,0.27001655101776123
1686424777759470300,2.45247021484375,-1.1784518957138062,1.7382633686065674,0.23083266615867615
1686424777769416400,2.46241650390625,-0.7437769174575806,0.6488988995552063,0.31400060653686523
1686424777779362600,2.472362548828125,-0.6118223071098328,0.43076252937316895,0.44814351201057434
1686424777789308700,2.48230859375,-0.5659980773925781,0.6077972054481506,0.603276789188385
1686424777799254500,2.492254638671875,-0.4841000437736511,0.9557014107704163,0.7979602813720703
1686424777809199400,2.502199462890625,-0.34918510913848877,1.2521394491195679,0.9878156781196594
1686424777819145500,2.5121455078125,-0.11729513108730316,1.8294209241867065,1.213481068611145
1686424777829091600,2.522091552734375,0.261958509683609,2.5072619915008545,1.359986662864685
1686424777839037400,2.532037353515625,0.5697248578071594,3.0604050159454346,1.2407199144363403
1686424777848983600,2.541983642578125,0.6146901845932007,3.4781546592712402,0.7549543976783752
1686424777858929400,2.551929443359375,0.5435411334037781,3.6374008655548096,0.1629461944103241
1686424777868875500,2.56187548828125,0.3786267340183258,3.5468289852142334,-0.21147364377975464
1686424777878821400,2.5718212890625,0.11840394884347916,3.045327663421631,-0.2474321722984314
1686424777888767500,2.581767578125,-0.2285844087600708,2.16367244720459,-0.0033593359403312206
1686424777898713300,2.59171337890625,-0.41284215450286865,1.385228157043457,0.4698484241962433
1686424777908659500,2.601659423828125,-0.3714745342731476,0.5357950925827026,0.7086790800094604
1686424777918605300,2.611605224609375,-0.26515424251556396,-0.16719497740268707,0.6758968830108643
1686424777928551400,2.621551513671875,-0.14752094447612762,-0.6718910932540894,0.43858960270881653
1686424777938497500,2.63149755859375,-0.03614887595176697,-1.06764817237854,0.13065041601657867
1686424777948443400,2.641443359375,0.07932602614164352,-1.4719984531402588,-0.18983981013298035
1686424777958389500,2.651389404296875,0.17424827814102173,-1.860586404800415,-0.4482804238796234
1686424777968335400,2.66133544921875,0.225114107131958,-2.2076416015625,-0.6068934202194214
1686424777978281500,2.671281494140625,0.21681275963783264,-2.427086353302002,-0.6823682188987732
1686424777988227300,2.681227294921875,0.1701885610818863,-2.416940450668335,-0.7119501829147339
1686424777998173400,2.69117333984375,0.07523328810930252,-2.2711963653564453,-0.7455944418907166
1686424778008119300,2.701119384765625,0.053049925714731216,-2.092174768447876,-0.7936103343963623
1686424778018065400,2.7110654296875,0.216912642121315,-2.1964504718780518,-0.9221994280815125
1686424778028011300,2.72101123046875,0.5746573805809021,-2.517845630645752,-1.1202186346054077
1686424778037957400,2.730957275390625,0.8224325776100159,-2.543888807296753,-1.174667477607727
1686424778047903500,2.740903564453125,0.9086426496505737,-2.2071290016174316,-1.0738195180892944
1686424778057849300,2.750849365234375,0.9027783274650574,-1.7099969387054443,-0.8891936540603638
1686424778067795500,2.76079541015625,0.948665976524353,-1.3270127773284912,-0.7319809794425964
1686424778077741300,2.7707412109375,1.0685577392578125,-1.1230077743530273,-0.642272412776947
1686424778087687400,2.7806875,1.2128111124038696,-1.1068452596664429,-0.6016936898231506
1686424778097633300,2.79063330078125,1.3393158912658691,-1.172059178352356,-0.5582274198532104
1686424778107579400,2.800579345703125,1.4047967195510864,-1.2392141819000244,-0.5033279657363892
1686424778117525200,2.810525146484375,1.281846046447754,-1.1780794858932495,-0.387937992811203
1686424778127471400,2.820471435546875,1.0884819030761719,-1.0657776594161987,-0.28858545422554016
1686424778137417200,2.830417236328125,0.958217978477478,-0.9703134894371033,-0.283140629529953
1686424778147363300,2.84036328125,0.8859878182411194,-0.9293031096458435,-0.3597274422645569
1686424778157309400,2.850309326171875,0.735450804233551,-0.8293932676315308,-0.4109637439250946
1686424778167255300,2.86025537109375,0.586066722869873,-0.7022372484207153,-0.4471112787723541
1686424778177201400,2.870201416015625,0.44361743330955505,-0.5810730457305908,-0.4977686107158661
1686424778187147300,2.880147216796875,0.25819164514541626,-0.45459964871406555,-0.5195027589797974
1686424778197093400,2.89009326171875,0.09286927431821823,-0.2672358751296997,-0.5271292328834534
1686424778207039200,2.900039306640625,-0.03275536745786667,-0.09267879277467728,-0.537661612033844
1686424778216985300,2.9099853515625,-0.06285707652568817,0.07816512137651443,-0.5487233400344849
1686424778226931500,2.919931396484375,-0.034521691501140594,0.21784211695194244,-0.5663386583328247
1686424778236877600,2.929877685546875,-0.007839749567210674,0.29123884439468384,-0.6016470789909363
1686424778246822400,2.939822509765625,-0.012205185368657112,0.25019311904907227,-0.665029764175415
1686424778256768500,2.9497685546875,-0.13747921586036682,0.09705204516649246,-0.7880235910415649
1686424778266714400,2.95971435546875,-0.5376498103141785,0.04475168511271477,-1.0276626348495483
1686424778276660500,2.969660400390625,-1.020176649093628,0.33692654967308044,-1.4947843551635742
1686424778286606600,2.979606689453125,-1.3114250898361206,0.8151059150695801,-2.080120086669922
1686424778296552400,2.989552490234375,-1.4674437046051025,1.176373839378357,-2.627171516418457
1686424778306498600,2.99949853515625,-1.60292387008667,1.125070333480835,-2.9837615489959717
1686424778316444400,3.0094443359375,-1.7312368154525757,0.6057260632514954,-3.0931835174560547
1686424778326390500,3.019390625,-1.768984079360962,-0.1807485818862915,-3.016570568084717
1686424778336336400,3.02933642578125,-1.6221613883972168,-0.8379653096199036,-2.815065383911133
1686424778346282500,3.039282470703125,-1.3713722229003906,-0.8958556652069092,-2.417707920074463
1686424778356228400,3.049228271484375,-1.0264476537704468,0.17511005699634552,-1.5859615802764893
1686424778366174500,3.059174560546875,-0.7154347896575928,1.3689557313919067,-0.6348897814750671
1686424778376120300,3.069120361328125,-0.3879972994327545,1.6928606033325195,-0.06244705989956856
1686424778386066400,3.07906640625,-0.15954822301864624,1.2192505598068237,0.031696852296590805
1686424778396012500,3.089012451171875,0.04051988944411278,0.5002071857452393,-0.0628347098827362
1686424778405958400,3.09895849609375,0.15832510590553284,-0.03094991110265255,-0.11862970888614655
1686424778415904500,3.108904541015625,0.15323874354362488,-0.19118699431419373,-0.10002060234546661
1686424778425850400,3.118850341796875,0.09205389022827148,-0.0927562564611435,-0.019247891381382942
1686424778435796500,3.12879638671875,0.027963586151599884,0.03815275803208351,0.08834274858236313
1686424778445742600,3.13874267578125,-0.030644213780760765,0.0614248625934124,0.16919071972370148
1686424778455688700,3.148688720703125,-0.05569923296570778,-0.027897827327251434,0.21295791864395142
1686424778465634600,3.158634521484375,-0.07606759667396545,-0.18261738121509552,0.25962963700294495
1686424778475580700,3.16858056640625,-0.12065530568361282,-0.3371283710002899,0.3338306248188019
1686424778485526500,3.178526611328125,-0.1469055563211441,-0.4278438985347748,0.4051032066345215
1686424778495472600,3.18847265625,-0.09808129072189331,-0.45709553360939026,0.48276472091674805
1686424778505418500,3.19841845703125,-0.004142691381275654,-0.5062499642372131,0.5759809613227844
1686424778515364600,3.208364501953125,0.11861597746610641,-0.5512853264808655,0.6732339859008789
1686424778525310500,3.218310546875,0.2486855834722519,-0.5886231064796448,0.779914379119873
1686424778535256600,3.228256591796875,0.35633692145347595,-0.5838581919670105,0.8876439929008484
1686424778545202400,3.238202392578125,0.4142787456512451,-0.5015783905982971,0.9990759491920471
1686424778555148500,3.2481484375,0.4457293450832367,-0.3466934561729431,1.1029586791992188
1686424778565094700,3.2580947265625,0.4659034013748169,-0.1041809692978859,1.1694873571395874
1686424778575040500,3.26804052734375,0.5002440810203552,0.19790299236774445,1.1911790370941162
1686424778584986600,3.277986572265625,0.5260145664215088,0.5663052201271057,1.162505030632019
1686424778594932500,3.287932373046875,0.540492594242096,1.0040010213851929,1.0838611125946045
1686424778604878600,3.297878662109375,0.5465126037597656,1.4375462532043457,0.9807230830192566
1686424778614824400,3.307824462890625,0.532130241394043,1.809531569480896,0.88348788022995
1686424778624770600,3.3177705078125,0.500943660736084,2.0491273403167725,0.813670814037323
1686424778634716400,3.32771630859375,0.4472612142562866,2.1136178970336914,0.7817533612251282
1686424778644662500,3.33766259765625,0.38931167125701904,2.048715353012085,0.8012034296989441
1686424778654608400,3.3476083984375,0.37541529536247253,1.9076296091079712,0.8730477690696716
1686424778664554500,3.357554443359375,0.4014282524585724,1.785260558128357,0.9987890124320984
1686424778674500600,3.36750048828125,0.38448524475097656,1.6657211780548096,1.1753504276275635
1686424778684446500,3.377446533203125,0.2772238254547119,1.5626691579818726,1.3166861534118652
1686424778694392600,3.387392578125,0.11329483240842819,1.4860806465148926,1.3886927366256714
1686424778704338400,3.39733837890625,-0.11037853360176086,1.3792206048965454,1.4320363998413086
1686424778714284500,3.407284423828125,-0.3097774088382721,1.2346596717834473,1.4404301643371582
1686424778724230400,3.41723046875,-0.37722018361091614,1.089455008506775,1.4570616483688354
1686424778734176500,3.427176513671875,-0.43573540449142456,0.9822076559066772,1.4738187789916992
1686424778744122600,3.43712255859375,-0.4478504955768585,0.9755361080169678,1.5249764919281006
1686424778754068700,3.44706884765625,-0.46683138608932495,0.931955873966217,1.574187994003296
1686424778764013600,3.457013671875,-0.4378838837146759,0.7396137714385986,1.592124581336975
1686424778773960700,3.466960693359375,-0.3901142179965973,0.406727135181427,1.457637906074524
1686424778783905500,3.476905517578125,-0.44663718342781067,0.2992025315761566,0.9663306474685669
1686424778793851600,3.4868515625,-0.5398438572883606,0.35194671154022217,0.29036977887153625
1686424778803797500,3.496797607421875,-0.6576187610626221,0.19965548813343048,-0.2921738028526306
1686424778813743600,3.50674365234375,-0.8905649185180664,-0.22313065826892853,-0.6600301265716553
1686424778823689700,3.516689697265625,-1.1952975988388062,-0.6894038319587708,-0.8503997921943665
1686424778833635600,3.526635498046875,-1.4812670946121216,-1.1284325122833252,-0.9874087572097778
1686424778843581700,3.536581787109375,-1.7479370832443237,-1.635327935218811,-1.116788625717163
1686424778853527600,3.546527587890625,-1.9789056777954102,-2.2977335453033447,-1.2780097723007202
1686424778863473700,3.5564736328125,-2.155271291732788,-2.827805995941162,-1.442323088645935
1686424778873419500,3.56641943359375,-2.1017661094665527,-2.928727149963379,-1.6099799871444702
1686424778883365600,3.57636572265625,-1.9513788223266602,-2.61804461479187,-1.723031759262085
1686424778893311500,3.5863115234375,-1.6450847387313843,-1.9879363775253296,-1.7512538433074951
1686424778903257600,3.596257568359375,-1.2406755685806274,-1.154010534286499,-1.6872400045394897
1686424778913203700,3.60620361328125,-0.9242459535598755,-0.4126029908657074,-1.496453046798706
1686424778923149600,3.616149658203125,-0.6419613361358643,0.02731640636920929,-1.2591177225112915
1686424778933095700,3.626095703125,-0.5659096837043762,0.05246064066886902,-1.0149726867675781
1686424778943041500,3.63604150390625,-0.45037713646888733,0.045601729303598404,-0.7778370976448059
1686424778952987600,3.645987548828125,-0.3349437415599823,-0.11534001678228378,-0.5248623490333557
1686424778962933500,3.65593359375,-0.22350965440273285,-0.43279197812080383,-0.26285478472709656
1686424778972879600,3.665879638671875,-0.06059688702225685,-0.6338526606559753,-0.05557217448949814
1686424778982825500,3.675825439453125,0.07172414660453796,-0.6442830562591553,0.04506645351648331
1686424778992771600,3.685771484375,0.08958330750465393,-0.7909148931503296,0.05988481640815735
1686424779002717400,3.695717529296875,0.08656622469425201,-0.8822009563446045,0.01703980565071106
1686424779012663600,3.70566357421875,0.05084284394979477,-0.9081428647041321,-0.01478763297200203
1686424779022609700,3.715609619140625,0.04662802442908287,-0.8846415877342224,-0.037181515246629715
1686424779032555500,3.725555419921875,0.08904232084751129,-0.865172266960144,-0.04232567921280861
1686424779042501600,3.735501708984375,0.1879316121339798,-0.8653993010520935,-0.025942102074623108
1686424779052447500,3.745447509765625,0.33571869134902954,-0.9027203321456909,0.004941509570926428
1686424779062393600,3.7553935546875,0.5322446227073669,-1.0107488632202148,0.02987702004611492
1686424779072339500,3.76533935546875,0.7334312200546265,-1.147774338722229,0.07024841010570526
1686424779082285600,3.77528564453125,0.8873769640922546,-1.224165916442871,0.1750912219285965
1686424779092231400,3.7852314453125,0.947504997253418,-1.156181812286377,0.3610304594039917
1686424779102177500,3.795177490234375,0.9227068424224854,-0.9724254608154297,0.571122407913208
1686424779112123400,3.805123291015625,0.8231224417686462,-0.7065138816833496,0.7420376539230347
1686424779122069500,3.815069580078125,0.6829371452331543,-0.3794350326061249,0.8619943857192993
1686424779132015600,3.825015625,0.5404465794563293,-0.07420215755701065,0.9134091138839722
1686424779141961500,3.83496142578125,0.4142005145549774,0.23620259761810303,0.9182497262954712
1686424779151907600,3.844907470703125,0.28937041759490967,0.5264655947685242,0.8635262846946716
1686424779161853400,3.854853515625,0.16104444861412048,0.7464779019355774,0.7389052510261536
1686424779171799600,3.864799560546875,0.045837435871362686,0.941135585308075,0.5811942219734192
1686424779181745400,3.874745361328125,-0.04364289343357086,1.149789810180664,0.4152679741382599
1686424779191691500,3.88469140625,-0.09787310659885406,1.397935390472412,0.25728312134742737
1686424779201637600,3.8946376953125,-0.10796083509922028,1.6777443885803223,0.13906638324260712
1686424779211583500,3.90458349609375,-0.10920053720474243,1.9821422100067139,0.05205583944916725
1686424779221529600,3.914529541015625,-0.1261877715587616,2.28218150138855,0.016553359106183052
1686424779231475700,3.924475830078125,-0.12993697822093964,2.504237413406372,0.049486540257930756
1686424779241421800,3.934421875,-0.10179521888494492,2.496295928955078,0.1284060925245285
1686424779251367700,3.94436767578125,-0.04620332643389702,2.15909743309021,0.23352985084056854
1686424779261313800,3.954313720703125,-0.00188462994992733,1.5537917613983154,0.33328700065612793
1686424779271259600,3.964259765625,0.015177976340055466,0.8594262003898621,0.38782641291618347
1686424779281205800,3.974205810546875,0.026211373507976532,0.25799423456192017,0.35155415534973145
1686424779291151600,3.984151611328125,0.06974393874406815,-0.06501684337854385,0.22523748874664307
1686424779301097700,3.99409765625,0.07592637836933136,-0.13938091695308685,0.06643354892730713
1686424779311043600,4.004043701171875,0.02888457104563713,-0.058634135872125626,-0.12874792516231537
1686424779320989700,4.01398974609375,-0.019222065806388855,0.025175318121910095,-0.375177800655365
1686424779330935800,4.023935791015625,-0.06090240180492401,0.009514333680272102,-0.6661742329597473
1686424779340881700,4.033881591796875,-0.01596623659133911,-0.13574357330799103,-0.9573946595191956
1686424779350827800,4.043827880859375,-0.06896447390317917,-0.37967318296432495,-1.2359943389892578
1686424779360773600,4.053773681640625,-0.11495780944824219,-0.6681644320487976,-1.4731197357177734
1686424779370719700,4.0637197265625,-0.21057060360908508,-0.9146019220352173,-1.6730291843414307
1686424779380665600,4.07366552734375,-0.3500876724720001,-1.0381152629852295,-1.7367206811904907
1686424779390611700,4.08361181640625,-0.500766932964325,-0.9815750122070312,-1.6180329322814941
1686424779400557600,4.0935576171875,-0.5504558682441711,-0.93401700258255,-1.39801824092865
1686424779410503700,4.103503662109375,-0.5751492381095886,-0.8467830419540405,-1.0939754247665405
1686424779420449500,4.113449462890625,-0.7015509009361267,-0.6780374050140381,-0.7149832844734192
1686424779430395600,4.123395751953125,-0.9101325869560242,-0.4570333659648895,-0.30703893303871155
1686424779440341800,4.133341796875,-1.173393726348877,0.024642961099743843,0.044283151626586914
1686424779450287000,4.143287109375,-1.2520169019699097,0.9385823011398315,0.13969649374485016
1686424779460232000,4.15323193359375,-0.9801176190376282,2.181962013244629,-0.15143229067325592
1686424779470178000,4.163177978515625,-0.4156076908111572,3.183659076690674,-0.6223382949829102
1686424779480124000,4.1731240234375,0.08255766332149506,3.5549633502960205,-0.8705811500549316
1686424779490070000,4.183070068359375,0.19013872742652893,2.554658889770508,-0.5066010355949402
1686424779500015900,4.193015869140625,0.16025398671627045,1.0636321306228638,-0.37387892603874207
1686424779509962000,4.2029619140625,0.16651907563209534,-0.20748603343963623,-0.41812044382095337
1686424779519907800,4.212907958984375,0.24026957154273987,-0.8959542512893677,-0.5651693344116211
1686424779529854000,4.22285400390625,0.2879207134246826,-1.0363504886627197,-0.6558172106742859
1686424779539800000,4.232800048828125,0.2713698148727417,-0.836014986038208,-0.6010770201683044
1686424779549746000,4.242745849609375,0.24175333976745605,-0.5511675477027893,-0.44488558173179626
1686424779559692000,4.252692138671875,0.21030327677726746,-0.4125446379184723,-0.25317180156707764
1686424779569638000,4.262637939453125,0.1663305014371872,-0.4513902962207794,-0.08290472626686096
1686424779579584000,4.272583984375,0.12435267865657806,-0.5167874693870544,0.05744386091828346
1686424779589530000,4.282530029296875,0.10745253413915634,-0.48022353649139404,0.1818302720785141
1686424779599476200,4.292476318359375,0.11551875621080399,-0.3259265422821045,0.2962777614593506
1686424779609422000,4.302422119140625,0.14270110428333282,-0.120371513068676,0.3914167881011963
1686424779619368200,4.3123681640625,0.17577926814556122,0.05205759406089783,0.44331568479537964
1686424779629314000,4.32231396484375,0.21480496227741241,0.1524028480052948,0.4493032693862915
1686424779639260200,4.33226025390625,0.2561884820461273,0.1704012006521225,0.4342421889305115
1686424779649206300,4.342206298828125,0.30076661705970764,0.11254004389047623,0.46656522154808044
1686424779659152100,4.352152099609375,0.35876908898353577,0.054930735379457474,0.5104473233222961
1686424779669098200,4.36209814453125,0.4539872109889984,0.03994007036089897,0.5369101166725159
1686424779679044000,4.372044189453125,0.5832906365394592,0.08715245872735977,0.543333888053894
1686424779688990200,4.381990234375,0.7463053464889526,0.16708432137966156,0.5285784006118774
1686424779698936000,4.39193603515625,0.9365307688713074,0.26421573758125305,0.509348452091217
1686424779708882200,4.401882080078125,1.1375895738601685,0.3496222496032715,0.4865073561668396
1686424779718828000,4.411828125,1.3320097923278809,0.3888389468193054,0.4728182554244995
1686424779728774100,4.421774169921875,1.498469591140747,0.39155563712120056,0.4944404661655426
1686424779738720000,4.431719970703125,1.6309068202972412,0.32901477813720703,0.551134467124939
1686424779748666000,4.441666015625,1.6986584663391113,0.19254186749458313,0.6335052251815796
1686424779758612200,4.4516123046875,1.6674573421478271,-0.01263408362865448,0.7475364804267883
1686424779768558000,4.46155810546875,1.5392711162567139,-0.2409985512495041,0.8898536562919617
1686424779778504200,4.471504150390625,1.324144721031189,-0.47750455141067505,1.0400365591049194
1686424779788450000,4.481449951171875,1.0207818746566772,-0.6499791145324707,1.1931339502334595
1686424779798396200,4.491396240234375,0.6812723875045776,-0.7339861392974854,1.3308483362197876
1686424779808342000,4.501342041015625,0.3296530842781067,-0.6709997057914734,1.445859670639038
1686424779818288000,4.5112880859375,0.0916333720088005,-0.3971816897392273,1.4825801849365234
1686424779828234000,4.52123388671875,0.0181967094540596,-0.011694961227476597,1.4614211320877075
1686424779838180000,4.53118017578125,0.05388699471950531,0.38828203082084656,1.3884702920913696
1686424779848126200,4.541126220703125,0.14325761795043945,0.7607613205909729,1.2891309261322021
1686424779858072000,4.551072021484375,0.24271312355995178,1.035107970237732,1.1718213558197021
1686424779868018200,4.56101806640625,0.29427486658096313,1.1352331638336182,1.0685272216796875
1686424779877964000,4.570964111328125,0.2578343152999878,1.0276117324829102,1.0085763931274414
1686424779887910100,4.58091015625,0.13481652736663818,0.7583576440811157,1.035424828529358
1686424779897856000,4.59085595703125,-0.024073254317045212,0.3447956442832947,1.1098480224609375
1686424779907802000,4.600802001953125,-0.14987245202064514,-0.1794705092906952,1.1537009477615356
1686424779917748000,4.610748046875,-0.2439529150724411,-0.6438296437263489,1.1147651672363281
1686424779927694000,4.620694091796875,-0.3665771186351776,-0.9087454676628113,0.9434493780136108
1686424779937640000,4.630639892578125,-0.48134949803352356,-0.8779284358024597,0.6242938041687012
1686424779947586000,4.6405859375,-0.5480939149856567,-0.6399686336517334,0.20201364159584045
1686424779957532200,4.6505322265625,-0.5837823748588562,-0.4008355140686035,-0.2120654582977295
1686424779967478000,4.66047802734375,-0.6419743299484253,-0.22241196036338806,-0.6045807600021362
1686424779977424100,4.670424072265625,-0.7287637591362,-0.14622361958026886,-0.9256564378738403
1686424779987370000,4.680369873046875,-0.8328909873962402,-0.16134744882583618,-1.174170732498169
1686424779997316000,4.690316162109375,-0.9222703576087952,-0.23075902462005615,-1.3501418828964233
1686424780007262000,4.700261962890625,-0.9117748141288757,-0.24313314259052277,-1.4809045791625977
1686424780017208000,4.7102080078125,-0.7713675498962402,-0.17062395811080933,-1.5800604820251465
1686424780027154000,4.72015380859375,-0.5689412355422974,-0.07964745163917542,-1.552970051765442
1686424780037100000,4.73010009765625,-0.3947700560092926,0.07829418033361435,-1.3656476736068726
1686424780047046000,4.7400458984375,-0.26320457458496094,0.30026543140411377,-1.0747073888778687
1686424780056992000,4.749991943359375,-0.16115565598011017,0.5434699654579163,-0.6984609961509705
1686424780066938000,4.759938232421875,-0.04588392749428749,0.7506279349327087,-0.2722836136817932
1686424780076884000,4.769884033203125,0.08842451125383377,0.8605483174324036,0.1403065323829651
1686424780086830000,4.779830078125,0.21131502091884613,0.7855811715126038,0.45720404386520386
1686424780096776000,4.78977587890625,0.3090081512928009,0.5493913292884827,0.640048086643219
1686424780106722000,4.79972216796875,0.36497074365615845,0.32827040553092957,0.6948333382606506
1686424780116668000,4.80966796875,0.36293825507164,0.1559726446866989,0.6682188510894775
1686424780126614000,4.819614013671875,0.29275038838386536,-0.0009370704647153616,0.6060034036636353
1686424780136559900,4.829559814453125,0.17348065972328186,-0.20024055242538452,0.5250512361526489
1686424780146506000,4.839506103515625,0.01583431474864483,-0.498503178358078,0.44336119294166565
1686424780156451800,4.849451904296875,-0.12441703677177429,-0.9231324791908264,0.3568153381347656
1686424780166398000,4.85939794921875,-0.22917434573173523,-1.321040153503418,0.280275821685791
1686424780176344000,4.869343994140625,-0.2923141121864319,-1.6409810781478882,0.22737741470336914
1686424780186290000,4.8792900390625,-0.3261309266090393,-1.8356040716171265,0.1927693784236908
1686424780196236000,4.889236083984375,-0.3272324800491333,-1.8762980699539185,0.17514725029468536
1686424780206182000,4.899181884765625,-0.31898999214172363,-1.7684940099716187,0.1714710295200348
1686424780216128000,4.9091279296875,-0.29437655210494995,-1.5400769710540771,0.17655909061431885
1686424780226073900,4.919073974609375,-0.26119357347488403,-1.2235664129257202,0.19142937660217285
1686424780236020000,4.92902001953125,-0.22281776368618011,-0.8471019268035889,0.22758907079696655
1686424780245966000,4.938966064453125,-0.2030951976776123,-0.4310842454433441,0.2699149549007416
1686424780255912200,4.948912109375,-0.2125069797039032,-0.040991511195898056,0.2907821536064148
1686424780265858000,4.958858154296875,-0.22232258319854736,0.31388962268829346,0.29970720410346985
1686424780275804200,4.96880419921875,-0.20578821003437042,0.7197531461715698,0.25110214948654175
1686424780285750300,4.978750244140625,-0.15523342788219452,1.1210699081420898,0.1512911021709442
1686424780295696100,4.988696044921875,-0.08395805209875107,1.379660725593567,0.03302285820245743
1686424780305642200,4.998642333984375,0.0016663046553730965,1.3829009532928467,-0.08575492352247238
1686424780315588000,5.008588134765625,0.08957332372665405,1.1234325170516968,-0.17923444509506226
1686424780325534200,5.0185341796875,0.14630690217018127,0.7034216523170471,-0.2371254414319992
1686424780335480000,5.02847998046875,0.17528574168682098,0.19682703912258148,-0.2524084448814392
1686424780345426200,5.03842626953125,0.1685013473033905,-0.2612651586532593,-0.2684350907802582
1686424780355372000,5.0483720703125,0.14329440891742706,-0.5357293486595154,-0.319208562374115
1686424780365318100,5.058318115234375,0.11459538340568542,-0.6167675256729126,-0.3982306718826294
1686424780375264300,5.06826416015625,0.12664197385311127,-0.5910675525665283,-0.4740525782108307
1686424780385210000,5.078210205078125,0.16050486266613007,-0.49724382162094116,-0.5273200869560242
1686424780395156200,5.08815625,0.18182513117790222,-0.36939162015914917,-0.5416373014450073
1686424780405102000,5.09810205078125,0.1805580109357834,-0.20535102486610413,-0.5070828199386597
1686424780415047200,5.108047119140625,0.15169408917427063,-0.030280517414212227,-0.44854679703712463
1686424780424994000,5.117994140625,0.11039271950721741,0.1210179254412651,-0.37213030457496643
1686424780434939100,5.127939208984375,0.07632982730865479,0.23348721861839294,-0.30870872735977173
1686424780444886800,5.13788671875,0.052079081535339355,0.31365981698036194,-0.26761695742607117
1686424780454831600,5.14783154296875,0.034661248326301575,0.36284929513931274,-0.234381765127182
1686424780464777700,5.15777783203125,0.0142971221357584,0.38949769735336304,-0.19700030982494354
1686424780474723600,5.1677236328125,0.0011965055018663406,0.3942970931529999,-0.1670323610305786
1686424780484669700,5.177669677734375,0.013608700595796108,0.35197120904922485,-0.14608395099639893
1686424780494615800,5.18761572265625,0.07290589064359665,0.2915153205394745,-0.14732906222343445
1686424780504561700,5.197561767578125,0.12623515725135803,0.30146995186805725,-0.2406478226184845
1686424780514507800,5.2075078125,0.12357372790575027,0.4560457468032837,-0.46905267238616943
1686424780524453600,5.21745361328125,0.04666430503129959,0.6598241925239563,-0.7919758558273315
1686424780534399700,5.227399658203125,-0.11089818179607391,0.7361968159675598,-1.1050211191177368
1686424780544345600,5.237345703125,-0.3252893090248108,0.5490564703941345,-1.3430094718933105
1686424780554291700,5.247291748046875,-0.5180501341819763,0.11359354108572006,-1.5328161716461182
1686424780564237600,5.257237548828125,-0.6496191024780273,-0.43864861130714417,-1.7400604486465454
1686424780574183700,5.26718359375,-0.7164754271507263,-1.0117201805114746,-1.994659423828125
1686424780584129500,5.277129638671875,-0.7735459208488464,-1.480101227760315,-2.2821173667907715
1686424780594075600,5.28707568359375,-0.8573390245437622,-1.6414064168930054,-2.5363566875457764
1686424780604021800,5.297021728515625,-0.9273537993431091,-1.2558174133300781,-2.5422325134277344
1686424780613967600,5.306967529296875,-0.8910802006721497,-0.4077780246734619,-2.1284210681915283
1686424780623913700,5.316913818359375,-0.7168527245521545,0.3586632311344147,-1.4732733964920044
1686424780633859600,5.326859619140625,-0.4664536714553833,0.7021710872650146,-0.916829526424408
1686424780643805700,5.3368056640625,-0.2960060238838196,0.5204678773880005,-0.6384320259094238
1686424780653751600,5.34675146484375,-0.21131329238414764,0.047380272299051285,-0.5842356085777283
1686424780663697700,5.35669775390625,-0.15376771986484528,-0.35931745171546936,-0.5813010931015015
1686424780673643500,5.3666435546875,-0.10962601006031036,-0.5598441958427429,-0.49726584553718567
1686424780683589600,5.376589599609375,-0.10106421262025833,-0.6838580369949341,-0.35127773880958557
1686424780693535500,5.386535400390625,-0.09534214437007904,-0.7750025987625122,-0.19350144267082214
1686424780703481600,5.396481689453125,-0.10228446871042252,-0.8474038243293762,-0.05472731962800026
1686424780713427700,5.406427734375,-0.10021018236875534,-0.8978046178817749,0.044780172407627106
1686424780723373600,5.41637353515625,-0.10800738632678986,-0.8684829473495483,0.11334618180990219
1686424780733319700,5.426319580078125,-0.1311570405960083,-0.7225574254989624,0.19034945964813232
1686424780743265500,5.436265625,-0.172777459025383,-0.48973825573921204,0.26368415355682373
1686424780753211600,5.446211669921875,-0.22920536994934082,-0.24742639064788818,0.3560989201068878
1686424780763157500,5.456157470703125,-0.2779063582420349,-0.05639224499464035,0.4583531320095062
1686424780773103600,5.466103515625,-0.2991335690021515,0.07373964786529541,0.5527335405349731
1686424780783049500,5.476049560546875,-0.2779582440853119,0.1317768543958664,0.6272000670433044
1686424780792995600,5.48599560546875,-0.21395327150821686,0.1542941927909851,0.6634762287139893
1686424780802941700,5.495941650390625,-0.09605087339878082,0.1604793816804886,0.6795329451560974
1686424780812887600,5.505887451171875,0.06839333474636078,0.1291484236717224,0.7244154214859009
1686424780822833700,5.515833740234375,0.27729353308677673,0.016446111723780632,0.8262898325920105
1686424780832779500,5.525779541015625,0.49348610639572144,-0.1285512000322342,0.9485422968864441
1686424780842725600,5.5357255859375,0.6988387107849121,-0.23806332051753998,1.0765482187271118
1686424780852671700,5.545671630859375,0.8450649380683899,-0.24529819190502167,1.2015880346298218
1686424780862617900,5.555617919921875,0.9333993196487427,-0.13809265196323395,1.3147774934768677
1686424780872563700,5.565563720703125,0.9784350991249084,0.04462437331676483,1.3944649696350098
1686424780882509800,5.575509765625,0.9811997413635254,0.2980233430862427,1.4545648097991943
1686424780892455700,5.58545556640625,0.9163503050804138,0.6581577658653259,1.498563289642334
1686424780902401800,5.59540185546875,0.8098739385604858,1.0283970832824707,1.5379506349563599
1686424780912348000,5.605347900390625,0.6776520609855652,1.3414685726165771,1.5672844648361206
1686424780922293800,5.615293701171875,0.556854784488678,1.5861091613769531,1.5799769163131714
1686424780932240000,5.625239990234375,0.44585978984832764,1.7180423736572266,1.5913500785827637
1686424780942185700,5.635185791015625,0.3466391861438751,1.7754555940628052,1.5879048109054565
1686424780952131800,5.6451318359375,0.21986205875873566,1.8180813789367676,1.5449610948562622
1686424780962077700,5.65507763671875,0.07826338708400726,1.9220727682113647,1.4695038795471191
1686424780972023800,5.66502392578125,-0.0377269871532917,2.1261892318725586,1.362267017364502
1686424780981969700,5.6749697265625,-0.09286613762378693,2.321753978729248,1.2332605123519897
1686424780991915800,5.684915771484375,-0.1018829271197319,2.3907175064086914,1.1110517978668213
1686424781001861600,5.694861572265625,-0.09080657362937927,2.2356760501861572,1.0413845777511597
1686424781011807700,5.704807861328125,-0.06110557168722153,1.702483057975769,1.0803977251052856
1686424781021753900,5.71475390625,-0.040204551070928574,1.042718768119812,1.0137017965316772
1686424781031699700,5.72469970703125,-0.061537228524684906,0.5037460923194885,0.7548552751541138
1686424781041645800,5.734645751953125,-0.12309353053569794,0.05292728543281555,0.41454562544822693
1686424781051591700,5.744591796875,-0.17307329177856445,-0.3109693229198456,0.11232513934373856
1686424781061537800,5.754537841796875,-0.05611124262213707,-0.7055515050888062,-0.08961091935634613
1686424781071483600,5.764483642578125,0.10466545820236206,-1.2101879119873047,-0.15828149020671844
1686424781081429800,5.7744296875,0.1320296972990036,-1.8022589683532715,-0.16675114631652832
1686424781091375600,5.784375732421875,0.026925772428512573,-2.3734617233276367,-0.21020345389842987
1686424781101321700,5.79432177734375,-0.1280965656042099,-2.8576107025146484,-0.3120743930339813
1686424781111267600,5.804267578125,-0.23900826275348663,-3.1891849040985107,-0.45536723732948303
1686424781121213700,5.814213623046875,-0.30387672781944275,-3.283647060394287,-0.61761873960495
1686424781131159800,5.824159912109375,-0.34085407853126526,-3.0892789363861084,-0.7785925269126892
1686424781141105700,5.834105712890625,-0.35363855957984924,-2.6487934589385986,-0.9437934756278992
1686424781151051800,5.8440517578125,-0.3542431890964508,-2.05961275100708,-1.1207067966461182
1686424781160997600,5.85399755859375,-0.3403926193714142,-1.460071086883545,-1.2651928663253784
1686424781170943700,5.86394384765625,-0.3240477442741394,-0.95890873670578,-1.3212084770202637
1686424781180889600,5.8738896484375,-0.3098650872707367,-0.628281831741333,-1.3059639930725098
1686424781190835700,5.883835693359375,-0.2936340868473053,-0.48056167364120483,-1.2198759317398071
1686424781200781600,5.893781494140625,-0.26970478892326355,-0.44496452808380127,-1.0497967004776
1686424781210727700,5.903727783203125,-0.24853631854057312,-0.520653486251831,-0.7530519962310791
1686424781220673800,5.913673828125,-0.24162834882736206,-0.6484830975532532,-0.3356632590293884
1686424781230619600,5.92361962890625,-0.2486882358789444,-0.7439748048782349,0.17284442484378815
1686424781240565800,5.933565673828125,-0.24591800570487976,-0.7708830833435059,0.6602891683578491
1686424781250511600,5.94351171875,-0.19221210479736328,-0.704889714717865,0.9820958971977234
1686424781260457700,5.953457763671875,-0.12301652133464813,-0.5784832835197449,1.0874723196029663
1686424781270403600,5.963403564453125,-0.06438019871711731,-0.4105965495109558,1.0478101968765259
1686424781280349700,5.973349609375,-0.04144425317645073,-0.2123047411441803,0.9431070685386658
1686424781290295600,5.983295654296875,-0.0457855723798275,-0.028605183586478233,0.824489414691925
1686424781300241700,5.99324169921875,-0.06491745263338089,0.11727852374315262,0.7069246768951416
1686424781310187500,6.0031875,-0.09529562294483185,0.18587224185466766,0.5979719758033752
1686424781320133600,6.013133544921875,-0.13119742274284363,0.16966210305690765,0.4993724822998047
1686424781330079700,6.023079833984375,-0.1681520640850067,0.08738631755113602,0.4172319769859314
1686424781340025600,6.033025634765625,-0.19554586708545685,-0.028275832533836365,0.3618321120738983
1686424781349971700,6.0429716796875,-0.21567481756210327,-0.13744467496871948,0.33708810806274414
1686424781359917600,6.05291748046875,-0.21185824275016785,-0.21699489653110504,0.32388097047805786
1686424781369863700,6.06286376953125,-0.2023276388645172,-0.22138336300849915,0.3249531686306
1686424781379809500,6.0728095703125,-0.19264091551303864,-0.08041346073150635,0.2608815133571625
1686424781389755600,6.082755615234375,-0.20460139214992523,0.257778137922287,0.06537530571222305
1686424781399701500,6.092701416015625,-0.22998984158039093,0.738985002040863,-0.2612246572971344
1686424781409647600,6.102647705078125,-0.2261904776096344,1.1733548641204834,-0.570898711681366
1686424781419593500,6.112593505859375,-0.1660725474357605,1.3746269941329956,-0.7154830694198608
1686424781429539600,6.12253955078125,-0.07802750170230865,1.3155806064605713,-0.6077685952186584
1686424781439485700,6.132485595703125,0.0005876850336790085,0.996910810470581,-0.28874292969703674
1686424781449431300,6.142431396484375,0.08450454473495483,0.42296305298805237,-0.0006254641339182854
1686424781459377400,6.15237744140625,0.18133442103862762,-0.23443184792995453,0.03386007621884346
1686424781469323500,6.162323486328125,0.245903879404068,-0.7812946438789368,-0.1302242875099182
1686424781479269600,6.17226953125,0.27703356742858887,-1.1642711162567139,-0.3305182158946991
1686424781489215500,6.182215576171875,0.2815478444099426,-1.376780390739441,-0.47988462448120117
1686424781499161600,6.19216162109375,0.27960774302482605,-1.447455644607544,-0.5661718249320984
1686424781509107500,6.202107421875,0.2837117612361908,-1.429612159729004,-0.6251610517501831
1686424781519053600,6.212053466796875,0.2817399501800537,-1.3847335577011108,-0.6597533822059631
1686424781528999400,6.22199951171875,0.2704610228538513,-1.3024920225143433,-0.6830831170082092
1686424781538945500,6.231945556640625,0.2357645481824875,-1.1636813879013062,-0.6954622864723206
1686424781548891600,6.2418916015625,0.17696988582611084,-0.9662885665893555,-0.7101369500160217
1686424781558837500,6.25183740234375,0.11911138892173767,-0.7239094972610474,-0.6901025176048279
1686424781568783600,6.26178369140625,0.059979312121868134,-0.48748478293418884,-0.6464785933494568
1686424781578729500,6.2717294921875,0.018902450799942017,-0.3117859363555908,-0.5836109519004822
1686424781588675600,6.281675537109375,0.00799659825861454,-0.2093040645122528,-0.5127168893814087
1686424781598621400,6.291621337890625,0.022157158702611923,-0.15967074036598206,-0.46291765570640564
1686424781608567600,6.301567626953125,0.032718006521463394,-0.10186060518026352,-0.47888311743736267
1686424781618513400,6.311513427734375,0.008370590396225452,0.08347862213850021,-0.6399010419845581
1686424781628459500,6.32145947265625,-0.07383599132299423,0.3606697916984558,-0.9578272700309753
1686424781638405400,6.3314052734375,-0.22018468379974365,0.5190719366073608,-1.3284671306610107
1686424781648350500,6.3413505859375,-0.3969021141529083,0.41160285472869873,-1.6706328392028809
1686424781658297600,6.351297607421875,-0.6086796522140503,-0.04226662591099739,-1.945660948753357
1686424781668242400,6.361242431640625,-0.8176226019859314,-0.6899756789207458,-2.150158643722534
1686424781678188300,6.371188232421875,-0.8891401886940002,-1.136705756187439,-2.262174367904663
1686424781688134400,6.381134521484375,-0.7334779500961304,-0.9236146211624146,-2.1118223667144775
1686424781698080500,6.39108056640625,-0.3844216763973236,-0.12120502442121506,-1.689481496810913
1686424781708026400,6.4010263671875,0.006434224545955658,0.6550631523132324,-1.1610490083694458
1686424781717972500,6.410972412109375,0.2509150505065918,0.8139109015464783,-0.8986418843269348
1686424781727918300,6.42091845703125,0.2593729496002197,0.40040984749794006,-0.8701285123825073
1686424781737864400,6.430864501953125,0.1978805810213089,-0.046492815017700195,-0.8079833984375
1686424781747810300,6.440810302734375,0.12328130751848221,-0.21561400592327118,-0.6404067873954773
1686424781757756400,6.45075634765625,0.06817012280225754,-0.2541355788707733,-0.48800790309906006
1686424781767702300,6.460702392578125,0.0018295999616384506,-0.2521766126155853,-0.3599354028701782
1686424781777648400,6.4706484375,-0.10597728937864304,-0.2516535520553589,-0.2530534267425537
1686424781787594200,6.48059423828125,-0.23666535317897797,-0.2478804886341095,-0.14591027796268463
1686424781797540400,6.490540283203125,-0.3356824815273285,-0.2659774720668793,-0.04861941561102867
1686424781807486500,6.500486572265625,-0.3754587769508362,-0.27779677510261536,0.061620406806468964
1686424781817432300,6.510432373046875,-0.34720104932785034,-0.2558472752571106,0.1989407241344452
1686424781827378400,6.52037841796875,-0.26677191257476807,-0.19452032446861267,0.3338453769683838
1686424781837324300,6.53032421875,-0.20466990768909454,-0.05897580087184906,0.42554810643196106
1686424781847270400,6.5402705078125,-0.18538284301757812,0.07486073672771454,0.47586023807525635
1686424781857216300,6.55021630859375,-0.17615818977355957,0.1669991910457611,0.49347543716430664
1686424781867162400,6.560162353515625,-0.15647505223751068,0.25474756956100464,0.5036913156509399
1686424781877108200,6.570108154296875,-0.09992656856775284,0.3563077449798584,0.4932064712047577
1686424781887054300,6.580054443359375,0.010266984812915325,0.4400259852409363,0.4921797215938568
1686424781897000400,6.59000048828125,0.18778370320796967,0.41123268008232117,0.5777696967124939
1686424781906946300,6.5999462890625,0.40201613306999207,0.2825247645378113,0.7041231393814087
1686424781916892400,6.609892333984375,0.6441895961761475,0.08629559725522995,0.8563012480735779
1686424781926838300,6.61983837890625,0.869819700717926,-0.10394607484340668,1.0326979160308838
1686424781936784400,6.629784423828125,1.031051754951477,-0.17184416949748993,1.1833527088165283
1686424781946730500,6.63973046875,1.0742907524108887,-0.12557384371757507,1.2854032516479492
1686424781956676600,6.649676513671875,1.0050128698349,0.0649777203798294,1.3281663656234741
1686424781966622500,6.65962255859375,0.8955408334732056,0.3939644992351532,1.3324640989303589
1686424781976568600,6.669568603515625,0.7855781316757202,0.80489581823349,1.322962999343872
1686424781986514400,6.679514404296875,0.680605411529541,1.2415612936019897,1.293153166770935
1686424781996460500,6.68946044921875,0.5741945505142212,1.6899068355560303,1.2762246131896973
1686424782006406700,6.69940673828125,0.47293686866760254,2.1247055530548096,1.3502908945083618
1686424782016352500,6.7093525390625,0.4065623879432678,2.4767210483551025,1.522720217704773
1686424782026298600,6.719298583984375,0.36334335803985596,2.6287195682525635,1.7014538049697876
1686424782036244500,6.729244384765625,0.3115403652191162,2.5759410858154297,1.812681794166565
1686424782046190600,6.739190673828125,0.22292925417423248,2.4831581115722656,1.8418126106262207
1686424782056136400,6.749136474609375,0.07920856773853302,2.5231966972351074,1.728538155555725
1686424782066082600,6.75908251953125,-0.09354299306869507,2.7105507850646973,1.4842764139175415
1686424782076028400,6.7690283203125,-0.2279074639081955,2.915745735168457,1.1821461915969849
1686424782085974500,6.778974609375,-0.27196797728538513,2.9466519355773926,0.9732592701911926
1686424782095920400,6.78892041015625,-0.238825723528862,2.7275359630584717,0.9022676348686218
1686424782105866500,6.798866455078125,-0.1368384212255478,2.106503486633301,0.9137433767318726
1686424782115812600,6.8088125,-0.08058339357376099,1.415974736213684,0.762100875377655
1686424782125758500,6.818758544921875,-0.12930382788181305,0.9277020692825317,0.46548861265182495
1686424782135704600,6.82870458984375,-0.09566330164670944,0.5555348992347717,0.15438373386859894
1686424782145650400,6.838650390625,0.09808547794818878,0.14661702513694763,-0.009776412509381771
1686424782155596500,6.848596435546875,0.2552862763404846,-0.3414461314678192,-0.02147701010107994
1686424782165542400,6.85854248046875,0.2637013792991638,-0.8946834802627563,-0.001623970689252019
1686424782175488500,6.868488525390625,0.15149013698101044,-1.4610244035720825,-0.022717803716659546
1686424782185434400,6.878434326171875,-0.028779588639736176,-2.034843921661377,-0.08396590501070023
1686424782195380500,6.88838037109375,-0.19137701392173767,-2.5836148262023926,-0.16314592957496643
1686424782205326300,6.898326416015625,-0.31294897198677063,-3.0460755825042725,-0.2375350445508957
1686424782215272400,6.9082724609375,-0.40075552463531494,-3.2396275997161865,-0.3771504759788513
1686424782225218600,6.918218505859375,-0.40877580642700195,-3.034660816192627,-0.7110490798950195
1686424782235164400,6.928164306640625,-0.36180269718170166,-2.565422534942627,-1.1684664487838745
1686424782245110500,6.938110595703125,-0.3155883252620697,-2.0976004600524902,-1.4864400625228882
1686424782255056400,6.948056396484375,-0.2794511020183563,-1.6844696998596191,-1.6392823457717896
1686424782265002500,6.95800244140625,-0.2602795362472534,-1.324167251586914,-1.6642810106277466
1686424782274948400,6.9679482421875,-0.25595590472221375,-1.032700777053833,-1.576015591621399
1686424782284894500,6.97789453125,-0.25408175587654114,-0.8026496171951294,-1.3090922832489014
1686424782294840300,6.98784033203125,-0.2778640389442444,-0.45449298620224,-0.6264013051986694
1686424782304786400,6.997786376953125,-0.2638419270515442,-0.055921521037817,0.31815752387046814
1686424782314732500,7.007732666015625,-0.1371833235025406,-0.08865496516227722,0.8906279802322388
1686424782324678400,7.017678466796875,0.011608625762164593,-0.36221837997436523,1.02199125289917
1686424782334624500,7.02762451171875,0.06946047395467758,-0.5531007051467896,0.9611468315124512
1686424782344570400,7.0375703125,0.04410618916153908,-0.5744759440422058,0.8677522540092468
1686424782354516500,7.0475166015625,-0.026483558118343353,-0.4886321425437927,0.7990648150444031
1686424782364462300,7.05746240234375,-0.11573003232479095,-0.3727629482746124,0.737842857837677
1686424782374408400,7.067408447265625,-0.19791251420974731,-0.34019967913627625,0.6560430526733398
1686424782384354300,7.077354248046875,-0.2617262899875641,-0.4289228320121765,0.5523554086685181
1686424782394300400,7.087300537109375,-0.3119628131389618,-0.5436898469924927,0.46373021602630615
1686424782404246300,7.097246337890625,-0.34008365869522095,-0.6476032137870789,0.37451761960983276
1686424782414192400,7.1071923828125,-0.35330039262771606,-0.7034228444099426,0.2882232069969177
1686424782424138500,7.117138427734375,-0.34714463353157043,-0.6559593677520752,0.17151851952075958
1686424782434084400,7.12708447265625,-0.3161068260669708,-0.4821702837944031,0.011997292749583721
1686424782444030500,7.137030517578125,-0.22979028522968292,-0.21918685734272003,-0.18169467151165009
1686424782453976800,7.146976806640625,-0.0991545170545578,0.05696937069296837,-0.3764042258262634
1686424782463923000,7.1569228515625,0.056742869317531586,0.27187013626098633,-0.5265666842460632
1686424782473869000,7.166869140625,0.18387791514396667,0.45740485191345215,-0.563942551612854
1686424782483815000,7.17681494140625,0.22852455079555511,0.6630863547325134,-0.39761799573898315
1686424782493761000,7.186760986328125,0.2029440999031067,0.7899598479270935,-0.07058660686016083
1686424782503707000,7.196706787109375,0.17837712168693542,0.6080756783485413,0.13355320692062378
1686424782513653000,7.206653076171875,0.18417295813560486,0.21504934132099152,0.10845396667718887
1686424782523598800,7.216598876953125,0.19396302103996277,-0.19948434829711914,-0.03049282915890217
1686424782533545000,7.226544921875,0.1811196655035019,-0.573691725730896,-0.1818258911371231
1686424782543490800,7.23649072265625,0.15091535449028015,-0.8595873713493347,-0.3037969768047333
1686424782553437000,7.24643701171875,0.12050286680459976,-1.0232305526733398,-0.40031179785728455
1686424782563382800,7.2563828125,0.10735979676246643,-1.1179144382476807,-0.49051499366760254
1686424782573329000,7.266328857421875,0.11032043397426605,-1.1715755462646484,-0.5766344666481018
1686424782583275000,7.27627490234375,0.12190581113100052,-1.1482499837875366,-0.6408252716064453
1686424782593220900,7.286220947265625,0.13309641182422638,-1.0292752981185913,-0.6534848809242249
1686424782603167000,7.2961669921875,0.1368110328912735,-0.820966899394989,-0.6090102791786194
1686424782613112800,7.30611279296875,0.1418803632259369,-0.5638387203216553,-0.5437772274017334
1686424782623059000,7.316058837890625,0.1426706314086914,-0.3560197949409485,-0.5010787844657898
1686424782633004800,7.3260048828125,0.157270610332489,-0.24168603122234344,-0.4818875193595886
1686424782642951000,7.335950927734375,0.21051354706287384,-0.18004129827022552,-0.4773242473602295
1686424782652896800,7.345896728515625,0.26218605041503906,-0.07833782583475113,-0.5073066353797913
1686424782662843000,7.3558427734375,0.2512470781803131,0.12018967419862747,-0.608328640460968
1686424782672788700,7.365788818359375,0.11874441802501678,0.30397868156433105,-0.7399803996086121
1686424782682734800,7.37573486328125,-0.11637596786022186,0.3114296793937683,-0.8558916449546814
1686424782692681000,7.385680908203125,-0.3814113736152649,0.17960934340953827,-0.973300576210022
1686424782702626800,7.395626708984375,-0.5948929786682129,0.012001672759652138,-1.128831386566162
1686424782712573000,7.405572998046875,-0.7103522419929504,-0.1536669135093689,-1.3495917320251465
1686424782722519000,7.41551904296875,-0.7830005288124084,-0.3317638337612152,-1.6232577562332153
1686424782732465200,7.425465087890625,-0.7519371509552002,-0.38011273741722107,-1.866557002067566
1686424782742411000,7.435410888671875,-0.5602985620498657,-0.070478655397892,-1.9741183519363403
1686424782752357000,7.445357177734375,-0.22513654828071594,0.5247532725334167,-1.865737795829773
1686424782762303000,7.455302978515625,0.14797279238700867,1.0614733695983887,-1.4725338220596313
1686424782772249000,7.4652490234375,0.41507455706596375,1.1230305433273315,-0.9899168014526367
1686424782782195200,7.4751953125,0.4748704433441162,0.6425856947898865,-0.660123884677887
1686424782792141000,7.48514111328125,0.43937158584594727,-0.00005052355118095875,-0.43564340472221375
1686424782802087200,7.495087158203125,0.4368213713169098,-0.4452061653137207,-0.2581358850002289
1686424782812033000,7.505032958984375,0.4078719913959503,-0.636918306350708,-0.11028119921684265
1686424782821979100,7.514979248046875,0.3117532730102539,-0.722896933555603,-0.018437301740050316
1686424782831925000,7.524925048828125,0.14490222930908203,-0.7592328786849976,0.0314871147274971
1686424782841871000,7.53487109375,-0.04790085554122925,-0.7696049213409424,0.06422916054725647
1686424782851817000,7.54481689453125,-0.22685062885284424,-0.7235580682754517,0.09401635080575943
1686424782861763000,7.55476318359375,-0.346187949180603,-0.6267017722129822,0.12725350260734558
1686424782871709000,7.564708984375,-0.3893955945968628,-0.4686304032802582,0.1517857313156128
1686424782881655000,7.574655029296875,-0.37129202485084534,-0.25716644525527954,0.16613954305648804
1686424782891601200,7.58460107421875,-0.34265902638435364,-0.0008878116495907307,0.19375866651535034
1686424782901547000,7.594547119140625,-0.32595697045326233,0.2760205864906311,0.20328116416931152
1686424782911493000,7.6044931640625,-0.28643059730529785,0.5107463002204895,0.22186869382858276
1686424782921439000,7.61443896484375,-0.2021445482969284,0.6843957901000977,0.2609991431236267
1686424782931385000,7.624385009765625,-0.06219463795423508,0.819610595703125,0.30442917346954346
1686424782941331000,7.6343310546875,0.13578832149505615,0.9203593730926514,0.3562934398651123
1686424782951277000,7.644277099609375,0.37227863073349,0.9557207822799683,0.45362985134124756
1686424782961223000,7.654222900390625,0.5980160236358643,0.9352307319641113,0.586417019367218
1686424782971169000,7.6641689453125,0.7984955906867981,0.9017215371131897,0.7164948582649231
1686424782981115000,7.674114990234375,0.9566835761070251,0.8915843963623047,0.8224748969078064
1686424782991061000,7.68406103515625,1.0350825786590576,0.9282693862915039,0.8827835321426392
1686424783001007000,7.694007080078125,1.0276600122451782,1.0627886056900024,0.923653244972229
1686424783010953000,7.703952880859375,0.9849014282226562,1.2885639667510986,0.9579270482063293
1686424783020899000,7.713899169921875,0.8983967304229736,1.5278364419937134,1.0020034313201904
1686424783030845000,7.723844970703125,0.8183636665344238,1.7452245950698853,1.0479376316070557
1686424783040791000,7.733791015625,0.7369387745857239,1.8954135179519653,1.093785285949707
1686424783050737000,7.74373681640625,0.6435731053352356,2.0062313079833984,1.1801235675811768
1686424783060683000,7.75368310546875,0.5590960383415222,2.0908472537994385,1.342794418334961
1686424783070627800,7.7636279296875,0.47456756234169006,2.139017105102539,1.5631794929504395
1686424783080574000,7.773573974609375,0.40044286847114563,2.114903688430786,1.787177324295044
1686424783090519800,7.783519775390625,0.32450443506240845,2.0266730785369873,1.9476263523101807
1686424783100466000,7.7934658203125,0.23384502530097961,1.9157313108444214,2.0310463905334473
1686424783110411800,7.803411865234375,0.057997286319732666,1.9552464485168457,1.9676260948181152
1686424783120358000,7.81335791015625,-0.26180291175842285,2.3914668560028076,1.6359447240829468
1686424783130303700,7.8233037109375,-0.5624575018882751,3.12276554107666,1.0808838605880737
1686424783140249900,7.833249755859375,-0.6597679853439331,3.646366596221924,0.6054307818412781
1686424783150196000,7.843196044921875,-0.47289398312568665,3.5105655193328857,0.512037456035614
1686424783160141800,7.853141845703125,-0.0657099112868309,2.463862180709839,0.819067120552063
1686424783170088000,7.863087890625,0.20312528312206268,1.3874218463897705,0.8785570859909058
1686424783180034000,7.873033935546875,0.2764991521835327,0.4974289536476135,0.7329015135765076
1686424783189980000,7.88297998046875,0.22695904970169067,-0.05543368309736252,0.5569350123405457
1686424783199926000,7.892926025390625,0.24684756994247437,-0.3648797273635864,0.335396409034729
1686424783209872100,7.9028720703125,0.30514150857925415,-0.7433673739433289,0.16112446784973145
1686424783219818000,7.91281787109375,0.2907330095767975,-1.2083899974822998,0.06697435677051544
1686424783229764000,7.92276416015625,0.16657163202762604,-1.6422923803329468,-0.07270790636539459
1686424783239710200,7.932710205078125,-0.017373211681842804,-2.0480988025665283,-0.24341978132724762
1686424783249656000,7.942656005859375,-0.1985776126384735,-2.467620611190796,-0.4199937582015991
1686424783259602200,7.952602294921875,-0.3482018709182739,-2.8905084133148193,-0.5569262504577637
1686424783269548000,7.962548095703125,-0.47572389245033264,-3.2339892387390137,-0.6256174445152283
1686424783279494100,7.972494140625,-0.5509976744651794,-3.3982527256011963,-0.6606522798538208
1686424783289440000,7.98243994140625,-0.5706286430358887,-3.3775296211242676,-0.7189009785652161
1686424783299386000,7.99238623046875,-0.5441317558288574,-3.2098724842071533,-0.8104474544525146
1686424783309332000,8.00233203125,-0.46569421887397766,-2.890932559967041,-0.9373151063919067
1686424783319278000,8.012278076171874,-0.3752371072769165,-2.4754204750061035,-1.0668408870697021
1686424783329224000,8.022223876953126,-0.2797342836856842,-1.988260269165039,-1.1790002584457397
1686424783339170000,8.032170166015625,-0.19307272136211395,-1.4846384525299072,-1.2305567264556885
1686424783349116200,8.0421162109375,-0.12718184292316437,-0.9502730369567871,-1.2267018556594849
1686424783359062000,8.05206201171875,-0.09047683328390121,-0.4295920431613922,-1.1327193975448608
1686424783369008000,8.062008056640625,-0.08644081652164459,-0.006756629794836044,-0.8781009912490845
1686424783378954000,8.0719541015625,-0.1144704595208168,0.46089959144592285,-0.3325050473213196
1686424783388900000,8.081900146484376,-0.14426031708717346,0.8054484128952026,0.40955016016960144
1686424783398846000,8.091845947265625,-0.1408870965242386,0.8128055334091187,0.9754818677902222
1686424783408792000,8.1017919921875,-0.11783450841903687,0.5830453038215637,1.2178677320480347
1686424783418738000,8.111738037109374,-0.09159433841705322,0.32526886463165283,1.2303439378738403
1686424783428684000,8.12168408203125,-0.06150994449853897,0.20167529582977295,1.1862177848815918
1686424783438630000,8.1316298828125,-0.054789476096630096,0.19881519675254822,1.1464781761169434
1686424783448575700,8.14157568359375,-0.0690203383564949,0.27495259046554565,1.1021275520324707
1686424783458521900,8.15152197265625,-0.0930669829249382,0.3500026762485504,1.0356041193008423
1686424783468468000,8.161468017578125,-0.12538844347000122,0.3565308749675751,0.9395346641540527
1686424783478413800,8.171413818359374,-0.1536250114440918,0.29415467381477356,0.8357318639755249
1686424783488360000,8.18135986328125,-0.173780620098114,0.2063204050064087,0.7295012474060059
1686424783498305800,8.191305908203125,-0.1690792739391327,0.16448438167572021,0.6223195195198059
1686424783508252000,8.201251953125,-0.1629827618598938,0.26272305846214294,0.44899407029151917
1686424783518197800,8.21119775390625,-0.1888197511434555,0.584185004234314,0.12735620141029358
1686424783528144000,8.221143798828125,-0.25578734278678894,1.014067530632019,-0.2722420394420624
1686424783538089700,8.23108984375,-0.315186083316803,1.2428333759307861,-0.5704025626182556
1686424783548035800,8.241035888671876,-0.3261681795120239,1.202269196510315,-0.6535928249359131
1686424783557982000,8.25098193359375,-0.25896918773651123,0.902036726474762,-0.5130988955497742
1686424783567927800,8.260927734375,-0.15140357613563538,0.36035266518592834,-0.29514873027801514
1686424783577874000,8.2708740234375,-0.05290805175900459,-0.2663445770740509,-0.18127042055130005
1686424783587819800,8.28081982421875,0.05417525768280029,-0.7638998031616211,-0.19064262509346008
1686424783597766000,8.290765869140625,0.15327689051628113,-1.0507984161376953,-0.2871782183647156
1686424783607711700,8.300711669921874,0.23964986205101013,-1.133774757385254,-0.41552022099494934
1686424783617657900,8.310657958984375,0.3079695403575897,-1.0660372972488403,-0.5420427322387695
1686424783627603700,8.320603759765625,0.3551570177078247,-0.9281755685806274,-0.6367673873901367
1686424783637549800,8.3305498046875,0.3612546920776367,-0.8073592782020569,-0.654756486415863
1686424783647495700,8.34049560546875,0.328989714384079,-0.7271177172660828,-0.6068824529647827
1686424783657441800,8.35044189453125,0.2703275680541992,-0.6768748760223389,-0.5166311860084534
1686424783667388000,8.360387939453124,0.20699547231197357,-0.6179364323616028,-0.4460390508174896
1686424783677333800,8.370333740234376,0.14338770508766174,-0.54234379529953,-0.4166606366634369
1686424783687279900,8.38027978515625,0.10287195444107056,-0.4421285092830658,-0.40031230449676514
1686424783697225700,8.390225830078125,0.09406305849552155,-0.33232733607292175,-0.39152586460113525
1686424783707171800,8.400171875,0.09558452665805817,-0.268644779920578,-0.3768156170845032
1686424783717117700,8.41011767578125,0.11588737368583679,-0.24160701036453247,-0.36810997128486633
1686424783727063800,8.420063720703125,0.14463114738464355,-0.25497502088546753,-0.3689001500606537
1686424783737009700,8.430009765625,0.16867512464523315,-0.26496967673301697,-0.3842830955982208
1686424783746955800,8.439955810546875,0.184098020195961,-0.23968297243118286,-0.42262518405914307
1686424783756901600,8.449901611328125,0.1707266867160797,-0.15158580243587494,-0.5039106011390686
1686424783766847700,8.45984765625,0.08444134891033173,0.06683415174484253,-0.6903417706489563
1686424783776793900,8.4697939453125,-0.0862191691994667,0.4107572138309479,-0.9888539910316467
1686424783786739700,8.47973974609375,-0.2935928702354431,0.6400085091590881,-1.2969160079956055
1686424783796685800,8.489685791015624,-0.47486647963523865,0.654600203037262,-1.5438833236694336
1686424783806631700,8.499631591796875,-0.5883078575134277,0.5045889019966125,-1.7382842302322388
1686424783816577800,8.509577880859375,-0.5705248117446899,0.3305145800113678,-1.9336563348770142
1686424783826524000,8.51952392578125,-0.42022189497947693,0.2361377328634262,-2.0807766914367676
1686424783836470000,8.529469970703126,-0.1839112639427185,0.4803406298160553,-1.9304368495941162
1686424783846416000,8.539415771484375,0.13952219486236572,1.0348550081253052,-1.433050513267517
1686424783856362000,8.549362060546875,0.4535464644432068,1.3811306953430176,-0.8324169516563416
1686424783866307800,8.559307861328126,0.6269147992134094,1.1238658428192139,-0.4376656413078308
1686424783876254000,8.56925390625,0.5561819672584534,0.3919660449028015,-0.2534230947494507
1686424783886200000,8.579199951171875,0.46756982803344727,-0.3088783621788025,-0.16176295280456543
1686424783896146000,8.58914599609375,0.3920246958732605,-0.6967465877532959,-0.058214809745550156
1686424783906092000,8.599092041015625,0.27992504835128784,-0.8002575039863586,0.08035585284233093
1686424783916038000,8.609037841796875,0.1589154303073883,-0.7399625778198242,0.21525196731090546
1686424783925984000,8.61898388671875,0.06030736863613129,-0.642018735408783,0.3054971694946289
1686424783935929900,8.628929931640625,0.011440394446253777,-0.552186131477356,0.35096117854118347
1686424783945876000,8.6388759765625,0.015120882540941238,-0.47557440400123596,0.3605181872844696
1686424783955821800,8.64882177734375,0.041453663259744644,-0.36932530999183655,0.36269956827163696
1686424783965768000,8.658767822265625,0.07505716383457184,-0.221270352602005,0.3795182406902313
1686424783975714000,8.668714111328125,0.09408940374851227,-0.002376990159973502,0.38919857144355774
1686424783985660000,8.678659912109374,0.10538387298583984,0.28767427802085876,0.36704450845718384
1686424783995606000,8.68860595703125,0.10873929411172867,0.5723028779029846,0.3462502956390381
1686424784005551900,8.6985517578125,0.13585133850574493,0.7976188659667969,0.340763658285141
1686424784015498000,8.708498046875,0.20913708209991455,0.9311143159866333,0.3852078318595886
1686424784025443800,8.71844384765625,0.3261800706386566,0.9531881809234619,0.5124853253364563
1686424784035390000,8.728389892578125,0.44994983077049255,0.9323188662528992,0.6517209410667419
1686424784045335800,8.738335693359375,0.5625887513160706,0.9473569393157959,0.8023959398269653
1686424784055282000,8.748281982421876,0.6420145630836487,1.0377286672592163,0.9490127563476562
1686424784065227800,8.758227783203125,0.6955789923667908,1.2266408205032349,1.070495843887329
1686424784075174000,8.768173828125,0.7255825400352478,1.4350441694259644,1.1588032245635986
1686424784085120000,8.7781201171875,0.7295312285423279,1.6330301761627197,1.197091817855835
1686424784095065900,8.78806591796875,0.7316923141479492,1.829495906829834,1.2064950466156006
1686424784105012000,8.798011962890625,0.7352774143218994,2.015773057937622,1.2156381607055664
1686424784114957800,8.807957763671874,0.7273139357566833,2.192593574523926,1.2148382663726807
1686424784124904000,8.817904052734375,0.6791729927062988,2.3659396171569824,1.1727190017700195
1686424784134849800,8.827849853515625,0.6118155121803284,2.5209407806396484,1.1011801958084106
1686424784144796000,8.8377958984375,0.5237695574760437,2.659588575363159,1.0277363061904907
1686424784154741800,8.84774169921875,0.43126142024993896,2.766479253768921,0.9679921269416809
1686424784164688000,8.85768798828125,0.33847904205322266,2.8329474925994873,0.9220789670944214
1686424784174633700,8.8676337890625,0.2603118121623993,2.849712371826172,0.8938701152801514
1686424784184579800,8.877579833984376,0.20152278244495392,2.818164110183716,0.8998140096664429
1686424784194526000,8.88752587890625,0.15038233995437622,2.7389626502990723,0.934707522392273
1686424784204471800,8.897471923828125,0.12740406394004822,2.5818731784820557,0.9729105830192566
1686424784214418000,8.90741796875,0.10806819796562195,2.304504871368408,0.9913524985313416
1686424784224363800,8.91736376953125,0.0643601268529892,1.977004885673523,0.977414608001709
1686424784234310000,8.927309814453125,0.03194218501448631,1.6536716222763062,0.9129794239997864
1686424784244255700,8.937255859375,-0.019609421491622925,1.2713490724563599,0.8098838925361633
1686424784254201900,8.947201904296875,-0.11576136201620102,0.8010469675064087,0.6706370711326599
1686424784264147700,8.957147705078125,-0.24330812692642212,0.29947808384895325,0.4863167703151703
1686424784274093800,8.96709375,-0.350940465927124,-0.16613972187042236,0.24062302708625793
1686424784284039700,8.977039794921875,-0.3787558376789093,-0.4699784517288208,-0.0784018412232399
1686424784293985800,8.98698583984375,-0.3075959384441376,-0.5152873992919922,-0.46920767426490784
1686424784303932000,8.996931884765624,-0.25872108340263367,-0.355316162109375,-0.8714832067489624
1686424784313877800,9.006877685546876,-0.3043002784252167,-0.06197057664394379,-1.2070116996765137
1686424784323823900,9.016823974609375,-0.3509521782398224,0.22006537020206451,-1.4096168279647827
1686424784333769700,9.026769775390624,-0.30431896448135376,0.3559896945953369,-1.4178001880645752
1686424784343715800,9.0367158203125,-0.18053123354911804,0.3141319751739502,-1.1917601823806763
1686424784353661700,9.04666162109375,-0.03461625799536705,0.3764481544494629,-0.6391019821166992
1686424784363607800,9.05660791015625,0.07737951725721359,0.7593175172805786,0.2936573624610901
1686424784373553700,9.0665537109375,0.21204723417758942,1.0561057329177856,1.1464736461639404
1686424784383499800,9.076499755859375,0.3854523301124573,0.9098858833312988,1.4527288675308228
1686424784393446000,9.08644580078125,0.5000151991844177,0.6910770535469055,1.3787236213684082
1686424784403391700,9.096391845703126,0.5143147706985474,0.6798403859138489,1.1748591661453247
1686424784413336800,9.1063369140625,0.45123419165611267,0.8540194630622864,0.9674080014228821
1686424784423283700,9.11628369140625,0.32603180408477783,1.1122081279754639,0.7993939518928528
1686424784433229000,9.12622900390625,0.17362429201602936,1.330954909324646,0.6696323752403259
1686424784443175000,9.1361748046875,0.027457483112812042,1.4862959384918213,0.5143833756446838
1686424784453120800,9.146120849609375,-0.08982893079519272,1.5158355236053467,0.3510804772377014
1686424784463067000,9.15606689453125,-0.16257476806640625,1.4368102550506592,0.21379318833351135
1686424784473013000,9.166012939453125,-0.20109666883945465,1.3092974424362183,0.13160917162895203
1686424784482958800,9.175958740234375,-0.20699770748615265,1.1480648517608643,0.11630879342556
1686424784492905000,9.185905029296874,-0.17266511917114258,0.9327008724212646,0.1642037034034729
1686424784502850800,9.195850830078125,-0.12025890499353409,0.6584554314613342,0.2569133937358856
1686424784512797000,9.205796875,-0.07154509425163269,0.32643526792526245,0.39202257990837097
1686424784522742800,9.21574267578125,-0.016843503341078758,-0.0513426698744297,0.54754638671875
1686424784532689000,9.22568896484375,0.024688471108675003,-0.45663103461265564,0.7069371342658997
1686424784542634800,9.235634765625,0.04453354701399803,-0.8491146564483643,0.8740225434303284
1686424784552580900,9.245580810546874,0.044093046337366104,-1.1787469387054443,1.0137817859649658
1686424784562526700,9.255526611328126,0.02644321322441101,-1.3795175552368164,1.0848112106323242
1686424784572472800,9.265472900390625,0.045294903218746185,-1.4335569143295288,1.089254379272461
1686424784582419000,9.2754189453125,0.10241012275218964,-1.3633370399475098,1.030448079109192
1686424784592364800,9.28536474609375,0.16898897290229797,-1.2325072288513184,0.9185126423835754
1686424784602311000,9.295310791015625,0.25117596983909607,-1.0785397291183472,0.7577136158943176
1686424784612256800,9.3052568359375,0.3330176770687103,-0.9370090365409851,0.5378852486610413
1686424784622203000,9.315202880859376,0.4127388596534729,-0.7920392751693726,0.28583621978759766
1686424784632148700,9.325148681640625,0.4712734520435333,-0.5966411232948303,0.0335414744913578
1686424784642094800,9.3350947265625,0.5062519311904907,-0.38122764229774475,-0.20128753781318665
1686424784652040700,9.345040771484374,0.5208181142807007,-0.14728623628616333,-0.40933671593666077
1686424784661986800,9.35498681640625,0.5178739428520203,0.11786553263664246,-0.623272716999054
1686424784671932700,9.3649326171875,0.5045479536056519,0.40088725090026855,-0.8176734447479248
1686424784681878800,9.374878662109374,0.48385387659072876,0.6822054982185364,-1.0039548873901367
1686424784691825000,9.384824951171876,0.4456791579723358,0.9762943387031555,-1.219722032546997
1686424784701770800,9.394770751953125,0.4152560234069824,1.3040261268615723,-1.4376041889190674
1686424784711716900,9.404716796875,0.40428826212882996,1.6105539798736572,-1.6171691417694092
1686424784721662700,9.414662841796876,0.3874512016773224,1.8005925416946411,-1.757040023803711
1686424784731608800,9.42460888671875,0.364103227853775,1.7813173532485962,-1.8452972173690796
1686424784741554700,9.4345546875,0.3098338544368744,1.5802371501922607,-1.8360203504562378
1686424784751500800,9.444500732421876,0.1498892605304718,1.1083401441574097,-1.6963157653808594
1686424784761446700,9.45444677734375,-0.2756982445716858,0.25541168451309204,-1.3429886102676392
1686424784771392800,9.464392822265625,-0.7790718674659729,-0.5963729619979858,-0.9520562887191772
1686424784781338600,9.474338623046876,-1.0153571367263794,-1.1821507215499878,-0.6844692826271057
1686424784791284700,9.48428466796875,-0.9314796328544617,-1.6027265787124634,-0.5596112012863159
1686424784801230800,9.49423095703125,-0.6116931438446045,-2.0168535709381104,-0.5497916340827942
1686424784811176700,9.5041767578125,-0.2058780938386917,-2.4761154651641846,-0.5782533884048462
1686424784821122800,9.514122802734375,0.03690019249916077,-2.8784701824188232,-0.6208181381225586
1686424784831068700,9.524068603515625,0.016248974949121475,-3.0109803676605225,-0.6574925780296326
1686424784841014800,9.534014892578124,-0.09895138442516327,-2.789156913757324,-0.7099472880363464
1686424784850960600,9.543960693359375,-0.22724242508411407,-2.3042142391204834,-0.7598511576652527
1686424784860906800,9.55390673828125,-0.30411776900291443,-1.6714969873428345,-0.7943649291992188
1686424784870852600,9.5638525390625,-0.2702478766441345,-0.8417474031448364,-0.9039732813835144
1686424784880798700,9.573798828125,-0.07417584955692291,0.33912673592567444,-1.1866443157196045
1686424784890744800,9.583744873046875,0.15217547118663788,1.7556865215301514,-1.5227328538894653
1686424784900690700,9.593690673828124,0.2929981052875519,2.983407497406006,-1.7477960586547852
1686424784910636800,9.60363671875,0.3299172818660736,3.7664434909820557,-1.823197603225708
1686424784920582700,9.613582763671875,0.3043929934501648,4.112068176269531,-1.7824320793151855
1686424784930528800,9.62352880859375,0.2592790722846985,4.13360071182251,-1.6339125633239746
1686424784940474600,9.633474609375,0.2130785584449768,3.9261984825134277,-1.4000606536865234
1686424784950420700,9.643420654296875,0.14475172758102417,3.567490816116333,-1.1004501581192017
1686424784960366800,9.653366943359375,0.07316756993532181,3.157735586166382,-0.7728559970855713
1686424784970313000,9.66331298828125,0.020920224487781525,2.7973012924194336,-0.45219600200653076
1686424784980258800,9.6732587890625,0.0029793065041303635,2.5319290161132812,-0.17272843420505524
1686424784990205000,9.683204833984375,0.028218209743499756,2.362428903579712,0.03430544212460518
1686424785000151000,9.693151123046874,0.0988130122423172,2.2376768589019775,0.17865756154060364
1686424785010097000,9.703096923828125,0.20005102455615997,2.0984294414520264,0.29356276988983154
1686424785020043000,9.71304296875,0.3165220022201538,1.9019190073013306,0.3958800733089447
1686424785029988900,9.72298876953125,0.41019800305366516,1.6647624969482422,0.47341373562812805
1686424785039935000,9.73293505859375,0.44394373893737793,1.4317408800125122,0.5396638512611389
1686424785049880800,9.742880859375,0.4511883854866028,1.2352174520492554,0.5872899889945984
1686424785059827000,9.752826904296874,0.45023709535598755,1.0891813039779663,0.5893246531486511
1686424785069772800,9.762772705078126,0.4355495274066925,1.099134922027588,0.5138009190559387
1686424785079719000,9.772718994140625,0.3932931423187256,1.3049263954162598,0.3627765476703644
1686424785089664800,9.782664794921875,0.29593896865844727,1.6485919952392578,0.16041207313537598
1686424785099611000,9.79261083984375,0.20390650629997253,2.0536162853240967,-0.08831998705863953
1686424785109557000,9.802556884765625,0.23985730111598969,2.328138828277588,-0.3294779062271118
1686424785119502800,9.8125029296875,0.38776713609695435,2.4459099769592285,-0.525083065032959
1686424785129449000,9.822448974609374,0.544849157333374,2.51725435256958,-0.658673882484436
1686424785139394800,9.832394775390625,0.6639012694358826,2.566272497177124,-0.7149595618247986
1686424785149341000,9.8423408203125,0.7806264758110046,2.491736650466919,-0.7054000496864319
1686424785159286800,9.852286865234374,0.89185631275177,2.1397602558135986,-0.6124194860458374
1686424785169233000,9.86223291015625,0.9798391461372375,1.4872252941131592,-0.3732907176017761
1686424785179178800,9.8721787109375,1.076893925666809,0.618057370185852,-0.011339444667100906
1686424785189124900,9.882124755859374,1.1826794147491455,-0.26352059841156006,0.33288833498954773
1686424785199070700,9.89207080078125,1.2770781517028809,-0.9748823642730713,0.5426218509674072
1686424785209016800,9.902016845703125,1.2446749210357666,-1.3011982440948486,0.5885891318321228
1686424785218963000,9.911962890625,1.0265851020812988,-1.071627140045166,0.4615883231163025
1686424785228908800,9.92190869140625,0.6340555548667908,-0.32621464133262634,0.2597973644733429
1686424785238855000,9.93185498046875,0.19456662237644196,0.3341430425643921,0.18203037977218628
1686424785248800800,9.94180078125,-0.09584267437458038,0.5501233339309692,0.16889387369155884
1686424785258747000,9.951746826171876,-0.17024606466293335,0.32314130663871765,0.13819801807403564
1686424785268692700,9.961692626953125,-0.1012844368815422,-0.06058526411652565,0.11169777810573578
1686424785278638800,9.971638916015625,0.007364279590547085,-0.4129694104194641,0.07623779028654099
1686424785288584700,9.981584716796876,0.06942107528448105,-0.639996349811554,0.037284716963768005
1686424785298530800,9.99153076171875,0.06906847655773163,-0.7480948567390442,-0.02044568955898285
1686424785308477000,10.001476806640625,0.02500879019498825,-0.8016364574432373,-0.11549409478902817
1686424785318422800,10.0114228515625,-0.02019810490310192,-0.8191254734992981,-0.2570655941963196
1686424785328369000,10.021368896484375,-0.05374200642108917,-0.8295558094978333,-0.4231078028678894
1686424785338314800,10.031314697265625,-0.060448646545410156,-0.8111829161643982,-0.5742552280426025
1686424785348260900,10.0412607421875,-0.0634753555059433,-0.7964172959327698,-0.6978559494018555
1686424785358206700,10.051206787109376,-0.06495793908834457,-0.8292484879493713,-0.7759878039360046
1686424785368152800,10.06115283203125,-0.058210428804159164,-0.8755518198013306,-0.8090752363204956
1686424785378098700,10.0710986328125,-0.05588841810822487,-0.9292203783988953,-0.8149943947792053
1686424785388044800,10.081044921875,-0.0926022082567215,-1.0219428539276123,-0.7724769115447998
1686424785397990700,10.09099072265625,-0.1417364627122879,-1.102285623550415,-0.6764726042747498
1686424785407936800,10.100936767578125,-0.20143872499465942,-1.1193944215774536,-0.5520490407943726
1686424785417883000,10.1108828125,-0.2501271963119507,-1.0809928178787231,-0.4227094352245331
1686424785427828700,10.120828857421875,-0.2805144190788269,-0.960701584815979,-0.2938590347766876
1686424785437774800,10.13077490234375,-0.3084222078323364,-0.7832045555114746,-0.1677897721529007
1686424785447720700,10.140720703125,-0.29718223214149475,-0.5593201518058777,-0.057243481278419495
1686424785457666800,10.150666748046875,-0.2436966449022293,-0.30824875831604004,0.054860685020685196
1686424785467613000,10.160613037109375,-0.16105283796787262,-0.03344517946243286,0.15961800515651703
1686424785477558800,10.170558837890624,-0.08378467708826065,0.2832680642604828,0.26120537519454956
1686424785487505000,10.1805048828125,-0.03138071671128273,0.6513826251029968,0.33077991008758545
1686424785497450800,10.19045068359375,0.0197082981467247,1.0406160354614258,0.3936350643634796
1686424785507396900,10.20039697265625,0.08332575112581253,1.4136390686035156,0.4535478949546814
1686424785517343000,10.210343017578126,0.16452659666538239,1.7223713397979736,0.4988000988960266
1686424785527288800,10.220288818359375,0.2627030909061432,1.962685465812683,0.5102354288101196
1686424785537235000,10.23023486328125,0.365221232175827,2.1660711765289307,0.512449324131012
1686424785547180800,10.240180908203126,0.4439191520214081,2.365821361541748,0.501055121421814
1686424785557127000,10.250126953125,0.48203855752944946,2.5695290565490723,0.4893105924129486
1686424785567072800,10.26007275390625,0.48990631103515625,2.7591090202331543,0.47688356041908264
1686424785577019000,10.270018798828126,0.4772893190383911,2.895336627960205,0.47115644812583923
1686424785586964700,10.27996484375,0.4501093029975891,2.959803819656372,0.46994665265083313
1686424785596910800,10.289910888671875,0.4221506416797638,2.9974474906921387,0.4838283956050873
1686424785606856700,10.299856689453126,0.4102972149848938,3.022052526473999,0.4979040026664734
1686424785616802800,10.309802734375,0.41015714406967163,3.0127131938934326,0.5197310447692871
1686424785626749000,10.3197490234375,0.42079606652259827,2.9823458194732666,0.5498099327087402
1686424785636694800,10.32969482421875,0.4409641623497009,2.9288647174835205,0.577553391456604
1686424785646641000,10.339640869140625,0.4583057165145874,2.856813907623291,0.6015944480895996
1686424785656587000,10.3495869140625,0.4654826521873474,2.7890214920043945,0.62690269947052
1686424785666533000,10.359533203125,0.4532756507396698,2.705045223236084,0.663453996181488
1686424785676479000,10.36947900390625,0.42196059226989746,2.5725460052490234,0.7119384407997131
1686424785686425000,10.379425048828125,0.3942624628543854,2.3115060329437256,0.7958420515060425
1686424785696371000,10.389370849609374,0.33394506573677063,1.8672277927398682,1.067772626876831
1686424785706317000,10.399317138671876,0.24127522110939026,1.123471975326538,1.6233993768692017
1686424785716262000,10.409261962890625,0.05674266442656517,-0.3104338049888611,2.6482295989990234
1686424785726209000,10.419208984375,-0.1340891271829605,-1.6603039503097534,3.423657178878784
1686424785736153900,10.42915380859375,-0.1746983379125595,-2.2826015949249268,3.486611843109131
1686424785746100000,10.439099853515625,-0.09239664673805237,-2.3802731037139893,3.1727654933929443
1686424785756045800,10.4490458984375,0.02753455564379692,-2.2362759113311768,2.767784833908081
1686424785765992000,10.458991943359376,0.1314420998096466,-2.0207107067108154,2.358562707901001
1686424785775938000,10.46893798828125,0.21993175148963928,-1.8282431364059448,1.9698373079299927
1686424785785884000,10.4788837890625,0.2682975232601166,-1.6729401350021362,1.505995273590088
1686424785795830000,10.488830078125,0.27740180492401123,-1.4799385070800781,0.9587941765785217
1686424785805776000,10.49877587890625,0.2813534438610077,-1.0836328268051147,0.37790578603744507
1686424785815722000,10.508721923828125,0.30321505665779114,-0.3980313241481781,-0.2653794288635254
1686424785825667800,10.518667724609376,0.4461980164051056,0.6012560129165649,-1.0074920654296875
1686424785835614000,10.528614013671875,0.5197936296463013,1.2970863580703735,-1.5446697473526
1686424785845559800,10.538559814453125,0.5063132047653198,1.5999993085861206,-1.8318171501159668
1686424785855506000,10.548505859375,0.4983633756637573,1.6978188753128052,-1.9982346296310425
1686424785865452000,10.5584521484375,0.5027726888656616,1.6632657051086426,-2.0767390727996826
1686424785875398000,10.56839794921875,0.5526542663574219,1.590955376625061,-2.1067280769348145
1686424785885344000,10.578343994140624,0.6265131831169128,1.4285908937454224,-2.079312801361084
1686424785895289900,10.588289794921875,0.6928442716598511,1.2688201665878296,-2.04500412940979
1686424785905236000,10.598236083984375,0.7424530386924744,1.1321591138839722,-2.004786252975464
1686424785915181800,10.608181884765624,0.7290573120117188,1.0122321844100952,-1.9777312278747559
1686424785925128000,10.6181279296875,0.6742203831672668,0.8628870248794556,-1.9597779512405396
1686424785935073800,10.62807373046875,0.6204634308815002,0.6662863492965698,-1.903485894203186
1686424785945020000,10.63802001953125,0.5194121599197388,0.25504976511001587,-1.7277886867523193
1686424785954965800,10.6479658203125,0.3831664025783539,-0.3923737406730652,-1.3781763315200806
1686424785964911900,10.657911865234375,0.19206838309764862,-1.2646275758743286,-0.9123874306678772
1686424785974858000,10.66785791015625,-0.1504887044429779,-2.2953643798828125,-0.4275009036064148
1686424785984803800,10.677803955078126,-0.48495346307754517,-3.046766996383667,-0.19144415855407715
1686424785994750000,10.68775,-0.6501839756965637,-3.574042320251465,-0.15476922690868378
1686424786004695800,10.69769580078125,-0.6516013145446777,-3.91831111907959,-0.1897808313369751
1686424786014642000,10.707641845703124,-0.5471739768981934,-4.03426456451416,-0.26202306151390076
1686424786024587800,10.717587890625,-0.41548317670822144,-3.973324775695801,-0.35941770672798157
1686424786034534000,10.727533935546875,-0.3411993682384491,-3.795337438583374,-0.4779941439628601
1686424786044479700,10.737479736328124,-0.331932008266449,-3.513085126876831,-0.6321775913238525
1686424786054425900,10.74742578125,-0.31808358430862427,-3.0798676013946533,-0.807650089263916
1686424786064371700,10.757371826171875,-0.26845496892929077,-2.4587104320526123,-0.9838641881942749
1686424786074317800,10.76731787109375,-0.19492748379707336,-1.6756786108016968,-1.1141884326934814
1686424786084264000,10.777263916015626,-0.11686165630817413,-0.8483288288116455,-1.1744035482406616
1686424786094209800,10.787209716796875,-0.05232341215014458,-0.11626816540956497,-1.1428169012069702
1686424786104156000,10.797156005859375,-0.013458115048706532,0.40216782689094543,-1.0344563722610474
1686424786114101800,10.807101806640626,0.023008018732070923,0.7256657481193542,-0.8784030675888062
1686424786124048000,10.8170478515625,0.06394879519939423,0.8784615397453308,-0.6795046925544739
1686424786133994000,10.826993896484375,0.12651124596595764,0.9433465003967285,-0.4527008533477783
1686424786143940000,10.836940185546876,0.19266444444656372,1.0026201009750366,-0.2014351785182953
1686424786153886000,10.846885986328125,0.24817219376564026,1.0726675987243652,0.06307663023471832
1686424786163832000,10.85683203125,0.3060854971408844,1.2631981372833252,0.3309851288795471
1686424786173778000,10.86677783203125,0.36629050970077515,1.6170121431350708,0.5555415153503418
1686424786183724000,10.87672412109375,0.4337158501148224,2.143599033355713,0.7355401515960693
1686424786193670100,10.886670166015625,0.5091418623924255,2.829531669616699,0.8493450284004211
1686424786203616000,10.896615966796874,0.5785315036773682,3.6744978427886963,0.8859118223190308
1686424786213562000,10.90656201171875,0.6277655959129333,4.592452049255371,0.7782698273658752
1686424786223508000,10.916508056640625,0.6083431243896484,5.277307987213135,0.5596126317977905
1686424786233454000,10.9264541015625,0.5618720650672913,5.562017440795898,0.31869110465049744
1686424786243400000,10.93639990234375,0.5731155872344971,5.631897449493408,0.15389423072338104
1686424786253346000,10.946345947265625,0.6540189981460571,5.655554294586182,0.07877285033464432
1686424786263292000,10.9562919921875,0.8103281259536743,5.747288227081299,0.07323946058750153
1686424786273238000,10.966238037109376,1.0292333364486694,5.894104480743408,0.0801548883318901
1686424786283184000,10.97618408203125,1.2707321643829346,5.906738758087158,0.028345368802547455
1686424786293130000,10.9861298828125,1.5611933469772339,5.616568565368652,-0.1977226436138153
1686424786303076000,10.996076171875,1.7860313653945923,4.687232971191406,-0.3315109610557556
1686424786313022000,11.00602197265625,1.8187087774276733,3.0238163471221924,-0.14994409680366516
1686424786322968000,11.015968017578125,1.614832878112793,1.0868995189666748,0.3034934997558594
1686424786332914000,11.025913818359374,1.233697772026062,-0.5391747355461121,0.6720107793807983
1686424786342860000,11.035860107421875,0.8338944911956787,-1.4127695560455322,0.7894911766052246
1686424786352806000,11.045805908203125,0.45827242732048035,-1.6751465797424316,0.7414493560791016
1686424786362752000,11.055751953125,0.02343432977795601,-1.5407596826553345,0.5297833681106567
1686424786372697900,11.06569775390625,-0.47229528427124023,-1.158006191253662,0.12865111231803894
1686424786382644000,11.07564404296875,-0.8981767892837524,-0.8017304539680481,-0.31709396839141846
1686424786392590000,11.085590087890624,-1.1684460639953613,-0.7555126547813416,-0.6545454859733582
1686424786402536000,11.095535888671876,-1.2520486116409302,-0.9602484703063965,-0.8647570610046387
1686424786412482000,11.10548193359375,-1.1369030475616455,-1.3153765201568604,-0.9995462894439697
1686424786422428000,11.115427978515624,-0.8958747982978821,-1.8076868057250977,-1.0606019496917725
1686424786432374000,11.1253740234375,-0.6172860860824585,-2.3037490844726562,-0.9931949377059937
1686424786442320000,11.13531982421875,-0.36783483624458313,-2.5204267501831055,-0.7954748272895813
1686424786452265500,11.145265380859374,-0.18610288202762604,-2.4972991943359375,-0.5425933003425598
1686424786462211600,11.155211669921876,-0.05143776163458824,-2.458042621612549,-0.37398600578308105
1686424786472157700,11.16515771484375,0.022000238299369812,-2.4932844638824463,-0.359009712934494
1686424786482103600,11.175103515625,0.08200119435787201,-2.5355453491210938,-0.4530414938926697
1686424786492049700,11.185049560546876,0.10844451934099197,-2.4657108783721924,-0.5725415349006653
1686424786501995500,11.19499560546875,0.07353459298610687,-2.2293827533721924,-0.6826997995376587
1686424786511941600,11.204941650390625,-0.020992442965507507,-1.8671770095825195,-0.783088743686676
1686424786521887500,11.214887451171874,-0.146959125995636,-1.5109918117523193,-0.8532055020332336
1686424786531833600,11.22483349609375,-0.2300470769405365,-1.241048812866211,-0.9001325368881226
1686424786541779500,11.234779541015625,-0.24346208572387695,-0.9652522802352905,-0.9204232096672058
1686424786551725600,11.2447255859375,-0.2186880260705948,-0.7288706302642822,-0.8905324339866638
1686424786561671400,11.25467138671875,-0.16176488995552063,-0.48100367188453674,-0.8039956092834473
1686424786571617500,11.264617431640625,-0.10070953518152237,-0.15926878154277802,-0.6863786578178406
1686424786581563600,11.274563720703124,-0.04314218461513519,0.1527033895254135,-0.5417655110359192
1686424786591509500,11.284509521484376,0.012487253174185753,0.4662293493747711,-0.3652125895023346
1686424786601455600,11.29445556640625,0.06009085476398468,0.7546555995941162,-0.1968570202589035
1686424786611401500,11.3044013671875,0.10309851169586182,1.0008776187896729,-0.03972839564085007
1686424786621347600,11.31434765625,0.16197745501995087,1.2136505842208862,0.10808884352445602
1686424786631293400,11.32429345703125,0.23051071166992188,1.4246644973754883,0.24863797426223755
1686424786641239600,11.334239501953125,0.28978487849235535,1.6859840154647827,0.3618287146091461
1686424786651185400,11.344185302734376,0.35260406136512756,1.9749138355255127,0.4493843913078308
1686424786661131500,11.354131591796875,0.414743572473526,2.282670259475708,0.5046315789222717
1686424786671077400,11.364077392578125,0.48720496892929077,2.5866708755493164,0.5292189717292786
1686424786681023500,11.3740234375,0.558857798576355,2.8678338527679443,0.520643413066864
1686424786690969600,11.383969482421875,0.6165210604667664,3.1405630111694336,0.49449941515922546
1686424786700915500,11.39391552734375,0.6423332691192627,3.3915367126464844,0.4636858105659485
1686424786710861600,11.403861572265624,0.6551947593688965,3.5952041149139404,0.4365692436695099
1686424786720807700,11.4138076171875,0.6573371887207031,3.732118844985962,0.40849563479423523
1686424786730753500,11.42375341796875,0.656973123550415,3.818430185317993,0.40159618854522705
1686424786740699600,11.43369970703125,0.6620803475379944,3.853538990020752,0.41538912057876587
1686424786750645800,11.443645751953126,0.6775104403495789,3.8478856086730957,0.4510946571826935
1686424786760591600,11.453591552734375,0.6960498094558716,3.7870113849639893,0.4929991662502289
1686424786770537700,11.463537841796875,0.7194784879684448,3.6665945053100586,0.5418851971626282
1686424786780483600,11.473483642578126,0.7329710125923157,3.5347883701324463,0.6104912757873535
1686424786790429700,11.4834296875,0.7340256571769714,3.397414207458496,0.69571453332901
1686424786800375800,11.493375732421875,0.7238983511924744,3.2471537590026855,0.7874507308006287
1686424786810321700,11.50332177734375,0.7121724486351013,3.0978341102600098,0.8853335976600647
1686424786820266500,11.5132666015625,0.6937188506126404,2.943819046020508,0.9784423112869263
1686424786830213600,11.523213623046875,0.6729355454444885,2.738264560699463,1.0951592922210693
1686424786840158700,11.53315869140625,0.6591142416000366,2.4195854663848877,1.3747036457061768
1686424786850104600,11.5431044921875,0.6560588479042053,1.9628812074661255,1.939614176750183
1686424786860050700,11.55305078125,0.6488432884216309,1.4481528997421265,2.6652467250823975
1686424786869996500,11.56299658203125,0.5819803476333618,0.8316271305084229,3.5522868633270264
1686424786879942700,11.572942626953125,0.5027891993522644,0.25543075799942017,4.188542366027832
1686424786889888500,11.582888427734375,0.4287780821323395,-0.06428413093090057,4.345749855041504
1686424786899834600,11.592834716796874,0.33789435029029846,-0.2069714069366455,4.251237869262695
1686424786909780500,11.602780517578125,0.23541776835918427,-0.5081488490104675,4.105428695678711
1686424786919726600,11.6127265625,0.15861588716506958,-1.078129768371582,3.9796314239501953
1686424786929672700,11.622672607421874,0.15271484851837158,-1.9640896320343018,3.807084321975708
1686424786939618600,11.63261865234375,0.2140880823135376,-2.757694721221924,3.357583522796631
1686424786949564700,11.642564697265625,0.4781855046749115,-0.9132785201072693,1.4292466640472412
1686424786959510500,11.652510498046874,0.8126965165138245,0.9744160771369934,-0.6142578721046448
1686424786969456600,11.66245654296875,0.8300678133964539,1.5898241996765137,-1.8225204944610596
1686424786979402500,11.672402587890625,0.5059662461280823,1.6384484767913818,-2.3787899017333984
1686424786989348600,11.6823486328125,0.08047327399253845,1.4763567447662354,-2.5228164196014404
1686424786999294500,11.69229443359375,-0.22423145174980164,1.298343300819397,-2.519948959350586
1686424787009240600,11.702240478515625,-0.32213059067726135,1.0854510068893433,-2.4852294921875
1686424787019186400,11.7121865234375,-0.282307505607605,0.7739038467407227,-2.448328733444214
1686424787029132500,11.722132568359376,-0.16542720794677734,0.3768526613712311,-2.4137914180755615
1686424787039078700,11.73207861328125,0.0059326812624931335,-0.05087023973464966,-2.3775315284729004
1686424787049024500,11.7420244140625,0.21240222454071045,-0.45261743664741516,-2.3220982551574707
1686424787058970600,11.751970703125,0.41768309473991394,-0.6901600360870361,-2.2154879570007324
1686424787068916500,11.76191650390625,0.545110285282135,-0.8625161051750183,-2.0650134086608887
1686424787078862600,11.771862548828125,0.5753152966499329,-1.090348720550537,-1.8823821544647217
1686424787088808400,11.781808349609374,0.533531665802002,-1.5083768367767334,-1.5992047786712646
1686424787098754600,11.791754638671875,0.4024069011211395,-2.1565911769866943,-1.2351562976837158
1686424787108700400,11.801700439453125,0.219651460647583,-2.9817252159118652,-0.8736593127250671
1686424787118646500,11.811646484375,0.01039192732423544,-3.972191095352173,-0.5496304631233215
1686424787128592400,11.82159228515625,-0.12451742589473724,-4.961832523345947,-0.28920820355415344
1686424787138538500,11.83153857421875,-0.19316379725933075,-5.680903911590576,-0.12368152290582657
1686424787148484600,11.841484619140624,-0.2393520623445511,-5.995911598205566,-0.07545886188745499
1686424787158430500,11.851430419921876,-0.28506961464881897,-5.986185550689697,-0.1284365952014923
1686424787168376600,11.86137646484375,-0.289318710565567,-5.7319746017456055,-0.22860661149024963
1686424787178322400,11.871322509765625,-0.24940970540046692,-5.2778449058532715,-0.3610474765300751
1686424787188268500,11.8812685546875,-0.13107000291347504,-4.500612258911133,-0.5419264435768127
1686424787198214700,11.891214599609375,-0.011166155338287354,-3.359459161758423,-0.8105423450469971
1686424787208160500,11.901160400390625,0.1534464955329895,-2.1148452758789062,-1.0853179693222046
1686424787218106600,11.911106689453124,0.28908997774124146,-0.9411806464195251,-1.2707476615905762
1686424787228052700,11.921052734375,0.3332020342350006,0.0836399495601654,-1.375243902206421
1686424787237998600,11.93099853515625,0.2874392569065094,0.8951757550239563,-1.402409553527832
1686424787247944700,11.94094482421875,0.19708728790283203,1.4369726181030273,-1.387818694114685
1686424787257890800,11.950890869140625,0.1038953885436058,1.8202656507492065,-1.345656156539917
1686424787267836700,11.960836669921875,0.05376085266470909,2.083709239959717,-1.28630793094635
1686424787277782800,11.97078271484375,0.06597179174423218,2.213028907775879,-1.1962957382202148
1686424787287728600,11.980728759765626,0.12222973257303238,2.2292678356170654,-1.0641497373580933
1686424787297674800,11.9906748046875,0.19323551654815674,2.1330161094665527,-0.9176929593086243
1686424787307620600,12.00062060546875,0.268344908952713,1.9716662168502808,-0.7638503909111023
1686424787317566700,12.010566650390626,0.3497121334075928,1.7997097969055176,-0.5949185490608215
1686424787327512600,12.0205126953125,0.4149065613746643,1.6787439584732056,-0.39693382382392883
1686424787337458700,12.030458740234375,0.4577844738960266,1.6330609321594238,-0.1637313961982727
1686424787347404800,12.04040478515625,0.4012535512447357,1.901816725730896,0.20702430605888367
1686424787357350700,12.0503505859375,0.15425099432468414,2.9435129165649414,0.910859227180481
1686424787367296800,12.060296875,-0.029438680037856102,4.349222183227539,1.7256395816802979
1686424787377242600,12.07024267578125,0.21013334393501282,5.154314041137695,2.2037994861602783
1686424787387188700,12.080188720703125,0.7984021902084351,5.223643779754639,2.180659294128418
1686424787397134600,12.090134521484375,1.2959805727005005,5.057101249694824,1.818050503730774
1686424787407080700,12.100080810546874,1.4974398612976074,5.070820331573486,1.358322024345398
1686424787417026600,12.110026611328125,1.450720191001892,5.367094039916992,0.9028446078300476
1686424787426972700,12.11997265625,1.2651522159576416,5.78302526473999,0.4845735728740692
1686424787436918500,12.12991845703125,1.0337305068969727,6.108263969421387,0.11767018586397171
1686424787446864600,12.13986474609375,0.8322225213050842,6.117429256439209,-0.23237383365631104
1686424787456810200,12.149810302734375,0.664147138595581,5.831201553344727,-0.5551955103874207
1686424787466756000,12.159756103515624,0.53571617603302,5.265137195587158,-0.8950667381286621
1686424787476702200,12.1697021484375,0.42010927200317383,4.305083751678467,-1.0604954957962036
1686424787486648000,12.17964794921875,0.4046943485736847,3.524679183959961,-0.5840088129043579
1686424787496594200,12.18959423828125,0.45845282077789307,2.3386616706848145,0.14970660209655762
1686424787506540300,12.199540283203126,0.44190552830696106,0.547579824924469,0.4452977776527405
1686424787516486100,12.209486083984375,0.34349629282951355,-0.9221327304840088,0.4193095862865448
1686424787526432300,12.219432373046875,0.2365855723619461,-1.6758973598480225,0.285142183303833
1686424787536378000,12.229378173828126,0.16306424140930176,-1.7827714681625366,0.11888770014047623
1686424787546324200,12.23932421875,0.08439207822084427,-1.3985406160354614,-0.09305651485919952
1686424787556270000,12.24927001953125,-0.013760164380073547,-0.8038160800933838,-0.3379459083080292
1686424787566216200,12.25921630859375,-0.11228753626346588,-0.4210120439529419,-0.5589911937713623
1686424787576162000,12.269162109375,-0.16247981786727905,-0.3423484265804291,-0.6986849904060364
1686424787586108200,12.279108154296875,-0.1463884711265564,-0.4911845028400421,-0.7299044728279114
1686424787596054000,12.289053955078124,-0.096780925989151,-0.7372190356254578,-0.6732944846153259
1686424787606000000,12.299000244140625,-0.06771837919950485,-0.916523814201355,-0.5529859066009521
1686424787615946200,12.3089462890625,-0.06486355513334274,-0.8826058506965637,-0.3477059304714203
1686424787625892000,12.31889208984375,-0.05919874459505081,-0.7283622622489929,-0.11971297860145569
1686424787635838200,12.328838134765626,-0.024899736046791077,-0.6707126498222351,0.042095083743333817
1686424787645784000,12.3387841796875,0.04213123023509979,-0.8146791458129883,0.09922441095113754
1686424787655730200,12.348730224609374,0.08134722709655762,-1.0162792205810547,0.08561187237501144
1686424787665676000,12.358676025390626,0.06834327429533005,-1.149103045463562,0.03571195527911186
1686424787675622100,12.3686220703125,0.01080166082829237,-1.146897554397583,-0.037248559296131134
1686424787685568000,12.378568115234375,-0.03785189613699913,-1.0033247470855713,-0.1281081587076187
1686424787695513300,12.388513427734376,-0.04831291735172272,-0.8054862022399902,-0.24766536056995392
1686424787705460000,12.3984599609375,-0.035128138959407806,-0.5957849025726318,-0.3939056694507599
1686424787715406000,12.408406005859375,-0.012601474300026894,-0.39452075958251953,-0.5502762198448181
1686424787725351200,12.41835107421875,0.024637507274746895,-0.19897015392780304,-0.7053827047348022
1686424787735297300,12.42829736328125,0.04834458976984024,0.014234191738069057,-0.8113064765930176
1686424787745243100,12.4382431640625,0.08498808741569519,0.23629309237003326,-0.8504610657691956
1686424787755189200,12.448189208984376,0.09353653341531754,0.44772467017173767,-0.8178507089614868
1686424787765135400,12.45813525390625,0.08683069050312042,0.7176144123077393,-0.7064695954322815
1686424787775081200,12.468081298828125,0.08953859657049179,1.0078680515289307,-0.5469291806221008
1686424787785027300,12.47802734375,0.07317027449607849,1.2668712139129639,-0.34370869398117065
1686424787794973200,12.48797314453125,0.07377411425113678,1.496756672859192,-0.13599209487438202
1686424787804919300,12.497919189453125,0.09436459839344025,1.6596760749816895,0.062072787433862686
1686424787814865200,12.507865234375,0.12182745337486267,1.802562952041626,0.25035375356674194
