time,seconds_elapsed,z,y,x
1686424775407254300,0.100254150390625,-113.06353759765625,-69.70001220703125,105.83432006835938
1686424775417331200,0.110331298828125,-112.52964782714844,-69.97752380371094,106.25474548339844
1686424775427408100,0.120408203125,-111.79420471191406,-70.01991271972656,106.85542297363281
1686424775437483000,0.13048291015625,-111.05474853515625,-70.07498168945312,107.1942138671875
1686424775447559700,0.1405595703125,-111.01492309570312,-70.61366271972656,108.16078186035156
1686424775457635600,0.150635498046875,-110.47352600097656,-70.87261962890625,108.77711486816406
1686424775467712800,0.160712646484375,-110.05574035644531,-70.65705871582031,110.06800842285156
1686424775477787000,0.170786865234375,-108.94003295898438,-70.85765075683594,110.82177734375
1686424775487862500,0.180862548828125,-107.99153137207031,-71.23020935058594,111.49275207519531
1686424775497938700,0.190938720703125,-107.19329833984375,-71.24385070800781,112.20130920410156
1686424775508013800,0.201013916015625,-107.15394592285156,-71.16094970703125,112.84394836425781
1686424775518089700,0.21108984375,-106.14132690429688,-71.11982727050781,113.4361572265625
1686424775528165600,0.22116552734375,-105.11453247070312,-71.09266662597656,114.17034912109375
1686424775538242600,0.23124267578125,-104.60768127441406,-70.63328552246094,114.849365234375
1686424775548320800,0.24132080078125,-104.44264221191406,-70.65522766113281,115.33447265625
1686424775558397700,0.251397705078125,-103.87960815429688,-70.58003234863281,115.95779418945312
1686424775568475600,0.2614755859375,-103.48220825195312,-70.18081665039062,116.49266052246094
1686424775578553600,0.2715537109375,-102.70790100097656,-69.77236938476562,117.21269226074219
1686424775588630800,0.281630859375,-102.04246520996094,-69.35731506347656,117.70547485351562
1686424775598707700,0.291707763671875,-102.18275451660156,-69.27476501464844,118.12234497070312
1686424775608784600,0.30178466796875,-101.24848937988281,-69.27786254882812,118.68601989746094
1686424775618861600,0.311861572265625,-100.87808227539062,-68.88137817382812,119.03221130371094
1686424775628937700,0.321937744140625,-100.881103515625,-68.83621215820312,119.3516845703125
1686424775639014700,0.3320146484375,-100.89881896972656,-68.60269165039062,118.9862060546875
1686424775649091800,0.342091796875,-100.71621704101562,-68.25938415527344,119.47801208496094
1686424775659168800,0.352168701171875,-100.27105712890625,-68.17134094238281,119.67398071289062
1686424775669245700,0.36224560546875,-99.4234619140625,-68.1197509765625,120.20283508300781
1686424775679322600,0.372322509765625,-98.52732849121094,-67.59902954101562,120.97920227050781
1686424775689397500,0.3823974609375,-97.21551513671875,-67.30191040039062,121.97470092773438
1686424775699475700,0.392475830078125,-96.42662048339844,-67.23234558105469,122.26922607421875
1686424775709550600,0.402550537109375,-95.06204223632812,-67.06748962402344,122.62760925292969
1686424775719626800,0.412626708984375,-94.08659362792969,-66.84677124023438,123.62948608398438
1686424775729702700,0.42270263671875,-92.62690734863281,-66.71345520019531,123.98025512695312
1686424775739779600,0.432779541015625,-91.01939392089844,-67.04927062988281,124.77912902832031
1686424775749855700,0.442855712890625,-89.88792419433594,-67.29293823242188,124.87586975097656
1686424775759932700,0.4529326171875,-88.73985290527344,-67.30332946777344,125.61439514160156
1686424775770009900,0.463009765625,-87.19624328613281,-67.25381469726562,125.75871276855469
1686424775780084700,0.473084716796875,-85.39305114746094,-67.21511840820312,126.13922119140625
1686424775790162700,0.48316259765625,-83.68753051757812,-67.41310119628906,126.24882507324219
1686424775800239900,0.493239990234375,-82.0008544921875,-67.2591552734375,126.97842407226562
1686424775810316800,0.50331689453125,-80.3819580078125,-67.38607788085938,127.16119384765625
1686424775820393700,0.513393798828125,-79.42974853515625,-67.23565673828125,127.42141723632812
1686424775830471700,0.5234716796875,-78.5989990234375,-66.83363342285156,127.16099548339844
1686424775840547800,0.5335478515625,-78.06976318359375,-66.97837829589844,127.40560913085938
1686424775850623500,0.54362353515625,-76.8818359375,-66.33052062988281,127.32545471191406
1686424775860697900,0.55369775390625,-75.65629577636719,-66.12712097167969,127.36994934082031
1686424775870771700,0.563771728515625,-74.18777465820312,-65.92486572265625,127.62193298339844
1686424775880846800,0.573846923828125,-72.89732360839844,-65.46580505371094,127.1219482421875
1686424775890923800,0.583923828125,-71.21456909179688,-65.48121643066406,127.20951843261719
1686424775900999700,0.593999755859375,-69.84870910644531,-65.05877685546875,127.39732360839844
1686424775911075600,0.60407568359375,-68.43864440917969,-64.90069580078125,126.68406677246094
1686424775921151700,0.61415185546875,-66.66595458984375,-64.555908203125,126.91265869140625
1686424775931226600,0.6242265625,-65.6318359375,-64.600830078125,126.69290161132812
1686424775941302800,0.634302734375,-64.91744995117188,-64.76124572753906,126.47947692871094
1686424775951380700,0.644380615234375,-63.926513671875,-64.63383483886719,126.14312744140625
1686424775961457700,0.654457763671875,-62.527008056640625,-64.55558776855469,125.68934631347656
1686424775971534800,0.664534912109375,-61.96641540527344,-64.82444763183594,125.52206420898438
1686424775981611800,0.67461181640625,-60.81103515625,-64.61097717285156,124.78834533691406
1686424775991688700,0.684688720703125,-59.22175598144531,-64.6864013671875,124.98576354980469
1686424776001764900,0.694764892578125,-58.312957763671875,-64.38810729980469,123.85208129882812
1686424776011839700,0.70483984375,-57.39378356933594,-64.31146240234375,123.55494689941406
1686424776021916700,0.714916748046875,-55.49021911621094,-64.16398620605469,122.86178588867188
1686424776031992600,0.72499267578125,-54.957244873046875,-64.10592651367188,122.33720397949219
1686424776042068700,0.73506884765625,-53.42277526855469,-64.00503540039062,121.70613098144531
1686424776052144600,0.74514453125,-52.54878234863281,-63.75859069824219,121.10650634765625
1686424776062221800,0.755221923828125,-51.9532470703125,-63.451995849609375,120.81813049316406
1686424776072296700,0.765296630859375,-51.67564392089844,-63.0404052734375,120.66755676269531
1686424776082371600,0.77537158203125,-50.445587158203125,-62.06294250488281,120.34713745117188
1686424776092445700,0.78544580078125,-49.94688415527344,-61.69976806640625,120.32598876953125
1686424776102520800,0.795520751953125,-49.72642517089844,-60.74708557128906,120.45002746582031
1686424776112596700,0.8055966796875,-48.755615234375,-59.556976318359375,119.82090759277344
1686424776122671600,0.815671630859375,-48.62187194824219,-58.35723876953125,120.07626342773438
1686424776132747800,0.825747802734375,-48.14964294433594,-57.13325500488281,119.45982360839844
1686424776142825700,0.83582568359375,-47.44415283203125,-56.66160583496094,118.45268249511719
1686424776152900600,0.845900634765625,-46.56608581542969,-55.12043762207031,118.03584289550781
1686424776162976800,0.855976806640625,-45.32965087890625,-54.35371398925781,117.73214721679688
1686424776173052700,0.866052734375,-45.07563781738281,-52.91706848144531,116.76435852050781
1686424776183125800,0.876125732421875,-44.645782470703125,-52.08160400390625,115.89056396484375
1686424776193200600,0.88620068359375,-44.00230407714844,-50.347381591796875,115.40849304199219
1686424776203275800,0.89627587890625,-43.69908142089844,-49.34580993652344,115.14533996582031
1686424776213350700,0.9063505859375,-44.0906982421875,-47.59883117675781,114.71786499023438
1686424776223425500,0.916425537109375,-43.31773376464844,-46.515594482421875,114.40956115722656
1686424776233501700,0.926501708984375,-43.38359069824219,-45.05461120605469,114.25909423828125
1686424776243577600,0.93657763671875,-43.178924560546875,-43.7763671875,113.55287170410156
1686424776253653800,0.94665380859375,-43.35191345214844,-42.537445068359375,113.15313720703125
1686424776263731700,0.956731689453125,-43.47059631347656,-41.33647155761719,112.7288818359375
1686424776273808600,0.96680859375,-43.911529541015625,-40.19145202636719,112.72611999511719
1686424776283885800,0.9768857421875,-44.425537109375,-38.60578918457031,112.77827453613281
1686424776293963800,0.9869638671875,-44.81697082519531,-37.52879333496094,112.64045715332031
1686424776304041700,0.997041748046875,-45.5439453125,-35.9053955078125,112.12457275390625
1686424776314117600,1.00711767578125,-45.645263671875,-34.42967224121094,111.85116577148438
1686424776324194600,1.017194580078125,-46.57435607910156,-32.80574035644531,111.74267578125
1686424776334270700,1.027270751953125,-47.96903991699219,-31.086380004882812,111.64651489257812
1686424776344347000,1.037346923828125,-48.971343994140625,-29.340042114257812,111.28654479980469
1686424776354422500,1.047422607421875,-49.84852600097656,-27.504791259765625,111.20697021484375
1686424776364499500,1.05749951171875,-52.00407409667969,-25.3447265625,110.9866943359375
1686424776374575600,1.06757568359375,-53.290283203125,-23.7789306640625,110.10409545898438
1686424776384651800,1.07765185546875,-55.100860595703125,-22.107498168945312,109.36740112304688
1686424776394727700,1.087727783203125,-56.794342041015625,-20.128143310546875,108.07676696777344
1686424776404804600,1.0978046875,-57.70841979980469,-18.641860961914062,107.29388427734375
1686424776414877700,1.107877685546875,-59.264617919921875,-16.822067260742188,105.76893615722656
1686424776424950500,1.117950439453125,-60.48924255371094,-15.054595947265625,104.29916381835938
1686424776435027700,1.12802783203125,-61.71795654296875,-13.778839111328125,102.32829284667969
1686424776445103400,1.138103271484375,-63.19293212890625,-12.096710205078125,100.83924865722656
1686424776455179500,1.148179443359375,-64.76069641113281,-11.358551025390625,99.32536315917969
1686424776465255400,1.15825537109375,-65.63589477539062,-10.439788818359375,97.80607604980469
1686424776475332600,1.16833251953125,-66.99894714355469,-9.957595825195312,97.010009765625
1686424776485407200,1.1784072265625,-68.64729309082031,-9.376571655273438,95.69705200195312
1686424776495482400,1.188482421875,-69.66404724121094,-8.796981811523438,95.16522216796875
1686424776505557500,1.1985576171875,-71.50430297851562,-8.444656372070312,94.37417602539062
1686424776515633400,1.20863330078125,-73.22804260253906,-8.255828857421875,93.95130920410156
1686424776525708500,1.21870849609375,-74.35758972167969,-8.1561279296875,93.72213745117188
1686424776535783400,1.228783447265625,-75.31358337402344,-8.240325927734375,93.93333435058594
1686424776545859300,1.238859375,-75.65615844726562,-8.07379150390625,94.33689880371094
1686424776555934500,1.2489345703125,-76.62376403808594,-8.488662719726562,94.75007629394531
1686424776566009600,1.259009521484375,-77.01478576660156,-8.775436401367188,95.37236022949219
1686424776576085200,1.269085205078125,-77.15843200683594,-8.86724853515625,96.09869384765625
1686424776586162400,1.279162353515625,-78.19639587402344,-9.228515625,96.78727722167969
1686424776596238300,1.28923828125,-78.31333923339844,-9.902587890625,97.9476318359375
1686424776606314500,1.299314453125,-78.90164184570312,-10.774917602539062,98.89480590820312
1686424776616386300,1.30938623046875,-79.18016052246094,-10.892059326171875,100.20101928710938
1686424776626462500,1.31946240234375,-79.89627075195312,-11.197097778320312,101.44697570800781
1686424776636536300,1.329536376953125,-79.66810607910156,-12.113021850585938,102.67413330078125
1686424776646611500,1.339611572265625,-80.31938171386719,-12.6766357421875,104.09248352050781
1686424776656687600,1.3496875,-80.79747009277344,-13.41876220703125,105.32575988769531
1686424776666762200,1.35976220703125,-81.33308410644531,-13.954986572265625,105.86311340332031
1686424776676838400,1.36983837890625,-81.2320556640625,-14.504989624023438,106.70455932617188
1686424776686913500,1.37991357421875,-81.257568359375,-14.635009765625,107.48243713378906
1686424776696989400,1.389989501953125,-81.73719787597656,-15.17315673828125,108.20248413085938
1686424776707065300,1.4000654296875,-81.29176330566406,-15.883010864257812,108.75553894042969
1686424776717141500,1.4101416015625,-81.236328125,-16.22943115234375,109.5645751953125
1686424776727218400,1.420218505859375,-80.67840576171875,-16.6392822265625,110.09190368652344
1686424776737294300,1.43029443359375,-80.15438842773438,-16.481552124023438,109.81063842773438
1686424776747369500,1.440369384765625,-79.35688781738281,-16.3662109375,109.78775024414062
1686424776757445400,1.4504453125,-79.29258728027344,-16.091629028320312,109.4617919921875
1686424776767521300,1.460521240234375,-78.49967956542969,-16.057510375976562,109.419189453125
1686424776777597400,1.470597412109375,-78.07200622558594,-15.702835083007812,108.95442199707031
1686424776787673600,1.480673583984375,-77.74586486816406,-16.203445434570312,109.41334533691406
1686424776797748200,1.490748291015625,-78.23588562011719,-16.028289794921875,109.61648559570312
1686424776807824400,1.500824462890625,-77.9920654296875,-16.267562866210938,110.10514831542969
1686424776817899500,1.5108994140625,-77.39833068847656,-16.497146606445312,110.41453552246094
1686424776827975400,1.520975341796875,-78.09149169921875,-16.719223022460938,110.44808959960938
1686424776838049500,1.531049560546875,-78.2659912109375,-16.502349853515625,110.18331909179688
1686424776848124400,1.54112451171875,-77.84588623046875,-16.764694213867188,110.58218383789062
1686424776858200600,1.55120068359375,-77.39402770996094,-16.905929565429688,110.90632629394531
1686424776868276500,1.5612763671875,-77.92787170410156,-17.046737670898438,111.18693542480469
1686424776878352400,1.571352294921875,-77.66783142089844,-16.977218627929688,111.45527648925781
1686424776888427500,1.581427490234375,-77.19313049316406,-17.443954467773438,111.15249633789062
1686424776898501400,1.59150146484375,-76.85047912597656,-17.101348876953125,111.39668273925781
1686424776908575500,1.601575439453125,-76.68626403808594,-17.678756713867188,111.56143188476562
1686424776918650400,1.611650390625,-75.93183898925781,-17.613021850585938,111.86528015136719
1686424776928726500,1.6217265625,-75.70962524414062,-17.4669189453125,111.75721740722656
1686424776938802400,1.631802490234375,-74.56639099121094,-17.729904174804688,112.230712890625
1686424776948878600,1.641878662109375,-74.33299255371094,-17.800003051757812,112.13735961914062
1686424776958952400,1.651952392578125,-74.20755004882812,-17.916778564453125,112.40847778320312
1686424776969027600,1.662027587890625,-73.91995239257812,-18.069442749023438,112.56845092773438
1686424776979103200,1.672103271484375,-73.47296142578125,-18.453781127929688,112.580078125
1686424776989176600,1.682176513671875,-73.15948486328125,-18.682281494140625,113.15684509277344
1686424776999251500,1.69225146484375,-72.87847900390625,-18.979873657226562,113.62135314941406
1686424777009327400,1.702327392578125,-71.88774108886719,-19.44287109375,113.64910888671875
1686424777019402500,1.712402587890625,-70.53427124023438,-19.91131591796875,114.31752014160156
1686424777029477400,1.722477294921875,-69.31558227539062,-20.50555419921875,114.79644775390625
1686424777039553300,1.73255322265625,-68.1756591796875,-21.469680786132812,115.10650634765625
1686424777049628400,1.74262841796875,-67.51101684570312,-22.083450317382812,115.84483337402344
1686424777059702300,1.752702392578125,-66.45576477050781,-22.872207641601562,116.11367797851562
1686424777069777400,1.76277734375,-66.84205627441406,-23.202621459960938,116.72467041015625
1686424777079853600,1.772853515625,-66.16050720214844,-23.630996704101562,116.97508239746094
1686424777089928400,1.782928466796875,-66.13613891601562,-24.171432495117188,117.22833251953125
1686424777100004400,1.79300439453125,-65.44654846191406,-24.318923950195312,117.36697387695312
1686424777110079500,1.80307958984375,-65.320068359375,-24.668731689453125,117.394775390625
1686424777120152600,1.813152587890625,-64.48199462890625,-24.865264892578125,117.30078125
1686424777130225400,1.823225341796875,-63.73455810546875,-25.500259399414062,117.44169616699219
1686424777140301600,1.833301513671875,-63.461273193359375,-25.020660400390625,117.18150329589844
1686424777150376200,1.843376220703125,-62.75788879394531,-25.109176635742188,116.91566467285156
1686424777160452400,1.853452392578125,-62.6287841796875,-25.367828369140625,117.10197448730469
1686424777170525400,1.863525390625,-62.34623718261719,-25.5101318359375,116.87803649902344
1686424777180600300,1.873600341796875,-61.603759765625,-26.016433715820312,117.24906921386719
1686424777190675500,1.883675537109375,-61.3106689453125,-26.35101318359375,117.29740905761719
1686424777200751600,1.893751708984375,-60.60032653808594,-27.218505859375,117.33419799804688
1686424777210827300,1.9038271484375,-60.072601318359375,-27.7176513671875,117.58352661132812
1686424777220902400,1.91390234375,-59.5943603515625,-28.665985107421875,117.90191650390625
1686424777230978600,1.923978515625,-59.560455322265625,-29.398880004882812,118.56690979003906
1686424777241053400,1.934053466796875,-59.07652282714844,-29.304061889648438,118.53802490234375
1686424777251128300,1.94412841796875,-59.14833068847656,-30.132827758789062,118.68771362304688
1686424777261204500,1.95420458984375,-58.33349609375,-30.272705078125,118.43923950195312
1686424777271279400,1.964279296875,-58.024932861328125,-30.782272338867188,118.33317565917969
1686424777281355300,1.974355224609375,-58.29054260253906,-30.573715209960938,118.04074096679688
1686424777291431400,1.984431396484375,-58.32426452636719,-30.693099975585938,118.13563537597656
1686424777301506600,1.994506591796875,-58.17718505859375,-30.038848876953125,117.74253845214844
1686424777311583500,2.00458349609375,-57.86747741699219,-29.567001342773438,117.1474609375
1686424777321659400,2.014659423828125,-57.84037780761719,-29.0933837890625,116.64595031738281
1686424777331735300,2.0247353515625,-57.969146728515625,-28.625259399414062,116.4412841796875
1686424777341810400,2.034810546875,-57.71943664550781,-28.277481079101562,116.00650024414062
1686424777351886600,2.044886474609375,-57.618408203125,-28.575592041015625,115.996826171875
1686424777361961500,2.05496142578125,-57.195709228515625,-28.896652221679688,115.88223266601562
1686424777372038400,2.065038330078125,-57.62213134765625,-29.033370971679688,115.3955078125
1686424777382112500,2.075112548828125,-56.534423828125,-29.075698852539062,115.77210998535156
1686424777392186400,2.085186279296875,-56.141357421875,-29.165237426757812,115.48377990722656
1686424777402261500,2.095261474609375,-55.29435729980469,-28.991043090820312,114.81320190429688
1686424777412336400,2.10533642578125,-54.95977783203125,-28.62506103515625,114.45585632324219
1686424777422411500,2.11541162109375,-55.13578796386719,-28.124832153320312,113.7120361328125
1686424777432488400,2.125488525390625,-54.41307067871094,-27.635635375976562,113.60572814941406
1686424777442564600,2.135564697265625,-54.9827880859375,-26.898849487304688,113.11630249023438
1686424777452639200,2.14563916015625,-54.93266296386719,-26.524017333984375,112.52253723144531
1686424777462715400,2.15571533203125,-55.24266052246094,-25.450088500976562,112.17027282714844
1686424777472791600,2.16579150390625,-55.95939636230469,-24.734710693359375,111.86241149902344
1686424777482865400,2.175865478515625,-55.765625,-24.0975341796875,111.12550354003906
1686424777492939500,2.185939453125,-56.975067138671875,-23.090576171875,110.48971557617188
1686424777503014400,2.196014404296875,-58.42961120605469,-22.17498779296875,109.821533203125
1686424777513090300,2.20609033203125,-57.92872619628906,-21.185546875,109.12861633300781
1686424777523165400,2.21616552734375,-58.941864013671875,-20.452804565429688,107.90705871582031
1686424777533240300,2.226240234375,-59.181732177734375,-19.3148193359375,107.02348327636719
1686424777543316500,2.23631640625,-59.69554138183594,-18.577133178710938,105.55403137207031
1686424777553392400,2.246392333984375,-59.6322021484375,-17.5718994140625,104.17546081542969
1686424777563468500,2.256468505859375,-59.75013732910156,-16.174179077148438,102.00827026367188
1686424777573545500,2.26654541015625,-59.21394348144531,-15.279464721679688,100.63021850585938
1686424777583620600,2.27662060546875,-58.96461486816406,-14.380691528320312,98.92414855957031
1686424777593694500,2.286694580078125,-58.40095520019531,-13.54071044921875,96.78611755371094
1686424777603769600,2.29676953125,-59.18995666503906,-13.127944946289062,95.80599975585938
1686424777613845200,2.30684521484375,-59.21087646484375,-12.75799560546875,93.87126159667969
1686424777623921400,2.31692138671875,-59.13917541503906,-12.239822387695312,92.82600402832031
1686424777633997600,2.32699755859375,-58.81756591796875,-11.855987548828125,91.39059448242188
1686424777644073500,2.337073486328125,-59.11241149902344,-11.407028198242188,89.7589111328125
1686424777654149600,2.347149658203125,-59.10945129394531,-10.91058349609375,88.17674255371094
1686424777664225300,2.357225341796875,-59.27459716796875,-10.293670654296875,86.44578552246094
1686424777674301400,2.367301513671875,-59.74755859375,-10.192398071289062,83.96798706054688
1686424777684378400,2.37737841796875,-59.48785400390625,-9.7061767578125,82.28300476074219
1686424777694454500,2.38745458984375,-59.6058349609375,-9.882003784179688,80.02442932128906
1686424777704529400,2.397529296875,-59.23405456542969,-9.564529418945312,77.92782592773438
1686424777714603500,2.407603515625,-59.509002685546875,-9.95751953125,75.52120971679688
1686424777724679400,2.417679443359375,-59.386138916015625,-9.533523559570312,73.88969421386719
1686424777734755600,2.427755615234375,-59.089996337890625,-10.261367797851562,71.74395751953125
1686424777744830500,2.43783056640625,-59.66339111328125,-10.12249755859375,70.20243835449219
1686424777754906400,2.44790625,-59.89958190917969,-10.23712158203125,69.22802734375
1686424777764980200,2.457980224609375,-60.41682434082031,-10.472305297851562,68.21649169921875
1686424777775056400,2.468056396484375,-60.378631591796875,-10.544464111328125,67.87612915039062
1686424777785132300,2.47813232421875,-61.24217224121094,-10.592391967773438,67.46870422363281
1686424777795207400,2.48820751953125,-61.64125061035156,-10.604400634765625,67.06832885742188
1686424777805283600,2.49828369140625,-61.99053955078125,-11.007339477539062,67.04727172851562
1686424777815359200,2.508359130859375,-62.47645568847656,-10.607009887695312,66.58163452148438
1686424777825435400,2.518435302734375,-63.445404052734375,-10.607589721679688,66.66409301757812
1686424777835510500,2.528510498046875,-64.52609252929688,-10.237045288085938,66.35679626464844
1686424777845586400,2.53858642578125,-65.37460327148438,-9.984237670898438,66.16575622558594
1686424777855663600,2.54866357421875,-66.23722839355469,-9.8853759765625,66.33854675292969
1686424777865739300,2.5587392578125,-67.50152587890625,-9.520904541015625,66.22256469726562
1686424777875814400,2.568814453125,-67.61170959472656,-9.502197265625,66.41387939453125
1686424777885890600,2.578890625,-68.55375671386719,-9.536407470703125,66.16970825195312
1686424777895964400,2.58896435546875,-69.08024597167969,-9.842605590820312,66.14689636230469
1686424777906038500,2.59903857421875,-68.78550720214844,-9.944015502929688,65.90402221679688
1686424777916114400,2.609114501953125,-69.373779296875,-10.209671020507812,65.63369750976562
1686424777926190300,2.6191904296875,-69.9146728515625,-9.962677001953125,65.76081848144531
1686424777936264400,2.629264404296875,-69.86405944824219,-10.357818603515625,66.05624389648438
1686424777946340400,2.63934033203125,-69.32321166992188,-10.243301391601562,66.07633972167969
1686424777956417300,2.649417236328125,-69.35466003417969,-10.3790283203125,66.236572265625
1686424777966493400,2.659493408203125,-68.83067321777344,-10.136093139648438,66.87510681152344
1686424777976568600,2.669568603515625,-67.97169494628906,-10.354019165039062,66.90878295898438
1686424777986644500,2.67964453125,-67.2166748046875,-10.172348022460938,66.91154479980469
1686424777996718300,2.68971826171875,-66.68714904785156,-9.955337524414062,67.355712890625
1686424778006794500,2.69979443359375,-65.99372863769531,-9.901626586914062,67.54586791992188
1686424778016871400,2.709871337890625,-65.54985046386719,-10.428451538085938,67.97682189941406
1686424778026947600,2.719947509765625,-64.65737915039062,-10.555831909179688,68.26223754882812
1686424778037023500,2.7300234375,-64.10478210449219,-10.51214599609375,69.21823120117188
1686424778047099400,2.740099365234375,-63.455230712890625,-10.380996704101562,70.00747680664062
1686424778057174500,2.750174560546875,-62.4825439453125,-10.70587158203125,70.96409606933594
1686424778067250400,2.76025048828125,-62.34197998046875,-10.32244873046875,71.61016845703125
1686424778077327600,2.77032763671875,-61.78672790527344,-10.102874755859375,72.44526672363281
1686424778087404500,2.780404541015625,-60.94129943847656,-10.4736328125,72.72076416015625
1686424778097482500,2.790482421875,-60.71014404296875,-10.171478271484375,73.63862609863281
1686424778107559400,2.800559326171875,-60.94187927246094,-9.908584594726562,74.52786254882812
1686424778117634600,2.810634521484375,-60.21257019042969,-10.036941528320312,75.45950317382812
1686424778127711500,2.82071142578125,-60.174224853515625,-9.815185546875,76.33641052246094
1686424778137786400,2.830786376953125,-59.79649353027344,-9.748641967773438,77.06150817871094
1686424778147862500,2.840862548828125,-59.14906311035156,-9.743377685546875,77.81243896484375
1686424778157938400,2.8509384765625,-59.38551330566406,-9.980743408203125,78.45646667480469
1686424778168014600,2.8610146484375,-59.15238952636719,-9.6556396484375,78.57247924804688
1686424778178090200,2.87109033203125,-58.6846923828125,-9.698135375976562,79.09660339355469
1686424778188166400,2.88116650390625,-58.69563293457031,-9.69342041015625,79.88217163085938
1686424778198241500,2.891241455078125,-58.42198181152344,-9.652877807617188,80.03273010253906
1686424778208317400,2.9013173828125,-57.94377136230469,-9.597244262695312,79.98768615722656
1686424778218392300,2.911392333984375,-58.20458984375,-9.656112670898438,80.56532287597656
1686424778228469200,2.92146923828125,-57.76115417480469,-9.531890869140625,80.534423828125
1686424778238546400,2.93154638671875,-56.827392578125,-9.888351440429688,80.16163635253906
1686424778248623400,2.941623291015625,-56.615264892578125,-9.882797241210938,80.29067993164062
1686424778258699500,2.951699462890625,-56.151458740234375,-9.813919067382812,80.30317687988281
1686424778268775400,2.961775390625,-55.956207275390625,-9.841552734375,80.62716674804688
1686424778278848500,2.9718486328125,-55.489410400390625,-10.45892333984375,80.08758544921875
1686424778288923400,2.98192333984375,-54.51545715332031,-10.817596435546875,79.58320617675781
1686424778299000600,2.99200048828125,-53.41796875,-11.243026733398438,78.81893920898438
1686424778309076500,3.002076416015625,-52.49420166015625,-11.949859619140625,77.7530517578125
1686424778319153700,3.012153564453125,-51.25189208984375,-12.907974243164062,77.04228210449219
1686424778329228300,3.022228271484375,-50.090362548828125,-13.800201416015625,76.76840209960938
1686424778339305500,3.032305419921875,-48.71427917480469,-14.927017211914062,75.97720336914062
1686424778349382400,3.04238232421875,-47.46881103515625,-15.543426513671875,75.98800659179688
1686424778359459300,3.052459228515625,-46.86589050292969,-15.943023681640625,75.16642761230469
1686424778369537300,3.062537353515625,-47.26829528808594,-16.132965087890625,74.56620788574219
1686424778379614500,3.072614501953125,-47.01191711425781,-16.167221069335938,74.23371887207031
1686424778389692700,3.082692626953125,-47.158447265625,-16.306655883789062,74.02926635742188
1686424778399769600,3.09276953125,-47.556732177734375,-15.93988037109375,74.15742492675781
1686424778409846500,3.102846435546875,-47.38282775878906,-15.900619506835938,74.04972839355469
1686424778419923500,3.11292333984375,-48.06553649902344,-16.179000854492188,74.44313049316406
1686424778429998300,3.122998291015625,-47.83454895019531,-16.2652587890625,74.75442504882812
1686424778440074500,3.133074462890625,-48.16001892089844,-16.03558349609375,74.44265747070312
1686424778450149600,3.143149658203125,-47.97349548339844,-16.017669677734375,74.57508850097656
1686424778460225500,3.1532255859375,-48.326995849609375,-16.30194091796875,74.60777282714844
1686424778470301700,3.1633017578125,-48.622344970703125,-15.930099487304688,74.65403747558594
1686424778480377600,3.173377685546875,-48.73127746582031,-16.060226440429688,74.28306579589844
1686424778490453500,3.18345361328125,-48.669586181640625,-16.053680419921875,74.52397155761719
1686424778500529400,3.193529296875,-48.71014404296875,-15.564910888671875,74.55967712402344
1686424778510604500,3.2036044921875,-49.18577575683594,-15.625198364257812,74.6328125
1686424778520680700,3.2136806640625,-49.12347412109375,-15.525390625,75.15284729003906
1686424778530757600,3.223757568359375,-49.941162109375,-15.13427734375,75.31167602539062
1686424778540833800,3.233833740234375,-49.71519470214844,-15.05474853515625,75.29580688476562
1686424778550910700,3.24391064453125,-50.181365966796875,-14.637130737304688,75.83815002441406
1686424778560988700,3.25398876953125,-50.671142578125,-14.40301513671875,76.17243957519531
1686424778571066600,3.264066650390625,-51.1300048828125,-14.006927490234375,76.01229858398438
1686424778581144600,3.27414453125,-52.068695068359375,-13.65869140625,76.36360168457031
1686424778591221500,3.284221435546875,-52.3890380859375,-13.150421142578125,76.50970458984375
1686424778601298700,3.294298583984375,-52.56353759765625,-13.12725830078125,76.6815185546875
1686424778611376600,3.304376708984375,-53.254669189453125,-12.556564331054688,76.64907836914062
1686424778621454600,3.31445458984375,-53.24821472167969,-12.384597778320312,76.55119323730469
1686424778631530500,3.324530517578125,-54.006591796875,-12.478118896484375,76.10911560058594
1686424778641605600,3.334605712890625,-54.6761474609375,-11.966064453125,75.75601196289062
1686424778651682600,3.3446826171875,-55.32562255859375,-11.465316772460938,75.68775939941406
1686424778661758700,3.3547587890625,-55.62196350097656,-11.548599243164062,75.35818481445312
1686424778671835600,3.364835693359375,-56.40179443359375,-11.15216064453125,75.14591979980469
1686424778681911800,3.374911865234375,-56.69140625,-10.630172729492188,75.12434387207031
1686424778691988700,3.38498876953125,-57.51756286621094,-10.135009765625,75.31646728515625
1686424778702065700,3.395065673828125,-58.15492248535156,-9.646743774414062,74.83119201660156
1686424778712140500,3.405140625,-58.947906494140625,-9.880325317382812,74.208984375
1686424778722215700,3.415215576171875,-60.24180603027344,-9.158447265625,73.89132690429688
1686424778732292600,3.425292724609375,-60.37919616699219,-8.741790771484375,73.61843872070312
1686424778742368800,3.43536865234375,-61.168670654296875,-8.706924438476562,73.09716796875
1686424778752444400,3.4454443359375,-62.2896728515625,-8.058944702148438,72.80799865722656
1686424778762520600,3.4555205078125,-62.53265380859375,-7.88848876953125,72.03477478027344
1686424778772597500,3.465597412109375,-63.223663330078125,-7.703765869140625,72.20326232910156
1686424778782673700,3.475673583984375,-63.7315673828125,-7.4433135986328125,71.64927673339844
1686424778792750600,3.48575048828125,-64.03608703613281,-7.4749298095703125,71.49575805664062
1686424778802826800,3.49582666015625,-64.17913818359375,-7.3515777587890625,70.82308959960938
1686424778812901400,3.5059013671875,-63.7724609375,-7.675140380859375,70.35807800292969
1686424778822978600,3.515978515625,-63.48719787597656,-7.6009063720703125,69.81558227539062
1686424778833054500,3.526054443359375,-62.49761962890625,-8.19952392578125,68.87663269042969
1686424778843132400,3.53613232421875,-62.07133483886719,-8.446929931640625,68.272216796875
1686424778853209600,3.546209716796875,-61.009857177734375,-9.077774047851562,67.43498229980469
1686424778863286500,3.55628662109375,-59.54048156738281,-9.1583251953125,66.75834655761719
1686424778873364700,3.56636474609375,-58.041900634765625,-10.275985717773438,66.45280456542969
1686424778883442700,3.576442626953125,-57.35060119628906,-10.907669067382812,66.20877075195312
1686424778893517600,3.586517578125,-56.00067138671875,-11.47955322265625,65.64036560058594
1686424778903593500,3.596593505859375,-54.93785095214844,-12.133377075195312,65.47895812988281
1686424778913670700,3.606670654296875,-54.41926574707031,-13.081283569335938,64.86151123046875
1686424778923747600,3.61674755859375,-53.501800537109375,-13.210494995117188,64.103759765625
1686424778933824500,3.626824462890625,-53.20796203613281,-14.15216064453125,64.248291015625
1686424778943901400,3.6369013671875,-53.283172607421875,-14.303741455078125,63.832122802734375
1686424778953977600,3.6469775390625,-53.21827697753906,-14.369277954101562,63.75233459472656
1686424778964053500,3.657053466796875,-52.60505676269531,-14.544281005859375,63.87159729003906
1686424778974129700,3.667129638671875,-52.604736328125,-14.72589111328125,63.856292724609375
1686424778984204500,3.67720458984375,-52.607391357421875,-14.721389770507812,63.9080810546875
1686424778994281500,3.687281494140625,-52.7095947265625,-14.642303466796875,64.13804626464844
1686424779004357600,3.697357666015625,-52.64759826660156,-14.68927001953125,64.31155395507812
1686424779014435600,3.707435546875,-52.83534240722656,-14.914962768554688,64.34901428222656
1686424779024511500,3.717511474609375,-52.42967224121094,-15.064483642578125,64.72367858886719
1686424779034585600,3.727585693359375,-52.34367370605469,-15.1590576171875,64.74183654785156
1686424779044661500,3.73766162109375,-52.309722900390625,-14.910110473632812,65.39102172851562
1686424779054739700,3.74773974609375,-51.96795654296875,-14.868301391601562,65.60664367675781
1686424779064815600,3.757815673828125,-51.96745300292969,-14.6583251953125,65.97613525390625
1686424779074892500,3.767892578125,-51.54396057128906,-14.522994995117188,67.02903747558594
1686424779084968400,3.777968505859375,-51.45054626464844,-14.205764770507812,67.76202392578125
1686424779095045600,3.788045654296875,-51.07395935058594,-14.016433715820312,68.14152526855469
1686424779105121500,3.79812158203125,-51.84039306640625,-13.496597290039062,68.741943359375
1686424779115197700,3.80819775390625,-51.654266357421875,-13.173324584960938,69.14495849609375
1686424779125274600,3.818274658203125,-51.669952392578125,-12.904922485351562,69.75967407226562
1686424779135351600,3.8283515625,-52.01460266113281,-12.322860717773438,69.92735290527344
1686424779145428700,3.8384287109375,-52.79652404785156,-12.087310791015625,70.21383666992188
1686424779155505700,3.848505615234375,-53.16026306152344,-12.18157958984375,70.29701232910156
1686424779165581800,3.858581787109375,-54.12321472167969,-11.88262939453125,70.14006042480469
1686424779175658800,3.86865869140625,-54.83845520019531,-11.728713989257812,70.07342529296875
1686424779185735700,3.878735595703125,-54.72245788574219,-11.698226928710938,69.85734558105469
1686424779195812600,3.8888125,-54.98185729980469,-11.499282836914062,69.2760009765625
1686424779205890600,3.898890625,-55.42927551269531,-11.044036865234375,69.55755615234375
1686424779215966700,3.908966796875,-55.62261962890625,-11.478424072265625,68.66156005859375
1686424779226043600,3.919043701171875,-56.02232360839844,-11.21826171875,68.43255615234375
1686424779236120600,3.92912060546875,-56.47953796386719,-11.253250122070312,68.01431274414062
1686424779246197800,3.93919775390625,-57.50602722167969,-10.850967407226562,67.41488647460938
1686424779256273400,3.9492734375,-57.35652160644531,-10.744964599609375,66.78419494628906
1686424779266350600,3.9593505859375,-58.12127685546875,-10.734603881835938,66.52900695800781
1686424779276426500,3.969426513671875,-58.35968017578125,-10.886489868164062,66.22821044921875
1686424779286502700,3.979502685546875,-58.69419860839844,-10.635848999023438,66.58914184570312
1686424779296577800,3.989577880859375,-58.683837890625,-10.31732177734375,66.97866821289062
1686424779306653400,3.9996533203125,-59.32572937011719,-10.19244384765625,66.74679565429688
1686424779316727600,4.0097275390625,-58.46650695800781,-10.457992553710938,66.76873779296875
1686424779326801700,4.0198017578125,-58.13006591796875,-10.210723876953125,66.35134887695312
1686424779336877600,4.029877685546875,-58.3887939453125,-10.435760498046875,66.50517272949219
1686424779346952700,4.03995263671875,-57.07908630371094,-10.448959350585938,66.56423950195312
1686424779357027600,4.050027587890625,-56.85540771484375,-10.573516845703125,66.9532470703125
1686424779367103500,4.060103515625,-55.73320007324219,-10.861801147460938,66.71739196777344
1686424779377175600,4.070175537109375,-55.03924560546875,-11.279052734375,66.93447875976562
1686424779387251700,4.080251708984375,-54.011260986328125,-11.141845703125,67.24383544921875
1686424779397327600,4.09032763671875,-53.09712219238281,-11.873367309570312,66.97830200195312
1686424779407403800,4.10040380859375,-52.167877197265625,-12.258529663085938,66.75840759277344
1686424779417477600,4.1104775390625,-51.97987365722656,-12.36669921875,66.55062866210938
1686424779427553500,4.120553466796875,-51.322784423828125,-12.458404541015625,66.62409973144531
1686424779437628400,4.13062841796875,-51.37492370605469,-12.51263427734375,66.672607421875
1686424779447703000,4.140703125,-51.192230224609375,-12.90460205078125,65.791259765625
1686424779457777000,4.15077685546875,-51.50889587402344,-13.12249755859375,64.86070251464844
1686424779467852000,4.16085205078125,-51.67195129394531,-13.20611572265625,64.268310546875
1686424779477927000,4.170927001953125,-52.01336669921875,-13.469009399414062,63.40727233886719
1686424779488003000,4.181003173828125,-52.48223876953125,-13.2354736328125,62.47007751464844
1686424779498079000,4.191078857421875,-52.6973876953125,-13.61517333984375,62.45536804199219
1686424779508155100,4.201155029296875,-52.68798828125,-13.373291015625,62.3310546875
1686424779518230000,4.21122998046875,-52.52204895019531,-13.51080322265625,62.70939636230469
1686424779528305200,4.22130517578125,-52.0587158203125,-13.922988891601562,63.0484619140625
1686424779538381000,4.231381103515625,-51.50831604003906,-13.920562744140625,63.36103820800781
1686424779548456000,4.2414560546875,-50.92243957519531,-14.01263427734375,63.901641845703125
1686424779558531000,4.251531005859375,-51.07316589355469,-13.918167114257812,64.08930969238281
1686424779568607000,4.26160693359375,-51.077972412109375,-13.7877197265625,64.09330749511719
1686424779578681900,4.271681884765625,-51.567108154296875,-13.831558227539062,64.47586059570312
1686424779588758000,4.281758056640625,-50.656005859375,-14.055755615234375,64.83518981933594
1686424779598834000,4.291833984375,-50.74079895019531,-14.01654052734375,64.70271301269531
1686424779608911000,4.3019111328125,-51.81361389160156,-13.780441284179688,65.094970703125
1686424779618987000,4.311987060546875,-51.51142883300781,-13.74285888671875,65.02658081054688
1686424779629063200,4.322063232421875,-51.720458984375,-13.253143310546875,64.81314086914062
1686424779639138000,4.332137939453125,-51.57472229003906,-13.29931640625,65.16424560546875
1686424779649214000,4.3422138671875,-52.06858825683594,-13.235488891601562,65.15232849121094
1686424779659289000,4.3522890625,-52.44395446777344,-13.111083984375,65.20426940917969
1686424779669365200,4.362365234375,-52.7049560546875,-12.805816650390625,65.37236022949219
1686424779679441000,4.37244091796875,-53.07159423828125,-12.532745361328125,65.53158569335938
1686424779689518000,4.38251806640625,-52.94471740722656,-12.519149780273438,66.0238037109375
1686424779699596300,4.39259619140625,-53.50091552734375,-12.299407958984375,66.00910949707031
1686424779709672000,4.402671875,-53.39605712890625,-11.986587524414062,66.49650573730469
1686424779719748900,4.412748779296875,-53.86842346191406,-11.529022216796875,66.88002014160156
1686424779729826000,4.422825927734375,-54.139678955078125,-11.15008544921875,67.69764709472656
1686424779739902000,4.43290185546875,-54.60081481933594,-10.827621459960938,68.28727722167969
1686424779749978000,4.44297802734375,-54.74626159667969,-9.944931030273438,68.94113159179688
1686424779760053200,4.45305322265625,-55.43902587890625,-9.346771240234375,69.86813354492188
1686424779770127000,4.463127197265625,-55.28596496582031,-9.242172241210938,70.4549560546875
1686424779780204000,4.4732041015625,-55.622222900390625,-8.60858154296875,70.94427490234375
1686424779790280200,4.4832802734375,-56.44976806640625,-8.322479248046875,71.83160400390625
1686424779800354000,4.49335400390625,-57.376251220703125,-7.8907318115234375,72.38670349121094
1686424779810431000,4.503430908203125,-57.74613952636719,-8.090118408203125,72.62625122070312
1686424779820509000,4.513509033203125,-58.40553283691406,-7.5822601318359375,72.41079711914062
1686424779830585000,4.523585205078125,-58.72401428222656,-7.3809661865234375,72.57949829101562
1686424779840662000,4.533662109375,-59.823974609375,-6.682586669921875,72.65632629394531
1686424779850740000,4.543739990234375,-60.02764892578125,-6.3261260986328125,72.36715698242188
1686424779860816100,4.553816162109375,-60.7176513671875,-6.5555419921875,72.43394470214844
1686424779870893000,4.56389306640625,-60.83195495605469,-6.1211395263671875,72.59719848632812
1686424779880970000,4.573969970703125,-61.62944030761719,-5.9210052490234375,72.19041442871094
1686424779891047000,4.584046875,-61.97984313964844,-5.5948638916015625,71.97300720214844
1686424779901123000,4.594123046875,-62.92164611816406,-5.56689453125,71.87576293945312
1686424779911199000,4.604198974609375,-63.743194580078125,-5.3546142578125,71.88591003417969
1686424779921276200,4.614276123046875,-63.702056884765625,-5.508209228515625,71.74832153320312
1686424779931352000,4.62435205078125,-64.70726013183594,-5.1764678955078125,71.42803955078125
1686424779941428000,4.634427978515625,-64.39413452148438,-5.1194610595703125,71.45892333984375
1686424779951504000,4.64450390625,-64.43937683105469,-5.412628173828125,71.42256164550781
1686424779961579000,4.6545791015625,-64.22416687011719,-5.06744384765625,71.09690856933594
1686424779971655200,4.6646552734375,-63.47979736328125,-5.1711273193359375,70.53617858886719
1686424779981729000,4.67472900390625,-63.155120849609375,-5.3279266357421875,70.31289672851562
1686424779991804200,4.68480419921875,-62.57183837890625,-5.337066650390625,69.65046691894531
1686424780001880000,4.694880126953125,-61.682586669921875,-5.9867401123046875,69.29656982421875
1686424780011955000,4.704954833984375,-60.73957824707031,-5.9008941650390625,68.40718078613281
1686424780022031000,4.715031005859375,-60.28373718261719,-6.895904541015625,68.40963745117188
1686424780032108000,4.72510791015625,-59.435546875,-6.83795166015625,68.07804870605469
1686424780042185000,4.73518505859375,-58.999298095703125,-7.1922607421875,67.96200561523438
1686424780052262100,4.74526220703125,-58.48777770996094,-7.0963134765625,68.04385375976562
1686424780062338000,4.755338134765625,-58.685577392578125,-7.507110595703125,67.60614013671875
1686424780072415200,4.765415283203125,-58.27128601074219,-7.4073333740234375,67.28715515136719
1686424780082489900,4.77548974609375,-58.333648681640625,-7.1056365966796875,67.09257507324219
1686424780092566000,4.78556591796875,-58.825653076171875,-6.93768310546875,66.83493041992188
1686424780102641200,4.79564111328125,-59.401519775390625,-7.1343994140625,67.32400512695312
1686424780112716000,4.805716064453125,-59.71012878417969,-7.1746368408203125,67.19229125976562
1686424780122793000,4.81579296875,-60.11273193359375,-6.6377410888671875,67.41093444824219
1686424780132870000,4.825869873046875,-60.22261047363281,-6.809295654296875,67.74537658691406
1686424780142945000,4.835945068359375,-60.325103759765625,-6.6539306640625,67.62088012695312
1686424780153019000,4.846018798828125,-61.186370849609375,-6.6359405517578125,68.10092163085938
1686424780163096000,4.856095947265625,-60.91552734375,-6.591766357421875,67.8848876953125
1686424780173172000,4.866171875,-60.62120056152344,-6.6290740966796875,68.05416870117188
1686424780183249000,4.876248779296875,-60.65501403808594,-6.768463134765625,68.32331848144531
1686424780193325000,4.886324951171875,-60.582855224609375,-6.6357269287109375,68.12503051757812
1686424780203400200,4.896400146484375,-60.440155029296875,-7.133544921875,68.52842712402344
1686424780213477000,4.90647705078125,-60.22758483886719,-6.765716552734375,68.41755676269531
1686424780223553000,4.916552978515625,-60.289825439453125,-6.8717803955078125,68.81346130371094
1686424780233631200,4.92663134765625,-59.94734191894531,-6.9551544189453125,68.30044555664062
1686424780243707000,4.936706787109375,-59.984161376953125,-6.6501312255859375,68.51002502441406
1686424780253784000,4.9467841796875,-59.40394592285156,-6.8773651123046875,68.28779602050781
1686424780263860000,4.95685986328125,-59.83125305175781,-7.2125396728515625,68.37272644042969
1686424780273937000,4.96693701171875,-60.49943542480469,-6.60186767578125,68.11167907714844
1686424780284014800,4.977014892578125,-60.470123291015625,-6.9608917236328125,68.17779541015625
1686424780294093000,4.987093017578125,-60.79640197753906,-6.471954345703125,68.01338195800781
1686424780304171000,4.9971708984375,-61.47998046875,-6.6764984130859375,67.82070922851562
1686424780314249000,5.0072490234375,-61.27313232421875,-6.6395111083984375,67.45658874511719
1686424780324326100,5.017326171875,-61.39381408691406,-6.5616302490234375,67.18887329101562
1686424780334402000,5.027402099609375,-61.521514892578125,-7.04052734375,67.75666809082031
1686424780344478200,5.037478271484375,-61.345123291015625,-6.8551483154296875,67.251220703125
1686424780354555100,5.04755517578125,-61.003753662109375,-6.8657684326171875,68.10223388671875
1686424780364632000,5.057632080078125,-60.71382141113281,-6.950592041015625,68.07685852050781
1686424780374710000,5.0677099609375,-60.244415283203125,-6.918121337890625,68.40534973144531
1686424780384785200,5.07778515625,-60.28553771972656,-6.948455810546875,68.74432373046875
1686424780394861000,5.087861083984375,-59.858428955078125,-7.464599609375,68.25662231445312
1686424780404936200,5.097936279296875,-59.54240417480469,-6.8715057373046875,68.79861450195312
1686424780415012000,5.10801220703125,-59.423431396484375,-6.9714202880859375,69.16224670410156
1686424780425088300,5.118088134765625,-59.1251220703125,-6.9620819091796875,69.03469848632812
1686424780435165200,5.128165283203125,-59.2467041015625,-6.973052978515625,69.18148803710938
1686424780445242000,5.1382421875,-59.383636474609375,-7.1507720947265625,69.36993408203125
1686424780455319600,5.148319580078125,-58.64845275878906,-7.11669921875,69.40689086914062
1686424780465396700,5.158396728515625,-59.040191650390625,-7.2169952392578125,69.462158203125
1686424780475473700,5.1684736328125,-58.62724304199219,-7.136932373046875,69.26898193359375
1686424780485550600,5.178550537109375,-58.69978332519531,-7.0792694091796875,69.08779907226562
1686424780495627500,5.18862744140625,-59.46092224121094,-6.978424072265625,69.29753112792969
1686424780505704700,5.19870458984375,-58.803741455078125,-7.0616455078125,69.27154541015625
1686424780515780600,5.208780517578125,-58.603729248046875,-7.1139068603515625,69.37214660644531
1686424780525857800,5.21885791015625,-58.28169250488281,-7.4379730224609375,69.26405334472656
1686424780535935700,5.228935791015625,-57.633575439453125,-7.157928466796875,69.13418579101562
1686424780546012700,5.2390126953125,-57.55729675292969,-7.8758544921875,69.18695068359375
1686424780556089600,5.249089599609375,-57.14019775390625,-8.443603515625,68.48291015625
1686424780566166500,5.25916650390625,-56.347503662109375,-8.6517333984375,68.81561279296875
1686424780576243700,5.26924365234375,-55.03202819824219,-9.309844970703125,68.5303955078125
1686424780586321700,5.27932177734375,-54.28546142578125,-9.877304077148438,68.77088928222656
1686424780596398600,5.289398681640625,-52.400909423828125,-10.455581665039062,68.67636108398438
1686424780606475500,5.2994755859375,-51.58514404296875,-11.466522216796875,68.89927673339844
1686424780616551700,5.3095517578125,-50.537811279296875,-11.880157470703125,68.60716247558594
1686424780626628600,5.319628662109375,-49.671295166015625,-12.14794921875,68.06358337402344
1686424780636704800,5.329704833984375,-49.21046447753906,-12.533111572265625,67.53544616699219
1686424780646780700,5.33978076171875,-49.216033935546875,-12.659881591796875,67.42552185058594
1686424780656857900,5.34985791015625,-49.631866455078125,-13.071929931640625,67.70382690429688
1686424780666934800,5.359934814453125,-48.79396057128906,-13.07806396484375,67.44261169433594
1686424780677010700,5.3700107421875,-48.835479736328125,-13.29522705078125,67.34150695800781
1686424780687087900,5.380087890625,-48.38749694824219,-13.635177612304688,67.57695007324219
1686424780697163500,5.39016357421875,-48.18721008300781,-13.779953002929688,67.49891662597656
1686424780707240700,5.40024072265625,-48.384490966796875,-13.830718994140625,67.88034057617188
1686424780717317600,5.410317626953125,-48.201324462890625,-13.695205688476562,68.46513366699219
1686424780727393500,5.4203935546875,-48.15440368652344,-13.654769897460938,68.73544311523438
1686424780737469700,5.4304697265625,-48.126220703125,-13.55413818359375,68.73519897460938
1686424780747546600,5.440546630859375,-48.11738586425781,-13.52838134765625,68.553466796875
1686424780757623600,5.45062353515625,-47.97810363769531,-13.425460815429688,68.29924011230469
1686424780767699700,5.46069970703125,-48.80157470703125,-13.156646728515625,68.65994262695312
1686424780777775900,5.47077587890625,-49.0777587890625,-13.252243041992188,68.16416931152344
1686424780787849700,5.480849609375,-49.57554626464844,-13.04705810546875,68.17109680175781
1686424780797925600,5.490925537109375,-49.762725830078125,-12.972579956054688,67.90753173828125
1686424780808000800,5.501000732421875,-49.959442138671875,-12.66400146484375,67.78233337402344
1686424780818075600,5.51107568359375,-50.44032287597656,-12.781143188476562,67.926513671875
1686424780828150800,5.52115087890625,-50.54914855957031,-12.2542724609375,68.2021484375
1686424780838226700,5.531226806640625,-51.19526672363281,-11.969955444335938,68.10397338867188
1686424780848302600,5.541302490234375,-51.71269226074219,-11.774978637695312,68.73831176757812
1686424780858379500,5.551379638671875,-51.94560241699219,-10.943252563476562,68.94645690917969
1686424780868455700,5.56145556640625,-52.88153076171875,-10.8531494140625,69.50709533691406
1686424780878531600,5.571531494140625,-53.6663818359375,-10.163604736328125,70.54167175292969
1686424780888608800,5.58160888671875,-54.173828125,-10.12091064453125,70.60444641113281
1686424780898684700,5.5916845703125,-55.06303405761719,-9.455856323242188,70.44996643066406
1686424780908760800,5.6017607421875,-55.50872802734375,-9.24554443359375,70.68342590332031
1686424780918837800,5.611837646484375,-56.54557800292969,-8.81268310546875,70.54808044433594
1686424780928914700,5.621914794921875,-57.68809509277344,-8.427276611328125,70.77110290527344
1686424780938991900,5.631991943359375,-58.808746337890625,-8.215133666992188,70.68411254882812
1686424780949066800,5.642066650390625,-60.25849914550781,-7.949493408203125,70.59931945800781
1686424780959140900,5.652140869140625,-60.70066833496094,-7.4824371337890625,70.43121337890625
1686424780969215700,5.6622158203125,-61.54551696777344,-7.2605133056640625,70.17074584960938
1686424780979293700,5.672293701171875,-62.45939636230469,-6.98480224609375,70.09199523925781
1686424780989370600,5.68237060546875,-63.29759216308594,-7.1328125,69.34628295898438
1686424780999446500,5.692446533203125,-64.00247192382812,-6.7659912109375,69.37165832519531
1686424781009523700,5.702523681640625,-64.9974365234375,-6.7327423095703125,68.77281188964844
1686424781019598800,5.712598876953125,-66.04341125488281,-6.8947296142578125,68.83012390136719
1686424781029675800,5.72267578125,-65.80534362792969,-6.655120849609375,68.49653625488281
1686424781039751700,5.732751708984375,-66.23953247070312,-6.8943939208984375,68.61070251464844
1686424781049829600,5.74282958984375,-66.46675109863281,-6.8444366455078125,68.57589721679688
1686424781059905800,5.75290576171875,-66.41708374023438,-6.8444976806640625,68.48188781738281
1686424781069981700,5.762981689453125,-66.46617126464844,-7.0579071044921875,68.49920654296875
1686424781080056600,5.773056640625,-66.32476806640625,-6.6439971923828125,68.80451965332031
1686424781090133800,5.7831337890625,-65.67256164550781,-7.011016845703125,69.17985534667969
1686424781100209700,5.793209716796875,-64.8787841796875,-6.7387847900390625,69.09812927246094
1686424781110287600,5.80328759765625,-64.83662414550781,-7.070465087890625,69.89894104003906
1686424781120364500,5.813364501953125,-64.24530029296875,-7.311187744140625,69.55780029296875
1686424781130441700,5.823441650390625,-63.53089904785156,-6.959381103515625,70.07160949707031
1686424781140519700,5.833519775390625,-62.754180908203125,-7.693511962890625,70.13128662109375
1686424781150597600,5.84359765625,-61.76509094238281,-7.620880126953125,70.52790832519531
1686424781160674600,5.853674560546875,-61.03794860839844,-7.9069061279296875,70.39503479003906
1686424781170751500,5.86375146484375,-60.64839172363281,-7.930572509765625,70.0340576171875
1686424781180828700,5.87382861328125,-60.197235107421875,-8.290283203125,69.99818420410156
1686424781190907000,5.883906982421875,-59.930023193359375,-8.551101684570312,69.99580383300781
1686424781200983800,5.89398388671875,-59.27607727050781,-8.756683349609375,70.09591674804688
1686424781211061800,5.904061767578125,-58.575592041015625,-8.961181640625,69.80300903320312
1686424781221138700,5.914138671875,-58.61024475097656,-9.060897827148438,69.8560791015625
1686424781231216600,5.924216552734375,-58.58235168457031,-8.999252319335938,69.94984436035156
1686424781241293600,5.93429345703125,-58.945220947265625,-9.316390991210938,69.88394165039062
1686424781251370800,5.944370849609375,-59.22315979003906,-8.846054077148438,69.72943115234375
1686424781261447700,5.95444775390625,-59.375518798828125,-8.913223266601562,69.82284545898438
1686424781271525600,5.964525634765625,-60.32745361328125,-8.938858032226562,69.85328674316406
1686424781281603600,5.974603515625,-60.60444641113281,-8.862136840820312,69.93244934082031
1686424781291680500,5.984680419921875,-60.94908142089844,-8.487060546875,70.09114074707031
1686424781301756700,5.994756591796875,-61.87849426269531,-8.612457275390625,69.93463134765625
1686424781311834600,6.004834716796875,-61.77473449707031,-8.186599731445312,69.74209594726562
1686424781321911600,6.01491162109375,-61.92564392089844,-8.181915283203125,69.951171875
1686424781331988500,6.024988525390625,-62.76988220214844,-8.265060424804688,69.88800048828125
1686424781342062600,6.0350625,-62.428131103515625,-8.106002807617188,69.52790832519531
1686424781352137500,6.045137451171875,-62.38298034667969,-8.015731811523438,69.80287170410156
1686424781362213600,6.055213623046875,-63.11079406738281,-7.89288330078125,69.56015014648438
1686424781372289500,6.06528955078125,-62.88494873046875,-7.69244384765625,69.36383056640625
1686424781382365700,6.07536572265625,-63.166900634765625,-8.063583374023438,69.64988708496094
1686424781392441900,6.08544189453125,-62.80680847167969,-7.9919891357421875,69.959716796875
1686424781402515700,6.095515625,-63.699188232421875,-8.149658203125,69.47431945800781
1686424781412590800,6.1055908203125,-63.35594177246094,-8.133407592773438,69.23446655273438
1686424781422665500,6.11566552734375,-63.168609619140625,-8.441131591796875,68.88597106933594
1686424781432741600,6.12574169921875,-63.134429931640625,-8.41546630859375,68.29570007324219
1686424781442816800,6.135816650390625,-63.24000549316406,-8.488037109375,68.71366882324219
1686424781452892400,6.145892333984375,-63.19908142089844,-8.439468383789062,68.397705078125
1686424781462967300,6.15596728515625,-63.0706787109375,-8.436065673828125,68.798095703125
1686424781473043500,6.16604345703125,-62.665191650390625,-8.741012573242188,69.14895629882812
1686424781483118600,6.17611865234375,-62.98243713378906,-8.674880981445312,69.1890869140625
1686424781493193500,6.186193359375,-62.03428649902344,-8.923736572265625,69.77226257324219
1686424781503268600,6.1962685546875,-62.20384216308594,-8.752334594726562,70.30564880371094
1686424781513344500,6.206344482421875,-61.77168273925781,-8.874969482421875,70.27548217773438
1686424781523421400,6.21642138671875,-61.40547180175781,-8.791275024414062,70.7744140625
1686424781533497300,6.226497314453125,-60.6783447265625,-9.06488037109375,71.46730041503906
1686424781543572500,6.236572509765625,-60.57273864746094,-9.11737060546875,71.32559204101562
1686424781553648400,6.2466484375,-59.85581970214844,-9.342437744140625,71.79220581054688
1686424781563724500,6.256724609375,-59.34367370605469,-9.385025024414062,72.2662353515625
1686424781573800400,6.266800537109375,-59.165191650390625,-9.63006591796875,72.15864562988281
1686424781583874600,6.27687451171875,-58.69776916503906,-9.964889526367188,72.28953552246094
1686424781593950500,6.286950439453125,-59.2177734375,-9.69647216796875,72.79560852050781
1686424781604026400,6.2970263671875,-58.562164306640625,-9.655426025390625,72.6712646484375
1686424781614101500,6.3071015625,-58.720001220703125,-10.001434326171875,72.80055236816406
1686424781624176400,6.31717626953125,-58.660369873046875,-10.228927612304688,72.58949279785156
1686424781634251300,6.327251220703125,-58.6220703125,-9.9346923828125,72.85395812988281
1686424781644327400,6.337327392578125,-57.57954406738281,-10.92730712890625,72.66094970703125
1686424781654404400,6.347404296875,-56.992431640625,-10.911300659179688,72.22055053710938
1686424781664481300,6.357481201171875,-56.334747314453125,-11.637054443359375,72.1866455078125
1686424781674558500,6.367558349609375,-54.891754150390625,-12.280349731445312,72.15682983398438
1686424781684634400,6.37763427734375,-54.23277282714844,-12.51983642578125,72.05194091796875
1686424781694710500,6.38771044921875,-53.651824951171875,-12.864532470703125,71.63861083984375
1686424781704785400,6.397785400390625,-53.052154541015625,-13.176162719726562,71.62440490722656
1686424781714861300,6.407861328125,-52.714691162109375,-13.783920288085938,71.63270568847656
1686424781724932400,6.417932373046875,-52.51631164550781,-13.876052856445312,71.83218383789062
1686424781735009500,6.428009521484375,-51.73573303222656,-14.064224243164062,72.12515258789062
1686424781745086500,6.43808642578125,-51.77638244628906,-13.856536865234375,72.22319030761719
1686424781755163400,6.448163330078125,-51.45744323730469,-14.441604614257812,72.03305053710938
1686424781765240300,6.458240234375,-51.78694152832031,-14.15234375,72.27690124511719
1686424781775316500,6.46831640625,-51.398468017578125,-14.350540161132812,72.24766540527344
1686424781785394400,6.47839453125,-51.47807312011719,-14.740875244140625,71.72662353515625
1686424781795471400,6.488471435546875,-51.27107238769531,-14.362655639648438,72.4493408203125
1686424781805548500,6.498548583984375,-50.912750244140625,-14.655502319335938,72.54829406738281
1686424781815625500,6.50862548828125,-51.80445861816406,-14.89581298828125,72.29257202148438
1686424781825702400,6.518702392578125,-51.47889709472656,-14.481292724609375,71.94413757324219
1686424781835778600,6.528778564453125,-51.97615051269531,-14.387222290039062,72.30130004882812
1686424781845855500,6.53885546875,-51.69361877441406,-13.83148193359375,72.016357421875
1686424781855932400,6.548932373046875,-52.11015319824219,-13.940994262695312,72.17829895019531
1686424781866009600,6.559009521484375,-52.76499938964844,-14.017959594726562,71.632080078125
1686424781876085500,6.56908544921875,-52.53700256347656,-14.322891235351562,71.48802185058594
1686424781886161400,6.579161376953125,-53.42805480957031,-13.7933349609375,71.20498657226562
1686424781896238300,6.58923828125,-53.45576477050781,-13.999740600585938,71.5029296875
1686424781906314500,6.599314453125,-54.07106018066406,-13.795562744140625,71.70370483398438
1686424781916390400,6.609390380859375,-54.16511535644531,-13.34222412109375,72.15684509277344
1686424781926468400,6.61946826171875,-54.872772216796875,-13.056747436523438,72.1907958984375
1686424781936545300,6.629545166015625,-54.93232727050781,-12.751083374023438,72.57701110839844
1686424781946620400,6.639620361328125,-55.55279541015625,-12.463394165039062,72.99720764160156
1686424781956696600,6.649696533203125,-56.32545471191406,-12.026947021484375,73.53825378417969
1686424781966772200,6.659772216796875,-56.84381103515625,-11.639328002929688,73.65644836425781
1686424781976851500,6.6698515625,-57.701141357421875,-11.380020141601562,73.91543579101562
1686424781986929400,6.679929443359375,-58.44175720214844,-11.263198852539062,74.28105163574219
1686424781997007400,6.69000732421875,-59.36395263671875,-11.018508911132812,74.60714721679688
1686424782007084300,6.700084228515625,-60.14500427246094,-10.792678833007812,74.17532348632812
1686424782017163500,6.71016357421875,-61.43693542480469,-10.4073486328125,74.17190551757812
1686424782027240400,6.720240478515625,-62.05401611328125,-9.91534423828125,73.95188903808594
1686424782037317600,6.730317626953125,-63.12762451171875,-9.591934204101562,74.08969116210938
1686424782047394600,6.74039453125,-64.62442016601562,-9.511688232421875,73.75521850585938
1686424782057472500,6.750472412109375,-64.98750305175781,-9.307357788085938,73.51239013671875
1686424782067549400,6.760549560546875,-66.77935791015625,-9.346115112304688,73.68702697753906
1686424782077626400,6.77062646484375,-67.80043029785156,-9.808975219726562,72.64614868164062
1686424782087702500,6.78070263671875,-68.29768371582031,-9.361663818359375,72.90946960449219
1686424782097778400,6.7907783203125,-68.70394897460938,-9.776779174804688,72.69210815429688
1686424782107855400,6.80085546875,-69.92658996582031,-9.474075317382812,72.43855285644531
1686424782117932300,6.810932373046875,-70.31182861328125,-9.593734741210938,72.65370178222656
1686424782128008400,6.821008544921875,-71.04165649414062,-9.375228881835938,72.02760314941406
1686424782138086400,6.83108642578125,-71.09284973144531,-9.530487060546875,72.34800720214844
1686424782148162300,6.841162353515625,-71.39555358886719,-9.342178344726562,72.49549865722656
1686424782158237400,6.851237548828125,-71.41342163085938,-9.393508911132812,72.57194519042969
1686424782168312600,6.8613125,-71.34754943847656,-9.787078857421875,73.00823974609375
1686424782178386400,6.871386474609375,-70.80595397949219,-9.77740478515625,73.15470886230469
1686424782188461600,6.881461669921875,-71.075927734375,-9.702438354492188,73.33181762695312
1686424782198536400,6.891536376953125,-70.03547668457031,-9.672958374023438,73.57470703125
1686424782208611600,6.901611572265625,-69.96279907226562,-9.84759521484375,73.36674499511719
1686424782218686500,6.9116865234375,-69.71437072753906,-9.9434814453125,73.48274230957031
1686424782228762400,6.921762451171875,-69.24009704589844,-9.7099609375,73.35134887695312
1686424782238837500,6.93183740234375,-68.43673706054688,-9.820663452148438,73.84170532226562
1686424782248913400,6.941913330078125,-67.85298156738281,-10.056488037109375,73.90367126464844
1686424782258988300,6.95198828125,-67.33309936523438,-9.816558837890625,73.81637573242188
1686424782269064400,6.962064453125,-66.36248779296875,-10.190704345703125,74.08804321289062
1686424782279139600,6.9721396484375,-65.60816955566406,-10.1964111328125,73.67288208007812
1686424782289216500,6.982216552734375,-64.828125,-10.343215942382812,73.92823791503906
1686424782299292400,6.99229248046875,-64.83612060546875,-10.326065063476562,73.72900390625
1686424782309369300,7.002369384765625,-64.86628723144531,-10.078399658203125,73.37620544433594
1686424782319444500,7.012444580078125,-65.77786254882812,-10.267486572265625,73.56541442871094
1686424782329520400,7.022520263671875,-66.03950500488281,-9.768844604492188,73.84909057617188
1686424782339597600,7.03259765625,-66.00416564941406,-10.146697998046875,73.435791015625
1686424782349674500,7.042674560546875,-66.41729736328125,-10.333938598632812,73.75314331054688
1686424782359749400,7.052749267578125,-67.06068420410156,-10.208633422851562,73.78770446777344
1686424782369825300,7.0628251953125,-66.92597961425781,-9.890960693359375,73.79454040527344
1686424782379898600,7.072898681640625,-67.382568359375,-9.922897338867188,73.715087890625
1686424782389973500,7.082973388671875,-68.04464721679688,-9.586257934570312,73.8807373046875
1686424782400049400,7.09304931640625,-67.6605224609375,-9.751007080078125,73.46385192871094
1686424782410125600,7.10312548828125,-68.60911560058594,-9.904586791992188,73.70597839355469
1686424782420202500,7.113202392578125,-68.10023498535156,-9.704681396484375,73.62052917480469
1686424782430278700,7.123278564453125,-68.20085144042969,-9.53033447265625,73.83148193359375
1686424782440355600,7.13335546875,-68.01345825195312,-9.723312377929688,73.74688720703125
1686424782450431000,7.143430908203125,-68.53114318847656,-10.0537109375,73.46783447265625
1686424782460508000,7.1535078125,-67.90994262695312,-9.664566040039062,73.47390747070312
1686424782470583000,7.1635830078125,-67.59831237792969,-10.124099731445312,73.5838623046875
1686424782480657000,7.173656982421875,-67.60684204101562,-10.062957763671875,73.89747619628906
1686424782490732800,7.18373291015625,-67.74739074707031,-10.114410400390625,73.88404846191406
1686424782500809000,7.19380908203125,-67.65000915527344,-9.961669921875,74.00637817382812
1686424782510883000,7.203883056640625,-67.94224548339844,-9.7008056640625,74.10977172851562
1686424782520959000,7.213958984375,-68.82333374023438,-10.088150024414062,73.86988830566406
1686424782531035000,7.224034912109375,-68.20402526855469,-10.604446411132812,74.22080993652344
1686424782541110000,7.234110107421875,-68.24331665039062,-10.4384765625,74.34933471679688
1686424782551187000,7.24418701171875,-67.97128295898438,-10.378921508789062,74.67756652832031
1686424782561263000,7.25426318359375,-67.61085510253906,-10.57318115234375,74.7880859375
1686424782571340000,7.264340087890625,-67.64115905761719,-10.159881591796875,75.19929504394531
1686424782581417000,7.2744169921875,-67.07691955566406,-10.243453979492188,75.49217224121094
1686424782591492900,7.284492919921875,-66.298583984375,-10.507583618164062,75.49751281738281
1686424782601568000,7.294568115234375,-66.19706726074219,-10.561355590820312,75.81683349609375
1686424782611645000,7.30464501953125,-66.23857116699219,-10.997329711914062,76.17375183105469
1686424782621721000,7.31472119140625,-65.93862915039062,-10.8729248046875,76.46235656738281
1686424782631797000,7.324796875,-65.81443786621094,-11.066131591796875,76.3365478515625
1686424782641873000,7.334872802734375,-65.52598571777344,-10.952423095703125,76.34602355957031
1686424782651948000,7.344947998046875,-65.71012878417969,-11.103927612304688,77.29875183105469
1686424782662024000,7.35502392578125,-65.98304748535156,-10.947296142578125,77.13557434082031
1686424782672100000,7.36510009765625,-64.9342041015625,-11.36090087890625,77.24490356445312
1686424782682175000,7.375175048828125,-64.83773803710938,-11.446929931640625,77.093505859375
1686424782692250000,7.38525,-65.15518188476562,-11.528350830078125,76.91653442382812
1686424782702324000,7.395323974609375,-64.51460266113281,-12.037551879882812,76.84715270996094
1686424782712399000,7.405399169921875,-64.37353515625,-12.19598388671875,76.55661010742188
1686424782722475000,7.41547509765625,-63.20127868652344,-12.4775390625,76.207275390625
1686424782732551000,7.425551025390625,-62.893798828125,-12.789535522460938,76.25495910644531
1686424782742626800,7.435626708984375,-61.99339294433594,-12.855926513671875,76.40158081054688
1686424782752703000,7.445702880859375,-61.31700134277344,-13.225067138671875,76.24513244628906
1686424782762778000,7.455778076171875,-60.526641845703125,-13.677703857421875,75.45135498046875
1686424782772855000,7.46585498046875,-60.690887451171875,-13.565765380859375,75.803955078125
1686424782782931200,7.47593115234375,-60.21710205078125,-13.763946533203125,76.20143127441406
1686424782793008000,7.486008056640625,-59.97691345214844,-13.7506103515625,76.16030883789062
1686424782803085000,7.4960849609375,-59.796051025390625,-13.888275146484375,76.93197631835938
1686424782813160000,7.506159912109375,-60.297637939453125,-13.5633544921875,77.08711242675781
1686424782823235000,7.516235107421875,-59.76911926269531,-13.789459228515625,77.31884765625
1686424782833310000,7.52631005859375,-59.89837646484375,-13.882888793945312,76.70773315429688
1686424782843384000,7.536384033203125,-59.68513488769531,-13.77838134765625,77.07537841796875
1686424782853459000,7.546458984375,-59.549407958984375,-13.75946044921875,77.17872619628906
1686424782863534800,7.556534912109375,-59.84678649902344,-13.828643798828125,77.2677001953125
1686424782873612000,7.566612060546875,-59.96733093261719,-13.770431518554688,77.02474975585938
1686424782883689000,7.57668896484375,-60.002349853515625,-13.743209838867188,77.27023315429688
1686424782893766000,7.586765869140625,-59.5799560546875,-13.756576538085938,76.74821472167969
1686424782903842000,7.596842041015625,-60.07452392578125,-13.663711547851562,76.84689331054688
1686424782913918000,7.60691796875,-60.62605285644531,-13.526687622070312,76.72883605957031
1686424782923994000,7.616994140625,-60.963226318359375,-13.386489868164062,76.55740356445312
1686424782934071000,7.627071044921875,-60.97412109375,-13.198333740234375,76.57545471191406
1686424782944147000,7.63714697265625,-60.82684326171875,-12.815414428710938,76.33758544921875
1686424782954222800,7.647222900390625,-61.517913818359375,-13.132659912109375,76.35920715332031
1686424782964300000,7.657300048828125,-62.280914306640625,-12.925994873046875,76.572509765625
1686424782974377000,7.667376953125,-62.27445983886719,-12.927536010742188,76.79055786132812
1686424782984454000,7.677453857421875,-62.850311279296875,-12.59503173828125,77.021240234375
1686424782994530000,7.687530029296875,-62.90452575683594,-12.339736938476562,77.47764587402344
1686424783004607000,7.69760693359375,-63.785247802734375,-12.5965576171875,77.58981323242188
1686424783014684000,7.707683837890625,-64.28089904785156,-12.595687866210938,77.80485534667969
1686424783024760000,7.717760009765625,-65.04655456542969,-12.438522338867188,77.95506286621094
1686424783034836000,7.7278359375,-65.20384216308594,-11.988998413085938,78.288818359375
1686424783044913200,7.7379130859375,-66.42776489257812,-11.77349853515625,78.92524719238281
1686424783054988800,7.74798876953125,-66.2779541015625,-11.962921142578125,78.41130065917969
1686424783065066000,7.75806591796875,-67.60028076171875,-11.850982666015625,78.48228454589844
1686424783075142000,7.768141845703125,-68.01129150390625,-11.688919067382812,78.85397338867188
1686424783085218800,7.77821875,-69.33091735839844,-11.38507080078125,78.65582275390625
1686424783095294000,7.7882939453125,-70.48846435546875,-11.569671630859375,78.91651916503906
1686424783105372000,7.798371826171875,-71.10671997070312,-11.530441284179688,78.43394470214844
1686424783115448800,7.80844873046875,-72.39552307128906,-11.358871459960938,78.5123291015625
1686424783125525000,7.81852490234375,-72.82646179199219,-11.516082763671875,78.88632202148438
1686424783135602000,7.828601806640625,-74.0938720703125,-11.56378173828125,78.53166198730469
1686424783145678000,7.838677978515625,-73.81427001953125,-11.78192138671875,78.2880859375
1686424783155755000,7.848755126953125,-75.347900390625,-11.613204956054688,78.22030639648438
1686424783165832000,7.85883203125,-75.1375732421875,-11.630538940429688,78.18632507324219
1686424783175909000,7.8689091796875,-76.28536987304688,-11.739273071289062,78.37667846679688
1686424783185986000,7.878986083984375,-76.60041809082031,-12.034149169921875,78.62730407714844
1686424783196063000,7.88906298828125,-77.03265380859375,-11.9700927734375,78.97998046875
1686424783206140200,7.89914013671875,-77.0936279296875,-11.685287475585938,79.13845825195312
1686424783216217000,7.909217041015625,-77.05044555664062,-11.900360107421875,79.48736572265625
1686424783226294000,7.9192939453125,-77.18643188476562,-12.223175048828125,79.66604614257812
1686424783236370200,7.9293701171875,-77.12712097167969,-12.028228759765625,79.72138977050781
1686424783246447000,7.939447021484375,-77.20889282226562,-12.0391845703125,79.57095336914062
1686424783256524000,7.94952392578125,-76.5496826171875,-12.06939697265625,79.54083251953125
1686424783266600000,7.959599853515625,-76.56010437011719,-12.313507080078125,79.89932250976562
1686424783276676900,7.9696767578125,-76.35586547851562,-12.420822143554688,79.29544067382812
1686424783286753000,7.9797529296875,-76.10009765625,-12.310089111328125,79.32920837402344
1686424783296830000,7.989829833984375,-75.40620422363281,-12.578887939453125,79.13298034667969
1686424783306907000,7.999906982421875,-75.14028930664062,-12.250274658203125,78.82620239257812
1686424783316983000,8.009983154296876,-74.70741271972656,-12.340362548828125,78.75071716308594
1686424783327061000,8.02006103515625,-73.79527282714844,-12.044235229492188,78.41812133789062
1686424783337138000,8.030137939453125,-73.40142822265625,-12.416397094726562,79.03291320800781
1686424783347216000,8.0402158203125,-72.81455993652344,-12.363845825195312,78.72509765625
1686424783357292800,8.050292724609376,-72.02191162109375,-12.2735595703125,78.77801513671875
1686424783367370000,8.060369873046875,-71.51702880859375,-12.352005004882812,78.66485595703125
1686424783377447000,8.070447021484375,-71.05233764648438,-12.382537841796875,78.62753295898438
1686424783387521000,8.08052099609375,-70.97392272949219,-12.000686645507812,78.93443298339844
1686424783397596000,8.090595947265625,-71.24433898925781,-12.118881225585938,78.56318664550781
1686424783407671800,8.100671875,-72.00314331054688,-11.9554443359375,78.32450866699219
1686424783417749000,8.1107490234375,-72.38215637207031,-11.650421142578125,78.28532409667969
1686424783427826000,8.120825927734375,-72.91815185546875,-12.1839599609375,78.0181884765625
1686424783437902000,8.130902099609376,-73.63385009765625,-11.766525268554688,78.49452209472656
1686424783447977000,8.14097705078125,-73.80250549316406,-11.633590698242188,78.48963928222656
1686424783458052900,8.151052978515626,-74.43356323242188,-11.784317016601562,78.11007690429688
1686424783468129000,8.16112890625,-74.89411926269531,-11.874832153320312,78.03662109375
1686424783478205000,8.171204833984374,-75.62504577636719,-11.998428344726562,77.62130737304688
1686424783488281900,8.18128173828125,-75.75303649902344,-12.140945434570312,78.25404357910156
1686424783498359000,8.191359130859375,-76.16244506835938,-11.961334228515625,77.819580078125
1686424783508434700,8.2014345703125,-76.18440246582031,-11.878585815429688,77.57130432128906
1686424783518509800,8.211509765625,-76.34832763671875,-11.649444580078125,77.72552490234375
1686424783528585000,8.2215849609375,-76.14340209960938,-12.413803100585938,77.38189697265625
1686424783538659800,8.231659912109375,-75.84933471679688,-11.977706909179688,77.40255737304688
1686424783548735700,8.24173583984375,-75.92990112304688,-12.357833862304688,77.32513427734375
1686424783558811000,8.251810791015625,-75.98208618164062,-12.037384033203125,77.0152587890625
1686424783568885800,8.2618857421875,-75.58103942871094,-12.323867797851562,77.27015686035156
1686424783578961000,8.2719609375,-75.73881530761719,-12.24163818359375,77.33094787597656
1686424783589035800,8.282035888671874,-76.15928649902344,-12.105484008789062,77.43540954589844
1686424783599111700,8.292111572265625,-75.69081115722656,-12.526473999023438,77.35205078125
1686424783609187800,8.302187744140625,-75.25482177734375,-12.517669677734375,77.50677490234375
1686424783619264800,8.3122646484375,-75.5162353515625,-12.595748901367188,77.86528015136719
1686424783629340000,8.32233984375,-74.66571044921875,-12.840606689453125,78.24966430664062
1686424783639414800,8.332414794921876,-74.46546936035156,-12.592376708984375,77.94706726074219
1686424783649489000,8.342489013671875,-74.19393920898438,-12.79547119140625,78.14341735839844
1686424783659562800,8.352562744140625,-74.40782165527344,-12.614913940429688,78.27520751953125
1686424783669638000,8.362637939453125,-74.37602233886719,-12.74468994140625,78.53526306152344
1686424783679711700,8.372711669921875,-73.9422607421875,-12.67291259765625,78.46426391601562
1686424783689788000,8.382787841796874,-73.429443359375,-12.80291748046875,78.38822937011719
1686424783699863000,8.392863037109375,-73.25888061523438,-12.855026245117188,78.54798889160156
1686424783709938000,8.40293798828125,-73.46434020996094,-12.91802978515625,78.81010437011719
1686424783720010800,8.4130107421875,-73.14967346191406,-13.095458984375,78.54188537597656
1686424783730087700,8.423087646484374,-72.61280822753906,-13.2235107421875,78.61833190917969
1686424783740163800,8.433163818359375,-72.867919921875,-13.079360961914062,78.47062683105469
1686424783750239700,8.44323974609375,-72.55607604980469,-12.832656860351562,78.64366149902344
1686424783760313900,8.45331396484375,-72.27378845214844,-13.288421630859375,78.77281188964844
1686424783770388000,8.463387939453124,-72.03756713867188,-13.706954956054688,78.63435363769531
1686424783780461800,8.4734619140625,-71.70806884765625,-13.399169921875,78.47904968261719
1686424783790537000,8.483536865234376,-71.07070922851562,-13.301544189453125,78.58641052246094
1686424783800611800,8.49361181640625,-70.48930358886719,-13.700225830078125,78.0936279296875
1686424783810686700,8.503686767578126,-69.85578918457031,-13.618865966796875,77.60322570800781
1686424783820763000,8.513762939453125,-68.91000366210938,-13.987945556640625,77.16694641113281
1686424783830838000,8.523838134765626,-67.90547180175781,-14.148330688476562,77.54695129394531
1686424783840913700,8.53391357421875,-67.26615905761719,-14.408660888671875,77.14399719238281
1686424783850988000,8.543988037109376,-66.50627136230469,-14.5380859375,77.54342651367188
1686424783861062700,8.554062744140625,-66.45452880859375,-14.270187377929688,77.56622314453125
1686424783871138800,8.564138916015626,-66.41087341308594,-14.372451782226562,77.61244201660156
1686424783881215000,8.574215087890625,-66.50346374511719,-14.577301025390625,77.61932373046875
1686424783891292000,8.5842919921875,-66.49629211425781,-14.320343017578125,77.99324035644531
1686424783901367000,8.594366943359375,-66.14775085449219,-14.734146118164062,77.82380676269531
1686424783911444000,8.60444384765625,-66.46380615234375,-14.0745849609375,77.93247985839844
1686424783921519900,8.614519775390624,-65.90829467773438,-14.160568237304688,78.08872985839844
1686424783931595800,8.624595703125,-65.95420837402344,-14.162017822265625,78.07540893554688
1686424783941671000,8.6346708984375,-66.167236328125,-14.054367065429688,78.43922424316406
1686424783951746800,8.644746826171875,-66.30140686035156,-14.326492309570312,78.35397338867188
1686424783961821700,8.65482177734375,-65.9725341796875,-13.955322265625,78.23945617675781
1686424783971896800,8.664896728515625,-66.16630554199219,-13.709503173828125,78.02383422851562
1686424783981973000,8.674972900390625,-66.4093017578125,-13.70733642578125,78.24781799316406
1686424783992048600,8.685048583984376,-66.50810241699219,-13.99700927734375,78.25820922851562
1686424784002122000,8.6951220703125,-66.96560668945312,-13.64959716796875,77.88786315917969
1686424784012197600,8.70519775390625,-67.06585693359375,-13.693252563476562,77.74299621582031
1686424784022274800,8.71527490234375,-67.00396728515625,-13.839508056640625,77.86611938476562
1686424784032350000,8.725349853515626,-67.52210998535156,-13.544052124023438,77.95108032226562
1686424784042424800,8.7354248046875,-68.07241821289062,-13.517578125,78.07098388671875
1686424784052499000,8.7454990234375,-68.62980651855469,-13.323226928710938,77.87843322753906
1686424784062573800,8.75557373046875,-69.02957153320312,-13.399459838867188,78.19094848632812
1686424784072648700,8.765648681640625,-69.15571594238281,-13.0177001953125,78.0955810546875
1686424784082724900,8.775724853515625,-69.9849853515625,-13.050979614257812,78.055908203125
1686424784092800800,8.78580078125,-70.78985595703125,-12.94305419921875,78.57511901855469
1686424784102876000,8.7958759765625,-71.51280212402344,-13.004562377929688,78.68437194824219
1686424784112949000,8.805948974609375,-72.02989196777344,-12.7235107421875,78.86563110351562
1686424784123025000,8.81602490234375,-72.507080078125,-13.095321655273438,78.65878295898438
1686424784133100800,8.826100830078126,-72.98860168457031,-12.80206298828125,79.18730163574219
1686424784143177700,8.836177734375,-73.85494995117188,-12.525909423828125,78.96719360351562
1686424784153252900,8.8462529296875,-74.58766174316406,-12.494293212890625,79.257568359375
1686424784163326700,8.85632666015625,-74.7125244140625,-12.46051025390625,79.14398193359375
1686424784173403600,8.866403564453124,-75.63534545898438,-12.34771728515625,79.43147277832031
1686424784183478800,8.876478759765625,-75.93583679199219,-12.528213500976562,78.95565795898438
1686424784193554000,8.886553955078124,-76.40280151367188,-12.691909790039062,79.30335998535156
1686424784203628800,8.89662890625,-77.19682312011719,-12.785919189453125,79.07057189941406
1686424784213704000,8.906703857421874,-77.48957824707031,-12.741836547851562,79.28314208984375
1686424784223779000,8.916779052734375,-77.9637451171875,-12.620574951171875,79.15931701660156
1686424784233853700,8.926853759765624,-78.61257934570312,-12.760513305664062,78.91661071777344
1686424784243928800,8.9369287109375,-78.87486267089844,-12.75579833984375,78.76692199707031
1686424784254003700,8.947003662109376,-79.38523864746094,-12.890533447265625,79.10702514648438
1686424784264078800,8.957078857421875,-79.92364501953125,-12.681549072265625,78.77503967285156
1686424784274152700,8.967152587890626,-80.17469787597656,-12.7279052734375,78.56886291503906
1686424784284224800,8.977224853515626,-79.46232604980469,-12.853195190429688,78.44395446777344
1686424784294296800,8.987296875,-79.55996704101562,-12.5013427734375,78.00686645507812
1686424784304371700,8.997371826171875,-79.26522827148438,-12.539596557617188,77.94549560546875
1686424784314446800,9.00744677734375,-79.28810119628906,-12.141830444335938,77.82957458496094
1686424784324520700,9.017520751953125,-78.03450012207031,-12.308349609375,77.36506652832031
1686424784334595800,9.027595947265626,-77.9012451171875,-12.203460693359375,76.92179870605469
1686424784344670700,9.037670654296875,-76.99934387207031,-12.469711303710938,77.23567199707031
1686424784354745900,9.047745849609376,-76.79690551757812,-12.40264892578125,77.28659057617188
1686424784364821000,9.057821044921875,-77.44856262207031,-12.179519653320312,77.29045104980469
1686424784374896600,9.067896728515626,-77.41580200195312,-12.1494140625,77.1214599609375
1686424784384971800,9.0779716796875,-78.2581787109375,-12.446823120117188,76.99061584472656
1686424784395047000,9.088046875,-79.21110534667969,-12.253570556640625,77.62330627441406
1686424784405122800,9.098122802734375,-80.25556945800781,-11.849411010742188,77.56782531738281
1686424784415199700,9.10819970703125,-80.16555786132812,-11.99102783203125,78.03611755371094
1686424784425276700,9.118276611328126,-80.35417175292969,-12.064437866210938,78.03903198242188
1686424784435351800,9.128351806640625,-81.04953002929688,-12.292984008789062,78.2320556640625
1686424784445428700,9.1384287109375,-81.23857116699219,-11.945526123046875,78.168701171875
1686424784455503600,9.148503662109375,-81.7044677734375,-12.160507202148438,78.05902099609375
1686424784465578800,9.158578857421874,-82.03874206542969,-11.652740478515625,78.09725952148438
1686424784475655000,9.168655029296875,-81.19317626953125,-11.7369384765625,77.83291625976562
1686424784485730800,9.178730712890625,-81.49864196777344,-11.523147583007812,77.84115600585938
1686424784495806700,9.188806640625,-81.66085815429688,-11.93914794921875,77.51618957519531
1686424784505881900,9.1988818359375,-81.36465454101562,-11.740066528320312,77.67607116699219
1686424784515957800,9.208957763671876,-82.14764404296875,-11.947998046875,77.50767517089844
1686424784526035000,9.219034912109375,-81.71437072753906,-11.72808837890625,77.16644287109375
1686424784536111900,9.22911181640625,-82.54148864746094,-11.690887451171875,77.22987365722656
1686424784546187800,9.239187744140626,-83.04031372070312,-11.596603393554688,77.17544555664062
1686424784556264000,9.249263916015625,-83.15853881835938,-11.783447265625,77.11984252929688
1686424784566338800,9.2593388671875,-83.2283935546875,-11.4447021484375,76.71595764160156
1686424784576414000,9.2694140625,-84.11936950683594,-11.736923217773438,76.92567443847656
1686424784586491000,9.279490966796875,-84.194580078125,-11.602462768554688,76.67137145996094
1686424784596567000,9.289567138671876,-84.85670471191406,-12.083267211914062,76.40728759765625
1686424784606642700,9.299642578125,-85.05473327636719,-11.751815795898438,76.33563232421875
1686424784616718800,9.30971875,-85.643310546875,-11.791732788085938,76.13429260253906
1686424784626794000,9.3197939453125,-85.58992004394531,-11.83154296875,76.25474548339844
1686424784636871000,9.329870849609375,-85.49774169921875,-11.369277954101562,76.11439514160156
1686424784646948900,9.339948974609374,-85.3680419921875,-11.443267822265625,76.49484252929688
1686424784657024000,9.35002392578125,-85.72683715820312,-11.605453491210938,76.30282592773438
1686424784667099600,9.360099609375,-85.21583557128906,-11.174331665039062,76.65345764160156
1686424784677175800,9.37017578125,-85.01731872558594,-11.181747436523438,76.79267883300781
1686424784687252700,9.380252685546875,-84.30061340332031,-10.821182250976562,76.897216796875
1686424784697329700,9.39032958984375,-83.82023620605469,-10.556198120117188,77.107666015625
1686424784707406800,9.40040673828125,-83.635986328125,-10.261367797851562,77.54792785644531
1686424784717483800,9.41048388671875,-82.78286743164062,-10.223068237304688,78.04893493652344
1686424784727559000,9.420558837890624,-82.02590942382812,-9.712127685546875,77.59968566894531
1686424784737634800,9.430634765625,-81.47946166992188,-9.638458251953125,78.08895874023438
1686424784747710700,9.440710693359375,-80.76622009277344,-9.051162719726562,78.07623291015625
1686424784757787600,9.45078759765625,-80.012939453125,-9.156280517578125,78.02336120605469
1686424784767865900,9.460865966796876,-78.98312377929688,-8.812789916992188,78.45802307128906
1686424784777943800,9.47094384765625,-79.75088500976562,-8.745101928710938,77.78611755371094
1686424784788021800,9.481021728515625,-79.15542602539062,-8.607269287109375,77.00701904296875
1686424784798098700,9.4910986328125,-78.80561828613281,-8.850326538085938,76.61122131347656
1686424784808176600,9.5011767578125,-78.40592956542969,-8.718780517578125,76.29806518554688
1686424784818252800,9.511252685546875,-77.86343383789062,-8.61431884765625,76.48405456542969
1686424784828329000,9.521328857421874,-77.37310791015625,-8.446090698242188,76.63803100585938
1686424784838403600,9.531403564453125,-76.29743957519531,-8.71905517578125,76.17465209960938
1686424784848479700,9.541479736328125,-76.317626953125,-8.1640625,75.82191467285156
1686424784858556700,9.551556640625,-75.5350341796875,-8.493804931640625,76.2474365234375
1686424784868633900,9.5616337890625,-74.94573974609375,-8.591751098632812,75.82879638671875
1686424784878710800,9.571710693359375,-74.43130493164062,-8.287673950195312,76.08819580078125
1686424784888787700,9.58178759765625,-73.89418029785156,-8.279373168945312,76.23880004882812
1686424784898862800,9.59186279296875,-73.08914184570312,-8.430618286132812,76.48370361328125
1686424784908939000,9.60193896484375,-73.07255554199219,-8.4654541015625,76.45640563964844
1686424784919014700,9.6120146484375,-71.8326416015625,-8.447982788085938,76.63960266113281
1686424784929090800,9.6220908203125,-71.53887939453125,-8.520065307617188,76.58186340332031
1686424784939166700,9.632166748046876,-71.08073425292969,-8.688217163085938,76.87199401855469
1686424784949243000,9.642242919921875,-70.22647094726562,-8.7459716796875,76.72444152832031
1686424784959319800,9.65231982421875,-70.27304077148438,-8.57421875,76.52012634277344
1686424784969393000,9.662392822265625,-69.90916442871094,-8.617416381835938,76.27841186523438
1686424784979470800,9.672470947265625,-70.52519226074219,-8.442153930664062,76.31108093261719
1686424784989546800,9.682546630859376,-70.53961181640625,-8.676025390625,76.46617126464844
1686424784999623700,9.692623779296875,-70.82278442382812,-8.696792602539062,76.47845458984375
1686424785009701600,9.70270166015625,-71.08380126953125,-8.6715087890625,76.26339721679688
1686424785019780900,9.71278076171875,-71.56593322753906,-8.587158203125,76.36549377441406
1686424785029857800,9.72285791015625,-71.61286926269531,-8.497726440429688,76.81460571289062
1686424785039935000,9.73293505859375,-72.19114685058594,-7.9998931884765625,77.01812744140625
1686424785050012000,9.743011962890625,-72.34078979492188,-7.886871337890625,76.94406127929688
1686424785060089900,9.75308984375,-72.53590393066406,-8.214920043945312,77.72137451171875
1686424785070167800,9.763167724609374,-72.70846557617188,-7.9423980712890625,77.70590209960938
1686424785080244700,9.77324462890625,-73.16650390625,-7.819427490234375,78.02784729003906
1686424785090322700,9.78332275390625,-73.11602783203125,-7.84503173828125,78.32041931152344
1686424785100399600,9.793399658203125,-72.61399841308594,-7.81597900390625,78.7049560546875
1686424785110475800,9.803475830078124,-72.92230224609375,-7.6592254638671875,78.60688781738281
1686424785120552700,9.813552734375,-72.53826904296875,-7.6807708740234375,78.78536987304688
1686424785130628900,9.82362890625,-72.19355773925781,-7.8514251708984375,79.15348815917969
1686424785140706800,9.833706787109374,-72.55853271484375,-7.6728363037109375,79.51071166992188
1686424785150784800,9.84378466796875,-72.05023193359375,-7.576202392578125,80.06327819824219
1686424785160861700,9.85386181640625,-71.81842041015625,-7.7929229736328125,80.37129211425781
1686424785170940000,9.86393994140625,-71.31953430175781,-7.5833282470703125,80.86441040039062
1686424785181017900,9.874017822265625,-70.90663146972656,-7.7235107421875,81.60197448730469
1686424785191095800,9.884095703125,-71.00625610351562,-7.2757720947265625,82.38529968261719
1686424785201174800,9.8941748046875,-71.29281616210938,-7.63018798828125,83.041015625
1686424785211251700,9.904251708984376,-71.53158569335938,-7.60687255859375,83.89262390136719
1686424785221330000,9.914329833984375,-72.05372619628906,-7.6256103515625,84.62724304199219
1686424785231407900,9.924407958984375,-72.29219055175781,-7.5188751220703125,85.32652282714844
1686424785241484800,9.93448486328125,-71.89019775390625,-7.4884185791015625,85.67887878417969
1686424785251564800,9.944564697265625,-71.90115356445312,-7.4446258544921875,85.8692626953125
1686424785261641700,9.954641845703126,-71.93234252929688,-7.526397705078125,85.63798522949219
1686424785271718700,9.96471875,-71.5413818359375,-7.7276153564453125,85.98538208007812
1686424785281794800,9.974794921875,-71.02235412597656,-7.5696868896484375,86.17416381835938
1686424785291870700,9.98487060546875,-71.27116394042969,-7.8095245361328125,86.41850280761719
1686424785301947000,9.99494677734375,-71.29341125488281,-8.015945434570312,86.72688293457031
1686424785312023800,10.00502392578125,-70.7684326171875,-8.044158935546875,87.03152465820312
1686424785322100000,10.015099853515625,-70.58639526367188,-8.007492065429688,87.05305480957031
1686424785332175600,10.025175537109375,-70.65623474121094,-8.126693725585938,87.49652099609375
1686424785342252800,10.035252685546874,-69.71292114257812,-8.265380859375,87.86717224121094
1686424785352331000,10.0453310546875,-70.03582763671875,-8.126922607421875,87.82308959960938
1686424785362406700,10.05540673828125,-69.61846923828125,-8.23077392578125,87.94349670410156
1686424785372482800,10.06548291015625,-68.38606262207031,-8.78997802734375,88.09449768066406
1686424785382558700,10.075558837890625,-68.56866455078125,-8.805511474609375,88.28459167480469
1686424785392635000,10.085634765625,-68.23884582519531,-8.561080932617188,88.93278503417969
1686424785402711800,10.0957119140625,-67.49653625488281,-8.846511840820312,89.17280578613281
1686424785412789000,10.1057890625,-67.32400512695312,-8.81121826171875,89.32403564453125
1686424785422867000,10.115866943359375,-66.63909912109375,-8.935272216796875,89.61599731445312
1686424785432941800,10.12594189453125,-66.68159484863281,-9.075042724609375,89.45401000976562
1686424785443019000,10.13601904296875,-66.71720886230469,-8.85595703125,89.86074829101562
1686424785453096000,10.146095947265625,-65.92707824707031,-8.918045043945312,90.25758361816406
1686424785463174000,10.156173828125,-65.98846435546875,-9.43310546875,89.88426208496094
1686424785473251800,10.166251953125,-66.47703552246094,-9.14239501953125,90.1629638671875
1686424785483331000,10.1763310546875,-66.52348327636719,-9.452957153320312,90.06649780273438
1686424785493409000,10.186408935546876,-66.729248046875,-9.447128295898438,90.76420593261719
1686424785503486000,10.19648583984375,-66.32951354980469,-9.200485229492188,90.72247314453125
1686424785513561900,10.206561767578124,-65.86061096191406,-9.476104736328125,90.69538879394531
1686424785523639800,10.216639892578126,-66.11210632324219,-9.563446044921875,90.6668701171875
1686424785533716000,10.226716064453125,-66.03813171386719,-9.404754638671875,90.78471374511719
1686424785543789800,10.236789794921876,-66.09735107421875,-9.815322875976562,90.84861755371094
1686424785553866000,10.246865966796875,-65.80885314941406,-9.723480224609375,91.1334228515625
1686424785563942000,10.25694189453125,-65.99388122558594,-9.587783813476562,90.88433837890625
1686424785574018000,10.26701806640625,-65.33146667480469,-9.919387817382812,91.0555419921875
1686424785584095000,10.277094970703125,-65.30038452148438,-9.716171264648438,91.21150207519531
1686424785594172000,10.287171875,-64.954345703125,-9.938430786132812,91.29438781738281
1686424785604246800,10.297246826171875,-65.02096557617188,-10.4052734375,90.80697631835938
1686424785614322000,10.307322021484374,-64.81645202636719,-10.185775756835938,90.93209838867188
1686424785624398000,10.317398193359375,-64.02079772949219,-10.042251586914062,90.91827392578125
1686424785634472000,10.327471923828124,-64.56170654296875,-10.338516235351562,90.81544494628906
1686424785644547800,10.3375478515625,-64.11117553710938,-10.153732299804688,90.45054626464844
1686424785654624000,10.3476240234375,-64.72395324707031,-10.283782958984375,90.5985107421875
1686424785664700000,10.357699951171876,-65.0465087890625,-10.1588134765625,90.6895751953125
1686424785674777000,10.367777099609375,-64.17042541503906,-10.538436889648438,90.40594482421875
1686424785684852700,10.377852783203124,-63.991302490234375,-10.166793823242188,90.45278930664062
1686424785694930000,10.387929931640626,-64.09895324707031,-10.549774169921875,90.16836547851562
1686424785705005800,10.398005859375,-64.36212158203125,-10.457077026367188,90.37437438964844
1686424785715082000,10.40808203125,-65.2581787109375,-9.941116333007812,90.35111999511719
1686424785725157000,10.4181572265625,-66.27438354492188,-9.73651123046875,89.91786193847656
1686424785735232800,10.428232666015624,-68.16133117675781,-9.987747192382812,90.03469848632812
1686424785745310000,10.43831005859375,-69.34967041015625,-9.496856689453125,90.17756652832031
1686424785755388000,10.448387939453125,-70.72239685058594,-9.345703125,90.04803466796875
1686424785765465000,10.458465087890625,-71.83123779296875,-9.727264404296875,89.98243713378906
1686424785775540700,10.468540771484374,-72.43112182617188,-9.566696166992188,90.4307861328125
1686424785785618000,10.478617919921875,-73.03337097167969,-9.202484130859375,90.42218017578125
1686424785795692800,10.48869287109375,-73.02357482910156,-9.76275634765625,90.56912231445312
1686424785805770800,10.498770751953124,-72.79727172851562,-9.852691650390625,90.550537109375
1686424785815847000,10.508846923828125,-72.63932800292969,-9.791793823242188,90.60389709472656
1686424785825924900,10.5189248046875,-72.01298522949219,-9.76495361328125,90.59384155273438
1686424785835999000,10.5289990234375,-71.02731323242188,-9.8526611328125,90.80609130859375
1686424785846073900,10.539073974609375,-69.55326843261719,-9.803207397460938,90.67112731933594
1686424785856150800,10.54915087890625,-68.39163208007812,-9.991485595703125,90.81289672851562
1686424785866228000,10.55922802734375,-66.82757568359375,-10.625640869140625,90.90963745117188
1686424785876304000,10.569303955078125,-65.19198608398438,-10.9722900390625,91.12435913085938
1686424785886381800,10.5793818359375,-63.94038391113281,-11.0191650390625,90.7301025390625
1686424785896458800,10.589458740234376,-62.547760009765625,-11.842269897460938,90.833984375
1686424785906536700,10.59953662109375,-61.086334228515625,-12.0203857421875,90.88075256347656
1686424785916614000,10.60961376953125,-59.645416259765625,-12.695419311523438,90.714111328125
1686424785926690800,10.61969091796875,-58.67472839355469,-13.10797119140625,90.79342651367188
1686424785936767000,10.62976708984375,-57.30940246582031,-13.700927734375,90.74221801757812
1686424785946845000,10.639844970703125,-56.57264709472656,-13.51715087890625,90.51350402832031
1686424785956920800,10.6499208984375,-55.339691162109375,-14.13092041015625,90.99253845214844
1686424785966997000,10.6599970703125,-54.62516784667969,-14.439910888671875,90.66334533691406
1686424785977074000,10.670073974609375,-53.91688537597656,-14.757537841796875,91.01118469238281
1686424785987150800,10.68015087890625,-53.7689208984375,-14.471206665039062,91.05516052246094
1686424785997228800,10.690228759765626,-53.958587646484375,-14.306930541992188,91.78736877441406
1686424786007306000,10.700305908203125,-53.829132080078125,-14.874435424804688,91.84333801269531
1686424786017384000,10.710384033203125,-53.59452819824219,-14.736251831054688,92.78793334960938
1686424786027459800,10.7204599609375,-53.66123962402344,-14.91619873046875,93.44242858886719
1686424786037536800,10.730536865234376,-53.53056335449219,-15.068344116210938,93.90058898925781
1686424786047612000,10.74061181640625,-53.719818115234375,-15.348403930664062,94.51445007324219
1686424786057688000,10.75068798828125,-52.85884094238281,-15.46282958984375,94.874755859375
1686424786067765000,10.760764892578125,-52.79170227050781,-15.918060302734375,94.98977661132812
1686424786077842000,10.770842041015625,-52.081390380859375,-16.089950561523438,95.63410949707031
1686424786087918000,10.78091796875,-51.37867736816406,-16.165740966796875,95.59613037109375
1686424786097996000,10.79099609375,-50.69384765625,-16.971237182617188,95.70960998535156
1686424786108074000,10.801073974609375,-50.00617980957031,-17.057769775390625,95.81549072265625
1686424786118149000,10.811149169921874,-49.20301818847656,-17.706268310546875,95.12239074707031
1686424786128224800,10.821224853515625,-48.757354736328125,-17.681137084960938,94.82305908203125
1686424786138301000,10.831301025390625,-48.153594970703125,-17.838790893554688,94.58395385742188
1686424786148376800,10.841376953125,-47.98069763183594,-18.1688232421875,94.5045166015625
1686424786158453000,10.851452880859375,-47.78282165527344,-17.994125366210938,94.35498046875
1686424786168530000,10.861530029296874,-47.552398681640625,-18.040878295898438,93.76042175292969
1686424786178606000,10.871606201171875,-47.52958679199219,-18.146514892578125,93.23173522949219
1686424786188683000,10.88168310546875,-47.315155029296875,-17.736160278320312,92.50239562988281
1686424786198759000,10.891759033203124,-47.73258972167969,-18.080215454101562,91.90185546875
1686424786208834800,10.901834716796875,-47.00746154785156,-17.917724609375,90.96348571777344
1686424786218911000,10.911910888671875,-47.12542724609375,-17.739898681640625,89.46952819824219
1686424786228984800,10.92198486328125,-46.80705261230469,-17.580703735351562,88.19845581054688
1686424786239060000,10.93206005859375,-46.73457336425781,-17.698150634765625,86.31304931640625
1686424786249135000,10.942135009765625,-46.57768249511719,-17.506607055664062,84.89593505859375
1686424786259210800,10.952210693359374,-46.2978515625,-17.4931640625,83.221923828125
1686424786269284900,10.962284912109375,-46.2889404296875,-17.447402954101562,81.60504150390625
1686424786279359000,10.97235888671875,-46.50041198730469,-17.424072265625,80.00015258789062
1686424786289433900,10.982433837890625,-46.77787780761719,-17.443161010742188,78.55305480957031
1686424786299508000,10.992508056640625,-46.65000915527344,-17.609359741210938,77.2169189453125
1686424786309584000,11.002583984375,-46.736785888671875,-17.639022827148438,76.73548889160156
1686424786319660000,11.012659912109376,-46.766632080078125,-17.53131103515625,76.21728515625
1686424786329735200,11.022735107421875,-46.85438537597656,-17.43780517578125,76.10017395019531
1686424786339810800,11.032810791015624,-46.90251159667969,-16.941726684570312,76.83277893066406
1686424786349887700,11.0428876953125,-46.78587341308594,-16.684539794921875,77.22676086425781
1686424786359964000,11.0529638671875,-47.05830383300781,-16.57110595703125,77.65562438964844
1686424786370040800,11.063040771484374,-47.673858642578125,-16.365493774414062,77.41319274902344
1686424786380114000,11.073114013671875,-47.278228759765625,-16.322006225585938,77.01309204101562
1686424786390188000,11.08318798828125,-46.89434814453125,-16.470611572265625,76.63145446777344
1686424786400264000,11.093263916015625,-46.57762145996094,-16.591476440429688,75.89303588867188
1686424786410341000,11.103341064453126,-46.39422607421875,-17.11090087890625,75.67164611816406
1686424786420416000,11.113416015625,-45.57513427734375,-17.11077880859375,75.60835266113281
1686424786430491000,11.123490966796876,-45.219635009765625,-17.927108764648438,75.41645812988281
1686424786440567000,11.133567138671875,-44.48899841308594,-18.227127075195312,75.90061950683594
1686424786450644000,11.14364404296875,-44.1053466796875,-17.98760986328125,76.07081604003906
1686424786460720600,11.153720703125,-42.99168395996094,-18.705917358398438,76.50611877441406
1686424786470798600,11.163798583984375,-42.52012634277344,-18.585250854492188,77.01577758789062
1686424786480875500,11.17387548828125,-42.63694763183594,-18.766448974609375,77.21348571777344
1686424786490952400,11.183952392578124,-42.6104736328125,-18.731307983398438,78.09335327148438
1686424786501029400,11.194029296875,-41.75370788574219,-18.819854736328125,78.43753051757812
1686424786511105500,11.20410546875,-41.21693420410156,-19.108551025390625,78.88986206054688
1686424786521182500,11.214182373046874,-41.30342102050781,-19.662826538085938,79.27316284179688
1686424786531258600,11.224258544921875,-40.95753479003906,-19.858108520507812,79.75830078125
1686424786541335600,11.23433544921875,-40.69378662109375,-19.961212158203125,79.76263427734375
1686424786551413500,11.24441357421875,-40.043426513671875,-20.47564697265625,79.56828308105469
1686424786561487600,11.254487548828125,-40.33348083496094,-20.874862670898438,79.450439453125
1686424786571562500,11.2645625,-39.50982666015625,-20.66961669921875,79.62286376953125
1686424786581638700,11.274638671875,-39.81816101074219,-21.107696533203125,79.30680847167969
1686424786591714600,11.284714599609375,-39.47721862792969,-21.25054931640625,78.92584228515625
1686424786601790700,11.294790771484376,-39.48976135253906,-21.487228393554688,78.24969482421875
1686424786611865600,11.304865478515625,-39.35523986816406,-21.485763549804688,78.01298522949219
1686424786621940700,11.314940673828126,-39.59187316894531,-21.350372314453125,77.17036437988281
1686424786632015600,11.325015625,-39.731292724609375,-20.982635498046875,76.76296997070312
1686424786642091500,11.335091552734376,-40.39680480957031,-21.218093872070312,76.68309020996094
1686424786652167700,11.345167724609375,-40.90650939941406,-20.84454345703125,75.76541137695312
1686424786662242600,11.35524267578125,-41.19842529296875,-20.657974243164062,74.90615844726562
1686424786672317400,11.3653173828125,-41.79840087890625,-20.286834716796875,74.13978576660156
1686424786682391600,11.3753916015625,-42.52586364746094,-20.316665649414062,72.94932556152344
1686424786692466400,11.385466552734375,-43.54963684082031,-19.569137573242188,72.70904541015625
1686424786702541600,11.39554150390625,-44.14286804199219,-19.317352294921875,71.372314453125
1686424786712616700,11.40561669921875,-44.726287841796875,-19.311126708984375,70.69523620605469
1686424786722691600,11.415691650390626,-45.99920654296875,-18.861984252929688,69.42266845703125
1686424786732766700,11.4257666015625,-46.35809326171875,-18.500457763671875,68.57371520996094
1686424786742843600,11.43584375,-47.70613098144531,-18.37939453125,67.69903564453125
1686424786752918500,11.44591845703125,-48.682891845703125,-17.818496704101562,66.95603942871094
1686424786762994400,11.455994384765624,-49.41166687011719,-17.74920654296875,66.26080322265625
1686424786773070600,11.466070556640625,-49.70826721191406,-17.689895629882812,65.57772827148438
1686424786783146500,11.476146484375,-51.28221130371094,-17.430587768554688,65.06134033203125
1686424786793222700,11.48622265625,-52.18267822265625,-16.81982421875,64.61550903320312
1686424786803297500,11.496297607421875,-52.76933288574219,-16.578872680664062,64.26251220703125
1686424786813373400,11.50637353515625,-53.9005126953125,-16.001205444335938,63.5692138671875
1686424786823450600,11.51645068359375,-55.099609375,-15.819290161132812,62.97369384765625
1686424786833525800,11.52652587890625,-56.2506103515625,-15.209915161132812,63.05522155761719
1686424786843601700,11.5366015625,-57.349578857421875,-14.991378784179688,63.19476318359375
1686424786853676500,11.546676513671875,-58.48365783691406,-14.448471069335938,62.94038391113281
1686424786863751700,11.556751708984375,-60.223175048828125,-13.925308227539062,62.598480224609375
1686424786873829600,11.56682958984375,-62.01202392578125,-13.79156494140625,63.17669677734375
1686424786883906600,11.576906494140625,-63.981475830078125,-12.82647705078125,63.14125061035156
1686424786893984500,11.586984619140624,-65.76858520507812,-12.433670043945312,63.33427429199219
1686424786904060700,11.597060791015625,-67.30770874023438,-11.645431518554688,63.85664367675781
1686424786914137600,11.6071376953125,-69.30796813964844,-11.348495483398438,63.6180419921875
1686424786924213800,11.6172138671875,-70.52137756347656,-11.401016235351562,63.81304931640625
1686424786934290700,11.627290771484375,-72.10038757324219,-11.34552001953125,64.23214721679688
1686424786944367600,11.63736767578125,-72.83673095703125,-11.026687622070312,64.65324401855469
1686424786954443800,11.64744384765625,-73.56800842285156,-10.726654052734375,64.68038940429688
1686424786964521700,11.657521728515626,-73.33287048339844,-10.896804809570312,65.06613159179688
1686424786974597600,11.66759765625,-73.44921875,-10.92095947265625,65.28314208984375
1686424786984673500,11.677673583984374,-72.82493591308594,-10.797805786132812,65.98057556152344
1686424786994750500,11.68775048828125,-71.78897094726562,-10.742767333984375,65.69027709960938
1686424787004826600,11.69782666015625,-71.1195068359375,-10.965896606445312,65.25057983398438
1686424787014902500,11.707902587890626,-70.46345520019531,-11.108062744140625,65.58384704589844
1686424787024979700,11.717979736328125,-69.96498107910156,-11.176773071289062,65.42445373535156
1686424787035055600,11.7280556640625,-68.99749755859375,-11.509292602539062,65.4910888671875
1686424787045130500,11.738130615234375,-68.10147094726562,-11.259780883789062,65.54510498046875
1686424787055206700,11.74820654296875,-66.90179443359375,-11.656951904296875,65.88768005371094
1686424787065282600,11.758282470703126,-66.16796875,-11.884124755859375,66.3387451171875
1686424787075358700,11.768358642578125,-65.55677795410156,-11.612869262695312,67.07704162597656
1686424787085433600,11.77843359375,-64.62928771972656,-11.676193237304688,67.30487060546875
1686424787095504600,11.788504638671874,-63.74339294433594,-12.091476440429688,67.56492614746094
1686424787105579500,11.79857958984375,-62.92765808105469,-11.960525512695312,67.87942504882812
1686424787115652600,11.808652587890625,-62.30393981933594,-11.898574829101562,68.86689758300781
1686424787125727700,11.818727783203125,-61.76377868652344,-11.902633666992188,69.58761596679688
1686424787135802600,11.828802734375,-61.10137939453125,-11.907058715820312,70.27409362792969
1686424787145878500,11.83887841796875,-60.63264465332031,-11.760513305664062,70.86984252929688
1686424787155955500,11.84895556640625,-59.75895690917969,-12.215072631835938,71.81838989257812
1686424787166031600,11.859031494140625,-58.90184020996094,-12.133056640625,72.40554809570312
1686424787176105500,11.86910546875,-57.92213439941406,-12.4503173828125,73.24008178710938
1686424787186179600,11.8791796875,-57.927764892578125,-12.039199829101562,73.88871765136719
1686424787196255700,11.889255859375,-57.69963073730469,-11.996261596679688,74.67251586914062
1686424787206331400,11.899331298828125,-56.14616394042969,-12.043411254882812,75.51264953613281
1686424787216406500,11.909406494140624,-56.330902099609375,-12.428329467773438,75.8612060546875
1686424787226482700,11.919482666015625,-55.629974365234375,-12.758758544921875,76.05801391601562
1686424787236558600,11.92955859375,-55.585723876953125,-12.728485107421875,75.87727355957031
1686424787246634500,11.939634521484376,-55.1434326171875,-12.78668212890625,75.80281066894531
1686424787256710700,11.949710693359375,-54.67994689941406,-13.013137817382812,75.34866333007812
1686424787266785500,11.95978564453125,-54.764404296875,-13.243179321289062,74.97392272949219
1686424787276860700,11.969860595703125,-53.95588684082031,-13.201370239257812,74.50872802734375
1686424787286936600,11.9799365234375,-53.88330078125,-13.741241455078125,74.08631896972656
1686424787297012500,11.990012451171875,-54.13824462890625,-13.75286865234375,73.90298461914062
1686424787307088600,12.000088623046874,-53.969451904296875,-13.969833374023438,73.34846496582031
1686424787317163800,12.010163818359375,-54.12188720703125,-14.034286499023438,73.18081665039062
1686424787327239400,12.020239501953125,-54.19291687011719,-14.046798706054688,72.75067138671875
1686424787337315600,12.030315673828126,-54.54713439941406,-14.021957397460938,72.28486633300781
1686424787347391500,12.0403916015625,-54.23030090332031,-13.821609497070312,72.33274841308594
1686424787357467600,12.050467529296874,-55.352020263671875,-13.599929809570312,71.9400634765625
1686424787367544600,12.060544677734375,-56.18302917480469,-13.520828247070312,71.09414672851562
1686424787377619500,12.070619384765624,-57.64422607421875,-13.251251220703125,70.39741516113281
1686424787387695600,12.080695556640626,-59.60443115234375,-12.770843505859375,69.72711181640625
1686424787397771500,12.090771484375,-61.33447265625,-12.415069580078125,69.70864868164062
1686424787407846700,12.1008466796875,-62.59368896484375,-12.043777465820312,69.30906677246094
1686424787417922600,12.110922607421875,-63.94573974609375,-11.375579833984375,69.71830749511719
1686424787427997700,12.120997802734376,-65.22966003417969,-11.406784057617188,69.65106201171875
1686424787438072600,12.131072509765625,-66.26814270019531,-10.87615966796875,69.63343811035156
1686424787448148500,12.1411484375,-66.65650939941406,-10.899642944335938,69.43266296386719
1686424787458222000,12.15122216796875,-67.91090393066406,-10.9525146484375,69.26707458496094
1686424787468294100,12.161294189453125,-68.31343078613281,-11.129623413085938,69.08549499511719
1686424787478369300,12.171369384765624,-68.59124755859375,-10.971817016601562,69.29292297363281
1686424787488444200,12.181444091796875,-69.37983703613281,-11.49755859375,69.33993530273438
1686424787498521000,12.19152099609375,-69.31736755371094,-11.046356201171875,69.36529541015625
1686424787508597200,12.20159716796875,-70.16204833984375,-10.925201416015625,69.63558959960938
1686424787518673200,12.211673095703125,-70.35435485839844,-10.849319458007812,69.93814086914062
1686424787528749300,12.221749267578126,-70.15545654296875,-10.919479370117188,70.38191223144531
1686424787538825200,12.2318251953125,-70.22726440429688,-10.671417236328125,70.74565124511719
1686424787548901000,12.241901123046874,-70.18717956542969,-10.53863525390625,70.36689758300781
1686424787558977000,12.25197705078125,-70.47015380859375,-10.613113403320312,70.63365173339844
1686424787569053200,12.26205322265625,-69.77540588378906,-10.722702026367188,71.09437561035156
1686424787579129300,12.27212939453125,-69.786865234375,-10.46026611328125,71.04490661621094
1686424787589205200,12.282205322265625,-70.31031799316406,-10.941146850585938,71.263671875
1686424787599279000,12.292279052734376,-69.81524658203125,-10.656707763671875,71.07261657714844
1686424787609354200,12.302354248046875,-69.98162841796875,-10.521453857421875,71.20384216308594
1686424787619429000,12.31242919921875,-70.04942321777344,-10.664657592773438,71.30165100097656
1686424787629504300,12.322504150390625,-69.84996032714844,-10.72821044921875,71.29983520507812
1686424787639578000,12.332578125,-70.49920654296875,-10.664382934570312,71.42884826660156
1686424787649653200,12.3426533203125,-70.01368713378906,-10.6943359375,71.55012512207031
1686424787659728400,12.352728271484375,-70.44938659667969,-10.378555297851562,71.559814453125
1686424787669801200,12.36280126953125,-71.07627868652344,-10.369476318359375,71.87992858886719
1686424787679875000,12.372875,-71.29039001464844,-10.207443237304688,71.74734497070312
1686424787689950200,12.3829501953125,-71.036865234375,-9.594573974609375,72.00215148925781
1686424787700024000,12.393024169921874,-71.42826843261719,-9.79718017578125,72.05137634277344
1686424787710099200,12.40309912109375,-71.51199340820312,-9.84368896484375,71.96527099609375
1686424787720174000,12.413174072265624,-71.3563232421875,-9.708145141601562,72.07061767578125
1686424787730249200,12.423249267578125,-70.19253540039062,-10.129409790039062,72.0555419921875
1686424787740323000,12.433322998046876,-70.1158447265625,-9.614669799804688,72.08189392089844
1686424787750398200,12.443398193359375,-70.49983215332031,-9.745162963867188,72.46536254882812
1686424787760472300,12.453472412109376,-70.89482116699219,-9.723037719726562,72.47996520996094
1686424787770547200,12.463547119140625,-70.61883544921875,-9.812545776367188,72.30290222167969
1686424787780621300,12.473621337890625,-70.902587890625,-10.117645263671875,72.88398742675781
1686424787790696200,12.4836962890625,-71.02099609375,-9.799392700195312,72.747802734375
1686424787800770300,12.493770263671875,-70.79617309570312,-9.669204711914062,72.70112609863281
1686424787810845200,12.50384521484375,-71.03535461425781,-9.452682495117188,72.78741455078125
1686424787820921000,12.513921142578125,-71.71957397460938,-9.422821044921875,72.89207458496094
1686424787830996200,12.523996337890624,-72.435791015625,-9.291015625,72.85464477539062
1686424787841073200,12.5340732421875,-72.71185302734375,-9.5496826171875,73.31916809082031
1686424787851148000,12.54414794921875,-73.24822998046875,-9.597854614257812,73.43128967285156
1686424787861224200,12.55422412109375,-73.341064453125,-9.616195678710938,73.2906494140625
1686424787871301000,12.564301025390625,-74.67646789550781,-9.6502685546875,73.47105407714844
1686424787881375000,12.574375,-74.9771728515625,-9.386398315429688,73.55274963378906
1686424787891451100,12.584451171875,-75.45953369140625,-9.669296264648438,73.60240173339844
1686424787901525200,12.594525146484376,-75.99591064453125,-9.4000244140625,73.82463073730469
1686424787911601200,12.60460107421875,-76.23408508300781,-9.5303955078125,73.86738586425781
1686424787921677000,12.614677001953124,-77.33352661132812,-9.49749755859375,74.14328002929688
1686424787931753200,12.624753173828125,-78.02316284179688,-9.499191284179688,74.44105529785156
1686424787941828400,12.634828369140624,-78.15530395507812,-9.517868041992188,74.36886596679688
1686424787951905300,12.6449052734375,-78.9453125,-9.64691162109375,74.8125
1686424787961980200,12.654980224609375,-78.80583190917969,-9.345947265625,74.91529846191406
1686424787972056000,12.66505615234375,-78.89614868164062,-9.6470947265625,75.0594482421875
1686424787982131200,12.675131103515625,-79.51945495605469,-9.923294067382812,75.37454223632812
1686424787992206000,12.6852060546875,-79.39646911621094,-10.002685546875,75.44831848144531
1686424788002281200,12.69528125,-79.91447448730469,-9.952682495117188,75.66021728515625
1686424788012356400,12.7053564453125,-79.9090576171875,-9.826339721679688,75.56564331054688
1686424788022431200,12.71543115234375,-80.66011047363281,-10.282211303710938,76.13262939453125
1686424788032505300,12.72550537109375,-80.76661682128906,-10.312591552734375,76.43360900878906
1686424788042582300,12.735582275390625,-81.28569030761719,-10.386627197265625,76.68724060058594
1686424788052659200,12.7456591796875,-81.14404296875,-10.265548706054688,77.70159912109375
1686424788062735000,12.755735107421875,-81.78219604492188,-10.617950439453125,77.86289978027344
1686424788072810200,12.765810302734375,-80.71678161621094,-10.357009887695312,78.20358276367188
1686424788082888200,12.77588818359375,-80.28630065917969,-10.557220458984375,78.70849609375
1686424788092965000,12.785965087890625,-80.65495300292969,-10.726882934570312,78.42475891113281
1686424788103042000,12.7960419921875,-80.84664916992188,-10.413330078125,78.3758544921875
1686424788113119200,12.806119140625,-80.345703125,-10.564743041992188,78.46658325195312
1686424788123196200,12.816196044921876,-80.28250122070312,-10.765762329101562,78.21444702148438
1686424788133272000,12.82627197265625,-80.38449096679688,-10.741455078125,77.925537109375
1686424788143347200,12.83634716796875,-79.49290466308594,-10.824172973632812,78.28849792480469
1686424788153423000,12.846423095703125,-79.26312255859375,-10.447418212890625,78.55268859863281
1686424788163500000,12.8565,-78.88632202148438,-10.886184692382812,78.5538330078125
1686424788173576200,12.866576171875,-78.85218811035156,-10.701004028320312,78.18403625488281
1686424788183650300,12.876650390625,-78.56849670410156,-10.82550048828125,78.53024291992188
1686424788193726200,12.886726318359376,-77.72369384765625,-11.148086547851562,78.32452392578125
1686424788203802000,12.896802001953125,-76.92045593261719,-11.027755737304688,78.45655822753906
1686424788213878300,12.906878173828124,-76.732177734375,-11.090957641601562,77.9068603515625
1686424788223953200,12.916953125,-77.26109313964844,-11.058258056640625,78.25923156738281
1686424788234029300,12.927029296875,-76.73518371582031,-11.395965576171875,77.88471984863281
1686424788244106200,12.937106201171876,-76.70089721679688,-11.25958251953125,78.33793640136719
1686424788254182100,12.94718212890625,-76.11036682128906,-11.410675048828125,78.23933410644531
1686424788264258000,12.957258056640624,-75.8253173828125,-11.596923828125,78.23406982421875
1686424788274333200,12.967333251953125,-75.26570129394531,-11.623779296875,77.91925048828125
1686424788284408000,12.977407958984376,-75.45985412597656,-11.74395751953125,77.91749572753906
1686424788294483200,12.987483154296875,-75.34860229492188,-11.83599853515625,77.88633728027344
1686424788304559000,12.99755908203125,-75.34442138671875,-12.179885864257812,78.05496215820312
1686424788314634000,13.007634033203125,-74.99649047851562,-12.060791015625,77.9210205078125
1686424788324710100,13.017710205078124,-74.2919921875,-12.08465576171875,78.06236267089844
1686424788334785300,13.027785400390625,-74.84054565429688,-12.19122314453125,77.8592529296875
1686424788344861200,13.037861083984374,-74.49217224121094,-12.185470581054688,78.07937622070312
1686424788354937000,13.04793701171875,-74.26124572753906,-12.426361083984375,78.0504150390625
1686424788365015300,13.058015380859375,-74.30335998535156,-12.478195190429688,77.91746520996094
