time,seconds_elapsed,z,y,x
1686424775412221200,0.10522119140625,-37.72840881347656,-15.862991333007812,18.217742919921875
1686424775422167300,0.115167236328125,-37.37921142578125,-16.072662353515625,18.56836700439453
1686424775432113200,0.125113037109375,-36.753700256347656,-16.16266632080078,19.097877502441406
1686424775442059800,0.135059814453125,-36.046669006347656,-16.227676391601562,19.490943908691406
1686424775452005600,0.145005615234375,-35.81695556640625,-16.631546020507812,20.294288635253906
1686424775461951700,0.15495166015625,-35.36426544189453,-16.931747436523438,20.963851928710938
1686424775471897600,0.164897705078125,-34.936546325683594,-16.86297607421875,22.077903747558594
1686424775481843700,0.17484375,-34.01664733886719,-16.986907958984375,22.93421173095703
1686424775491789600,0.18478955078125,-33.07628631591797,-17.28870391845703,23.657936096191406
1686424775501735700,0.194735595703125,-32.23760223388672,-17.384353637695312,24.370811462402344
1686424775511681800,0.204681884765625,-31.970748901367188,-17.352272033691406,25.03343963623047
1686424775521627600,0.214627685546875,-31.170379638671875,-17.313720703125,25.64569091796875
1686424775531573800,0.22457373046875,-30.208030700683594,-17.28331756591797,26.345176696777344
1686424775541519600,0.23451953125,-29.57154083251953,-16.946029663085938,27.03002166748047
1686424775551465700,0.2444658203125,-29.272323608398438,-16.86573028564453,27.571975708007812
1686424775561411600,0.25441162109375,-28.78437042236328,-16.789085388183594,28.172134399414062
1686424775571357700,0.264357666015625,-28.36119842529297,-16.481674194335938,28.7255859375
1686424775581303600,0.274303466796875,-27.68682861328125,-16.10198211669922,29.398208618164062
1686424775591249700,0.284249755859375,-27.01885223388672,-15.696990966796875,29.942176818847656
1686424775601195500,0.294195556640625,-26.929100036621094,-15.522674560546875,30.395217895507812
1686424775611141600,0.3041416015625,-26.235191345214844,-15.47528076171875,30.927406311035156
1686424775621087700,0.314087646484375,-25.77271270751953,-15.178146362304688,31.32653045654297
1686424775631033600,0.32403369140625,-25.64324951171875,-15.061271667480469,31.668678283691406
1686424775640979700,0.333979736328125,-25.61907958984375,-14.860946655273438,31.504592895507812
1686424775650925600,0.343925537109375,-25.4815673828125,-14.558334350585938,31.809730529785156
1686424775660871700,0.35387158203125,-25.12396240234375,-14.409225463867188,32.036766052246094
1686424775670817500,0.363817626953125,-24.41582489013672,-14.329879760742188,32.47972106933594
1686424775680763600,0.373763671875,-23.573196411132812,-13.934776306152344,33.16119384765625
1686424775690708700,0.383708740234375,-22.394920349121094,-13.609771728515625,34.06732177734375
1686424775700654800,0.39365478515625,-21.495201110839844,-13.467506408691406,34.535911560058594
1686424775710600700,0.4036005859375,-20.262924194335938,-13.309074401855469,34.9256591796875
1686424775720546800,0.413546875,-19.214385986328125,-13.106086730957031,35.753318786621094
1686424775730492700,0.42349267578125,-17.87171173095703,-12.95294189453125,36.23981475830078
1686424775740438800,0.433438720703125,-16.339576721191406,-13.14959716796875,36.94978332519531
1686424775750384600,0.443384521484375,-15.094070434570312,-13.3798828125,37.22105407714844
1686424775760330800,0.453330810546875,-13.91827392578125,-13.452857971191406,37.82659912109375
1686424775770276900,0.46327685546875,-12.479347229003906,-13.438201904296875,38.10218048095703
1686424775780222700,0.47322265625,-10.779823303222656,-13.406349182128906,38.45282745361328
1686424775790168800,0.4831689453125,-9.076011657714844,-13.538917541503906,38.63103485107422
1686424775800114700,0.49311474609375,-7.38446044921875,-13.466514587402344,39.203704833984375
1686424775810060800,0.503060791015625,-5.744880676269531,-13.536712646484375,39.49744415283203
1686424775820006700,0.513006591796875,-4.5970458984375,-13.449081420898438,39.76720428466797
1686424775829952800,0.522952880859375,-3.6760482788085938,-13.13653564453125,39.657676696777344
1686424775839898600,0.532898681640625,-3.035308837890625,-13.151130676269531,39.80149841308594
1686424775849844700,0.5428447265625,-2.0031204223632812,-12.691810607910156,39.78509521484375
1686424775859790800,0.552790771484375,-0.832611083984375,-12.415573120117188,39.812255859375
1686424775869736700,0.56273681640625,0.5510940551757812,-12.192268371582031,40.00025177001953
1686424775879682800,0.572682861328125,1.8680877685546875,-11.800300598144531,39.696075439453125
1686424775889628700,0.582628662109375,3.4467391967773438,-11.69976806640625,39.672149658203125
1686424775899574800,0.59257470703125,4.873161315917969,-11.368949890136719,39.79969024658203
1686424775909520600,0.602520751953125,6.2878875732421875,-11.161705017089844,39.32573699951172
1686424775919466800,0.612466796875,7.9586944580078125,-10.856063842773438,39.35437774658203
1686424775929412600,0.62241259765625,9.174018859863281,-10.80120849609375,39.20531463623047
1686424775939358700,0.632358642578125,10.030975341796875,-10.900360107421875,39.01020812988281
1686424775949304600,0.6423046875,10.983779907226562,-10.837432861328125,38.71405792236328
1686424775959250700,0.652250732421875,12.256153106689453,-10.763542175292969,38.305137634277344
1686424775969196800,0.66219677734375,13.019325256347656,-10.934852600097656,38.06908416748047
1686424775979141600,0.6721416015625,14.063079833984375,-10.830894470214844,37.47700500488281
1686424775989087500,0.68208740234375,15.49709701538086,-10.855262756347656,37.44972229003906
1686424775999033600,0.69203369140625,16.555377960205078,-10.6488037109375,36.63093566894531
1686424776008979700,0.701979736328125,17.514144897460938,-10.535209655761719,36.185333251953125
1686424776018925600,0.711925537109375,19.148807525634766,-10.397377014160156,35.56262969970703
1686424776028871700,0.72187158203125,19.99533462524414,-10.316612243652344,35.01012420654297
1686424776038817500,0.731817626953125,21.334007263183594,-10.221450805664062,34.40141296386719
1686424776048763600,0.741763671875,21.334007263183594,-10.221450805664062,34.40141296386719
1686424776058709500,0.75170947265625,22.340255737304688,-10.018062591552734,33.79920196533203
1686424776068655600,0.761655517578125,23.05268096923828,-9.740840911865234,33.42150115966797
1686424776078601500,0.7716015625,23.45404052734375,-9.367496490478516,33.20628356933594
1686424776088547600,0.781547607421875,24.4482421875,-8.561969757080078,32.915809631347656
1686424776098493700,0.79149365234375,25.087966918945312,-8.072898864746094,32.81800842285156
1686424776108439800,0.801439697265625,25.427753448486328,-7.252162933349609,32.87890625
1686424776118385700,0.8113857421875,26.21896743774414,-6.167182922363281,32.44617462158203
1686424776128331800,0.821331787109375,26.539833068847656,-5.0001068115234375,32.50569152832031
1686424776138278000,0.83127783203125,26.968982696533203,-3.792316436767578,32.081634521484375
1686424776148223700,0.8412236328125,27.5958251953125,-3.111156463623047,31.240447998046875
1686424776158169900,0.851169921875,28.402389526367188,-1.8147544860839844,30.702835083007812
1686424776168115700,0.86111572265625,29.5164794921875,-0.89727783203125,30.332565307617188
1686424776178061800,0.871061767578125,30.015281677246094,0.3916053771972656,29.534835815429688
1686424776188007700,0.881007568359375,30.464759826660156,1.3561172485351562,28.682693481445312
1686424776197953800,0.890953857421875,31.053024291992188,2.8712730407714844,28.095291137695312
1686424776207899600,0.900899658203125,31.43737030029297,4.019016265869141,27.739852905273438
1686424776217845800,0.910845703125,31.2666015625,5.595447540283203,27.3328857421875
1686424776227792000,0.9207919921875,31.77096939086914,6.819049835205078,26.996498107910156
1686424776237737700,0.93073779296875,31.86740493774414,8.212474822998047,26.793113708496094
1686424776247683800,0.940683837890625,32.04126739501953,9.52349853515625,26.230003356933594
1686424776257628700,0.950628662109375,31.966995239257812,10.782943725585938,25.783775329589844
1686424776267574800,0.96057470703125,31.860950469970703,12.000556945800781,25.35326385498047
1686424776277520600,0.970520751953125,31.515331268310547,13.166236877441406,25.228759765625
1686424776287466800,0.980466796875,31.04924774169922,14.632369995117188,25.230636596679688
1686424776297412600,0.99041259765625,30.63656997680664,15.820117950439453,25.13257598876953
1686424776307358700,1.000358642578125,29.999046325683594,17.31952667236328,24.735610961914062
1686424776317304600,1.0103046875,29.7451171875,18.801990509033203,24.427040100097656
1686424776327250700,1.020250732421875,29.008182525634766,20.385658264160156,24.26160430908203
1686424776337196500,1.030196533203125,27.800701141357422,22.06639862060547,24.145729064941406
1686424776347142700,1.040142578125,26.740001678466797,23.7940673828125,23.855224609375
1686424776357088500,1.050088623046875,25.810588836669922,25.59869956970215,23.715621948242188
1686424776367034600,1.06003466796875,24.004013061523438,27.657604217529297,23.51830291748047
1686424776376980700,1.069980712890625,22.5697021484375,29.36374282836914,22.83074188232422
1686424776386926600,1.079926513671875,20.8662109375,31.045053482055664,22.1080322265625
1686424776396872700,1.089872802734375,19.169883728027344,32.93958282470703,20.979034423828125
1686424776406818600,1.099818603515625,18.03316879272461,34.54205322265625,20.097640991210938
1686424776416764700,1.1097646484375,16.596359252929688,36.29999542236328,18.755859375
1686424776426710500,1.11971044921875,15.311344146728516,38.06475830078125,17.322509765625
1686424776436656600,1.12965673828125,14.066608428955078,39.47969055175781,15.504623413085938
1686424776446602200,1.139602294921875,12.657161712646484,41.08576965332031,13.921989440917969
1686424776456548400,1.14954833984375,11.134452819824219,42.07094955444336,12.388534545898438
1686424776466494200,1.159494140625,10.074966430664062,43.00861358642578,10.865219116210938
1686424776476440300,1.1694404296875,8.798316955566406,43.62043762207031,9.862167358398438
1686424776486386400,1.179386474609375,7.2557525634765625,44.210227966308594,8.637413024902344
1686424776496332300,1.189332275390625,6.089347839355469,44.792720794677734,7.9083709716796875
1686424776506278400,1.1992783203125,4.440879821777344,45.21055603027344,7.134971618652344
1686424776516224500,1.209224609375,2.7385635375976562,45.464561462402344,6.612342834472656
1686424776526170400,1.21917041015625,1.4459991455078125,45.608177185058594,6.299652099609375
1686424776536116500,1.229116455078125,0.39421844482421875,45.58881759643555,6.3617401123046875
1686424776546062600,1.2390625,-0.15020751953125,45.70244598388672,6.668121337890625
1686424776556007400,1.24900732421875,-0.9973678588867188,45.43798828125,7.0509033203125
1686424776565953500,1.25895361328125,-1.5182113647460938,45.157569885253906,7.605018615722656
1686424776575899400,1.2688994140625,-1.7692108154296875,45.01207733154297,8.282341003417969
1686424776585845500,1.278845458984375,-2.5831985473632812,44.71221923828125,8.967720031738281
1686424776595791400,1.288791259765625,-2.898529052734375,44.1446533203125,9.992889404296875
1686424776605737500,1.298737548828125,-3.4091415405273438,43.35906219482422,10.962265014648438
1686424776615683300,1.308683349609375,-3.7537155151367188,43.051673889160156,12.172607421875
1686424776625629400,1.31862939453125,-4.364082336425781,42.74596405029297,13.408432006835938
1686424776635575600,1.328575439453125,-4.37457275390625,42.00371551513672,14.638053894042969
1686424776645521400,1.338521484375,-4.843475341796875,41.389259338378906,16.002685546875
1686424776655467500,1.348467529296875,-5.318946838378906,40.6834716796875,17.273353576660156
1686424776665413400,1.358413330078125,-5.8374481201171875,40.09898376464844,18.0194091796875
1686424776675359500,1.368359375,-5.912742614746094,39.53916931152344,18.833709716796875
1686424776685305300,1.378305419921875,-5.952423095703125,39.28682327270508,19.62195587158203
1686424776695251500,1.38825146484375,-6.3068389892578125,38.83001708984375,20.361412048339844
1686424776705197300,1.398197265625,-6.08905029296875,38.19218444824219,20.967514038085938
1686424776715143400,1.408143310546875,-5.987403869628906,37.76282501220703,21.718795776367188
1686424776725089500,1.418089599609375,-5.5593414306640625,37.3474235534668,22.309860229492188
1686424776735035400,1.428035400390625,-5.0626373291015625,37.34203338623047,22.276870727539062
1686424776744981500,1.4379814453125,-4.350746154785156,37.423011779785156,22.25110626220703
1686424776754927400,1.44792724609375,-4.102134704589844,37.642494201660156,22.010589599609375
1686424776764873500,1.45787353515625,-3.464141845703125,37.7293701171875,21.911659240722656
1686424776774819300,1.4678193359375,-2.9766082763671875,38.00782775878906,21.551010131835938
1686424776784765400,1.477765380859375,-2.6045303344726562,37.72894287109375,21.77667999267578
1686424776794711300,1.487711181640625,-2.8491897583007812,37.774879455566406,21.986228942871094
1686424776804657400,1.497657470703125,-2.7444000244140625,37.61677551269531,22.39545440673828
1686424776814603300,1.507603271484375,-2.7444000244140625,37.61677551269531,22.39545440673828
1686424776824548600,1.517548583984375,-2.2898178100585938,37.40753936767578,22.733253479003906
1686424776834494500,1.527494384765625,-2.6563186645507812,37.189117431640625,22.85340118408203
1686424776844440600,1.537440673828125,-2.885467529296875,37.28209686279297,22.69818115234375
1686424776854386400,1.547386474609375,-2.650146484375,37.12088394165039,22.939346313476562
1686424776864332500,1.55733251953125,-2.259918212890625,36.973960876464844,23.23987579345703
1686424776874278700,1.567278564453125,-2.53076171875,36.83141326904297,23.526153564453125
1686424776884224500,1.577224609375,-2.42181396484375,36.840576171875,23.799598693847656
1686424776894170600,1.587170654296875,-2.05120849609375,36.50928497314453,23.66082000732422
1686424776904116500,1.597116455078125,-1.7005996704101562,36.66009521484375,23.79601287841797
1686424776914062600,1.6070625,-1.48333740234375,36.289947509765625,23.952346801757812
1686424776924008400,1.617008544921875,-0.8817977905273438,36.23162078857422,24.214210510253906
1686424776933954600,1.62695458984375,-0.5516204833984375,36.319541931152344,24.21143341064453
1686424776943900400,1.636900390625,0.36020660400390625,36.15643310546875,24.54937744140625
1686424776953846500,1.646846435546875,0.7866973876953125,36.05986022949219,24.578773498535156
1686424776963792400,1.65679248046875,0.9978179931640625,35.94883346557617,24.781097412109375
1686424776973738500,1.666738525390625,1.2636489868164062,35.808021545410156,24.953125
1686424776983684600,1.6766845703125,1.6590805053710938,35.49298858642578,25.010398864746094
1686424776993630500,1.68663037109375,1.995880126953125,35.239864349365234,25.439315795898438
1686424777003576600,1.69657666015625,2.2927703857421875,34.954925537109375,25.893692016601562
1686424777013522400,1.7065224609375,3.086029052734375,34.542606353759766,26.042869567871094
1686424777023468500,1.716468505859375,4.280059814453125,34.09013366699219,26.563499450683594
1686424777033414400,1.726414306640625,5.491729736328125,33.53624725341797,27.054298400878906
1686424777043360500,1.736360595703125,6.652069091796875,32.68887710571289,27.415794372558594
1686424777053306400,1.746306396484375,7.457794189453125,32.00862121582031,28.046875
1686424777063252500,1.75625244140625,8.442031860351562,31.25074577331543,28.41881561279297
1686424777073198300,1.7661982421875,8.44580078125,30.79867172241211,28.961769104003906
1686424777083144400,1.77614453125,8.9344482421875,30.36355209350586,29.295440673828125
1686424777093090600,1.786090576171875,9.090957641601562,29.853090286254883,29.571578979492188
1686424777103035400,1.796035400390625,9.628829956054688,29.602294921875,29.749359130859375
1686424777112981200,1.805981201171875,9.872390747070312,29.28066635131836,29.819847106933594
1686424777122927400,1.81592724609375,10.541259765625,29.04852867126465,29.772659301757812
1686424777132873500,1.82587353515625,11.266334533691406,28.5281925201416,29.86003875732422
1686424777142819300,1.8358193359375,11.668205261230469,28.72319984436035,29.698768615722656
1686424777152765400,1.845765380859375,12.285778045654297,28.715377807617188,29.462692260742188
1686424777162711300,1.855711181640625,12.553905487060547,28.528114318847656,29.528785705566406
1686424777172657400,1.865657470703125,12.832347869873047,28.373014450073242,29.38739776611328
1686424777182603300,1.875603271484375,13.442756652832031,27.96666717529297,29.612586975097656
1686424777192549400,1.88554931640625,13.826160430908203,27.611661911010742,29.711265563964844
1686424777202495200,1.8954951171875,14.443450927734375,26.89002799987793,29.765663146972656
1686424777212441300,1.90544140625,14.99666976928711,26.327560424804688,29.959518432617188
1686424777222387500,1.915387451171875,15.49625015258789,25.48904800415039,30.242462158203125
1686424777232333300,1.925333251953125,15.662689208984375,24.726093292236328,30.798721313476562
1686424777242279400,1.935279541015625,16.056259155273438,24.5767822265625,30.936370849609375
1686424777252225300,1.945225341796875,16.116901397705078,23.941394805908203,31.08263397216797
1686424777262171400,1.95517138671875,16.717086791992188,23.660490036010742,30.946502685546875
1686424777272117500,1.965117431640625,17.10865020751953,23.21600341796875,30.831886291503906
1686424777282063400,1.9750634765625,17.030075073242188,23.238697052001953,30.590057373046875
1686424777292009500,1.985009521484375,16.98358917236328,23.15974998474121,30.58911895751953
1686424777301955600,1.99495556640625,17.075576782226562,23.60532569885254,30.307632446289062
1686424777311901400,2.0049013671875,17.323322296142578,24.0696964263916,29.801803588867188
1686424777321847600,2.01484765625,17.413219451904297,24.540681838989258,29.29906463623047
1686424777331793700,2.024793701171875,17.346683502197266,25.009620666503906,29.009567260742188
1686424777341739500,2.034739501953125,17.506385803222656,25.391881942749023,28.616134643554688
1686424777351685600,2.044685546875,17.624114990234375,25.287412643432617,28.497238159179688
1686424777361631500,2.054631591796875,17.960018157958984,25.027996063232422,28.38141632080078
1686424777371577600,2.06457763671875,17.750560760498047,24.856355667114258,28.000259399414062
1686424777381523500,2.0745234375,18.46908187866211,24.777223587036133,28.16119384765625
1686424777391469600,2.084469482421875,18.954776763916016,24.69064712524414,28.000732421875
1686424777401415400,2.09441552734375,19.698944091796875,24.790624618530273,27.47533416748047
1686424777411361500,2.104361572265625,20.150096893310547,25.08089828491211,27.070159912109375
1686424777421307400,2.114307373046875,20.152584075927734,25.521371841430664,26.42272186279297
1686424777431252500,2.12425244140625,20.67031478881836,25.996702194213867,26.162399291992188
1686424777441198300,2.1341982421875,20.41009521484375,26.659074783325195,25.738182067871094
1686424777451144400,2.14414453125,20.37189483642578,27.11574363708496,25.192672729492188
1686424777461090300,2.15409033203125,20.139251708984375,28.013994216918945,24.78540802001953
1686424777471036400,2.164036376953125,19.56029510498047,28.78141975402832,24.449256896972656
1686424777480982500,2.173982421875,19.534141540527344,29.455665588378906,23.82640838623047
1686424777490928400,2.183928466796875,18.66147232055664,30.367931365966797,23.194297790527344
1686424777500874500,2.19387451171875,17.372535705566406,31.282573699951172,22.53638458251953
1686424777510820400,2.2038203125,17.36402130126953,32.25072479248047,21.853431701660156
1686424777520766500,2.213766357421875,16.636810302734375,33.05046844482422,20.78516387939453
1686424777530712300,2.22371240234375,16.25823974609375,34.092185974121094,19.849021911621094
1686424777540658400,2.233658447265625,15.782920837402344,34.916404724121094,18.531356811523438
1686424777550604300,2.243604248046875,15.692951202392578,35.8701171875,17.170120239257812
1686424777560550400,2.25355029296875,15.58297348022461,37.14147186279297,15.232315063476562
1686424777570496300,2.263496337890625,15.935260772705078,38.14337921142578,13.694953918457031
1686424777580442400,2.2734423828125,16.21389389038086,39.07150650024414,12.036895751953125
1686424777590388500,2.283388427734375,16.21389389038086,39.07150650024414,12.036895751953125
1686424777600334300,2.293334228515625,16.696434020996094,39.93657302856445,10.035469055175781
1686424777610280400,2.303280517578125,16.269325256347656,40.47806930541992,8.764678955078125
1686424777620226300,2.313226318359375,16.132797241210938,40.89684295654297,7.0189056396484375
1686424777630172400,2.32317236328125,16.14523696899414,41.38672637939453,5.7742767333984375
1686424777640118300,2.3331181640625,16.37885284423828,41.800743103027344,4.393165588378906
1686424777650064400,2.343064453125,16.234413146972656,42.2397575378418,2.832794189453125
1686424777660010200,2.35301025390625,16.195423126220703,42.71985626220703,1.2568283081054688
1686424777669956400,2.362956298828125,16.066181182861328,43.297828674316406,-0.43001556396484375
1686424777679902200,2.372902099609375,15.691043853759766,43.5347785949707,-2.6827011108398438
1686424777689848300,2.382848388671875,15.770069122314453,43.950050354003906,-4.529258728027344
1686424777699794400,2.39279443359375,15.70815658569336,43.94245910644531,-6.670570373535156
1686424777709740300,2.402740234375,15.956504821777344,44.167415618896484,-8.779891967773438
1686424777719686400,2.412686279296875,15.830490112304688,43.95029830932617,-11.101898193359375
1686424777729632300,2.42263232421875,15.882522583007812,44.191829681396484,-12.929931640625
1686424777739578400,2.432578369140625,16.109188079833984,43.73987579345703,-14.985252380371094
1686424777749524500,2.4425244140625,15.763496398925781,43.710594177246094,-16.673004150390625
1686424777759470300,2.45247021484375,15.496143341064453,43.62025833129883,-17.850433349609375
1686424777769416400,2.46241650390625,15.05002212524414,43.426300048828125,-18.90918731689453
1686424777779362600,2.472362548828125,14.950374603271484,43.31947708129883,-19.454010009765625
1686424777789308700,2.48230859375,14.304244995117188,43.254783630371094,-19.900543212890625
1686424777799254500,2.492254638671875,13.834850311279297,43.227783203125,-20.314048767089844
1686424777809199400,2.502199462890625,13.451377868652344,42.93183898925781,-20.446800231933594
1686424777819145500,2.5121455078125,12.994621276855469,43.134002685546875,-20.81769561767578
1686424777829091600,2.522091552734375,12.17144775390625,43.191123962402344,-20.86426544189453
1686424777839037400,2.532037353515625,11.164047241210938,43.47246551513672,-21.09735870361328
1686424777848983600,2.541983642578125,10.270317077636719,43.7333984375,-21.300369262695312
1686424777858929400,2.551929443359375,9.398841857910156,43.87838363647461,-21.234535217285156
1686424777868875500,2.56187548828125,8.246345520019531,44.180389404296875,-21.29876708984375
1686424777878821400,2.5718212890625,7.839508056640625,44.27972412109375,-21.18018341064453
1686424777888767500,2.581767578125,7.049781799316406,44.28352355957031,-21.32111358642578
1686424777898713300,2.59171337890625,6.4483795166015625,44.0655517578125,-21.377540588378906
1686424777908659500,2.601659423828125,6.488067626953125,43.93096923828125,-21.567352294921875
1686424777918605300,2.611605224609375,6.078514099121094,43.70261764526367,-21.81476593017578
1686424777928551400,2.621551513671875,5.575004577636719,43.81432342529297,-21.794235229492188
1686424777938497500,2.63149755859375,5.4679107666015625,43.56343460083008,-21.577049255371094
1686424777948443400,2.641443359375,5.824348449707031,43.57395553588867,-21.50086212158203
1686424777958389500,2.651389404296875,5.903289794921875,43.47985076904297,-21.364547729492188
1686424777968335400,2.66133544921875,6.3006134033203125,43.626861572265625,-20.86894989013672
1686424777978281500,2.671281494140625,7.028205871582031,43.51280212402344,-20.70380401611328
1686424777988227300,2.681227294921875,7.775413513183594,43.61030197143555,-20.654830932617188
1686424777998173400,2.69117333984375,8.366897583007812,43.79330062866211,-20.323135375976562
1686424778008119300,2.701119384765625,9.031303405761719,43.88380813598633,-20.092697143554688
1686424778018065400,2.7110654296875,9.537948608398438,43.53268051147461,-19.71881103515625
1686424778028011300,2.72101123046875,10.320610046386719,43.34162139892578,-19.408218383789062
1686424778037957400,2.730957275390625,10.938682556152344,43.31849670410156,-18.635910034179688
1686424778047903500,2.740903564453125,11.579277038574219,43.405738830566406,-17.851486206054688
1686424778057849300,2.750849365234375,12.457447052001953,43.19815444946289,-16.943878173828125
1686424778067795500,2.76079541015625,12.807941436767578,43.41337203979492,-16.223365783691406
1686424778077741300,2.7707412109375,13.304916381835938,43.63170623779297,-15.420883178710938
1686424778087687400,2.7806875,14.051170349121094,43.42860794067383,-14.995399475097656
1686424778097633300,2.79063330078125,14.42892837524414,43.58696365356445,-14.217674255371094
1686424778107579400,2.800579345703125,14.370662689208984,43.820106506347656,-13.360176086425781
1686424778117525200,2.810525146484375,14.87582015991211,43.79463195800781,-12.449638366699219
1686424778127471400,2.820471435546875,15.04702377319336,43.94602584838867,-11.563156127929688
1686424778137417200,2.830417236328125,15.365974426269531,44.036720275878906,-10.792129516601562
1686424778147363300,2.84036328125,15.919918060302734,44.0662956237793,-10.035476684570312
1686424778157309400,2.850309326171875,15.90842056274414,43.9049072265625,-9.359397888183594
1686424778167255300,2.86025537109375,16.071922302246094,44.091548919677734,-9.083984375
1686424778177201400,2.870201416015625,16.453044891357422,44.11426544189453,-8.630645751953125
1686424778187147300,2.880147216796875,16.553688049316406,44.124107360839844,-7.939628601074219
1686424778197093400,2.89009326171875,16.778099060058594,44.15591049194336,-7.63525390625
1686424778207039200,2.900039306640625,17.18407440185547,44.20476150512695,-7.580848693847656
1686424778216985300,2.9099853515625,17.113033294677734,44.176551818847656,-7.152130126953125
1686424778226931500,2.919931396484375,17.410045623779297,44.257389068603516,-7.052215576171875
1686424778236877600,2.929877685546875,18.162578582763672,44.025390625,-7.29046630859375
1686424778246822400,2.939822509765625,18.52851104736328,43.96333312988281,-7.265960693359375
1686424778256768500,2.9497685546875,18.964462280273438,43.99494552612305,-7.2500457763671875
1686424778266714400,2.95971435546875,19.22821807861328,43.98417282104492,-7.01373291015625
1686424778276660500,2.969660400390625,19.637229919433594,43.53944778442383,-7.332489013671875
1686424778286606600,2.979606689453125,20.450393676757812,43.156280517578125,-7.7840423583984375
1686424778296552400,2.989552490234375,21.466960906982422,42.742881774902344,-8.459304809570312
1686424778306498600,2.99949853515625,22.41714096069336,42.11956024169922,-9.414016723632812
1686424778316444400,3.0094443359375,23.576309204101562,41.25673294067383,-10.1942138671875
1686424778326390500,3.019390625,24.737163543701172,40.37287139892578,-10.612197875976562
1686424778336336400,3.02933642578125,26.051990509033203,39.31520462036133,-11.29718017578125
1686424778346282500,3.039282470703125,27.31719970703125,38.57320785522461,-11.484397888183594
1686424778356228400,3.049228271484375,28.10861587524414,38.07616424560547,-12.125434875488281
1686424778366174500,3.059174560546875,28.10861587524414,38.07616424560547,-12.125434875488281
1686424778376120300,3.069120361328125,28.045982360839844,37.79881286621094,-12.737274169921875
1686424778386066400,3.07906640625,28.211566925048828,37.69537353515625,-13.149269104003906
1686424778396012500,3.089012451171875,28.15386962890625,37.566184997558594,-13.412788391113281
1686424778405958400,3.09895849609375,27.852516174316406,37.79180145263672,-13.396102905273438
1686424778415904500,3.108904541015625,27.891159057617188,37.88410186767578,-13.468399047851562
1686424778425850400,3.118850341796875,27.413753509521484,37.711219787597656,-13.207542419433594
1686424778435796500,3.12879638671875,27.443126678466797,37.60030746459961,-12.910598754882812
1686424778445742600,3.13874267578125,27.218647003173828,37.73304748535156,-13.049125671386719
1686424778455688700,3.148688720703125,27.288196563720703,37.78364562988281,-12.993812561035156
1686424778465634600,3.158634521484375,27.055099487304688,37.59468078613281,-12.954681396484375
1686424778475580700,3.16858056640625,26.7774658203125,37.806907653808594,-12.910446166992188
1686424778485526500,3.178526611328125,26.620521545410156,37.77421951293945,-13.163246154785156
1686424778495472600,3.18847265625,26.61998748779297,37.76959991455078,-13.062858581542969
1686424778505418500,3.19841845703125,26.5908203125,38.11794662475586,-13.008743286132812
1686424778515364600,3.208364501953125,26.24225616455078,38.17395782470703,-12.941017150878906
1686424778525310500,3.218310546875,26.1876220703125,38.26130294799805,-12.549720764160156
1686424778535256600,3.228256591796875,25.58710479736328,38.56595993041992,-12.324722290039062
1686424778545202400,3.238202392578125,25.57784652709961,38.709564208984375,-12.272041320800781
1686424778555148500,3.2481484375,25.241718292236328,39.0491943359375,-11.869064331054688
1686424778565094700,3.2580947265625,24.795673370361328,39.31333923339844,-11.515220642089844
1686424778575040500,3.26804052734375,24.340457916259766,39.671875,-11.529075622558594
1686424778584986600,3.277986572265625,23.53936767578125,40.023040771484375,-11.281700134277344
1686424778594932500,3.287932373046875,23.082199096679688,40.48659896850586,-11.106773376464844
1686424778604878600,3.297878662109375,22.827251434326172,40.635101318359375,-10.934074401855469
1686424778614824400,3.307824462890625,22.26026153564453,41.08563995361328,-10.908134460449219
1686424778624770600,3.3177705078125,22.10350799560547,41.33688735961914,-10.970779418945312
1686424778634716400,3.32771630859375,21.516357421875,41.34149169921875,-11.304862976074219
1686424778644662500,3.33766259765625,20.870254516601562,41.70912170410156,-11.652557373046875
1686424778654608400,3.3476083984375,20.22174072265625,42.17198181152344,-11.800338745117188
1686424778664554500,3.357554443359375,19.82516860961914,42.244136810302734,-12.078170776367188
1686424778674500600,3.36750048828125,19.154415130615234,42.54827880859375,-12.309097290039062
1686424778684446500,3.377446533203125,18.756328582763672,43.008270263671875,-12.3902587890625
1686424778694392600,3.387392578125,18.052005767822266,43.4934196472168,-12.275917053222656
1686424778704338400,3.39733837890625,17.395587921142578,43.98080062866211,-12.590530395507812
1686424778714284500,3.407284423828125,16.64147186279297,43.95241165161133,-13.125198364257812
1686424778724230400,3.41723046875,15.501197814941406,44.46075439453125,-13.504615783691406
1686424778734176500,3.427176513671875,15.078376770019531,44.903507232666016,-13.807823181152344
1686424778744122600,3.43712255859375,14.393257141113281,45.05446243286133,-14.26702880859375
1686424778754068700,3.44706884765625,13.396308898925781,45.56098175048828,-14.604591369628906
1686424778764013600,3.457013671875,12.938743591308594,45.82708740234375,-15.253822326660156
1686424778773960700,3.466960693359375,12.31417465209961,46.03497314453125,-15.318069458007812
1686424778783905500,3.476905517578125,11.773067474365234,46.28046417236328,-15.732666015625
1686424778793851600,3.4868515625,11.40121078491211,46.32771301269531,-15.960494995117188
1686424778803797500,3.496797607421875,11.193038940429688,46.429405212402344,-16.506553649902344
1686424778813743600,3.50674365234375,11.424724578857422,46.22687530517578,-16.99463653564453
1686424778823689700,3.516689697265625,11.694740295410156,46.22233963012695,-17.521644592285156
1686424778833635600,3.526635498046875,12.479522705078125,45.79280471801758,-18.343353271484375
1686424778843581700,3.536581787109375,13.00783920288086,45.493560791015625,-19.009613037109375
1686424778853527600,3.546527587890625,13.91757583618164,44.95709228515625,-19.798187255859375
1686424778863473700,3.5564736328125,15.227672576904297,44.74678421020508,-20.506675720214844
1686424778873419500,3.56641943359375,16.672607421875,43.887367248535156,-20.926902770996094
1686424778883365600,3.57636572265625,17.578399658203125,43.19086456298828,-21.221084594726562
1686424778893311500,3.5863115234375,18.801925659179688,42.58351516723633,-21.711441040039062
1686424778903257600,3.596257568359375,19.910484313964844,41.94291687011719,-21.966468811035156
1686424778913203700,3.60620361328125,20.596981048583984,41.08247375488281,-22.48077392578125
1686424778923149600,3.616149658203125,21.448707580566406,40.745147705078125,-23.169235229492188
1686424778933095700,3.626095703125,21.901329040527344,39.97548294067383,-23.26177978515625
1686424778943041500,3.63604150390625,21.97634506225586,39.647987365722656,-23.58584213256836
1686424778952987600,3.645987548828125,22.04412078857422,39.507896423339844,-23.735153198242188
1686424778962933500,3.65593359375,22.50210189819336,39.342830657958984,-23.69232940673828
1686424778972879600,3.665879638671875,22.632675170898438,39.16592788696289,-23.691089630126953
1686424778982825500,3.675825439453125,22.667938232421875,39.11880111694336,-23.653690338134766
1686424778992771600,3.685771484375,22.6048583984375,39.161964416503906,-23.478530883789062
1686424779002717400,3.695717529296875,22.63125991821289,39.14065170288086,-23.304550170898438
1686424779012663600,3.70566357421875,22.50446319580078,38.97312545776367,-23.228233337402344
1686424779022609700,3.715609619140625,22.758586883544922,38.8184814453125,-22.93848419189453
1686424779032555500,3.725555419921875,22.892436981201172,38.706809997558594,-22.843032836914062
1686424779042501600,3.735501708984375,22.954818725585938,38.85312271118164,-22.3514404296875
1686424779052447500,3.745447509765625,23.217071533203125,38.92467498779297,-22.057273864746094
1686424779062393600,3.7553935546875,23.292068481445312,39.095252990722656,-21.70922088623047
1686424779072339500,3.76533935546875,23.616378784179688,39.24061584472656,-20.85692596435547
1686424779082285600,3.77528564453125,23.77550506591797,39.50893020629883,-20.089981079101562
1686424779092231400,3.7852314453125,24.09020233154297,39.720741271972656,-19.60021209716797
1686424779102177500,3.795177490234375,23.6314697265625,40.15291213989258,-19.031288146972656
1686424779112123400,3.805123291015625,23.634063720703125,40.50717544555664,-18.5810546875
1686424779122069500,3.815069580078125,23.623577117919922,40.800018310546875,-18.013153076171875
1686424779132015600,3.825015625,23.623577117919922,40.800018310546875,-18.013153076171875
1686424779141961500,3.83496142578125,23.374034881591797,41.29976272583008,-17.7315673828125
1686424779151907600,3.844907470703125,22.743633270263672,41.610504150390625,-17.44647216796875
1686424779161853400,3.854853515625,22.304000854492188,41.631507873535156,-17.305831909179688
1686424779171799600,3.864799560546875,21.489990234375,41.851348876953125,-17.378082275390625
1686424779181745400,3.874745361328125,20.746639251708984,42.02402877807617,-17.446319580078125
1686424779191691500,3.88469140625,20.618057250976562,42.09498596191406,-17.620323181152344
1686424779201637600,3.8946376953125,20.395889282226562,42.257503509521484,-18.085731506347656
1686424779211583500,3.90458349609375,20.01258087158203,42.62943649291992,-18.016769409179688
1686424779221529600,3.914529541015625,19.76517105102539,42.42453384399414,-18.63813018798828
1686424779231475700,3.924475830078125,19.408809661865234,42.552337646484375,-18.978805541992188
1686424779241421800,3.934421875,18.980300903320312,42.56367874145508,-19.374969482421875
1686424779251367700,3.94436767578125,18.124000549316406,42.854698181152344,-19.916542053222656
1686424779261313800,3.954313720703125,17.98724365234375,43.01335525512695,-20.521873474121094
1686424779271259600,3.964259765625,17.401222229003906,43.06592559814453,-20.87671661376953
1686424779281205800,3.974205810546875,17.063884735107422,42.97222900390625,-21.192893981933594
1686424779291151600,3.984151611328125,16.728565216064453,43.1248664855957,-21.024673461914062
1686424779301097700,3.99409765625,16.640541076660156,43.39617919921875,-20.698135375976562
1686424779311043600,4.004043701171875,16.15628433227539,43.56273651123047,-20.771072387695312
1686424779320989700,4.01398974609375,16.633140563964844,43.420166015625,-20.776138305664062
1686424779330935800,4.023935791015625,17.009544372558594,43.55648422241211,-21.076171875
1686424779340881700,4.033881591796875,16.931583404541016,43.434295654296875,-21.05152130126953
1686424779350827800,4.043827880859375,17.84634780883789,43.39007568359375,-21.00225067138672
1686424779360773600,4.053773681640625,18.26671600341797,43.28838348388672,-20.709938049316406
1686424779370719700,4.0637197265625,19.189170837402344,43.05320358276367,-20.79547119140625
1686424779380665600,4.07366552734375,19.948158264160156,42.68777084350586,-20.664512634277344
1686424779390611700,4.08361181640625,20.899585723876953,42.681922912597656,-20.405929565429688
1686424779400557600,4.0935576171875,21.824337005615234,42.15693664550781,-20.522293090820312
1686424779410503700,4.103503662109375,22.752304077148438,41.73197555541992,-20.712722778320312
1686424779420449500,4.113449462890625,23.15090560913086,41.53364562988281,-20.915565490722656
1686424779430395600,4.123395751953125,23.73442840576172,41.41159439086914,-20.920730590820312
1686424779440341800,4.133341796875,23.863204956054688,41.33806228637695,-20.88750457763672
1686424779450287000,4.143287109375,24.03055191040039,41.03672409057617,-21.50855255126953
1686424779460232000,4.15323193359375,23.851642608642578,40.79507827758789,-22.35102081298828
1686424779470178000,4.163177978515625,23.68407440185547,40.66648483276367,-23.01458740234375
1686424779480124000,4.1731240234375,23.392135620117188,40.44181442260742,-23.81942367553711
1686424779490070000,4.183070068359375,22.973621368408203,40.54494094848633,-24.718948364257812
1686424779500015900,4.193015869140625,22.700592041015625,40.30265808105469,-24.985485076904297
1686424779509962000,4.2029619140625,22.62961196899414,40.406742095947266,-25.15027618408203
1686424779519907800,4.212907958984375,22.728118896484375,40.337989807128906,-24.926513671875
1686424779529854000,4.22285400390625,23.08761978149414,40.0235481262207,-24.62026596069336
1686424779539800000,4.232800048828125,23.583690643310547,39.935791015625,-24.309490203857422
1686424779549746000,4.242745849609375,24.144004821777344,39.844947814941406,-23.83429718017578
1686424779559692000,4.252692138671875,24.195648193359375,39.88667297363281,-23.564796447753906
1686424779569638000,4.262637939453125,24.2069091796875,39.99187088012695,-23.48523712158203
1686424779579584000,4.272583984375,23.860191345214844,39.990447998046875,-23.188919067382812
1686424779589530000,4.282530029296875,24.41330337524414,39.829654693603516,-22.847518920898438
1686424779599476200,4.292476318359375,24.510066986083984,39.811946868896484,-22.845130920410156
1686424779609422000,4.302422119140625,23.770122528076172,39.975807189941406,-22.563827514648438
1686424779619368200,4.3123681640625,23.775707244873047,40.04933166503906,-22.532691955566406
1686424779629314000,4.32231396484375,23.627761840820312,40.420597076416016,-22.676528930664062
1686424779639260200,4.33226025390625,23.689910888671875,40.493228912353516,-22.466285705566406
1686424779649206300,4.342206298828125,23.354293823242188,40.55956268310547,-22.41497802734375
1686424779659152100,4.352152099609375,22.990238189697266,40.667442321777344,-22.36321258544922
1686424779669098200,4.36209814453125,22.699909210205078,40.916526794433594,-22.228233337402344
1686424779679044000,4.372044189453125,22.35498809814453,41.18277359008789,-22.075904846191406
1686424779688990200,4.381990234375,22.34758758544922,41.26827621459961,-21.68042755126953
1686424779698936000,4.39193603515625,21.947582244873047,41.44981384277344,-21.57837677001953
1686424779708882200,4.401882080078125,21.90875244140625,41.72526550292969,-21.200653076171875
1686424779718828000,4.411828125,21.559772491455078,42.131004333496094,-20.81878662109375
1686424779728774100,4.421774169921875,21.266395568847656,42.5175666809082,-20.12518310546875
1686424779738720000,4.431719970703125,20.853008270263672,42.858272552490234,-19.505966186523438
1686424779748666000,4.441666015625,20.631301879882812,43.58671188354492,-18.861968994140625
1686424779758612200,4.4516123046875,20.07260513305664,44.221946716308594,-18.01551055908203
1686424779768558000,4.46155810546875,20.023094177246094,44.47757339477539,-17.35478973388672
1686424779778504200,4.471504150390625,19.768444061279297,45.00358963012695,-16.816688537597656
1686424779788450000,4.481449951171875,19.10395050048828,45.357975006103516,-16.02875518798828
1686424779798396200,4.491396240234375,18.252033233642578,45.767704010009766,-15.407386779785156
1686424779808342000,4.501342041015625,17.744956970214844,45.741676330566406,-15.059173583984375
1686424779818288000,4.5112880859375,17.12891387939453,46.09758758544922,-15.114204406738281
1686424779828234000,4.52123388671875,16.72574234008789,46.34288787841797,-15.009178161621094
1686424779838180000,4.53118017578125,15.8240966796875,46.912315368652344,-14.924324035644531
1686424779848126200,4.541126220703125,15.421772003173828,47.32938766479492,-15.107040405273438
1686424779858072000,4.551072021484375,14.813644409179688,47.28396987915039,-15.11126708984375
1686424779868018200,4.56101806640625,14.558795928955078,47.581809997558594,-14.995674133300781
1686424779877964000,4.570964111328125,13.915748596191406,47.80975341796875,-15.253791809082031
1686424779887910100,4.58091015625,13.4820556640625,48.10794448852539,-15.482780456542969
1686424779897856000,4.59085595703125,12.684867858886719,48.21282196044922,-15.617523193359375
1686424779907802000,4.600802001953125,12.684867858886719,48.21282196044922,-15.617523193359375
1686424779917748000,4.610748046875,11.870250701904297,48.394535064697266,-15.648612976074219
1686424779927694000,4.620694091796875,11.667831420898438,48.33637237548828,-15.755889892578125
1686424779937640000,4.630639892578125,10.891105651855469,48.55714416503906,-16.015548706054688
1686424779947586000,4.6405859375,10.894050598144531,48.66075897216797,-16.067352294921875
1686424779957532200,4.6505322265625,10.862525939941406,48.48051834106445,-16.108116149902344
1686424779967478000,4.66047802734375,11.007514953613281,48.67616271972656,-16.352684020996094
1686424779977424100,4.670424072265625,11.581291198730469,48.65766906738281,-16.82343292236328
1686424779987370000,4.680369873046875,11.976863861083984,48.54023742675781,-17.117141723632812
1686424779997316000,4.690316162109375,12.506721496582031,48.500274658203125,-17.67462921142578
1686424780007262000,4.700261962890625,13.293689727783203,48.02412796020508,-18.086471557617188
1686424780017208000,4.7102080078125,14.19228744506836,47.95002746582031,-18.839950561523438
1686424780027154000,4.72015380859375,14.774139404296875,47.21711730957031,-19.052635192871094
1686424780037100000,4.73010009765625,15.546527862548828,47.049983978271484,-19.350387573242188
1686424780047046000,4.7400458984375,16.078445434570312,46.74894714355469,-19.518142700195312
1686424780056992000,4.749991943359375,16.59577178955078,46.73190689086914,-19.507339477539062
1686424780066938000,4.759938232421875,16.60150146484375,46.43317794799805,-19.817398071289062
1686424780076884000,4.769884033203125,16.899513244628906,46.41953659057617,-20.13384246826172
1686424780086830000,4.779830078125,16.939716339111328,46.63148498535156,-20.36310577392578
1686424780096776000,4.78977587890625,16.59918212890625,46.81195831298828,-20.6126708984375
1686424780106722000,4.79972216796875,16.090293884277344,46.72259521484375,-20.333824157714844
1686424780116668000,4.80966796875,15.724685668945312,46.66837692260742,-20.34868621826172
1686424780126614000,4.819614013671875,15.332611083984375,47.03703308105469,-20.196502685546875
1686424780136559900,4.829559814453125,15.142417907714844,47.019229888916016,-19.91393280029297
1686424780146506000,4.839506103515625,15.014961242675781,47.125308990478516,-19.922569274902344
1686424780156451800,4.849451904296875,14.362545013427734,47.16836929321289,-19.58161163330078
1686424780166398000,4.85939794921875,14.370620727539062,47.21222686767578,-19.639122009277344
1686424780176344000,4.869343994140625,14.583477020263672,47.198020935058594,-19.534385681152344
1686424780186290000,4.8792900390625,14.619869232177734,47.09425735473633,-19.312034606933594
1686424780196236000,4.889236083984375,14.681846618652344,47.15968704223633,-19.390602111816406
1686424780206182000,4.899181884765625,14.80157470703125,46.822174072265625,-19.124374389648438
1686424780216128000,4.9091279296875,14.987720489501953,46.989253997802734,-19.12792205810547
1686424780226073900,4.919073974609375,14.996173858642578,46.96092987060547,-18.845703125
1686424780236020000,4.92902001953125,15.243587493896484,46.89322280883789,-19.13239288330078
1686424780245966000,4.938966064453125,15.287662506103516,47.0921630859375,-19.064056396484375
1686424780255912200,4.948912109375,15.715290069580078,46.98622512817383,-19.203582763671875
1686424780265858000,4.958858154296875,15.531303405761719,46.71629333496094,-19.182533264160156
1686424780275804200,4.96880419921875,15.000926971435547,47.07633590698242,-19.363296508789062
1686424780285750300,4.978750244140625,14.870948791503906,46.921966552734375,-19.367446899414062
1686424780295696100,4.988696044921875,14.600536346435547,47.22780990600586,-19.486244201660156
1686424780305642200,4.998642333984375,14.034549713134766,47.16852951049805,-19.65789031982422
1686424780315588000,5.008588134765625,14.021442413330078,47.17811584472656,-19.96723175048828
1686424780325534200,5.0185341796875,13.931377410888672,47.2365608215332,-20.246795654296875
1686424780335480000,5.02847998046875,13.814388275146484,46.91059494018555,-19.920166015625
1686424780345426200,5.03842626953125,13.907279968261719,46.950439453125,-20.188796997070312
1686424780355372000,5.0483720703125,14.177932739257812,46.954185485839844,-19.656448364257812
1686424780365318100,5.058318115234375,14.46237564086914,46.894569396972656,-19.523086547851562
1686424780375264300,5.06826416015625,14.879138946533203,46.90082931518555,-19.25012969970703
1686424780385210000,5.078210205078125,14.968338012695312,46.88090896606445,-18.929946899414062
1686424780395156200,5.08815625,15.299274444580078,46.50599670410156,-19.187713623046875
1686424780405102000,5.09810205078125,15.61954116821289,46.823585510253906,-18.87334442138672
1686424780415047200,5.108047119140625,15.79580307006836,46.842498779296875,-18.52373504638672
1686424780424994000,5.117994140625,16.05937957763672,46.85456085205078,-18.515480041503906
1686424780434939100,5.127939208984375,16.04741668701172,46.85014343261719,-18.408119201660156
1686424780444886800,5.13788671875,15.946052551269531,46.72174835205078,-18.24274444580078
1686424780454831600,5.14783154296875,16.443145751953125,46.7095832824707,-18.16924285888672
1686424780464777700,5.15777783203125,16.30437469482422,46.634368896484375,-18.108787536621094
1686424780474723600,5.1677236328125,16.560298919677734,46.67023849487305,-18.229774475097656
1686424780484669700,5.177669677734375,16.58124542236328,46.72169876098633,-18.393821716308594
1686424780494615800,5.18761572265625,16.042694091796875,46.80849075317383,-18.29047393798828
1686424780504561700,5.197561767578125,16.35955810546875,46.77365493774414,-18.279647827148438
1686424780514507800,5.2075078125,16.59282684326172,46.72635269165039,-18.20459747314453
1686424780524453600,5.21745361328125,16.889598846435547,46.481056213378906,-18.26056671142578
1686424780534399700,5.227399658203125,17.437721252441406,46.6115837097168,-18.369407653808594
1686424780544345600,5.237345703125,17.648292541503906,46.135135650634766,-18.362632751464844
1686424780554291700,5.247291748046875,18.006610870361328,45.5933723449707,-18.86437225341797
1686424780564237600,5.257237548828125,18.675678253173828,45.290287017822266,-18.76915740966797
1686424780574183700,5.26718359375,19.807178497314453,44.733219146728516,-18.94609832763672
1686424780584129500,5.277129638671875,20.663299560546875,44.16871643066406,-18.82440948486328
1686424780594075600,5.28707568359375,22.255149841308594,43.5943603515625,-18.857406616210938
1686424780604021800,5.297021728515625,23.291797637939453,42.70767593383789,-18.707321166992188
1686424780613967600,5.306967529296875,24.336090087890625,42.15940856933594,-18.873580932617188
1686424780623913700,5.316913818359375,25.253204345703125,41.811790466308594,-19.309776306152344
1686424780633859600,5.326859619140625,25.843894958496094,41.43730926513672,-19.811744689941406
1686424780643805700,5.3368056640625,26.008026123046875,41.24004364013672,-20.033248901367188
1686424780653751600,5.34675146484375,25.757259368896484,40.889122009277344,-19.897193908691406
1686424780663697700,5.35669775390625,26.285316467285156,40.78485870361328,-20.04534149169922
1686424780673643500,5.3666435546875,26.285316467285156,40.78485870361328,-20.04534149169922
1686424780683589600,5.376589599609375,26.405906677246094,40.59982681274414,-20.159835815429688
1686424780693535500,5.386535400390625,26.76070785522461,40.30397033691406,-20.02398681640625
1686424780703481600,5.396481689453125,27.00497055053711,40.11619186401367,-20.04114532470703
1686424780713427700,5.406427734375,26.93335723876953,40.026432037353516,-19.773162841796875
1686424780723373600,5.41637353515625,27.04401397705078,40.09783172607422,-19.278533935546875
1686424780733319700,5.426319580078125,27.109073638916016,40.14707946777344,-18.944381713867188
1686424780743265500,5.436265625,27.147750854492188,40.23308563232422,-18.849456787109375
1686424780753211600,5.446211669921875,27.165081024169922,40.27599334716797,-18.95244598388672
1686424780763157500,5.456157470703125,27.2696533203125,40.36183166503906,-19.16363525390625
1686424780773103600,5.466103515625,26.710311889648438,40.57856750488281,-18.9656982421875
1686424780783049500,5.476049560546875,26.353538513183594,40.57186508178711,-19.26403045654297
1686424780792995600,5.48599560546875,25.895885467529297,40.71674346923828,-19.34398651123047
1686424780802941700,5.495941650390625,25.631725311279297,40.81126022338867,-19.55529022216797
1686424780812887600,5.505887451171875,25.415813446044922,41.05891418457031,-19.704994201660156
1686424780822833700,5.515833740234375,25.010345458984375,41.045597076416016,-19.64446258544922
1686424780832779500,5.525779541015625,24.817092895507812,41.418724060058594,-19.43004608154297
1686424780842725600,5.5357255859375,24.29986572265625,41.72831726074219,-19.439254760742188
1686424780852671700,5.545671630859375,23.78249740600586,41.95591735839844,-18.988075256347656
1686424780862617900,5.555617919921875,23.4686279296875,42.615699768066406,-18.71076202392578
1686424780872563700,5.565563720703125,22.70974349975586,42.867942810058594,-18.230758666992188
1686424780882509800,5.575509765625,21.932281494140625,43.43302536010742,-17.354019165039062
1686424780892455700,5.58545556640625,21.34798812866211,43.62439727783203,-17.059585571289062
1686424780902401800,5.59540185546875,20.545562744140625,44.15463638305664,-17.08629608154297
1686424780912348000,5.605347900390625,19.998336791992188,44.45600128173828,-16.92688751220703
1686424780922293800,5.615293701171875,19.100841522216797,44.8514404296875,-16.97834014892578
1686424780932240000,5.625239990234375,18.028057098388672,45.23970031738281,-16.83343505859375
1686424780942185700,5.635185791015625,16.921031951904297,45.50196838378906,-16.85442352294922
1686424780952131800,5.6451318359375,15.56882095336914,45.76664733886719,-16.921058654785156
1686424780962077700,5.65507763671875,14.867645263671875,46.17610549926758,-17.060287475585938
1686424780972023800,5.66502392578125,14.06368637084961,46.4514045715332,-17.28624725341797
1686424780981969700,5.6749697265625,13.18109130859375,46.72699737548828,-17.406898498535156
1686424780991915800,5.684915771484375,12.33026123046875,46.69955062866211,-17.974708557128906
1686424781001861600,5.694861572265625,11.583843231201172,46.954158782958984,-18.1181640625
1686424781011807700,5.704807861328125,10.659614562988281,47.05040740966797,-18.58740234375
1686424781021753900,5.71475390625,9.648292541503906,46.961917877197266,-18.679946899414062
1686424781031699700,5.72469970703125,9.530769348144531,47.10814666748047,-18.944931030273438
1686424781041645800,5.734645751953125,9.18670654296875,46.97859191894531,-18.938674926757812
1686424781051591700,5.744591796875,8.926231384277344,46.977455139160156,-18.9617919921875
1686424781061537800,5.754537841796875,8.88763427734375,46.977088928222656,-19.035629272460938
1686424781071483600,5.764483642578125,8.841529846191406,46.82431411743164,-19.04425048828125
1686424781081429800,5.7744296875,8.9295654296875,47.076942443847656,-18.828285217285156
1686424781091375600,5.784375732421875,9.42120361328125,46.88627624511719,-18.498313903808594
1686424781101321700,5.79432177734375,10.128990173339844,47.026763916015625,-18.462867736816406
1686424781111267600,5.804267578125,10.360595703125,46.8294677734375,-17.8798828125
1686424781121213700,5.814213623046875,10.849540710449219,46.601104736328125,-17.9580078125
1686424781131159800,5.824159912109375,11.499774932861328,46.78778839111328,-17.6126708984375
1686424781141105700,5.834105712890625,12.240493774414062,46.315731048583984,-17.47168731689453
1686424781151051800,5.8440517578125,13.158893585205078,46.233341217041016,-17.1478271484375
1686424781160997600,5.85399755859375,13.940471649169922,46.005271911621094,-17.150711059570312
1686424781170943700,5.86394384765625,14.441600799560547,45.92342758178711,-17.409767150878906
1686424781180889600,5.8738896484375,14.906978607177734,45.64280319213867,-17.50916290283203
1686424781190835700,5.883835693359375,15.2305908203125,45.376346588134766,-17.539154052734375
1686424781200781600,5.893781494140625,15.790519714355469,45.153438568115234,-17.47607421875
1686424781210727700,5.903727783203125,16.451004028320312,44.943702697753906,-17.66766357421875
1686424781220673800,5.913673828125,16.614192962646484,44.81267166137695,-17.684219360351562
1686424781230619600,5.92361962890625,16.680591583251953,44.819480895996094,-17.621856689453125
1686424781240565800,5.933565673828125,16.439895629882812,44.594539642333984,-17.65125274658203
1686424781250511600,5.94351171875,16.172557830810547,44.86699676513672,-17.770156860351562
1686424781260457700,5.953457763671875,15.987476348876953,44.896484375,-17.737167358398438
1686424781270403600,5.963403564453125,15.253791809082031,44.886539459228516,-17.70600128173828
1686424781280349700,5.973349609375,14.846820831298828,44.938594818115234,-17.6405029296875
1686424781290295600,5.983295654296875,14.484443664550781,45.221736907958984,-17.508331298828125
1686424781300241700,5.99324169921875,13.716415405273438,45.212615966796875,-17.582679748535156
1686424781310187500,6.0031875,13.57205581665039,45.514671325683594,-17.7415771484375
1686424781320133600,6.013133544921875,13.423011779785156,45.6039924621582,-17.637229919433594
1686424781330079700,6.023079833984375,12.776630401611328,45.56993103027344,-17.652725219726562
1686424781340025600,6.033025634765625,12.837150573730469,45.67402648925781,-17.91474151611328
1686424781349971700,6.0429716796875,12.886676788330078,45.76823043823242,-17.79261016845703
1686424781359917600,6.05291748046875,12.38010025024414,45.88292694091797,-17.931488037109375
1686424781369863700,6.06286376953125,12.397491455078125,46.058963775634766,-18.11145782470703
1686424781379809500,6.0728095703125,12.200736999511719,45.84355545043945,-17.958038330078125
1686424781389755600,6.082755615234375,12.40234375,45.833465576171875,-17.692726135253906
1686424781399701500,6.092701416015625,11.82132339477539,45.71780014038086,-17.964462280273438
1686424781409647600,6.102647705078125,11.90151596069336,45.69650650024414,-18.213394165039062
1686424781419593500,6.112593505859375,12.058353424072266,45.47030258178711,-18.533546447753906
1686424781429539600,6.12253955078125,12.127445220947266,45.42428207397461,-19.04694366455078
1686424781439485700,6.132485595703125,12.127445220947266,45.42428207397461,-19.04694366455078
1686424781449431300,6.142431396484375,12.071578979492188,45.35926818847656,-18.89405059814453
1686424781459377400,6.15237744140625,12.084957122802734,45.375511169433594,-19.076568603515625
1686424781469323500,6.162323486328125,12.180622100830078,45.382568359375,-18.842079162597656
1686424781479269600,6.17226953125,12.497932434082031,45.166419982910156,-18.52434539794922
1686424781489215500,6.182215576171875,12.361286163330078,45.15221405029297,-18.40520477294922
1686424781499161600,6.19216162109375,13.000694274902344,44.97013854980469,-17.95409393310547
1686424781509107500,6.202107421875,13.06137466430664,45.04093933105469,-17.444122314453125
1686424781519053600,6.212053466796875,13.387809753417969,44.973358154296875,-17.32056427001953
1686424781528999400,6.22199951171875,13.742698669433594,45.013999938964844,-16.928466796875
1686424781538945500,6.231945556640625,14.363883972167969,44.829830169677734,-16.321189880371094
1686424781548891600,6.2418916015625,14.616230010986328,44.739864349365234,-16.249725341796875
1686424781558837500,6.25183740234375,15.200927734375,44.553245544433594,-15.895576477050781
1686424781568783600,6.26178369140625,15.733722686767578,44.46966552734375,-15.455665588378906
1686424781578729500,6.2717294921875,16.013042449951172,44.27058029174805,-15.407432556152344
1686424781588675600,6.281675537109375,16.426929473876953,43.974388122558594,-15.300071716308594
1686424781598621400,6.291621337890625,16.17272186279297,44.08211135864258,-14.907470703125
1686424781608567600,6.301567626953125,16.569385528564453,44.14213562011719,-14.884689331054688
1686424781618513400,6.311513427734375,16.569366455078125,43.91168975830078,-14.785713195800781
1686424781628459500,6.32145947265625,16.612022399902344,43.683353424072266,-14.908531188964844
1686424781638405400,6.3314052734375,16.651561737060547,43.828861236572266,-14.754295349121094
1686424781648350500,6.3413505859375,17.408626556396484,43.1601676940918,-14.848472595214844
1686424781658297600,6.351297607421875,18.044109344482422,42.981300354003906,-15.190330505371094
1686424781668242400,6.361242431640625,18.695476531982422,42.411197662353516,-15.311882019042969
1686424781678188300,6.371188232421875,19.913162231445312,41.788734436035156,-15.367813110351562
1686424781688134400,6.381134521484375,20.731159210205078,41.44024658203125,-15.458763122558594
1686424781698080500,6.39108056640625,21.37957000732422,41.0944709777832,-15.780342102050781
1686424781708026400,6.4010263671875,21.993114471435547,40.77312469482422,-15.882026672363281
1686424781717972500,6.410972412109375,22.40915298461914,40.24687957763672,-15.905029296875
1686424781727918300,6.42091845703125,22.669479370117188,40.03119659423828,-15.768875122070312
1686424781737864400,6.430864501953125,23.301990509033203,39.8351936340332,-15.520538330078125
1686424781747810300,6.440810302734375,23.452930450439453,39.92798614501953,-15.379722595214844
1686424781757756400,6.45075634765625,23.72405242919922,39.53584671020508,-15.475669860839844
1686424781767702300,6.460702392578125,23.56549835205078,39.63117218017578,-15.328529357910156
1686424781777648400,6.4706484375,23.798282623291016,39.516517639160156,-15.307563781738281
1686424781787594200,6.48059423828125,23.807586669921875,39.20464324951172,-15.674346923828125
1686424781797540400,6.490540283203125,23.95832061767578,39.38645553588867,-15.261711120605469
1686424781807486500,6.500486572265625,24.25756072998047,39.22869873046875,-15.073478698730469
1686424781817432300,6.510432373046875,23.70480728149414,39.01188659667969,-15.202850341796875
1686424781827378400,6.52037841796875,23.780391693115234,39.24672317504883,-15.488937377929688
1686424781837324300,6.53032421875,23.44617462158203,39.380855560302734,-15.314849853515625
1686424781847270400,6.5402705078125,23.553173065185547,39.81660461425781,-15.469146728515625
1686424781857216300,6.55021630859375,23.285640716552734,39.86227798461914,-15.397209167480469
1686424781867162400,6.560162353515625,22.74102783203125,39.820213317871094,-15.767494201660156
1686424781877108200,6.570108154296875,22.749134063720703,39.5900993347168,-15.975936889648438
1686424781887054300,6.580054443359375,22.113990783691406,39.903446197509766,-16.237747192382812
1686424781897000400,6.59000048828125,21.91339874267578,39.844966888427734,-16.09911346435547
1686424781906946300,6.5999462890625,21.41613006591797,39.974388122558594,-15.916023254394531
1686424781916892400,6.609892333984375,21.207317352294922,40.335540771484375,-15.539741516113281
1686424781926838300,6.61983837890625,20.64163589477539,40.64255142211914,-15.408363342285156
1686424781936784400,6.629784423828125,20.438034057617188,40.94860076904297,-15.094673156738281
1686424781946730500,6.63973046875,19.93621063232422,41.24151611328125,-14.704795837402344
1686424781956676600,6.649676513671875,19.240631103515625,41.63711166381836,-14.206771850585938
1686424781966622500,6.65962255859375,18.671836853027344,42.027000427246094,-13.98046875
1686424781976568600,6.669568603515625,17.896625518798828,42.32347106933594,-13.730789184570312
1686424781986514400,6.679514404296875,17.146163940429688,42.491424560546875,-13.398170471191406
1686424781996460500,6.68946044921875,16.272846221923828,42.71427536010742,-13.070213317871094
1686424782006406700,6.69940673828125,15.465534210205078,42.93925476074219,-13.285797119140625
1686424782016352500,6.7093525390625,14.311531066894531,43.27894973754883,-13.349601745605469
1686424782026298600,6.719298583984375,13.541637420654297,43.727603912353516,-13.525161743164062
1686424782036244500,6.729244384765625,12.55447006225586,44.08666229248047,-13.476539611816406
1686424782046190600,6.739190673828125,11.202720642089844,44.24626159667969,-13.701980590820312
1686424782056136400,6.749136474609375,10.558250427246094,44.43785858154297,-13.939865112304688
1686424782066082600,6.75908251953125,9.09295654296875,44.46466064453125,-13.88262939453125
1686424782076028400,6.7690283203125,7.9454498291015625,44.14116668701172,-14.610977172851562
1686424782085974500,6.778974609375,7.263130187988281,44.36909866333008,-14.629898071289062
1686424782095920400,6.78892041015625,6.778297424316406,44.137001037597656,-14.790779113769531
1686424782105866500,6.798866455078125,5.7656402587890625,44.28749465942383,-15.017959594726562
1686424782115812600,6.8088125,5.201835632324219,44.244720458984375,-14.928703308105469
1686424782125758500,6.818758544921875,4.519256591796875,44.38886642456055,-15.351203918457031
1686424782135704600,6.82870458984375,4.288368225097656,44.31882095336914,-15.242233276367188
1686424782145650400,6.838650390625,4.006103515625,44.43360137939453,-15.105705261230469
1686424782155596500,6.848596435546875,3.9129867553710938,44.42954635620117,-15.012161254882812
1686424782165542400,6.85854248046875,3.9336090087890625,44.14683532714844,-14.673416137695312
1686424782175488500,6.868488525390625,4.326927185058594,44.07329559326172,-14.472221374511719
1686424782185434400,6.878434326171875,4.245735168457031,44.105995178222656,-14.288261413574219
1686424782195380500,6.88838037109375,4.966957092285156,44.136390686035156,-14.062141418457031
1686424782205326300,6.898326416015625,4.966957092285156,44.136390686035156,-14.062141418457031
1686424782215272400,6.9082724609375,5.224212646484375,44.02010726928711,-14.146560668945312
1686424782225218600,6.918218505859375,5.47515869140625,43.918418884277344,-14.087600708007812
1686424782235164400,6.928164306640625,5.8858642578125,44.05653381347656,-14.164817810058594
1686424782245110500,6.938110595703125,6.577476501464844,44.01664733886719,-13.83599853515625
1686424782255056400,6.948056396484375,7.191925048828125,43.836585998535156,-13.698089599609375
1686424782265002500,6.95800244140625,7.7387237548828125,43.95698547363281,-13.721282958984375
1686424782274948400,6.9679482421875,8.588714599609375,43.72359085083008,-13.533538818359375
1686424782284894500,6.97789453125,9.370262145996094,43.65308380126953,-13.777107238769531
1686424782294840300,6.98784033203125,10.150733947753906,43.527992248535156,-13.663749694824219
1686424782304786400,6.997786376953125,10.367141723632812,43.50465774536133,-13.774017333984375
1686424782314732500,7.007732666015625,10.407157897949219,43.675193786621094,-14.057792663574219
1686424782324678400,7.017678466796875,9.766410827636719,43.588462829589844,-14.003196716308594
1686424782334624500,7.02762451171875,9.396873474121094,43.920501708984375,-13.784721374511719
1686424782344570400,7.0375703125,9.316978454589844,43.74468994140625,-14.018211364746094
1686424782354516500,7.0475166015625,8.998687744140625,43.560699462890625,-13.857627868652344
1686424782364462300,7.05746240234375,8.447830200195312,43.59797668457031,-13.787200927734375
1686424782374408400,7.067408447265625,8.387413024902344,43.835845947265625,-13.76226806640625
1686424782384354300,7.077354248046875,8.0435791015625,43.880699157714844,-13.81201171875
1686424782394300400,7.087300537109375,7.472076416015625,44.13429260253906,-13.707664489746094
1686424782404246300,7.097246337890625,7.584220886230469,44.08860778808594,-13.976203918457031
1686424782414192400,7.1071923828125,6.937522888183594,43.965736389160156,-13.879417419433594
1686424782424138500,7.117138427734375,7.117515563964844,44.07377624511719,-13.913002014160156
1686424782434084400,7.12708447265625,7.096763610839844,44.229251861572266,-13.771644592285156
1686424782444030500,7.137030517578125,7.22491455078125,44.13544845581055,-13.79193115234375
1686424782453976800,7.146976806640625,6.891044616699219,43.87238693237305,-13.997337341308594
1686424782463923000,7.1569228515625,7.240425109863281,44.07590866088867,-14.05145263671875
1686424782473869000,7.166869140625,7.562797546386719,43.805084228515625,-13.988197326660156
1686424782483815000,7.17681494140625,7.648445129394531,43.77174758911133,-13.745834350585938
1686424782493761000,7.186760986328125,7.572273254394531,43.72544860839844,-13.68646240234375
1686424782503707000,7.196706787109375,7.620262145996094,43.82154083251953,-13.582054138183594
1686424782513653000,7.206653076171875,7.424858093261719,44.0355110168457,-13.478370666503906
1686424782523598800,7.216598876953125,6.738922119140625,43.819305419921875,-13.620468139648438
1686424782533545000,7.226544921875,6.9867401123046875,43.38842010498047,-13.409866333007812
1686424782543490800,7.23649072265625,7.029167175292969,43.384517669677734,-13.257980346679688
1686424782553437000,7.24643701171875,7.235847473144531,43.42601013183594,-12.979942321777344
1686424782563382800,7.2563828125,7.552520751953125,43.298851013183594,-12.821739196777344
1686424782573329000,7.266328857421875,7.6209716796875,43.55833053588867,-12.4825439453125
1686424782583275000,7.27627490234375,8.044105529785156,43.572391510009766,-12.176483154296875
1686424782593220900,7.286220947265625,8.721343994140625,43.3874397277832,-12.085556030273438
1686424782603167000,7.2961669921875,8.986717224121094,43.29633331298828,-11.83123779296875
1686424782613112800,7.30611279296875,9.032554626464844,42.95851135253906,-11.503517150878906
1686424782623059000,7.316058837890625,9.260177612304688,42.95136260986328,-11.203781127929688
1686424782633004800,7.3260048828125,9.413803100585938,42.81110763549805,-11.208473205566406
1686424782642951000,7.335950927734375,9.66387939453125,42.852535247802734,-11.203033447265625
1686424782652896800,7.345896728515625,9.603324890136719,42.755943298339844,-10.519912719726562
1686424782662843000,7.3558427734375,9.390846252441406,42.84050369262695,-10.442222595214844
1686424782672788700,7.365788818359375,10.080703735351562,42.56867980957031,-10.341896057128906
1686424782682734800,7.37573486328125,10.346054077148438,42.42977523803711,-10.421653747558594
1686424782692681000,7.385680908203125,10.194480895996094,42.331993103027344,-10.570960998535156
1686424782702626800,7.395626708984375,10.609603881835938,41.939884185791016,-10.6630859375
1686424782712573000,7.405572998046875,10.82867431640625,41.71494674682617,-10.89715576171875
1686424782722519000,7.41551904296875,11.72964096069336,41.44950485229492,-11.21368408203125
1686424782732465200,7.425465087890625,12.206035614013672,41.1507568359375,-11.269660949707031
1686424782742411000,7.435410888671875,12.985763549804688,41.01823806762695,-11.180702209472656
1686424782752357000,7.445357177734375,13.69156265258789,40.71643829345703,-11.267303466796875
1686424782762303000,7.455302978515625,14.457855224609375,40.306732177734375,-11.859809875488281
1686424782772249000,7.4652490234375,14.558452606201172,40.270206451416016,-11.776199340820312
1686424782782195200,7.4751953125,14.926025390625,40.11803436279297,-11.468048095703125
1686424782792141000,7.48514111328125,15.202468872070312,40.084266662597656,-11.409767150878906
1686424782802087200,7.495087158203125,15.410533905029297,39.97616958618164,-10.841133117675781
1686424782812033000,7.505032958984375,15.110919952392578,40.17784881591797,-10.568313598632812
1686424782821979100,7.514979248046875,15.403743743896484,40.0734977722168,-10.32489013671875
1686424782831925000,7.524925048828125,15.394615173339844,39.976959228515625,-10.692794799804688
1686424782841871000,7.53487109375,15.544567108154297,40.02424621582031,-10.534492492675781
1686424782851817000,7.54481689453125,15.684345245361328,40.05124282836914,-10.415504455566406
1686424782861763000,7.55476318359375,15.511383056640625,40.009429931640625,-10.317985534667969
1686424782871709000,7.564708984375,15.375919342041016,40.03917694091797,-10.464035034179688
1686424782881655000,7.574655029296875,15.312313079833984,40.067115783691406,-10.329986572265625
1686424782891601200,7.58460107421875,15.596389770507812,40.06550598144531,-10.665283203125
1686424782901547000,7.594547119140625,15.323429107666016,40.1314811706543,-10.690116882324219
1686424782911493000,7.6044931640625,14.851184844970703,40.24828338623047,-10.781639099121094
1686424782921439000,7.61443896484375,14.475566864013672,40.3818244934082,-10.930328369140625
1686424782931385000,7.624385009765625,14.360870361328125,40.55443572998047,-10.959739685058594
1686424782941331000,7.6343310546875,14.433586120605469,40.87750244140625,-11.138275146484375
1686424782951277000,7.644277099609375,13.959896087646484,40.74249267578125,-11.173622131347656
1686424782961223000,7.654222900390625,13.27923583984375,40.85191345214844,-11.031089782714844
1686424782971169000,7.6641689453125,13.090133666992188,40.881954193115234,-10.83453369140625
1686424782981115000,7.674114990234375,13.090133666992188,40.881954193115234,-10.83453369140625
1686424782991061000,7.68406103515625,12.62435531616211,41.12837219238281,-10.613563537597656
1686424783001007000,7.694007080078125,12.4530029296875,41.381141662597656,-10.224159240722656
1686424783010953000,7.703952880859375,11.774173736572266,41.26935577392578,-10.033088684082031
1686424783020899000,7.713899169921875,11.226387023925781,41.238162994384766,-9.824874877929688
1686424783030845000,7.723844970703125,10.522743225097656,41.34172058105469,-9.658157348632812
1686424783040791000,7.733791015625,10.209953308105469,41.692779541015625,-9.371940612792969
1686424783050737000,7.74373681640625,9.245353698730469,41.946861267089844,-8.835182189941406
1686424783060683000,7.75368310546875,9.077987670898438,41.883663177490234,-9.050086975097656
1686424783070627800,7.7636279296875,8.084373474121094,41.94575500488281,-9.060470581054688
1686424783080574000,7.773573974609375,7.5075531005859375,42.079368591308594,-8.797523498535156
1686424783090519800,7.783519775390625,6.3993377685546875,42.33476257324219,-8.86444091796875
1686424783100466000,7.7934658203125,5.255828857421875,42.275390625,-8.696990966796875
1686424783110411800,7.803411865234375,4.4880828857421875,42.28656005859375,-8.994560241699219
1686424783120358000,7.81335791015625,3.3475723266601562,42.4124755859375,-9.023178100585938
1686424783130303700,7.8233037109375,2.7146835327148438,42.335845947265625,-8.763771057128906
1686424783140249900,7.833249755859375,1.62786865234375,42.279911041259766,-8.94366455078125
1686424783150196000,7.843196044921875,1.5185699462890625,42.10793685913086,-9.169113159179688
1686424783160141800,7.853141845703125,0.39031982421875,42.179691314697266,-9.281768798828125
1686424783170088000,7.863087890625,0.21967315673828125,42.187713623046875,-9.338142395019531
1686424783180034000,7.873033935546875,-0.6500167846679688,42.112205505371094,-9.218009948730469
1686424783189980000,7.88297998046875,-1.1229171752929688,41.87976837158203,-9.004524230957031
1686424783199926000,7.892926025390625,-1.5667266845703125,41.85943603515625,-8.691459655761719
1686424783209872100,7.9028720703125,-1.736663818359375,42.057395935058594,-8.488983154296875
1686424783219818000,7.91281787109375,-1.7541351318359375,41.959877014160156,-8.181755065917969
1686424783229764000,7.92276416015625,-1.8563919067382812,41.70118713378906,-7.966484069824219
1686424783239710200,7.932710205078125,-1.8430633544921875,41.76702117919922,-7.865623474121094
1686424783249656000,7.942656005859375,-1.89776611328125,41.77791976928711,-7.944541931152344
1686424783259602200,7.952602294921875,-1.441741943359375,41.75940704345703,-7.988548278808594
1686424783269548000,7.962548095703125,-1.3194122314453125,41.579505920410156,-7.7446136474609375
1686424783279494100,7.972494140625,-1.13848876953125,41.45153045654297,-8.107200622558594
1686424783289440000,7.98243994140625,-0.904022216796875,41.494327545166016,-8.186241149902344
1686424783299386000,7.99238623046875,-0.34088134765625,41.314208984375,-8.349113464355469
1686424783309332000,8.00233203125,0.0096282958984375,41.4980354309082,-8.614936828613281
1686424783319278000,8.012278076171874,0.41905975341796875,41.485904693603516,-8.744590759277344
1686424783329224000,8.022223876953126,1.1881256103515625,41.694297790527344,-9.019424438476562
1686424783339170000,8.032170166015625,1.6887588500976562,41.487369537353516,-8.657829284667969
1686424783349116200,8.0421162109375,2.2510833740234375,41.46607208251953,-8.775123596191406
1686424783359062000,8.05206201171875,2.978179931640625,41.52459716796875,-8.770652770996094
1686424783369008000,8.062008056640625,3.5463104248046875,41.485137939453125,-8.850334167480469
1686424783378954000,8.0719541015625,4.040435791015625,41.45206069946289,-8.899711608886719
1686424783388900000,8.081900146484376,4.2371673583984375,41.7158203125,-8.6942138671875
1686424783398846000,8.091845947265625,4.099708557128906,41.70633316040039,-8.901313781738281
1686424783408792000,8.1017919921875,3.5177459716796875,41.820556640625,-9.131004333496094
1686424783418738000,8.111738037109374,3.0809707641601562,42.07127380371094,-9.224403381347656
1686424783428684000,8.12168408203125,2.573211669921875,41.76094436645508,-9.442092895507812
1686424783438630000,8.1316298828125,1.9166946411132812,41.971248626708984,-9.163284301757812
1686424783448575700,8.14157568359375,1.60919189453125,42.12620544433594,-9.087432861328125
1686424783458521900,8.15152197265625,1.070220947265625,42.062477111816406,-9.337379455566406
1686424783468468000,8.161468017578125,0.5873489379882812,41.97958755493164,-9.4610595703125
1686424783478413800,8.171413818359374,-0.0729827880859375,41.867576599121094,-9.793373107910156
1686424783488360000,8.18135986328125,-0.35247802734375,41.733741760253906,-9.435302734375
1686424783498305800,8.191305908203125,-0.72491455078125,41.82414245605469,-9.644203186035156
1686424783508252000,8.201251953125,-0.84661865234375,41.9090690612793,-9.881271362304688
1686424783518197800,8.21119775390625,-0.9985275268554688,42.097164154052734,-9.838417053222656
1686424783528144000,8.221143798828125,-0.8951644897460938,41.603885650634766,-10.072044372558594
1686424783538089700,8.23108984375,-0.6553726196289062,41.77547073364258,-10.123756408691406
1686424783548035800,8.241035888671876,-0.6447601318359375,41.5523681640625,-10.193862915039062
1686424783557982000,8.25098193359375,-0.6790771484375,41.718116760253906,-10.435501098632812
1686424783567927800,8.260927734375,-0.40193939208984375,41.560340881347656,-10.321922302246094
1686424783577874000,8.2708740234375,-0.4359283447265625,41.57426452636719,-10.246109008789062
1686424783587819800,8.28081982421875,-0.7464065551757812,41.675628662109375,-10.149795532226562
1686424783597766000,8.290765869140625,-0.49962615966796875,41.4033088684082,-10.182022094726562
1686424783607711700,8.300711669921874,-0.11749267578125,41.33209991455078,-10.08050537109375
1686424783617657900,8.310657958984375,-0.19574737548828125,41.255977630615234,-9.795143127441406
1686424783627603700,8.320603759765625,0.39044189453125,41.05914306640625,-9.438934326171875
1686424783637549800,8.3305498046875,0.7005233764648438,41.180702209472656,-9.554031372070312
1686424783647495700,8.34049560546875,0.9830322265625,41.07000732421875,-9.446319580078125
1686424783657441800,8.35044189453125,0.9104232788085938,41.16767120361328,-9.321388244628906
1686424783667388000,8.360387939453124,0.912506103515625,41.102630615234375,-9.099784851074219
1686424783677333800,8.370333740234376,1.2234115600585938,41.135467529296875,-9.087509155273438
1686424783687279900,8.38027978515625,1.6787643432617188,41.05180740356445,-9.138412475585938
1686424783697225700,8.390225830078125,1.9303817749023438,40.990718841552734,-9.038604736328125
1686424783707171800,8.400171875,1.8550033569335938,40.928260803222656,-8.822685241699219
1686424783717117700,8.41011767578125,2.0586624145507812,40.78355407714844,-8.953117370605469
1686424783727063800,8.420063720703125,2.5006942749023438,40.650760650634766,-8.935546875
1686424783737009700,8.430009765625,2.444000244140625,40.71609115600586,-9.036216735839844
1686424783746955800,8.439955810546875,2.444000244140625,40.71609115600586,-9.036216735839844
1686424783756901600,8.449901611328125,2.6509475708007812,40.911170959472656,-8.941078186035156
1686424783766847700,8.45984765625,2.9117965698242188,40.640647888183594,-8.821609497070312
1686424783776793900,8.4697939453125,3.155029296875,40.26423645019531,-8.88665771484375
1686424783786739700,8.47973974609375,3.4599761962890625,40.37729263305664,-9.016273498535156
1686424783796685800,8.489685791015624,4.002723693847656,40.47930908203125,-8.976356506347656
1686424783806631700,8.499631591796875,4.573127746582031,40.2231330871582,-9.317527770996094
1686424783816577800,8.509577880859375,5.188682556152344,40.20842742919922,-9.765457153320312
1686424783826524000,8.51952392578125,6.0404815673828125,39.94020462036133,-10.205055236816406
1686424783836470000,8.529469970703126,7.0015411376953125,39.74913024902344,-10.058319091796875
1686424783846416000,8.539415771484375,7.732429504394531,39.508506774902344,-10.304824829101562
1686424783856362000,8.549362060546875,8.484062194824219,39.347434997558594,-10.0892333984375
1686424783866307800,8.559307861328126,8.735000610351562,39.493247985839844,-10.011566162109375
1686424783876254000,8.56925390625,8.837646484375,39.461585998535156,-9.956398010253906
1686424783886200000,8.579199951171875,8.800628662109375,39.306026458740234,-9.935775756835938
1686424783896146000,8.58914599609375,8.795219421386719,39.445579528808594,-9.662406921386719
1686424783906092000,8.599092041015625,9.043022155761719,39.189266204833984,-9.705810546875
1686424783916038000,8.609037841796875,8.887451171875,39.58816146850586,-9.640426635742188
1686424783925984000,8.61898388671875,9.240577697753906,39.64017868041992,-9.510032653808594
1686424783935929900,8.628929931640625,9.308235168457031,39.65394592285156,-9.482452392578125
1686424783945876000,8.6388759765625,9.175094604492188,39.73487854003906,-9.214332580566406
1686424783955821800,8.64882177734375,9.041213989257812,39.563236236572266,-9.199012756347656
1686424783965768000,8.658767822265625,9.238380432128906,39.77991485595703,-9.276573181152344
1686424783975714000,8.668714111328125,9.155876159667969,40.01744079589844,-9.452903747558594
1686424783985660000,8.678659912109374,8.95855712890625,40.08659362792969,-9.342857360839844
1686424783995606000,8.68860595703125,8.831718444824219,39.8990478515625,-9.304100036621094
1686424784005551900,8.6985517578125,8.46832275390625,40.09420394897461,-9.558013916015625
1686424784015498000,8.708498046875,8.293182373046875,40.11851501464844,-9.733917236328125
1686424784025443800,8.71844384765625,8.287612915039062,40.02080535888672,-9.695899963378906
1686424784035390000,8.728389892578125,7.915351867675781,40.20436477661133,-9.624298095703125
1686424784045335800,8.738335693359375,7.415718078613281,40.275543212890625,-9.518142700195312
1686424784055282000,8.748281982421876,6.874763488769531,40.43484115600586,-9.625679016113281
1686424784065227800,8.758227783203125,6.434814453125,40.42564392089844,-9.432708740234375
1686424784075174000,8.768173828125,6.2193603515625,40.696128845214844,-9.446014404296875
1686424784085120000,8.7781201171875,5.564788818359375,40.749305725097656,-9.478187561035156
1686424784095065900,8.78806591796875,4.802696228027344,40.841651916503906,-9.11590576171875
1686424784105012000,8.798011962890625,4.068603515625,40.82392883300781,-8.93463134765625
1686424784114957800,8.807957763671874,3.4897537231445312,41.01994705200195,-8.753372192382812
1686424784124904000,8.817904052734375,2.9836349487304688,40.80974578857422,-8.849761962890625
1686424784134849800,8.827849853515625,2.4951095581054688,40.959716796875,-8.499099731445312
1686424784144796000,8.8377958984375,1.736297607421875,41.199954986572266,-8.556755065917969
1686424784154741800,8.84774169921875,0.99615478515625,41.29094696044922,-8.365432739257812
1686424784164688000,8.85768798828125,0.6961746215820312,41.34101104736328,-8.392242431640625
1686424784174633700,8.8676337890625,-0.04937744140625,41.435951232910156,-8.194206237792969
1686424784184579800,8.877579833984376,-0.47653961181640625,41.33384704589844,-8.478233337402344
1686424784194526000,8.88752587890625,-0.9321746826171875,41.18768310546875,-8.310325622558594
1686424784204471800,8.897471923828125,-1.6298904418945312,41.078826904296875,-8.4290771484375
1686424784214418000,8.90741796875,-2.0378952026367188,41.079383850097656,-8.310798645019531
1686424784224363800,8.91736376953125,-2.4932327270507812,41.166290283203125,-8.36572265625
1686424784234310000,8.927309814453125,-3.0869979858398438,41.09091567993164,-8.554985046386719
1686424784244255700,8.937255859375,-3.4436264038085938,41.072837829589844,-8.715934753417969
1686424784254201900,8.947201904296875,-3.9102401733398438,40.9713020324707,-8.518440246582031
1686424784264147700,8.957147705078125,-4.428215026855469,41.09191131591797,-8.699729919433594
1686424784274093800,8.96709375,-4.7552337646484375,41.093074798583984,-8.898818969726562
1686424784284039700,8.977039794921875,-4.33868408203125,41.0037727355957,-9.044845581054688
1686424784293985800,8.98698583984375,-4.289985656738281,41.230072021484375,-9.399093627929688
1686424784303932000,8.996931884765624,-4.065269470214844,41.26710891723633,-9.543815612792969
1686424784313877800,9.006877685546876,-4.017677307128906,41.56221008300781,-9.667938232421875
1686424784323823900,9.016823974609375,-3.1073150634765625,41.527069091796875,-10.035568237304688
1686424784333769700,9.026769775390624,-2.7528915405273438,41.592105865478516,-10.457305908203125
1686424784343715800,9.0367158203125,-2.006805419921875,41.420143127441406,-10.352798461914062
1686424784353661700,9.04666162109375,-1.6496429443359375,41.4191780090332,-10.286628723144531
1686424784363607800,9.05660791015625,-2.0141754150390625,41.57852554321289,-10.265029907226562
1686424784373553700,9.0665537109375,-2.0944900512695312,41.645416259765625,-10.379776000976562
1686424784383499800,9.076499755859375,-2.7199783325195312,41.451690673828125,-10.50604248046875
1686424784393446000,9.08644580078125,-3.5797119140625,41.53480529785156,-10.08935546875
1686424784403391700,9.096391845703126,-4.571601867675781,41.847591400146484,-10.010452270507812
1686424784413336800,9.1063369140625,-4.7895050048828125,41.835304260253906,-9.652984619140625
1686424784423283700,9.11628369140625,-4.986457824707031,41.77928924560547,-9.549163818359375
1686424784433229000,9.12622900390625,-5.5399627685546875,41.59984588623047,-9.381523132324219
1686424784443175000,9.1361748046875,-5.832733154296875,41.79734420776367,-9.379135131835938
1686424784453120800,9.146120849609375,-6.249359130859375,41.69975662231445,-9.456924438476562
1686424784463067000,9.15606689453125,-6.6070709228515625,42.03523635864258,-9.451705932617188
1686424784473013000,9.166012939453125,-6.103965759277344,42.07048034667969,-9.639328002929688
1686424784482958800,9.175958740234375,-6.1793060302734375,42.233455657958984,-9.686836242675781
1686424784492905000,9.185905029296874,-6.316795349121094,41.98223876953125,-9.932830810546875
1686424784502850800,9.195850830078125,-6.1440277099609375,42.05316162109375,-9.888465881347656
1686424784512797000,9.205796875,-6.654998779296875,41.924591064453125,-9.996307373046875
1686424784522742800,9.21574267578125,-6.654998779296875,41.924591064453125,-9.996307373046875
1686424784532689000,9.22568896484375,-6.490470886230469,42.04532241821289,-10.2711181640625
1686424784542634800,9.235634765625,-7.0353546142578125,42.10629653930664,-10.303955078125
1686424784552580900,9.245580810546874,-7.5472869873046875,42.19110107421875,-10.35223388671875
1686424784562526700,9.255526611328126,-7.777565002441406,42.08156967163086,-10.405754089355469
1686424784572472800,9.265472900390625,-7.8930816650390625,42.29273223876953,-10.709922790527344
1686424784582419000,9.2754189453125,-8.5633544921875,42.143775939941406,-10.646461486816406
1686424784592364800,9.28536474609375,-8.80792236328125,42.197574615478516,-10.810325622558594
1686424784602311000,9.295310791015625,-9.351203918457031,41.86892318725586,-11.045890808105469
1686424784612256800,9.3052568359375,-9.647499084472656,42.01250457763672,-11.164192199707031
1686424784622203000,9.315202880859376,-10.152885437011719,42.024810791015625,-11.341896057128906
1686424784632148700,9.325148681640625,-10.258529663085938,41.99983596801758,-11.306304931640625
1686424784642094800,9.3350947265625,-10.22265625,42.32342529296875,-11.396583557128906
1686424784652040700,9.345040771484374,-10.119659423828125,42.36259460449219,-11.150108337402344
1686424784661986800,9.35498681640625,-10.347023010253906,42.257713317871094,-11.217323303222656
1686424784671932700,9.3649326171875,-10.046165466308594,42.536285400390625,-10.985618591308594
1686424784681878800,9.374878662109374,-9.818519592285156,42.61026382446289,-10.820068359375
1686424784691825000,9.384824951171876,-9.241012573242188,42.88926315307617,-10.698165893554688
1686424784701770800,9.394770751953125,-8.732986450195312,43.158233642578125,-10.512924194335938
1686424784711716900,9.404716796875,-8.456588745117188,43.445709228515625,-10.145240783691406
1686424784721662700,9.414662841796876,-7.767608642578125,43.55492401123047,-9.682182312011719
1686424784731608800,9.42460888671875,-7.029998779296875,43.95153045654297,-9.871780395507812
1686424784741554700,9.4345546875,-6.429145812988281,44.11711120605469,-9.575714111328125
1686424784751500800,9.444500732421876,-5.747886657714844,44.584381103515625,-9.500556945800781
1686424784761446700,9.45444677734375,-5.015106201171875,44.64216995239258,-9.516990661621094
1686424784771392800,9.464392822265625,-4.069831848144531,44.90434646606445,-9.210716247558594
1686424784781338600,9.474338623046876,-4.350044250488281,45.02738952636719,-9.604225158691406
1686424784791284700,9.48428466796875,-4.003807067871094,45.1610107421875,-10.273574829101562
1686424784801230800,9.49423095703125,-3.6550216674804688,45.02516174316406,-10.747230529785156
1686424784811176700,9.5041767578125,-3.2698211669921875,45.080604553222656,-11.106063842773438
1686424784821122800,9.514122802734375,-2.7720870971679688,45.171112060546875,-11.075141906738281
1686424784831068700,9.524068603515625,-2.2796554565429688,45.317222595214844,-10.956184387207031
1686424784841014800,9.534014892578124,-1.3699798583984375,45.16353225708008,-11.253822326660156
1686424784850960600,9.543960693359375,-1.125518798828125,45.51682662963867,-11.59088134765625
1686424784860906800,9.55390673828125,-0.49608612060546875,45.3814811706543,-11.382400512695312
1686424784870852600,9.5638525390625,0.1046295166015625,45.272891998291016,-11.622550964355469
1686424784880798700,9.573798828125,0.6436233520507812,45.45951843261719,-11.505332946777344
1686424784890744800,9.583744873046875,1.1812820434570312,45.51857376098633,-11.364227294921875
1686424784900690700,9.593690673828124,1.91021728515625,45.427181243896484,-11.14886474609375
1686424784910636800,9.60363671875,2.129547119140625,45.376251220703125,-11.107101440429688
1686424784920582700,9.613582763671875,3.0789947509765625,45.37425231933594,-10.964157104492188
1686424784930528800,9.62352880859375,3.5593719482421875,45.32211685180664,-10.96478271484375
1686424784940474600,9.633474609375,4.023841857910156,45.18698501586914,-10.757400512695312
1686424784950420700,9.643420654296875,4.7671661376953125,45.107208251953125,-10.803932189941406
1686424784960366800,9.653366943359375,4.945411682128906,45.207374572753906,-10.963340759277344
1686424784970313000,9.66331298828125,5.2564544677734375,45.204978942871094,-11.181632995605469
1686424784980258800,9.6732587890625,4.904273986816406,45.32967758178711,-11.220390319824219
1686424784990205000,9.683204833984375,4.793724060058594,45.19786071777344,-11.120468139648438
1686424785000151000,9.693151123046874,4.559684753417969,45.145484924316406,-11.083244323730469
1686424785010097000,9.703096923828125,4.306343078613281,45.14866638183594,-11.22650146484375
1686424785020043000,9.71304296875,3.8893280029296875,45.20991516113281,-11.194236755371094
1686424785029988900,9.72298876953125,3.7370681762695312,45.29132843017578,-10.863761901855469
1686424785039935000,9.73293505859375,3.2800369262695312,45.6706428527832,-10.624107360839844
1686424785049880800,9.742880859375,3.04290771484375,45.85945510864258,-10.60888671875
1686424785059827000,9.752826904296874,2.8358383178710938,45.67850875854492,-10.048469543457031
1686424785069772800,9.762772705078126,2.6534576416015625,45.82196807861328,-9.900039672851562
1686424785079719000,9.772718994140625,2.2738723754882812,45.95077133178711,-9.627479553222656
1686424785089664800,9.782664794921875,2.2019500732421875,45.969112396240234,-9.340599060058594
1686424785099611000,9.79261083984375,2.5406265258789062,45.9951171875,-8.983856201171875
1686424785109557000,9.802556884765625,2.4164581298828125,46.11465835571289,-8.952484130859375
1686424785119502800,9.8125029296875,2.655853271484375,46.13326644897461,-8.815872192382812
1686424785129449000,9.822448974609374,2.9705886840820312,46.0164794921875,-8.513641357421875
1686424785139394800,9.832394775390625,2.7990646362304688,46.111000061035156,-8.172065734863281
1686424785149341000,9.8423408203125,3.1138839721679688,46.207035064697266,-7.6795501708984375
1686424785159286800,9.852286865234374,3.3693161010742188,46.07932662963867,-7.31903076171875
1686424785169233000,9.86223291015625,3.7989120483398438,46.19292068481445,-6.8636474609375
1686424785179178800,9.8721787109375,4.2165679931640625,46.12496566772461,-6.206398010253906
1686424785189124900,9.882124755859374,4.264167785644531,46.425933837890625,-5.458953857421875
1686424785199070700,9.89207080078125,4.072715759277344,46.2580451965332,-4.777130126953125
1686424785209016800,9.902016845703125,3.847412109375,46.22694396972656,-3.973846435546875
1686424785218963000,9.911962890625,3.4097518920898438,46.20468521118164,-3.2196807861328125
1686424785228908800,9.92190869140625,3.114593505859375,46.27470779418945,-2.5047836303710938
1686424785238855000,9.93185498046875,3.3181686401367188,46.31642532348633,-2.0492401123046875
1686424785248800800,9.94180078125,3.3682708740234375,46.35962677001953,-1.7833938598632812
1686424785258747000,9.951746826171876,3.3602218627929688,46.31342315673828,-1.8731842041015625
1686424785268692700,9.961692626953125,3.6376190185546875,46.15632629394531,-1.6502151489257812
1686424785278638800,9.971638916015625,4.0878753662109375,46.22459411621094,-1.4517059326171875
1686424785288584700,9.981584716796876,4.0878753662109375,46.22459411621094,-1.4517059326171875
1686424785298530800,9.99153076171875,4.03802490234375,46.07244873046875,-1.2204055786132812
1686424785308477000,10.001476806640625,4.007926940917969,45.881473541259766,-0.9339675903320312
1686424785318422800,10.0114228515625,4.3749237060546875,45.80693817138672,-0.6345062255859375
1686424785328369000,10.021368896484375,4.6096038818359375,45.811954498291016,-0.53387451171875
1686424785338314800,10.031314697265625,4.626434326171875,45.72810363769531,-0.18798065185546875
1686424785348260900,10.0412607421875,5.306060791015625,45.60502624511719,0.175628662109375
1686424785358206700,10.051206787109376,5.268486022949219,45.66904830932617,0.2475738525390625
1686424785368152800,10.06115283203125,5.556365966796875,45.61297607421875,0.35418701171875
1686424785378098700,10.0710986328125,6.519950866699219,45.19696807861328,0.49256134033203125
1686424785388044800,10.081044921875,6.6635589599609375,45.06745529174805,0.6679306030273438
1686424785397990700,10.09099072265625,6.9403839111328125,45.20545959472656,1.1815567016601562
1686424785407936800,10.100936767578125,7.550209045410156,45.04054260253906,1.4994430541992188
1686424785417883000,10.1108828125,7.847198486328125,45.01885223388672,1.6981048583984375
1686424785427828700,10.120828857421875,8.421699523925781,44.92393112182617,1.9635162353515625
1686424785437774800,10.13077490234375,8.5548095703125,44.79692840576172,1.9231719970703125
1686424785447720700,10.140720703125,8.567214965820312,44.917510986328125,2.202667236328125
1686424785457666800,10.150666748046875,9.136001586914062,44.907413482666016,2.56610107421875
1686424785467613000,10.160613037109375,9.25396728515625,44.53607177734375,2.4024734497070312
1686424785477558800,10.170558837890624,8.938018798828125,44.63835525512695,2.5552825927734375
1686424785487505000,10.1805048828125,8.814872741699219,44.44529342651367,2.5297622680664062
1686424785497450800,10.19045068359375,8.632621765136719,44.39451599121094,3.0216293334960938
1686424785507396900,10.20039697265625,8.866714477539062,44.55651092529297,3.1317672729492188
1686424785517343000,10.210343017578126,9.268791198730469,44.40543746948242,3.14373779296875
1686424785527288800,10.220288818359375,9.20330810546875,44.299957275390625,3.126739501953125
1686424785537235000,10.23023486328125,9.237586975097656,44.38346481323242,3.206207275390625
1686424785547180800,10.240180908203126,9.204978942871094,44.1135139465332,3.2745437622070312
1686424785557127000,10.250126953125,9.402091979980469,44.102386474609375,3.4977340698242188
1686424785567072800,10.26007275390625,9.325820922851562,44.19629669189453,3.3830642700195312
1686424785577019000,10.270018798828126,9.777999877929688,43.98579788208008,3.4729080200195312
1686424785586964700,10.27996484375,9.928932189941406,44.071266174316406,3.6100540161132812
1686424785596910800,10.289910888671875,10.219436645507812,43.93659210205078,3.7083816528320312
1686424785606856700,10.299856689453126,10.254463195800781,43.56428527832031,3.3876724243164062
1686424785616802800,10.309802734375,10.410736083984375,43.61534881591797,3.3859100341796875
1686424785626749000,10.3197490234375,11.0244140625,43.73255920410156,3.375518798828125
1686424785636694800,10.32969482421875,10.812110900878906,43.55397415161133,3.2989959716796875
1686424785646641000,10.339640869140625,11.073997497558594,43.635337829589844,3.01617431640625
1686424785656587000,10.3495869140625,10.710159301757812,43.565460205078125,3.041534423828125
1686424785666533000,10.359533203125,10.3758544921875,43.634971618652344,3.1138992309570312
1686424785676479000,10.36947900390625,10.907447814941406,43.3831787109375,2.9315872192382812
1686424785686425000,10.379425048828125,11.1868896484375,43.57738494873047,2.9132080078125
1686424785696371000,10.389370849609374,11.189407348632812,43.35867691040039,2.7045059204101562
1686424785706317000,10.399317138671876,11.001853942871094,43.36274719238281,2.79248046875
1686424785716262000,10.409261962890625,10.307441711425781,43.73301696777344,2.8008880615234375
1686424785726209000,10.419208984375,9.382827758789062,43.984771728515625,2.4933319091796875
1686424785736153900,10.42915380859375,7.769767761230469,43.87669372558594,2.4893798828125
1686424785746100000,10.439099853515625,6.460548400878906,44.19710922241211,2.5904617309570312
1686424785756045800,10.4490458984375,5.10589599609375,44.39643859863281,2.5265655517578125
1686424785765992000,10.458991943359376,3.927093505859375,44.18020248413086,2.4614486694335938
1686424785775938000,10.46893798828125,3.162445068359375,44.23352813720703,2.7636642456054688
1686424785785884000,10.4788837890625,2.51397705078125,44.50926208496094,2.8435211181640625
1686424785795830000,10.488830078125,2.33642578125,44.18692398071289,2.9713668823242188
1686424785805776000,10.49877587890625,2.447784423828125,44.030845642089844,2.9944610595703125
1686424785815722000,10.508721923828125,2.59246826171875,44.02998733520508,3.0392074584960938
1686424785825667800,10.518667724609376,3.08172607421875,44.048946380615234,3.0447463989257812
1686424785835614000,10.528614013671875,3.926116943359375,43.99159622192383,3.1981658935546875
1686424785845559800,10.538559814453125,5.220954895019531,44.010650634765625,3.1452789306640625
1686424785855506000,10.548505859375,6.420501708984375,43.881385803222656,3.2316436767578125
1686424785865452000,10.5584521484375,7.8808135986328125,43.39092254638672,3.3254318237304688
1686424785875398000,10.56839794921875,9.466522216796875,43.00334548950195,3.5057373046875
1686424785885344000,10.578343994140624,10.813209533691406,42.85950469970703,3.2750091552734375
1686424785895289900,10.588289794921875,12.192760467529297,42.22972106933594,3.2836532592773438
1686424785905236000,10.598236083984375,13.63088607788086,41.923057556152344,3.3195724487304688
1686424785915181800,10.608181884765624,15.071006774902344,41.352867126464844,3.2105789184570312
1686424785925128000,10.6181279296875,16.17530059814453,40.89544677734375,3.2363052368164062
1686424785935073800,10.62807373046875,17.46633529663086,40.341068267822266,3.2069931030273438
1686424785945020000,10.63802001953125,18.360843658447266,40.31475830078125,3.0350265502929688
1686424785954965800,10.6479658203125,19.497474670410156,39.868186950683594,3.3287811279296875
1686424785964911900,10.657911865234375,20.332134246826172,39.52003860473633,3.1768875122070312
1686424785974858000,10.66785791015625,21.076385498046875,39.1937255859375,3.3824920654296875
1686424785984803800,10.677803955078126,21.394058227539062,39.30569076538086,3.47247314453125
1686424785994750000,10.68775,21.348785400390625,39.455078125,4.0218963623046875
1686424786004695800,10.69769580078125,21.428508758544922,39.091609954833984,4.2183074951171875
1686424786014642000,10.707641845703124,21.619033813476562,39.08701705932617,4.9499664306640625
1686424786024587800,10.717587890625,21.625534057617188,38.95697784423828,5.6264190673828125
1686424786034534000,10.727533935546875,21.720867156982422,38.81112289428711,6.146705627441406
1686424786044479700,10.737479736328124,21.61260986328125,38.56925964355469,6.733940124511719
1686424786054425900,10.74742578125,22.197734832763672,38.41856384277344,7.1588287353515625
1686424786064371700,10.757371826171875,22.197734832763672,38.41856384277344,7.1588287353515625
1686424786074317800,10.76731787109375,22.412296295166016,38.05000686645508,7.362037658691406
1686424786084264000,10.777263916015626,22.98151397705078,37.8221435546875,7.880828857421875
1686424786094209800,10.787209716796875,23.64623260498047,37.70307159423828,8.001312255859375
1686424786104156000,10.797156005859375,24.325336456298828,37.09294128417969,8.116783142089844
1686424786114101800,10.807101806640626,25.010570526123047,36.857383728027344,8.225395202636719
1686424786124048000,10.8170478515625,25.780166625976562,36.326416015625,7.760467529296875
1686424786133994000,10.826993896484375,26.318023681640625,36.193275451660156,7.41400146484375
1686424786143940000,10.836940185546876,26.903026580810547,36.04259490966797,7.144340515136719
1686424786153886000,10.846885986328125,27.193214416503906,35.76361083984375,7.010765075683594
1686424786163832000,10.85683203125,27.417362213134766,35.80918502807617,6.865776062011719
1686424786173778000,10.86677783203125,27.645999908447266,35.78871154785156,6.399169921875
1686424786183724000,10.87672412109375,27.727394104003906,35.70730972290039,5.888145446777344
1686424786193670100,10.886670166015625,27.903961181640625,35.97770690917969,5.220947265625
1686424786203616000,10.896615966796874,27.655582427978516,35.80853271484375,4.601432800292969
1686424786213562000,10.90656201171875,28.103641510009766,35.876625061035156,3.753814697265625
1686424786223508000,10.916508056640625,28.146774291992188,36.023223876953125,2.4438095092773438
1686424786233454000,10.9264541015625,28.386810302734375,36.1788330078125,1.161651611328125
1686424786243400000,10.93639990234375,28.506980895996094,36.13909912109375,-0.55206298828125
1686424786253346000,10.946345947265625,28.653419494628906,36.26481628417969,-2.0535888671875
1686424786263292000,10.9562919921875,28.895286560058594,36.310218811035156,-3.6785125732421875
1686424786273238000,10.966238037109376,28.970497131347656,36.355873107910156,-5.2976837158203125
1686424786283184000,10.97618408203125,28.840618133544922,36.38555908203125,-6.906639099121094
1686424786293130000,10.9861298828125,28.60515594482422,36.38035202026367,-8.399803161621094
1686424786303076000,10.996076171875,28.629619598388672,36.259971618652344,-9.780624389648438
1686424786313022000,11.00602197265625,28.574501037597656,36.204490661621094,-10.518035888671875
1686424786322968000,11.015968017578125,28.537464141845703,36.26575469970703,-11.098625183105469
1686424786332914000,11.025913818359374,28.46414566040039,36.3500862121582,-11.347648620605469
1686424786342860000,11.035860107421875,28.40884780883789,36.72897720336914,-10.894424438476562
1686424786352806000,11.045805908203125,28.476551055908203,37.02080535888672,-10.48358154296875
1686424786362752000,11.055751953125,28.300926208496094,37.18500900268555,-10.059844970703125
1686424786372697900,11.06569775390625,27.81058120727539,37.37883758544922,-10.112678527832031
1686424786382644000,11.07564404296875,27.954051971435547,37.465110778808594,-10.4139404296875
1686424786392590000,11.085590087890624,28.269512176513672,37.38335418701172,-10.772705078125
1686424786402536000,11.095535888671876,28.58587646484375,37.27362060546875,-11.403068542480469
1686424786412482000,11.10548193359375,28.807117462158203,36.87080001831055,-11.740859985351562
1686424786422428000,11.115427978515624,29.4560546875,36.75624084472656,-11.882278442382812
1686424786432374000,11.1253740234375,29.895069122314453,36.13964080810547,-12.059806823730469
1686424786442320000,11.13531982421875,30.542705535888672,35.74951934814453,-11.763969421386719
1686424786452265500,11.145265380859374,31.00149154663086,35.809837341308594,-11.558013916015625
1686424786462211600,11.155211669921876,31.928768157958984,35.313133239746094,-11.187980651855469
1686424786472157700,11.16515771484375,32.530029296875,35.258087158203125,-10.718063354492188
1686424786482103600,11.175103515625,32.61758041381836,35.112796783447266,-10.442878723144531
1686424786492049700,11.185049560546876,32.66143798828125,35.09658432006836,-9.735115051269531
1686424786501995500,11.19499560546875,33.286842346191406,35.02862548828125,-9.287452697753906
1686424786511941600,11.204941650390625,33.84884262084961,34.80274963378906,-8.836456298828125
1686424786521887500,11.214887451171874,33.94691848754883,34.341941833496094,-8.433883666992188
1686424786531833600,11.22483349609375,34.2222785949707,34.07109069824219,-7.9722442626953125
1686424786541779500,11.234779541015625,34.48933029174805,33.92024230957031,-7.837760925292969
1686424786551725600,11.2447255859375,35.03059768676758,33.5092887878418,-7.9385223388671875
1686424786561671400,11.25467138671875,34.97714614868164,33.10673141479492,-8.051506042480469
1686424786571617500,11.264617431640625,35.55116653442383,33.13899230957031,-7.9603118896484375
1686424786581563600,11.274563720703124,35.49395751953125,32.834774017333984,-8.160453796386719
1686424786591509500,11.284509521484376,35.72158432006836,32.64599609375,-8.489959716796875
1686424786601455600,11.29445556640625,35.77739334106445,32.422950744628906,-9.067451477050781
1686424786611401500,11.3044013671875,35.8895149230957,32.36051559448242,-9.401145935058594
1686424786621347600,11.31434765625,35.752140045166016,32.439605712890625,-10.098922729492188
1686424786631293400,11.32429345703125,35.613304138183594,32.725189208984375,-10.588966369628906
1686424786641239600,11.334239501953125,35.097686767578125,32.638023376464844,-10.78558349609375
1686424786651185400,11.344185302734376,34.586299896240234,32.88045120239258,-11.498039245605469
1686424786661131500,11.354131591796875,34.2319221496582,33.082916259765625,-12.315513610839844
1686424786671077400,11.364077392578125,33.70184326171875,33.40605163574219,-13.096427917480469
1686424786681023500,11.3740234375,33.03055953979492,33.47667694091797,-14.170326232910156
1686424786690969600,11.383969482421875,32.10710906982422,34.03155517578125,-14.647865295410156
1686424786700915500,11.39391552734375,31.419891357421875,34.369598388671875,-15.740058898925781
1686424786710861600,11.403861572265624,30.806930541992188,34.47026824951172,-16.53528594970703
1686424786720807700,11.4138076171875,29.721843719482422,34.820228576660156,-17.6719970703125
1686424786730753500,11.42375341796875,29.156272888183594,35.178466796875,-18.60284423828125
1686424786740699600,11.43369970703125,28.030933380126953,35.367027282714844,-19.493515014648438
1686424786750645800,11.443645751953126,27.011882781982422,35.821956634521484,-20.278541564941406
1686424786760591600,11.453591552734375,26.20049285888672,36.00100326538086,-20.99932861328125
1686424786770537700,11.463537841796875,25.757381439208984,36.094390869140625,-21.693138122558594
1686424786780483600,11.473483642578126,24.50528335571289,36.306480407714844,-22.260025024414062
1686424786790429700,11.4834296875,23.504737854003906,36.80377197265625,-22.74030303955078
1686424786800375800,11.493375732421875,22.80028533935547,37.11768341064453,-23.129531860351562
1686424786810321700,11.50332177734375,21.790557861328125,37.62028503417969,-23.736286163330078
1686424786820266500,11.5132666015625,20.645355224609375,37.89346694946289,-24.335002899169922
1686424786830213600,11.523213623046875,20.645355224609375,37.89346694946289,-24.335002899169922
1686424786840158700,11.53315869140625,19.49600601196289,38.40715789794922,-24.447078704833984
1686424786850104600,11.5431044921875,18.38269805908203,38.70970153808594,-24.379150390625
1686424786860050700,11.55305078125,17.254531860351562,39.18419647216797,-24.541797637939453
1686424786869996500,11.56299658203125,15.689010620117188,39.693511962890625,-24.832683563232422
1686424786879942700,11.572942626953125,13.963722229003906,39.93414306640625,-24.50182342529297
1686424786889888500,11.582888427734375,12.063762664794922,40.69304656982422,-24.433013916015625
1686424786899834600,11.592834716796874,10.244529724121094,41.19004440307617,-24.275344848632812
1686424786909780500,11.602780517578125,8.625686645507812,41.89539337158203,-23.856769561767578
1686424786919726600,11.6127265625,6.733985900878906,42.308570861816406,-23.90833282470703
1686424786929672700,11.622672607421874,5.327522277832031,42.388587951660156,-23.783504486083984
1686424786939618600,11.63261865234375,3.7976226806640625,42.45106506347656,-23.448158264160156
1686424786949564700,11.642564697265625,2.8354263305664062,42.696937561035156,-23.051467895507812
1686424786959510500,11.652510498046874,2.0384292602539062,42.9815559387207,-22.919143676757812
1686424786969456600,11.66245654296875,1.9798126220703125,42.94083786010742,-22.60552978515625
1686424786979402500,11.672402587890625,1.8798904418945312,42.91196823120117,-22.36102294921875
1686424786989348600,11.6823486328125,2.2980575561523438,42.991851806640625,-21.792495727539062
1686424786999294500,11.69229443359375,3.1581954956054688,43.05396270751953,-21.838363647460938
1686424787009240600,11.702240478515625,3.881927490234375,42.912017822265625,-22.165977478027344
1686424787019186400,11.7121865234375,4.557243347167969,42.76991271972656,-22.020797729492188
1686424787029132500,11.722132568359376,5.106048583984375,42.68031311035156,-22.093505859375
1686424787039078700,11.73207861328125,5.954368591308594,42.41693115234375,-22.06653594970703
1686424787049024500,11.7420244140625,6.836814880371094,42.520469665527344,-22.02021026611328
1686424787058970600,11.751970703125,7.946205139160156,42.265804290771484,-21.76195526123047
1686424787068916500,11.76191650390625,8.786918640136719,42.03080749511719,-21.365768432617188
1686424787078862600,11.771862548828125,9.46343994140625,42.15797805786133,-20.724838256835938
1686424787088808400,11.781808349609374,10.319496154785156,42.14887237548828,-20.379432678222656
1686424787098754600,11.791754638671875,11.1968994140625,41.84918975830078,-20.09508514404297
1686424787108700400,11.801700439453125,12.030189514160156,41.85757827758789,-19.789169311523438
1686424787118646500,11.811646484375,12.713550567626953,41.9042854309082,-18.99567413330078
1686424787128592400,11.82159228515625,13.29446792602539,41.9146728515625,-18.254241943359375
1686424787138538500,11.83153857421875,13.933677673339844,41.914466857910156,-17.5521240234375
1686424787148484600,11.841484619140624,14.450931549072266,42.01924514770508,-16.926101684570312
1686424787158430500,11.851430419921876,15.223175048828125,41.723876953125,-16.069351196289062
1686424787168376600,11.86137646484375,16.056137084960938,41.698486328125,-15.405464172363281
1686424787178322400,11.871322509765625,16.994075775146484,41.46429443359375,-14.619499206542969
1686424787188268500,11.8812685546875,17.256996154785156,41.691749572753906,-13.931777954101562
1686424787198214700,11.891214599609375,17.49502944946289,41.78720474243164,-13.175323486328125
1686424787208160500,11.901160400390625,18.674110412597656,41.7806396484375,-12.359001159667969
1686424787218106600,11.911106689453124,18.87752914428711,41.5034065246582,-11.8773193359375
1686424787228052700,11.921052734375,19.43686294555664,41.18811798095703,-11.599433898925781
1686424787237998600,11.93099853515625,19.627708435058594,41.12004089355469,-11.649642944335938
1686424787247944700,11.94094482421875,19.998435974121094,41.05903244018555,-11.717201232910156
1686424787257890800,11.950890869140625,20.435523986816406,40.879661560058594,-12.061325073242188
1686424787267836700,11.960836669921875,20.49950408935547,40.66404342651367,-12.427352905273438
1686424787277782800,11.97078271484375,21.096118927001953,40.63258743286133,-12.86431884765625
1686424787287728600,11.980728759765626,21.317848205566406,40.2374153137207,-13.290870666503906
1686424787297674800,11.9906748046875,21.198570251464844,40.11662673950195,-13.543426513671875
1686424787307620600,12.00062060546875,21.28537368774414,39.92703628540039,-14.012008666992188
1686424787317566700,12.010566650390626,21.201026916503906,39.82696533203125,-14.265304565429688
1686424787327512600,12.0205126953125,21.126209259033203,39.78953552246094,-14.645118713378906
1686424787337458700,12.030458740234375,20.851512908935547,39.796653747558594,-15.086448669433594
1686424787347404800,12.04040478515625,20.999988555908203,39.9420051574707,-15.17779541015625
1686424787357350700,12.0503505859375,20.23978042602539,40.14196014404297,-15.484718322753906
1686424787367296800,12.060296875,19.42892074584961,40.25545883178711,-16.177230834960938
1686424787377242600,12.07024267578125,18.152816772460938,40.480613708496094,-16.872764587402344
1686424787387188700,12.080188720703125,16.387313842773438,40.88837432861328,-17.550247192382812
1686424787397134600,12.090134521484375,14.647178649902344,41.25894546508789,-17.75627899169922
1686424787407080700,12.100080810546874,13.251087188720703,41.63003158569336,-18.10076904296875
1686424787417026600,12.110026611328125,11.886505126953125,42.21366882324219,-17.906051635742188
1686424787426972700,12.11997265625,10.579627990722656,42.357452392578125,-17.89873504638672
1686424787436918500,12.12991845703125,9.464752197265625,42.77798080444336,-17.909263610839844
1686424787446864600,12.13986474609375,8.869621276855469,42.88086700439453,-18.055892944335938
1686424787456810200,12.149810302734375,7.8028564453125,42.8723258972168,-18.216087341308594
1686424787466756000,12.159756103515624,7.211280822753906,42.74319076538086,-18.391578674316406
1686424787476702200,12.1697021484375,6.8441619873046875,42.819332122802734,-18.293136596679688
1686424787486648000,12.17964794921875,6.175529479980469,42.46489334106445,-18.231483459472656
1686424787496594200,12.18959423828125,6.0299224853515625,42.68680191040039,-18.19579315185547
1686424787506540300,12.199540283203126,5.3842010498046875,42.836631774902344,-17.992271423339844
1686424787516486100,12.209486083984375,5.0628509521484375,42.93355941772461,-17.71790313720703
1686424787526432300,12.219432373046875,5.113677978515625,42.91095733642578,-17.322349548339844
1686424787536378000,12.229378173828126,5.076774597167969,43.08198547363281,-16.949554443359375
1686424787546324200,12.23932421875,5.094947814941406,43.225650787353516,-17.114410400390625
1686424787556270000,12.24927001953125,4.897682189941406,43.2132568359375,-16.970497131347656
1686424787566216200,12.25921630859375,5.338554382324219,43.13133239746094,-16.599937438964844
1686424787576162000,12.269162109375,5.455833435058594,43.29576110839844,-16.529861450195312
1686424787586108200,12.279108154296875,5.114738464355469,42.998538970947266,-16.353416442871094
1686424787596054000,12.289053955078124,5.371833801269531,43.117431640625,-16.43988037109375
1686424787606000000,12.299000244140625,5.371833801269531,43.117431640625,-16.43988037109375
1686424787615946200,12.3089462890625,5.3259735107421875,43.24803161621094,-16.37060546875
1686424787625892000,12.31889208984375,5.264427185058594,43.18275451660156,-16.280921936035156
1686424787635838200,12.328838134765626,5.3896026611328125,43.118709564208984,-16.256690979003906
1686424787645784000,12.3387841796875,4.960762023925781,43.14614486694336,-16.157501220703125
1686424787655730200,12.348730224609374,5.186042785644531,43.13252258300781,-16.042510986328125
1686424787665676000,12.358676025390626,4.938468933105469,43.35455322265625,-16.002853393554688
1686424787675622100,12.3686220703125,4.419532775878906,43.42424011230469,-15.762557983398438
1686424787685568000,12.378568115234375,4.1186676025390625,43.55998992919922,-15.789016723632812
1686424787695513300,12.388513427734376,4.214408874511719,44.03706741333008,-15.614265441894531
1686424787705460000,12.3984599609375,3.9616470336914062,44.02790832519531,-15.529312133789062
1686424787715406000,12.408406005859375,3.8298110961914062,43.992027282714844,-15.566734313964844
1686424787725351200,12.41835107421875,3.903656005859375,44.07878112792969,-15.502021789550781
1686424787735297300,12.42829736328125,4.757240295410156,43.80210494995117,-15.494384765625
1686424787745243100,12.4382431640625,5.0550384521484375,44.09159851074219,-15.473358154296875
1686424787755189200,12.448189208984376,4.8650970458984375,44.08063888549805,-15.193046569824219
1686424787765135400,12.45813525390625,4.528465270996094,44.093345642089844,-15.102821350097656
1686424787775081200,12.468081298828125,4.630096435546875,44.03293228149414,-15.203811645507812
1686424787785027300,12.47802734375,4.456024169921875,43.79747009277344,-14.816848754882812
1686424787794973200,12.48797314453125,4.32177734375,43.9581298828125,-14.804145812988281
1686424787804919300,12.497919189453125,4.444404602050781,44.09699249267578,-14.833915710449219
1686424787814865200,12.507865234375,4.308197021484375,44.291412353515625,-14.780662536621094
1686424787824811300,12.517811279296875,3.7799453735351562,44.368106842041016,-14.690635681152344
1686424787834757000,12.527757080078125,3.1172256469726562,44.484230041503906,-14.691787719726562
1686424787844703200,12.537703125,2.7311172485351562,44.33222961425781,-14.35980224609375
1686424787854649000,12.547649169921876,2.2375106811523438,44.25450897216797,-14.185104370117188
1686424787864595200,12.55759521484375,2.030609130859375,44.219268798828125,-14.235992431640625
1686424787874541300,12.567541259765624,1.016387939453125,44.18486022949219,-14.121421813964844
1686424787884487200,12.577487060546876,0.5126113891601562,44.36383819580078,-14.030364990234375
1686424787894433300,12.587433349609375,0.0241546630859375,44.21239471435547,-13.96893310546875
1686424787904379100,12.597379150390625,-0.49858856201171875,44.3619270324707,-13.792465209960938
1686424787914325200,12.6073251953125,-0.8177490234375,44.31121826171875,-13.711654663085938
1686424787924271000,12.61727099609375,-1.6951141357421875,44.3203239440918,-13.491279602050781
1686424787934217200,12.62721728515625,-2.4381790161132812,44.32170104980469,-13.215538024902344
1686424787944163000,12.6371630859375,-2.74420166015625,44.30873107910156,-13.188697814941406
1686424787954109200,12.647109130859375,-3.3964614868164062,44.21272659301758,-12.863693237304688
1686424787964055300,12.65705517578125,-3.4823150634765625,44.40070724487305,-12.697647094726562
1686424787974001200,12.667001220703124,-3.5713653564453125,44.23876953125,-12.547271728515625
1686424787983947300,12.676947265625,-4.0426177978515625,43.995094299316406,-12.279052734375
1686424787993893000,12.68689306640625,-4.088752746582031,43.86894226074219,-12.149940490722656
1686424788003839200,12.696839111328124,-4.4724578857421875,43.868812561035156,-11.961601257324219
1686424788013785000,12.70678515625,-4.577789306640625,43.95915985107422,-11.975654602050781
1686424788023731200,12.716731201171875,-5.1450653076171875,43.65874481201172,-11.57403564453125
1686424788033677000,12.726677001953124,-5.382713317871094,43.551513671875,-11.244415283203125
1686424788043623200,12.736623046875,-5.821685791015625,43.4680290222168,-10.969154357910156
1686424788053569000,12.746569091796875,-5.8452911376953125,43.5308837890625,-10.165153503417969
1686424788063515100,12.75651513671875,-6.308540344238281,43.296669006347656,-9.820930480957031
1686424788073461200,12.766461181640626,-5.678199768066406,43.41668701171875,-9.479240417480469
1686424788083407000,12.776406982421875,-5.190834045410156,43.307613372802734,-9.020782470703125
1686424788093353200,12.786353271484375,-5.31585693359375,43.15519714355469,-9.093284606933594
1686424788103299000,12.796299072265626,-5.488578796386719,43.33612823486328,-9.148910522460938
1686424788113245200,12.8062451171875,-5.179359436035156,43.27930450439453,-9.099830627441406
1686424788123191000,12.81619091796875,-5.046142578125,43.11932373046875,-9.266242980957031
1686424788133137200,12.82613720703125,-5.0811920166015625,43.091182708740234,-9.520286560058594
1686424788143083000,12.8360830078125,-4.453330993652344,43.02399826049805,-9.332931518554688
1686424788153029000,12.846029052734375,-4.110252380371094,43.2744026184082,-9.090606689453125
1686424788162975000,12.85597509765625,-3.7430496215820312,43.03178024291992,-9.020820617675781
1686424788172921000,12.865921142578125,-3.6141204833984375,43.09520721435547,-9.265510559082031
1686424788182867200,12.8758671875,-3.3744735717773438,43.024192810058594,-9.087478637695312
1686424788192813000,12.88581298828125,-2.701904296875,42.77320861816406,-9.183975219726562
