time,seconds_elapsed,z,y,x
1686445535364388400,0.127388427734375,-0.7050628662109375,-0.0313262939453125,0.7106475830078125
1686445535374405400,0.1374052734375,-0.70281982421875,-0.032012939453125,0.709808349609375
1686445535384421600,0.147421630859375,-0.7000732421875,-0.0343780517578125,0.7084503173828125
1686445535394438400,0.1574384765625,-0.69775390625,-0.034942626953125,0.7078399658203125
1686445535404455400,0.167455322265625,-0.6973876953125,-0.0328826904296875,0.70965576171875
1686445535414472700,0.17747265625,-0.69873046875,-0.0298309326171875,0.7094879150390625
1686445535424489500,0.187489501953125,-0.69921875,-0.0272216796875,0.7099151611328125
1686445535434505500,0.19750537109375,-0.70098876953125,-0.0265655517578125,0.7113037109375
1686445535444522500,0.2075224609375,-0.6998138427734375,-0.0254669189453125,0.7131195068359375
1686445535454539500,0.21753955078125,-0.698028564453125,-0.0263824462890625,0.7123260498046875
1686445535464556500,0.227556640625,-0.69757080078125,-0.0278778076171875,0.712738037109375
1686445535474573300,0.2375732421875,-0.6975555419921875,-0.0287322998046875,0.7124786376953125
1686445535484589600,0.247589599609375,-0.6977386474609375,-0.0295867919921875,0.7116851806640625
1686445535494606600,0.257606689453125,-0.6998291015625,-0.0326995849609375,0.7064971923828125
1686445535504623400,0.267623291015625,-0.7024078369140625,-0.0368804931640625,0.7053375244140625
1686445535514640600,0.277640625,-0.7057647705078125,-0.0388336181640625,0.707275390625
1686445535524657400,0.287657470703125,-0.70458984375,-0.03839111328125,0.7072296142578125
1686445535534673400,0.29767333984375,-0.701446533203125,-0.0360870361328125,0.713653564453125
1686445535544690400,0.3076904296875,-0.7032928466796875,-0.0311737060546875,0.71484375
1686445535554707500,0.31770751953125,-0.707916259765625,-0.0297088623046875,0.710601806640625
1686445535564724500,0.327724365234375,-0.7097930908203125,-0.0300750732421875,0.71014404296875
1686445535574741200,0.3377412109375,-0.70477294921875,-0.03070068359375,0.71075439453125
1686445535584757500,0.347757568359375,-0.697235107421875,-0.029327392578125,0.712005615234375
1686445535594774500,0.3577744140625,-0.6964569091796875,-0.028045654296875,0.71331787109375
1686445535604791300,0.367791259765625,-0.695159912109375,-0.0274505615234375,0.716033935546875
1686445535614808600,0.37780859375,-0.6962738037109375,-0.027679443359375,0.7179718017578125
1686445535624825600,0.38782568359375,-0.6988677978515625,-0.0276947021484375,0.71728515625
1686445535634841300,0.39784130859375,-0.7003173828125,-0.027679443359375,0.7147064208984375
1686445535644858400,0.4078583984375,-0.702301025390625,-0.0286865234375,0.71417236328125
1686445535654875400,0.41787548828125,-0.7032470703125,-0.0286407470703125,0.7138671875
1686445535664892400,0.427892333984375,-0.704193115234375,-0.029815673828125,0.7123260498046875
1686445535674909400,0.437909423828125,-0.705596923828125,-0.0321502685546875,0.7113189697265625
1686445535684925400,0.447925537109375,-0.7069854736328125,-0.0315704345703125,0.70941162109375
1686445535694942500,0.4579423828125,-0.708465576171875,-0.0311431884765625,0.7086181640625
1686445535704959500,0.46795947265625,-0.7080078125,-0.0291290283203125,0.7095947265625
1686445535714976500,0.4779765625,-0.7041473388671875,-0.02734375,0.7101593017578125
1686445535724993000,0.487992919921875,-0.6996002197265625,-0.0257568359375,0.7125091552734375
1686445535735009000,0.498009033203125,-0.6976318359375,-0.025054931640625,0.714141845703125
1686445535745025800,0.50802587890625,-0.6959075927734375,-0.0250396728515625,0.7138519287109375
1686445535755042800,0.518042724609375,-0.69586181640625,-0.025787353515625,0.71337890625
1686445535765059800,0.528059814453125,-0.6949462890625,-0.02716064453125,0.713348388671875
1686445535775076900,0.538076904296875,-0.69561767578125,-0.0281219482421875,0.71099853515625
1686445535785094000,0.548093994140625,-0.697662353515625,-0.030059814453125,0.7094573974609375
1686445535795110000,0.55810986328125,-0.698577880859375,-0.030975341796875,0.708526611328125
1686445535805127000,0.568126953125,-0.7013092041015625,-0.03057861328125,0.7063140869140625
1686445535815144000,0.57814404296875,-0.703643798828125,-0.0280303955078125,0.706207275390625
1686445535825161000,0.588160888671875,-0.70440673828125,-0.02691650390625,0.7061309814453125
1686445535835178000,0.598177978515625,-0.703704833984375,-0.02587890625,0.70745849609375
1686445535845194000,0.608194091796875,-0.7030181884765625,-0.0255126953125,0.708984375
1686445535855210800,0.618210693359375,-0.701904296875,-0.024871826171875,0.7122344970703125
1686445535865228000,0.62822802734375,-0.7025604248046875,-0.02447509765625,0.7125091552734375
1686445535875244800,0.638244873046875,-0.70111083984375,-0.02581787109375,0.714202880859375
1686445535885261800,0.64826171875,-0.7020111083984375,-0.027191162109375,0.7131805419921875
1686445535895278000,0.658278076171875,-0.7013702392578125,-0.027191162109375,0.7129364013671875
1686445535905294800,0.668294921875,-0.700775146484375,-0.026031494140625,0.71405029296875
1686445535915311900,0.678311767578125,-0.701385498046875,-0.024017333984375,0.7126617431640625
1686445535925329000,0.688328857421875,-0.7035675048828125,-0.023406982421875,0.713043212890625
1686445535935346000,0.698345947265625,-0.7054290771484375,-0.022003173828125,0.7135162353515625
1686445535945362000,0.70836181640625,-0.7054595947265625,-0.022308349609375,0.7135467529296875
1686445535955378700,0.718378662109375,-0.7054443359375,-0.024322509765625,0.715545654296875
1686445535965396000,0.72839599609375,-0.7046661376953125,-0.024322509765625,0.7161865234375
1686445535975412700,0.738412841796875,-0.7051544189453125,-0.024169921875,0.7150115966796875
1686445535985430000,0.748429931640625,-0.70330810546875,-0.0253753662109375,0.7146148681640625
1686445535995446000,0.758446044921875,-0.700103759765625,-0.0263671875,0.7131500244140625
1686445536005462800,0.768462890625,-0.700103759765625,-0.0276641845703125,0.712188720703125
1686445536015479800,0.778479736328125,-0.70098876953125,-0.0271148681640625,0.7114715576171875
1686445536025496800,0.788496826171875,-0.7002410888671875,-0.0260772705078125,0.7111968994140625
1686445536035513900,0.798513916015625,-0.6982574462890625,-0.024932861328125,0.7105865478515625
1686445536045529900,0.80852978515625,-0.696990966796875,-0.0245819091796875,0.709808349609375
1686445536055547000,0.818546875,-0.6972808837890625,-0.025726318359375,0.7103118896484375
1686445536065564000,0.82856396484375,-0.6988372802734375,-0.0279388427734375,0.710205078125
1686445536075581000,0.838580810546875,-0.7012939453125,-0.0283050537109375,0.7080078125
1686445536085598000,0.848597900390625,-0.7029571533203125,-0.02728271484375,0.70611572265625
1686445536095614000,0.858614013671875,-0.7027740478515625,-0.0271453857421875,0.703887939453125
1686445536105631000,0.868630859375,-0.70440673828125,-0.025909423828125,0.7045440673828125
1686445536115647700,0.878647705078125,-0.705291748046875,-0.024688720703125,0.707244873046875
1686445536125665000,0.8886650390625,-0.70501708984375,-0.0258941650390625,0.7079620361328125
1686445536135681800,0.898681884765625,-0.7037811279296875,-0.026947021484375,0.709503173828125
1686445536145697800,0.90869775390625,-0.7046356201171875,-0.0279388427734375,0.7098541259765625
1686445536155715000,0.918715087890625,-0.7012939453125,-0.027069091796875,0.7092132568359375
1686445536165731800,0.92873193359375,-0.6982574462890625,-0.0267181396484375,0.7103424072265625
1686445536175748900,0.938748779296875,-0.6985931396484375,-0.02630615234375,0.7106170654296875
1686445536185766000,0.948765869140625,-0.6986083984375,-0.0267791748046875,0.70941162109375
1686445536195782000,0.958781982421875,-0.7021331787109375,-0.027099609375,0.708099365234375
1686445536205799000,0.968798828125,-0.705169677734375,-0.0286407470703125,0.707427978515625
1686445536215815700,0.978815673828125,-0.7065582275390625,-0.029144287109375,0.706298828125
1686445536225833000,0.9888330078125,-0.7064971923828125,-0.02813720703125,0.7068023681640625
1686445536235850000,0.99885009765625,-0.707733154296875,-0.02764892578125,0.70697021484375
1686445536245865700,1.00886572265625,-0.7048492431640625,-0.0242462158203125,0.7091827392578125
1686445536255883000,1.018883056640625,-0.703094482421875,-0.0227813720703125,0.711029052734375
1686445536265899800,1.028899658203125,-0.7008514404296875,-0.021240234375,0.7148284912109375
1686445536275916800,1.038916748046875,-0.698333740234375,-0.0186309814453125,0.7180938720703125
1686445536285934000,1.04893408203125,-0.6973114013671875,-0.0183563232421875,0.7193603515625
1686445536295949800,1.05894970703125,-0.696380615234375,-0.0211029052734375,0.72064208984375
1686445536305966800,1.068966796875,-0.695953369140625,-0.023468017578125,0.7195587158203125
1686445536315984000,1.07898388671875,-0.699859619140625,-0.0256195068359375,0.71734619140625
1686445536326001000,1.0890009765625,-0.705291748046875,-0.0259246826171875,0.7138824462890625
1686445536336018000,1.099017822265625,-0.70855712890625,-0.0245819091796875,0.7122802734375
1686445536346034000,1.109033935546875,-0.7077178955078125,-0.0244293212890625,0.71142578125
1686445536356051000,1.119051025390625,-0.7046661376953125,-0.023468017578125,0.71185302734375
1686445536366068000,1.12906787109375,-0.701751708984375,-0.0224609375,0.7144622802734375
1686445536376084700,1.139084716796875,-0.697540283203125,-0.022003173828125,0.71527099609375
1686445536386102000,1.14910205078125,-0.696044921875,-0.021942138671875,0.717254638671875
1686445536396118000,1.159117919921875,-0.6965179443359375,-0.0230712890625,0.716552734375
1686445536406134800,1.169134765625,-0.6959686279296875,-0.024688720703125,0.714263916015625
1686445536416152000,1.179152099609375,-0.6981658935546875,-0.0258941650390625,0.7122650146484375
1686445536426168800,1.1891689453125,-0.6985626220703125,-0.0249481201171875,0.70977783203125
1686445536436185900,1.199185791015625,-0.6979217529296875,-0.02423095703125,0.7100067138671875
1686445536446201900,1.209201904296875,-0.69921875,-0.0252838134765625,0.70843505859375
1686445536456219000,1.219218994140625,-0.7021026611328125,-0.02569580078125,0.7068023681640625
1686445536466236000,1.22923583984375,-0.7030029296875,-0.0261383056640625,0.70684814453125
1686445536476252700,1.239252685546875,-0.7032318115234375,-0.027435302734375,0.7050323486328125
1686445536486270000,1.24927001953125,-0.7037353515625,-0.0295867919921875,0.7039642333984375
1686445536496286000,1.259285888671875,-0.7056884765625,-0.029449462890625,0.7040252685546875
1686445536506302700,1.269302734375,-0.7067718505859375,-0.0298309326171875,0.704925537109375
1686445536516320000,1.279320068359375,-0.7066802978515625,-0.028961181640625,0.7061309814453125
1686445536526337000,1.2893369140625,-0.7037811279296875,-0.0267486572265625,0.7072906494140625
1686445536536353800,1.299353759765625,-0.703643798828125,-0.0259552001953125,0.708984375
1686445536546369800,1.309369873046875,-0.7044677734375,-0.0248565673828125,0.7112579345703125
1686445536556387000,1.319386962890625,-0.7043914794921875,-0.02410888671875,0.7122650146484375
1686445536566403800,1.32940380859375,-0.70635986328125,-0.0241546630859375,0.71380615234375
1686445536576420900,1.3394208984375,-0.70806884765625,-0.02423095703125,0.71246337890625
1686445536586438000,1.34943798828125,-0.7086639404296875,-0.024810791015625,0.7114715576171875
1686445536596454000,1.359453857421875,-0.708038330078125,-0.0228271484375,0.71051025390625
1686445536606471000,1.369470947265625,-0.7044219970703125,-0.0244293212890625,0.7107086181640625
1686445536616488000,1.379488037109375,-0.70068359375,-0.024078369140625,0.711578369140625
1686445536626505000,1.3895048828125,-0.6968536376953125,-0.02294921875,0.7136688232421875
1686445536636521700,1.399521728515625,-0.6952972412109375,-0.0221405029296875,0.7157440185546875
1686445536646537700,1.409537841796875,-0.6923370361328125,-0.020538330078125,0.7182769775390625
1686445536656555000,1.419554931640625,-0.68902587890625,-0.021270751953125,0.719757080078125
1686445536666571800,1.42957177734375,-0.6898345947265625,-0.02301025390625,0.7199554443359375
1686445536676588800,1.4395888671875,-0.694122314453125,-0.024566650390625,0.718780517578125
1686445536686605800,1.449605712890625,-0.6990509033203125,-0.02569580078125,0.7156219482421875
1686445536696621800,1.459621826171875,-0.7016448974609375,-0.0261383056640625,0.7113494873046875
1686445536706638800,1.469638916015625,-0.7052459716796875,-0.0261993408203125,0.708770751953125
1686445536716655900,1.47965576171875,-0.7073974609375,-0.0262908935546875,0.7079925537109375
1686445536726673000,1.4896728515625,-0.7075347900390625,-0.0255126953125,0.7089691162109375
1686445536736690000,1.49968994140625,-0.70477294921875,-0.025238037109375,0.7109527587890625
1686445536746706000,1.509705810546875,-0.70172119140625,-0.0255584716796875,0.71307373046875
1686445536756723000,1.519722900390625,-0.699249267578125,-0.025787353515625,0.713165283203125
1686445536766740000,1.529739990234375,-0.6993408203125,-0.027435302734375,0.7118072509765625
1686445536776757000,1.539757080078125,-0.7012481689453125,-0.028076171875,0.71014404296875
1686445536786774000,1.54977392578125,-0.7036285400390625,-0.02801513671875,0.708404541015625
1686445536796789800,1.559789794921875,-0.70550537109375,-0.0289154052734375,0.7075653076171875
1686445536806807000,1.56980712890625,-0.7058258056640625,-0.029693603515625,0.70526123046875
1686445536816824000,1.579823974609375,-0.706573486328125,-0.0285797119140625,0.7057037353515625
1686445536826840800,1.5898408203125,-0.7078704833984375,-0.027313232421875,0.7053375244140625
1686445536836858000,1.599858154296875,-0.7068939208984375,-0.0251617431640625,0.7052764892578125
1686445536846874000,1.6098740234375,-0.704986572265625,-0.023681640625,0.705291748046875
1686445536856891000,1.619890869140625,-0.702606201171875,-0.022003173828125,0.70672607421875
1686445536866908200,1.629908203125,-0.70098876953125,-0.0206146240234375,0.7098388671875
1686445536876925000,1.639925048828125,-0.698333740234375,-0.0217742919921875,0.711151123046875
1686445536886942000,1.64994189453125,-0.6976470947265625,-0.0230560302734375,0.7126312255859375
1686445536896958000,1.6599580078125,-0.69873046875,-0.0234375,0.7148284912109375
1686445536906975000,1.66997509765625,-0.7008819580078125,-0.024169921875,0.71649169921875
1686445536916992000,1.679991943359375,-0.70257568359375,-0.0251922607421875,0.717315673828125
1686445536927008800,1.6900087890625,-0.702972412109375,-0.025390625,0.7173614501953125
1686445536937026000,1.700026123046875,-0.7022247314453125,-0.0253448486328125,0.717041015625
1686445536947042000,1.7100419921875,-0.7021484375,-0.025115966796875,0.717254638671875
1686445536957058800,1.720058837890625,-0.702392578125,-0.02545166015625,0.7167510986328125
1686445536967076000,1.730076171875,-0.702301025390625,-0.026336669921875,0.717041015625
1686445536977092900,1.7400927734375,-0.7032470703125,-0.0276336669921875,0.7178192138671875
1686445536987110000,1.75010986328125,-0.702423095703125,-0.02783203125,0.7172088623046875
1686445536997126000,1.7601259765625,-0.7002105712890625,-0.0250396728515625,0.7135162353515625
1686445537007143000,1.770142822265625,-0.69952392578125,-0.02276611328125,0.7127532958984375
1686445537017160000,1.780159912109375,-0.6957855224609375,-0.0214385986328125,0.7123260498046875
1686445537027177000,1.790177001953125,-0.6944122314453125,-0.0206146240234375,0.7114715576171875
1686445537037194000,1.800194091796875,-0.695587158203125,-0.0220489501953125,0.71063232421875
1686445537047210000,1.8102099609375,-0.6978302001953125,-0.023773193359375,0.7094573974609375
1686445537057227000,1.82022705078125,-0.69940185546875,-0.0264129638671875,0.7080841064453125
1686445537067244000,1.830244140625,-0.7021331787109375,-0.027008056640625,0.706573486328125
1686445537077261000,1.840260986328125,-0.70220947265625,-0.0294647216796875,0.7035369873046875
1686445537087277800,1.85027783203125,-0.701934814453125,-0.0314178466796875,0.7028961181640625
1686445537097293800,1.8602939453125,-0.701873779296875,-0.0308380126953125,0.701934814453125
1686445537107311000,1.87031103515625,-0.7020416259765625,-0.02850341796875,0.702178955078125
1686445537117328000,1.880327880859375,-0.703460693359375,-0.026458740234375,0.704376220703125
1686445537127345200,1.89034521484375,-0.7041015625,-0.0248260498046875,0.7054901123046875
1686445537137362000,1.90036181640625,-0.7067718505859375,-0.024078369140625,0.706634521484375
1686445537147378000,1.9103779296875,-0.7084503173828125,-0.0225677490234375,0.70916748046875
1686445537157395000,1.92039501953125,-0.709197998046875,-0.022369384765625,0.709442138671875
1686445537167412000,1.930411865234375,-0.7081451416015625,-0.0234222412109375,0.709259033203125
1686445537177429000,1.940428955078125,-0.7051849365234375,-0.0250396728515625,0.7094268798828125
1686445537187445800,1.95044580078125,-0.7036590576171875,-0.0272979736328125,0.7101898193359375
1686445537197462000,1.9604619140625,-0.7028045654296875,-0.0285491943359375,0.7098388671875
1686445537207479000,1.97047900390625,-0.70245361328125,-0.0293121337890625,0.7109375
1686445537217495800,1.980495849609375,-0.7016448974609375,-0.03131103515625,0.71356201171875
1686445537227513000,1.99051318359375,-0.6990203857421875,-0.0352325439453125,0.713592529296875
1686445537237530000,2.000530029296875,-0.6951446533203125,-0.03814697265625,0.7131195068359375
1686445537247545900,2.0105458984375,-0.6933441162109375,-0.0369415283203125,0.7130584716796875
1686445537257563000,2.02056298828125,-0.6954498291015625,-0.032501220703125,0.71539306640625
1686445537267580200,2.030580078125,-0.7016448974609375,-0.028564453125,0.717132568359375
1686445537277597000,2.040596923828125,-0.7046966552734375,-0.023712158203125,0.7185516357421875
1686445537287614000,2.050614013671875,-0.7060699462890625,-0.019683837890625,0.7197723388671875
1686445537297630000,2.0606298828125,-0.705963134765625,-0.0169830322265625,0.7212371826171875
1686445537307647000,2.07064697265625,-0.704559326171875,-0.01483154296875,0.72271728515625
1686445537317664000,2.0806640625,-0.7017822265625,-0.01458740234375,0.7230987548828125
1686445537327681000,2.090680908203125,-0.7006378173828125,-0.01513671875,0.7215118408203125
1686445537337698000,2.100697998046875,-0.7017669677734375,-0.0170440673828125,0.71893310546875
1686445537347714000,2.110714111328125,-0.70135498046875,-0.0185699462890625,0.7171478271484375
1686445537357730800,2.120730712890625,-0.6992645263671875,-0.0226593017578125,0.712890625
1686445537367748000,2.130748046875,-0.697479248046875,-0.027130126953125,0.7109527587890625
1686445537377764900,2.140764892578125,-0.6963958740234375,-0.0309295654296875,0.7086029052734375
1686445537387782000,2.150781982421875,-0.695770263671875,-0.0312042236328125,0.7045745849609375
1686445537397798100,2.160798095703125,-0.6963653564453125,-0.03271484375,0.7022552490234375
1686445537407815000,2.17081494140625,-0.697784423828125,-0.03631591796875,0.6989593505859375
1686445537417832000,2.18083203125,-0.69873046875,-0.0386810302734375,0.6974029541015625
1686445537427849000,2.190848876953125,-0.6968994140625,-0.035430908203125,0.698089599609375
1686445537437866000,2.200865966796875,-0.6981658935546875,-0.0313568115234375,0.7012786865234375
1686445537447882000,2.210882080078125,-0.70166015625,-0.0322113037109375,0.701812744140625
1686445537457898800,2.220898681640625,-0.7037353515625,-0.028228759765625,0.703155517578125
1686445537467916000,2.230916015625,-0.7040863037109375,-0.0260009765625,0.709564208984375
1686445537477933000,2.24093310546875,-0.7055511474609375,-0.027984619140625,0.7187042236328125
1686445537487950000,2.2509501953125,-0.7082672119140625,-0.030731201171875,0.7275848388671875
1686445537497966000,2.260966064453125,-0.712371826171875,-0.0316009521484375,0.73028564453125
1686445537507982800,2.27098291015625,-0.7141876220703125,-0.0286407470703125,0.72515869140625
1686445537517999900,2.280999755859375,-0.7150421142578125,-0.028564453125,0.714935302734375
1686445537528017200,2.29101708984375,-0.712554931640625,-0.025390625,0.7056427001953125
1686445537538034000,2.301033935546875,-0.709259033203125,-0.017730712890625,0.7069244384765625
1686445537548050000,2.3110498046875,-0.701934814453125,-0.0130462646484375,0.7129669189453125
1686445537558067200,2.321067138671875,-0.6934051513671875,-0.0137786865234375,0.7197418212890625
1686445537568084000,2.331083984375,-0.6854400634765625,-0.0184326171875,0.728271484375
1686445537578101000,2.34110107421875,-0.6808013916015625,-0.02288818359375,0.7324676513671875
1686445537588118000,2.351117919921875,-0.6828155517578125,-0.024444580078125,0.73052978515625
1686445537598134000,2.361134033203125,-0.687835693359375,-0.017578125,0.7230377197265625
1686445537608151000,2.371151123046875,-0.6943511962890625,-0.015716552734375,0.7209014892578125
1686445537618167800,2.381167724609375,-0.6993255615234375,-0.0246124267578125,0.713409423828125
1686445537628185000,2.39118505859375,-0.6983184814453125,-0.0320587158203125,0.701690673828125
1686445537638201900,2.401201904296875,-0.696258544921875,-0.0342254638671875,0.695068359375
1686445537648217900,2.4112177734375,-0.6969451904296875,-0.037872314453125,0.6909027099609375
1686445537658235100,2.421235107421875,-0.69818115234375,-0.0450286865234375,0.688629150390625
1686445537668252000,2.431251953125,-0.7004241943359375,-0.05206298828125,0.6910552978515625
1686445537678269000,2.44126904296875,-0.704803466796875,-0.0536956787109375,0.69537353515625
1686445537688286000,2.451285888671875,-0.7117919921875,-0.04705810546875,0.69879150390625
1686445537698302000,2.461302001953125,-0.7169342041015625,-0.0371246337890625,0.70281982421875
1686445537708319000,2.471319091796875,-0.720977783203125,-0.0268402099609375,0.707122802734375
1686445537718335700,2.481335693359375,-0.7185516357421875,-0.0220489501953125,0.7115478515625
1686445537728353000,2.49135302734375,-0.7159576416015625,-0.0248260498046875,0.7141876220703125
1686445537738370000,2.5013701171875,-0.71258544921875,-0.0317230224609375,0.711883544921875
1686445537748385800,2.5113857421875,-0.71051025390625,-0.03460693359375,0.7091827392578125
1686445537758403000,2.521403076171875,-0.7133026123046875,-0.0339508056640625,0.7078857421875
1686445537768420000,2.531420166015625,-0.714324951171875,-0.030548095703125,0.70843505859375
1686445537778436900,2.541436767578125,-0.7109375,-0.027008056640625,0.7092132568359375
1686445537788454100,2.5514541015625,-0.706268310546875,-0.0246429443359375,0.7131805419921875
1686445537798470100,2.56147021484375,-0.70391845703125,-0.02294921875,0.7181854248046875
1686445537808487000,2.57148681640625,-0.699462890625,-0.021820068359375,0.72119140625
1686445537818504200,2.581504150390625,-0.6961212158203125,-0.022552490234375,0.7216644287109375
1686445537828521000,2.59152099609375,-0.6909942626953125,-0.0249481201171875,0.7187957763671875
1686445537838538000,2.6015380859375,-0.6852874755859375,-0.0276641845703125,0.7161407470703125
1686445537848554000,2.611553955078125,-0.6793060302734375,-0.0316009521484375,0.7149200439453125
1686445537858571000,2.621571044921875,-0.6752166748046875,-0.0331878662109375,0.71417236328125
1686445537868588000,2.631588134765625,-0.6754608154296875,-0.03204345703125,0.7134552001953125
1686445537878605000,2.64160498046875,-0.6796417236328125,-0.028961181640625,0.7150421142578125
1686445537888622000,2.6516220703125,-0.6840972900390625,-0.0263671875,0.7173004150390625
1686445537898638000,2.66163818359375,-0.6881866455078125,-0.0269927978515625,0.71978759765625
1686445537908654800,2.67165478515625,-0.6932830810546875,-0.02618408203125,0.72021484375
1686445537918672100,2.681672119140625,-0.699066162109375,-0.027099609375,0.7199859619140625
1686445537928689000,2.69168896484375,-0.706298828125,-0.0281829833984375,0.718414306640625
1686445537938706000,2.701705810546875,-0.712188720703125,-0.02911376953125,0.7161407470703125
1686445537948722200,2.71172216796875,-0.715667724609375,-0.03106689453125,0.71343994140625
1686445537958739000,2.721739013671875,-0.7178497314453125,-0.03228759765625,0.712066650390625
1686445537968756000,2.731755859375,-0.7174072265625,-0.0323944091796875,0.70880126953125
1686445537978773000,2.74177294921875,-0.716644287109375,-0.03167724609375,0.7071075439453125
1686445537988790000,2.7517900390625,-0.7137298583984375,-0.0315093994140625,0.707305908203125
1686445537998806000,2.761805908203125,-0.7080078125,-0.0316009521484375,0.7074127197265625
1686445538008823000,2.771822998046875,-0.700927734375,-0.0320587158203125,0.7075653076171875
1686445538018840000,2.781840087890625,-0.6934051513671875,-0.0326995849609375,0.7074432373046875
1686445538028857000,2.791857177734375,-0.6892242431640625,-0.031463623046875,0.7088623046875
1686445538038873900,2.801873779296875,-0.68804931640625,-0.0283660888671875,0.7100372314453125
1686445538048890000,2.81189013671875,-0.687255859375,-0.0255889892578125,0.7136383056640625
1686445538058907100,2.8219072265625,-0.68988037109375,-0.0238494873046875,0.7186737060546875
1686445538068924000,2.831923828125,-0.6926116943359375,-0.0263519287109375,0.7189788818359375
1686445538078941200,2.841941162109375,-0.696563720703125,-0.029693603515625,0.7157440185546875
1686445538088958000,2.8519580078125,-0.6998443603515625,-0.0316925048828125,0.7114715576171875
1686445538098974000,2.861973876953125,-0.705535888671875,-0.03253173828125,0.708984375
1686445538108991000,2.871990966796875,-0.7110137939453125,-0.03326416015625,0.7087249755859375
1686445538119008000,2.882008056640625,-0.7162017822265625,-0.033935546875,0.709228515625
1686445538129025000,2.89202490234375,-0.7158355712890625,-0.0340423583984375,0.7107086181640625
1686445538139041800,2.902041748046875,-0.7129974365234375,-0.03240966796875,0.7119598388671875
1686445538149058000,2.91205810546875,-0.709136962890625,-0.0302734375,0.715545654296875
1686445538159075000,2.922074951171875,-0.7054595947265625,-0.030487060546875,0.71624755859375
1686445538169091800,2.932091796875,-0.700164794921875,-0.031494140625,0.7141571044921875
1686445538179109000,2.942109130859375,-0.6936187744140625,-0.03485107421875,0.712188720703125
1686445538189126000,2.9521259765625,-0.6902313232421875,-0.035491943359375,0.710357666015625
1686445538199142000,2.962141845703125,-0.6904754638671875,-0.033416748046875,0.708892822265625
1686445538209159000,2.972158935546875,-0.693206787109375,-0.0292510986328125,0.7108612060546875
1686445538219176000,2.982176025390625,-0.697479248046875,-0.029693603515625,0.7131805419921875
1686445538229193000,2.99219287109375,-0.69915771484375,-0.031707763671875,0.71533203125
1686445538239210200,3.002210205078125,-0.6996612548828125,-0.033477783203125,0.7159423828125
1686445538249226000,3.01222607421875,-0.6986236572265625,-0.033355712890625,0.7140045166015625
1686445538259243000,3.022242919921875,-0.6985015869140625,-0.03070068359375,0.71270751953125
1686445538269260000,3.032260009765625,-0.69927978515625,-0.0279693603515625,0.713592529296875
1686445538279277000,3.042277099609375,-0.698577880859375,-0.026947021484375,0.7143096923828125
1686445538289294000,3.052294189453125,-0.694854736328125,-0.0272064208984375,0.7129058837890625
1686445538299310000,3.06231005859375,-0.6915740966796875,-0.027862548828125,0.713043212890625
1686445538309327000,3.0723271484375,-0.6883697509765625,-0.028411865234375,0.71661376953125
1686445538319344000,3.08234423828125,-0.683563232421875,-0.0294036865234375,0.7210693359375
1686445538329361000,3.09236083984375,-0.6815338134765625,-0.03033447265625,0.725921630859375
1686445538339378200,3.102378173828125,-0.68389892578125,-0.031219482421875,0.72760009765625
1686445538349394200,3.112394287109375,-0.6895904541015625,-0.03265380859375,0.72760009765625
1686445538359411000,3.122410888671875,-0.6979522705078125,-0.0331268310546875,0.7273101806640625
1686445538369428000,3.132427978515625,-0.7049713134765625,-0.0333404541015625,0.724517822265625
1686445538379445000,3.142445068359375,-0.7064208984375,-0.033111572265625,0.721466064453125
1686445538389462000,3.1524619140625,-0.7032012939453125,-0.0333404541015625,0.7199859619140625
1686445538399478000,3.16247802734375,-0.701690673828125,-0.03131103515625,0.7203521728515625
1686445538409495000,3.1724951171875,-0.6956634521484375,-0.0286102294921875,0.72100830078125
1686445538419512000,3.182511962890625,-0.6906585693359375,-0.0261688232421875,0.72015380859375
1686445538429528800,3.19252880859375,-0.6895599365234375,-0.02545166015625,0.7186431884765625
1686445538439546000,3.202546142578125,-0.689300537109375,-0.0269775390625,0.7174530029296875
1686445538449562000,3.21256201171875,-0.69287109375,-0.0283355712890625,0.7177734375
1686445538459579000,3.222578857421875,-0.6961822509765625,-0.029083251953125,0.7165985107421875
1686445538469596000,3.232595947265625,-0.696807861328125,-0.029998779296875,0.71246337890625
1686445538479613200,3.24261328125,-0.70037841796875,-0.0313873291015625,0.7105255126953125
1686445538489630000,3.2526298828125,-0.69927978515625,-0.030914306640625,0.710601806640625
1686445538499646000,3.26264599609375,-0.6962432861328125,-0.0312042236328125,0.71209716796875
1686445538509663200,3.272663330078125,-0.6937408447265625,-0.0327606201171875,0.716400146484375
1686445538519680000,3.282679931640625,-0.6920166015625,-0.0337066650390625,0.7189788818359375
1686445538529697000,3.292697021484375,-0.6900787353515625,-0.0353851318359375,0.71942138671875
1686445538539714000,3.302714111328125,-0.689117431640625,-0.0347137451171875,0.715667724609375
1686445538549730000,3.31272998046875,-0.69091796875,-0.033966064453125,0.7115631103515625
1686445538559747000,3.3227470703125,-0.6942291259765625,-0.03204345703125,0.707611083984375
1686445538569763800,3.332763916015625,-0.697021484375,-0.029632568359375,0.70831298828125
1686445538579781000,3.342781005859375,-0.6951751708984375,-0.03045654296875,0.7078704833984375
1686445538589798000,3.3527978515625,-0.693023681640625,-0.032623291015625,0.712860107421875
1686445538599814000,3.36281396484375,-0.693267822265625,-0.0337371826171875,0.717620849609375
1686445538609831200,3.3728310546875,-0.6927947998046875,-0.0317230224609375,0.7212982177734375
1686445538619848000,3.382847900390625,-0.690704345703125,-0.028778076171875,0.7264251708984375
1686445538629865000,3.392864990234375,-0.6896209716796875,-0.026092529296875,0.72979736328125
1686445538639882000,3.402882080078125,-0.6896820068359375,-0.0276336669921875,0.7333526611328125
1686445538649898000,3.41289794921875,-0.691070556640625,-0.026947021484375,0.7316436767578125
1686445538659915000,3.4229150390625,-0.69390869140625,-0.026702880859375,0.728546142578125
1686445538669932000,3.43293212890625,-0.7037353515625,-0.026275634765625,0.723876953125
1686445538679949000,3.442948974609375,-0.710052490234375,-0.0264129638671875,0.7181549072265625
1686445538689966000,3.452966064453125,-0.710968017578125,-0.027099609375,0.71575927734375
1686445538699981800,3.46298193359375,-0.7035980224609375,-0.0278167724609375,0.7150421142578125
1686445538709999000,3.4729990234375,-0.6937103271484375,-0.0277252197265625,0.7162933349609375
1686445538720016100,3.48301611328125,-0.685821533203125,-0.0258026123046875,0.716278076171875
1686445538730033700,3.49303369140625,-0.6839752197265625,-0.0246429443359375,0.7205657958984375
1686445538740050400,3.503050537109375,-0.6846160888671875,-0.023773193359375,0.7255401611328125
1686445538750066400,3.51306640625,-0.6859130859375,-0.0255584716796875,0.7266998291015625
1686445538760083700,3.523083740234375,-0.6852874755859375,-0.0290374755859375,0.7263641357421875
1686445538770100500,3.5331005859375,-0.683074951171875,-0.03076171875,0.723236083984375
1686445538780117500,3.543117431640625,-0.6845855712890625,-0.033111572265625,0.7217254638671875
1686445538790134800,3.553134765625,-0.6871490478515625,-0.034820556640625,0.719268798828125
1686445538800151600,3.563151611328125,-0.6903533935546875,-0.034393310546875,0.7179107666015625
1686445538810167600,3.57316748046875,-0.6924896240234375,-0.0336151123046875,0.71875
1686445538820184800,3.583184814453125,-0.695037841796875,-0.030792236328125,0.7201690673828125
1686445538830201600,3.59320166015625,-0.6911773681640625,-0.02996826171875,0.7232666015625
1686445538840218600,3.603218505859375,-0.6835784912109375,-0.0302734375,0.724853515625
1686445538850235600,3.613235595703125,-0.6783447265625,-0.030853271484375,0.72393798828125
1686445538860251600,3.623251708984375,-0.6796417236328125,-0.031219482421875,0.7210693359375
1686445538870268700,3.6332685546875,-0.6849822998046875,-0.0316162109375,0.7180023193359375
1686445538880285400,3.643285400390625,-0.69110107421875,-0.031463623046875,0.716461181640625
1686445538890302700,3.653302734375,-0.695068359375,-0.031005859375,0.7149200439453125
1686445538900319500,3.663319580078125,-0.697235107421875,-0.028839111328125,0.71588134765625
1686445538910335500,3.67333544921875,-0.697418212890625,-0.0266876220703125,0.7188873291015625
1686445538920352800,3.683352783203125,-0.69708251953125,-0.023468017578125,0.72442626953125
1686445538930369500,3.69336962890625,-0.6969757080078125,-0.0234527587890625,0.7281646728515625
1686445538940386600,3.703386474609375,-0.696014404296875,-0.0247650146484375,0.7308502197265625
1686445538950403600,3.713403564453125,-0.694793701171875,-0.0259857177734375,0.731231689453125
1686445538960419600,3.723419677734375,-0.69281005859375,-0.02783203125,0.7282562255859375
1686445538970436600,3.7334365234375,-0.6903839111328125,-0.0286712646484375,0.7241363525390625
1686445538980453400,3.743453369140625,-0.6910400390625,-0.02972412109375,0.7215728759765625
1686445538990470700,3.753470703125,-0.6941375732421875,-0.0294342041015625,0.71728515625
1686445539000487700,3.76348779296875,-0.6971893310546875,-0.028472900390625,0.71551513671875
1686445539010503400,3.77350341796875,-0.701080322265625,-0.027557373046875,0.7136077880859375
1686445539020520700,3.783520751953125,-0.705535888671875,-0.0264892578125,0.7112884521484375
1686445539030537700,3.793537841796875,-0.709686279296875,-0.025238037109375,0.7090301513671875
1686445539040554500,3.803554443359375,-0.7089385986328125,-0.0251312255859375,0.708709716796875
1686445539050571800,3.81357177734375,-0.707550048828125,-0.02630615234375,0.7082977294921875
1686445539060587500,3.82358740234375,-0.7042236328125,-0.0269622802734375,0.706817626953125
1686445539070604500,3.8336044921875,-0.7014923095703125,-0.0283660888671875,0.707916259765625
1686445539080621600,3.84362158203125,-0.6991119384765625,-0.031707763671875,0.7081298828125
1686445539090638600,3.853638671875,-0.696807861328125,-0.0345916748046875,0.709136962890625
1686445539100655600,3.863655517578125,-0.6962127685546875,-0.03594970703125,0.708984375
1686445539110671600,3.873671630859375,-0.6981201171875,-0.0344085693359375,0.70843505859375
1686445539120688600,3.883688720703125,-0.7008056640625,-0.032745361328125,0.7059783935546875
1686445539130705700,3.89370556640625,-0.70477294921875,-0.030731201171875,0.706878662109375
1686445539140722400,3.903722412109375,-0.707794189453125,-0.03082275390625,0.7081146240234375
1686445539150739700,3.91373974609375,-0.707672119140625,-0.0314483642578125,0.7092742919921875
1686445539160755700,3.923755615234375,-0.7026519775390625,-0.0332183837890625,0.708282470703125
1686445539170772500,3.9337724609375,-0.7010955810546875,-0.0342559814453125,0.708648681640625
1686445539180789800,3.943789794921875,-0.702880859375,-0.03271484375,0.7088623046875
1686445539190806500,3.953806640625,-0.7049560546875,-0.0309906005859375,0.7080535888671875
1686445539200823600,3.963823486328125,-0.7045135498046875,-0.028717041015625,0.7081451416015625
1686445539210839600,3.973839599609375,-0.705474853515625,-0.02752685546875,0.708740234375
1686445539220856600,3.983856689453125,-0.706787109375,-0.0274810791015625,0.7102508544921875
1686445539230873600,3.99387353515625,-0.706451416015625,-0.0277557373046875,0.7114105224609375
1686445539240890600,4.003890625,-0.7061309814453125,-0.0291290283203125,0.7134857177734375
1686445539250907600,4.01390771484375,-0.704986572265625,-0.03094482421875,0.7155914306640625
1686445539260923600,4.023923583984375,-0.701080322265625,-0.03106689453125,0.715301513671875
1686445539270940400,4.0339404296875,-0.6965484619140625,-0.02935791015625,0.715362548828125
1686445539280957700,4.043957763671875,-0.6942596435546875,-0.0277862548828125,0.7158660888671875
1686445539290974700,4.053974609375,-0.694732666015625,-0.02691650390625,0.7171630859375
1686445539300991500,4.063991455078125,-0.696807861328125,-0.027252197265625,0.7185821533203125
1686445539311007500,4.074007568359375,-0.698516845703125,-0.02606201171875,0.7174835205078125
1686445539321024800,4.084024658203125,-0.7008819580078125,-0.026702880859375,0.7156524658203125
1686445539331041500,4.09404150390625,-0.69970703125,-0.0272674560546875,0.7161865234375
1686445539341058600,4.10405859375,-0.697174072265625,-0.029052734375,0.7156219482421875
1686445539351075600,4.11407568359375,-0.6938934326171875,-0.0299835205078125,0.714508056640625
1686445539361091600,4.124091552734375,-0.6918487548828125,-0.0322265625,0.7130889892578125
1686445539371108600,4.134108642578125,-0.693328857421875,-0.0316314697265625,0.7123260498046875
1686445539381125600,4.144125732421875,-0.6963348388671875,-0.0295562744140625,0.71160888671875
1686445539391142700,4.154142578125,-0.6994476318359375,-0.029937744140625,0.7115936279296875
1686445539401159400,4.164159423828125,-0.70159912109375,-0.0289306640625,0.7126617431640625
1686445539411175400,4.174175537109375,-0.7008056640625,-0.0294342041015625,0.713775634765625
1686445539421192700,4.184192626953125,-0.701263427734375,-0.0300445556640625,0.71441650390625
1686445539431209500,4.19420947265625,-0.702484130859375,-0.0289154052734375,0.7138214111328125
1686445539441226500,4.2042265625,-0.702239990234375,-0.0294952392578125,0.7135009765625
1686445539451243500,4.214243408203125,-0.698089599609375,-0.0318756103515625,0.7125244140625
1686445539461259500,4.224259521484375,-0.6954193115234375,-0.0325927734375,0.7106170654296875
1686445539471276500,4.234276611328125,-0.6969451904296875,-0.032989501953125,0.709869384765625
1686445539481293600,4.24429345703125,-0.6990966796875,-0.032257080078125,0.710693359375
1686445539491310600,4.254310546875,-0.7010650634765625,-0.030364990234375,0.710662841796875
1686445539501327600,4.26432763671875,-0.7018585205078125,-0.0301971435546875,0.7109832763671875
1686445539511343400,4.27434326171875,-0.7001953125,-0.030487060546875,0.7124176025390625
1686445539521360600,4.284360595703125,-0.7004852294921875,-0.0302734375,0.7133026123046875
1686445539531377700,4.294377685546875,-0.70135498046875,-0.0294036865234375,0.7147216796875
1686445539541394700,4.304394775390625,-0.69976806640625,-0.0304412841796875,0.714508056640625
1686445539551411700,4.31441162109375,-0.6994476318359375,-0.0316162109375,0.7152862548828125
1686445539561427700,4.324427734375,-0.69976806640625,-0.0306396484375,0.7140960693359375
1686445539571444500,4.334444580078125,-0.699188232421875,-0.029998779296875,0.7144012451171875
1686445539581461800,4.344461669921875,-0.7004547119140625,-0.030120849609375,0.7135772705078125
1686445539591478500,4.354478515625,-0.7016448974609375,-0.0301055908203125,0.713714599609375
1686445539601495600,4.36449560546875,-0.702606201171875,-0.0303802490234375,0.7133636474609375
1686445539611511800,4.37451171875,-0.704315185546875,-0.0287322998046875,0.7123260498046875
1686445539621528600,4.384528564453125,-0.7025909423828125,-0.02874755859375,0.7127532958984375
1686445539631545600,4.394545654296875,-0.6989288330078125,-0.0294952392578125,0.7139129638671875
1686445539641562600,4.404562744140625,-0.6954345703125,-0.029876708984375,0.715301513671875
1686445539651579600,4.41457958984375,-0.694244384765625,-0.0303955078125,0.7154541015625
1686445539661595600,4.424595703125,-0.6952972412109375,-0.0300750732421875,0.7157745361328125
1686445539671612400,4.4346123046875,-0.6965789794921875,-0.0302886962890625,0.7154388427734375
1686445539681629700,4.444629638671875,-0.6988677978515625,-0.030670166015625,0.7158203125
1686445539691646500,4.454646484375,-0.70263671875,-0.029693603515625,0.7154998779296875
1686445539701663500,4.46466357421875,-0.7041778564453125,-0.0307159423828125,0.7144775390625
1686445539711680800,4.4746806640625,-0.7055511474609375,-0.0323944091796875,0.7116241455078125
1686445539721696500,4.484696533203125,-0.703704833984375,-0.0304718017578125,0.7111663818359375
1686445539731713500,4.494713623046875,-0.70294189453125,-0.028778076171875,0.711181640625
1686445539741730800,4.504730712890625,-0.7011871337890625,-0.02862548828125,0.7117767333984375
1686445539751747600,4.51474755859375,-0.69671630859375,-0.02911376953125,0.7120361328125
1686445539761764600,4.5247646484375,-0.6936492919921875,-0.029876708984375,0.7120208740234375
1686445539771780600,4.534780517578125,-0.693115234375,-0.031463623046875,0.71240234375
1686445539781797600,4.544797607421875,-0.690521240234375,-0.0316162109375,0.7125244140625
1686445539791814700,4.554814697265625,-0.690277099609375,-0.0315399169921875,0.714752197265625
1686445539801831400,4.56483154296875,-0.692108154296875,-0.031707763671875,0.7151947021484375
1686445539811848700,4.5748486328125,-0.69586181640625,-0.0326995849609375,0.7156982421875
1686445539821864700,4.58486474609375,-0.7014923095703125,-0.0321807861328125,0.7158660888671875
1686445539831881500,4.594881591796875,-0.7051544189453125,-0.031341552734375,0.7140960693359375
1686445539841898800,4.604898681640625,-0.7075347900390625,-0.030853271484375,0.7118988037109375
1686445539851915500,4.61491552734375,-0.7083587646484375,-0.030059814453125,0.7113037109375
1686445539861932500,4.6249326171875,-0.7097930908203125,-0.028533935546875,0.7111968994140625
1686445539871948500,4.634948486328125,-0.709686279296875,-0.027801513671875,0.7108612060546875
1686445539881965600,4.644965576171875,-0.7036285400390625,-0.0291900634765625,0.712371826171875
1686445539891982600,4.654982666015625,-0.696807861328125,-0.03131103515625,0.712249755859375
1686445539901999600,4.66499951171875,-0.6927642822265625,-0.03228759765625,0.714569091796875
1686445539912016600,4.6750166015625,-0.6891021728515625,-0.032012939453125,0.71624755859375
1686445539922032600,4.68503271484375,-0.688812255859375,-0.03338623046875,0.7158660888671875
1686445539932049400,4.69504931640625,-0.691497802734375,-0.034027099609375,0.7149505615234375
1686445539942066700,4.705066650390625,-0.697113037109375,-0.032806396484375,0.7139434814453125
1686445539952083700,4.715083740234375,-0.703948974609375,-0.031646728515625,0.7130126953125
1686445539962100500,4.7251005859375,-0.709716796875,-0.03033447265625,0.7119598388671875
1686445539972116700,4.73511669921875,-0.7110137939453125,-0.0302886962890625,0.7121734619140625
1686445539982133500,4.745133544921875,-0.7097320556640625,-0.0306549072265625,0.713623046875
1686445539992150500,4.755150634765625,-0.7063140869140625,-0.029876708984375,0.7151031494140625
1686445540002167800,4.765167724609375,-0.7023468017578125,-0.029571533203125,0.71502685546875
1686445540012184600,4.7751845703125,-0.6988983154296875,-0.0283050537109375,0.7135467529296875
1686445540022200600,4.78520068359375,-0.6954498291015625,-0.0291748046875,0.71282958984375
1686445540032217600,4.795217529296875,-0.6929931640625,-0.0300140380859375,0.7128753662109375
1686445540042234600,4.805234619140625,-0.6935577392578125,-0.030975341796875,0.71282958984375
1686445540052251600,4.815251708984375,-0.69525146484375,-0.032684326171875,0.7133636474609375
1686445540062268400,4.825268310546875,-0.695098876953125,-0.034088134765625,0.7143096923828125
1686445540072285700,4.83528564453125,-0.694732666015625,-0.0355987548828125,0.713653564453125
1686445540082301700,4.8453017578125,-0.6967010498046875,-0.0344696044921875,0.7145233154296875
1686445540092318500,4.855318359375,-0.699462890625,-0.0342254638671875,0.7151947021484375
1686445540102335700,4.865335693359375,-0.701324462890625,-0.0334320068359375,0.71405029296875
1686445540112352500,4.8753525390625,-0.7015838623046875,-0.032562255859375,0.7115631103515625
1686445540122369500,4.88536962890625,-0.7014923095703125,-0.03167724609375,0.7100830078125
1686445540132385500,4.895385498046875,-0.6993560791015625,-0.0305023193359375,0.7101898193359375
1686445540142402600,4.905402587890625,-0.6963348388671875,-0.0297088623046875,0.711883544921875
1686445540152419600,4.915419677734375,-0.6959381103515625,-0.028533935546875,0.713409423828125
1686445540162436600,4.9254365234375,-0.69744873046875,-0.028045654296875,0.714630126953125
1686445540172453600,4.93545361328125,-0.6971588134765625,-0.0274200439453125,0.7158660888671875
1686445540182469600,4.9454697265625,-0.6964263916015625,-0.0294036865234375,0.7163543701171875
1686445540192486400,4.955486328125,-0.6966094970703125,-0.0308837890625,0.7158355712890625
1686445540202503700,4.965503662109375,-0.699066162109375,-0.0305938720703125,0.7150726318359375
1686445540212520700,4.975520751953125,-0.6993408203125,-0.031158447265625,0.714874267578125
1686445540222537500,4.985537353515625,-0.6992340087890625,-0.0323944091796875,0.712493896484375
1686445540232553500,4.995553466796875,-0.701141357421875,-0.0332183837890625,0.7125091552734375
1686445540242570800,5.00557080078125,-0.7022552490234375,-0.0333404541015625,0.7132720947265625
1686445540252587500,5.01558740234375,-0.7037353515625,-0.0350799560546875,0.711944580078125
1686445540262604800,5.025604736328125,-0.7041473388671875,-0.034881591796875,0.7115325927734375
1686445540272621600,5.03562158203125,-0.701873779296875,-0.0345306396484375,0.7114715576171875
1686445540282637600,5.045637451171875,-0.6986541748046875,-0.0338897705078125,0.7118377685546875
1686445540292654600,5.055654541015625,-0.6957550048828125,-0.0335235595703125,0.7137603759765625
1686445540302671600,5.065671630859375,-0.694000244140625,-0.032928466796875,0.71466064453125
1686445540312688600,5.075688720703125,-0.694305419921875,-0.031158447265625,0.7163238525390625
1686445540322705400,5.085705322265625,-0.6946868896484375,-0.0307769775390625,0.7171630859375
1686445540332721700,5.0957216796875,-0.6959991455078125,-0.0295867919921875,0.7151336669921875
1686445540342738700,5.10573876953125,-0.6992645263671875,-0.028900146484375,0.7147979736328125
1686445540352755500,5.11575537109375,-0.7018280029296875,-0.0288238525390625,0.713653564453125
1686445540362772700,5.125772705078125,-0.7039031982421875,-0.0299835205078125,0.7123260498046875
1686445540372789500,5.13578955078125,-0.704620361328125,-0.0323028564453125,0.71124267578125
1686445540382805500,5.145805419921875,-0.7056121826171875,-0.03302001953125,0.7113189697265625
1686445540392822500,5.155822509765625,-0.70263671875,-0.0327301025390625,0.7119903564453125
1686445540402839600,5.165839599609375,-0.698638916015625,-0.03240966796875,0.712677001953125
1686445540412856600,5.175856689453125,-0.6944732666015625,-0.0327606201171875,0.7130889892578125
1686445540422873600,5.18587353515625,-0.6902313232421875,-0.0327606201171875,0.713165283203125
1686445540432889600,5.1958896484375,-0.689178466796875,-0.0319366455078125,0.7147216796875
1686445540442906600,5.20590673828125,-0.688690185546875,-0.0310211181640625,0.7175140380859375
1686445540452923600,5.215923583984375,-0.6893157958984375,-0.03057861328125,0.7204132080078125
1686445540462940700,5.225940673828125,-0.6920928955078125,-0.029632568359375,0.7218170166015625
1686445540472957700,5.235957763671875,-0.696197509765625,-0.029205322265625,0.72064208984375
1686445540482974500,5.245974365234375,-0.7010650634765625,-0.029144287109375,0.718475341796875
1686445540492990500,5.255990478515625,-0.7049102783203125,-0.0291595458984375,0.7156524658203125
1686445540503007700,5.2660078125,-0.7079010009765625,-0.0300140380859375,0.7147369384765625
1686445540513024500,5.2760244140625,-0.706756591796875,-0.03143310546875,0.713623046875
1686445540523041500,5.28604150390625,-0.704071044921875,-0.0336151123046875,0.711334228515625
1686445540533058600,5.29605859375,-0.700958251953125,-0.0341339111328125,0.711669921875
1686445540543074600,5.306074462890625,-0.70062255859375,-0.0343475341796875,0.7109832763671875
1686445540553091600,5.316091552734375,-0.699310302734375,-0.035247802734375,0.711029052734375
1686445540563108600,5.326108642578125,-0.698028564453125,-0.0338287353515625,0.7124786376953125
1686445540573125600,5.336125732421875,-0.696380615234375,-0.0316009521484375,0.7135009765625
1686445540583142400,5.346142333984375,-0.6968841552734375,-0.031280517578125,0.71575927734375
1686445540593158400,5.356158447265625,-0.69677734375,-0.029754638671875,0.7186279296875
1686445540603175700,5.36617578125,-0.6964111328125,-0.02911376953125,0.719146728515625
1686445540613192400,5.3761923828125,-0.6937713623046875,-0.03082275390625,0.7188720703125
1686445540623209700,5.386209716796875,-0.694549560546875,-0.0321502685546875,0.7178955078125
1686445540633226800,5.396226806640625,-0.6979522705078125,-0.0331878662109375,0.7152862548828125
1686445540643242500,5.406242431640625,-0.7020721435546875,-0.03240966796875,0.7120361328125
1686445540653259500,5.416259521484375,-0.7029876708984375,-0.0317535400390625,0.7098388671875
1686445540663276800,5.42627685546875,-0.7013092041015625,-0.0331878662109375,0.7094573974609375
1686445540673293600,5.43629345703125,-0.6989288330078125,-0.0325775146484375,0.7118072509765625
1686445540683310600,5.446310546875,-0.6957244873046875,-0.03289794921875,0.7145538330078125
1686445540693326600,5.45632666015625,-0.694580078125,-0.031097412109375,0.7174835205078125
1686445540703343600,5.466343505859375,-0.692962646484375,-0.031951904296875,0.718475341796875
1686445540713360600,5.476360595703125,-0.69024658203125,-0.0323638916015625,0.7183837890625
1686445540723377700,5.486377685546875,-0.6905670166015625,-0.031280517578125,0.7176513671875
1686445540733394200,5.496394287109375,-0.693389892578125,-0.0312957763671875,0.7168121337890625
1686445540743410400,5.506410400390625,-0.6962432861328125,-0.0307159423828125,0.7162628173828125
1686445540753427200,5.51642724609375,-0.69879150390625,-0.0318756103515625,0.7149658203125
1686445540763444200,5.5264443359375,-0.7032318115234375,-0.0318603515625,0.714202880859375
1686445540773461200,5.536461181640625,-0.7025299072265625,-0.03143310546875,0.7157135009765625
1686445540783478300,5.546478271484375,-0.70269775390625,-0.0319366455078125,0.7165374755859375
1686445540793495300,5.556495361328125,-0.7004241943359375,-0.032501220703125,0.71649169921875
1686445540803511300,5.56651123046875,-0.6974639892578125,-0.0321502685546875,0.716522216796875
1686445540813528300,5.5765283203125,-0.694671630859375,-0.0319671630859375,0.717437744140625
1686445540823545300,5.58654541015625,-0.693939208984375,-0.0316925048828125,0.7162628173828125
1686445540833562400,5.596562255859375,-0.6944580078125,-0.0306396484375,0.7164764404296875
1686445540843578400,5.606578369140625,-0.6974945068359375,-0.031005859375,0.7157440185546875
1686445540853595100,5.61659521484375,-0.6987457275390625,-0.03179931640625,0.71453857421875
1686445540863612200,5.626612060546875,-0.698944091796875,-0.031463623046875,0.7130889892578125
1686445540873629400,5.63662939453125,-0.69927978515625,-0.0323028564453125,0.7128143310546875
1686445540883646200,5.646646240234375,-0.6983489990234375,-0.031982421875,0.7140045166015625
1686445540893663200,5.656663330078125,-0.6982879638671875,-0.0315093994140625,0.714874267578125
1686445540903679500,5.666679443359375,-0.69775390625,-0.0312957763671875,0.716766357421875
1686445540913696300,5.6766962890625,-0.6979217529296875,-0.03326416015625,0.7169189453125
1686445540923713300,5.68671337890625,-0.69793701171875,-0.032470703125,0.7156219482421875
1686445540933730300,5.696730224609375,-0.6975555419921875,-0.0329742431640625,0.7144775390625
1686445540943747300,5.706747314453125,-0.69677734375,-0.0326385498046875,0.714569091796875
1686445540953763300,5.716763427734375,-0.69793701171875,-0.032135009765625,0.7139892578125
1686445540963780000,5.726780029296875,-0.69915771484375,-0.033050537109375,0.7147674560546875
1686445540973797400,5.73679736328125,-0.7007904052734375,-0.0327606201171875,0.7139892578125
1686445540983814100,5.746814208984375,-0.70233154296875,-0.0321044921875,0.7139892578125
1686445540993831200,5.7568310546875,-0.700958251953125,-0.0308380126953125,0.71502685546875
1686445541003847400,5.766847412109375,-0.6968231201171875,-0.032562255859375,0.715118408203125
1686445541013864200,5.7768642578125,-0.6923980712890625,-0.0322723388671875,0.7158355712890625
1686445541023881200,5.786881103515625,-0.69134521484375,-0.03216552734375,0.7170562744140625
1686445541033898200,5.796898193359375,-0.691802978515625,-0.03143310546875,0.7173614501953125
1686445541043915300,5.806915283203125,-0.6934967041015625,-0.03173828125,0.7167205810546875
1686445541053931300,5.81693115234375,-0.696746826171875,-0.0323333740234375,0.7149200439453125
1686445541063948000,5.826947998046875,-0.698883056640625,-0.032196044921875,0.7141876220703125
1686445541073965300,5.83696533203125,-0.70166015625,-0.0302581787109375,0.7154388427734375
1686445541083982300,5.846982421875,-0.702056884765625,-0.029541015625,0.7159881591796875
1686445541093999000,5.8569990234375,-0.701263427734375,-0.0299224853515625,0.7159576416015625
1686445541104015400,5.867015380859375,-0.7002716064453125,-0.0306854248046875,0.716339111328125
1686445541114032400,5.877032470703125,-0.6984710693359375,-0.030853271484375,0.7154388427734375
1686445541124049200,5.887049072265625,-0.697052001953125,-0.032501220703125,0.71490478515625
1686445541134066400,5.89706640625,-0.6945648193359375,-0.0323333740234375,0.7144012451171875
1686445541144083200,5.907083251953125,-0.6945953369140625,-0.0323333740234375,0.71533203125
1686445541154100200,5.917100341796875,-0.6929931640625,-0.0324859619140625,0.7149810791015625
1686445541164116200,5.9271162109375,-0.693145751953125,-0.032684326171875,0.7178192138671875
1686445541174133200,5.93713330078125,-0.69293212890625,-0.033966064453125,0.7178497314453125
1686445541184150300,5.947150390625,-0.69720458984375,-0.0330810546875,0.716827392578125
1686445541194167300,5.957167236328125,-0.7002410888671875,-0.031097412109375,0.71624755859375
1686445541204184300,5.967184326171875,-0.7017974853515625,-0.0307769775390625,0.7138671875
1686445541214200300,5.977200439453125,-0.7021636962890625,-0.0322113037109375,0.713348388671875
1686445541224217000,5.987217041015625,-0.703643798828125,-0.031829833984375,0.7156219482421875
1686445541234234400,5.997234375,-0.70166015625,-0.0314788818359375,0.71539306640625
1686445541244251100,6.007251220703125,-0.7009429931640625,-0.029754638671875,0.714385986328125
1686445541254268200,6.01726806640625,-0.6973724365234375,-0.0295257568359375,0.714813232421875
1686445541264284400,6.027284423828125,-0.6968841552734375,-0.030731201171875,0.715057373046875
1686445541274301200,6.03730126953125,-0.693359375,-0.03155517578125,0.7166290283203125
1686445541284318200,6.047318115234375,-0.693878173828125,-0.0313720703125,0.7164764404296875
1686445541294335500,6.05733544921875,-0.69464111328125,-0.03179931640625,0.71600341796875
1686445541304352300,6.067352294921875,-0.6959381103515625,-0.032928466796875,0.7153778076171875
1686445541314368300,6.0773681640625,-0.6956024169921875,-0.033294677734375,0.7129669189453125
1686445541324385300,6.08738525390625,-0.697540283203125,-0.0343170166015625,0.7132720947265625
1686445541334402300,6.09740234375,-0.699005126953125,-0.0341033935546875,0.7132415771484375
1686445541344419300,6.10741943359375,-0.6997833251953125,-0.0328216552734375,0.7126922607421875
1686445541354436000,6.11743603515625,-0.70013427734375,-0.0323333740234375,0.7119598388671875
1686445541364452400,6.127452392578125,-0.699737548828125,-0.031585693359375,0.712249755859375
1686445541374469400,6.137469482421875,-0.697357177734375,-0.030548095703125,0.7127685546875
1686445541384486100,6.147486083984375,-0.695953369140625,-0.0297088623046875,0.71319580078125
1686445541394503400,6.15750341796875,-0.69342041015625,-0.0294036865234375,0.716217041015625
1686445541404520200,6.167520263671875,-0.6937255859375,-0.02923583984375,0.718170166015625
1686445541414536200,6.1775361328125,-0.6932525634765625,-0.0287628173828125,0.7177276611328125
1686445541424553200,6.18755322265625,-0.694976806640625,-0.0294036865234375,0.716461181640625
1686445541434570200,6.1975703125,-0.697723388671875,-0.03076171875,0.715362548828125
1686445541444587300,6.207587158203125,-0.698974609375,-0.03173828125,0.714447021484375
1686445541454604000,6.21760400390625,-0.7014923095703125,-0.032257080078125,0.7139434814453125
1686445541464620300,6.227620361328125,-0.7040863037109375,-0.032806396484375,0.7127685546875
1686445541474637300,6.23763720703125,-0.70355224609375,-0.0327301025390625,0.7115936279296875
1686445541484654000,6.247654052734375,-0.7003326416015625,-0.032684326171875,0.71112060546875
1686445541494671400,6.25767138671875,-0.6975250244140625,-0.0329132080078125,0.713043212890625
1686445541504688400,6.2676884765625,-0.6944427490234375,-0.032257080078125,0.715667724609375
1686445541514705200,6.277705078125,-0.6912841796875,-0.031341552734375,0.7181854248046875
1686445541524721200,6.28772119140625,-0.692047119140625,-0.029693603515625,0.7196502685546875
1686445541534738200,6.29773828125,-0.6934967041015625,-0.03009033203125,0.7215423583984375
1686445541544755200,6.307755126953125,-0.695465087890625,-0.029937744140625,0.7200927734375
1686445541554772500,6.3177724609375,-0.698883056640625,-0.0312652587890625,0.7172393798828125
1686445541564789200,6.327789306640625,-0.7012786865234375,-0.031219482421875,0.7137451171875
1686445541574805200,6.33780517578125,-0.7013397216796875,-0.0323028564453125,0.712158203125
1686445541584822300,6.347822265625,-0.7010955810546875,-0.03179931640625,0.7118377685546875
1686445541594839300,6.35783935546875,-0.7009124755859375,-0.0316619873046875,0.71258544921875
1686445541604856300,6.367856201171875,-0.6986236572265625,-0.0324249267578125,0.714599609375
1686445541614873000,6.377873046875,-0.6956939697265625,-0.031982421875,0.7158660888671875
1686445541624889300,6.387889404296875,-0.6939849853515625,-0.03216552734375,0.7152099609375
1686445541634906400,6.39790625,-0.6925506591796875,-0.0317535400390625,0.7131500244140625
1686445541644923100,6.407923095703125,-0.6932220458984375,-0.0325775146484375,0.7116851806640625
1686445541654940400,6.4179404296875,-0.69970703125,-0.03228759765625,0.7141265869140625
1686445541664957200,6.427957275390625,-0.7028656005859375,-0.029998779296875,0.71734619140625
1686445541674973200,6.43797314453125,-0.7038421630859375,-0.0283966064453125,0.718536376953125
1686445541684990200,6.447990234375,-0.7010498046875,-0.0288848876953125,0.718292236328125
1686445541695007200,6.45800732421875,-0.698822021484375,-0.03021240234375,0.7180938720703125
1686445541705024300,6.468024169921875,-0.6955718994140625,-0.0297698974609375,0.7193145751953125
1686445541715041300,6.478041259765625,-0.6940155029296875,-0.02978515625,0.718780517578125
1686445541725057300,6.488057373046875,-0.692626953125,-0.03070068359375,0.7168121337890625
1686445541735074000,6.498073974609375,-0.6928863525390625,-0.0303192138671875,0.713714599609375
1686445541745091000,6.508091064453125,-0.692413330078125,-0.029876708984375,0.7122344970703125
1686445541755108000,6.518108154296875,-0.6914215087890625,-0.030853271484375,0.7122039794921875
1686445541765125000,6.528125,-0.692474365234375,-0.03094482421875,0.7138671875
1686445541775141000,6.53814111328125,-0.6948089599609375,-0.0303802490234375,0.7166595458984375
1686445541785158100,6.548158203125,-0.697357177734375,-0.0312652587890625,0.7169342041015625
1686445541795175200,6.558175048828125,-0.698455810546875,-0.0312042236328125,0.71728515625
1686445541805192200,6.568192138671875,-0.7010498046875,-0.0310516357421875,0.717315673828125
1686445541815209200,6.578209228515625,-0.7013397216796875,-0.0310211181640625,0.717803955078125
1686445541825226000,6.58822607421875,-0.6991424560546875,-0.031646728515625,0.717529296875
1686445541835242000,6.598241943359375,-0.6979522705078125,-0.0315093994140625,0.7168731689453125
1686445541845259300,6.60825927734375,-0.6957855224609375,-0.0305938720703125,0.717041015625
1686445541855276000,6.618276123046875,-0.69549560546875,-0.0297088623046875,0.716827392578125
1686445541865293000,6.62829296875,-0.6974945068359375,-0.030242919921875,0.716888427734375
1686445541875310000,6.63831005859375,-0.698577880859375,-0.0298614501953125,0.7158660888671875
1686445541885326000,6.648326171875,-0.6985015869140625,-0.029296875,0.714569091796875
1686445541895343000,6.658343017578125,-0.69769287109375,-0.02972412109375,0.714263916015625
1686445541905360100,6.668360107421875,-0.6973114013671875,-0.030364990234375,0.7160491943359375
1686445541915377200,6.678377197265625,-0.6979217529296875,-0.029998779296875,0.7166595458984375
1686445541925394200,6.688394287109375,-0.6970672607421875,-0.03106689453125,0.717529296875
1686445541935410000,6.698409912109375,-0.6962432861328125,-0.0313720703125,0.7167816162109375
1686445541945427200,6.70842724609375,-0.695281982421875,-0.031097412109375,0.7157745361328125
1686445541955444200,6.7184443359375,-0.694427490234375,-0.0315704345703125,0.7154693603515625
1686445541965461200,6.728461181640625,-0.69482421875,-0.0315704345703125,0.71405029296875
1686445541975478300,6.738478271484375,-0.697174072265625,-0.029754638671875,0.7143707275390625
1686445541985494000,6.748493896484375,-0.696441650390625,-0.029632568359375,0.71453857421875
1686445541995511000,6.758510986328125,-0.697357177734375,-0.0295257568359375,0.71551513671875
1686445542005528300,6.7685283203125,-0.697723388671875,-0.030059814453125,0.7161102294921875
1686445542015545000,6.778545166015625,-0.6949920654296875,-0.029571533203125,0.7164764404296875
1686445542025562000,6.78856201171875,-0.693756103515625,-0.0302734375,0.7153472900390625
1686445542035578400,6.798578369140625,-0.6934356689453125,-0.0308837890625,0.7159271240234375
1686445542045595100,6.80859521484375,-0.6942138671875,-0.0314788818359375,0.7165985107421875
1686445542055612200,6.818612060546875,-0.6978912353515625,-0.0308837890625,0.7163543701171875
1686445542065629200,6.828629150390625,-0.7014007568359375,-0.0306243896484375,0.714447021484375
1686445542075646200,6.838646240234375,-0.7033843994140625,-0.0299835205078125,0.71429443359375
1686445542085663000,6.8486630859375,-0.7028350830078125,-0.02947998046875,0.71405029296875
1686445542095679000,6.858678955078125,-0.7007293701171875,-0.0302734375,0.7132110595703125
1686445542105696300,6.8686962890625,-0.697479248046875,-0.030517578125,0.715301513671875
1686445542115713000,6.878713134765625,-0.6948394775390625,-0.029632568359375,0.716522216796875
1686445542125730000,6.88872998046875,-0.69378662109375,-0.0294189453125,0.7169342041015625
1686445542135747000,6.8987470703125,-0.6954803466796875,-0.0295257568359375,0.717376708984375
1686445542145763000,6.90876318359375,-0.6948394775390625,-0.0302734375,0.71710205078125
1686445542155780000,6.918780029296875,-0.6951446533203125,-0.0304107666015625,0.7158660888671875
1686445542165797000,6.928797119140625,-0.69427490234375,-0.0310821533203125,0.7144317626953125
1686445542175814100,6.938814208984375,-0.695587158203125,-0.03125,0.714324951171875
1686445542185831200,6.9488310546875,-0.6980438232421875,-0.0298004150390625,0.7149658203125
1686445542195847000,6.958846923828125,-0.7006072998046875,-0.029815673828125,0.7161712646484375
1686445542205864200,6.9688642578125,-0.70111083984375,-0.029266357421875,0.7165374755859375
1686445542215881200,6.978881103515625,-0.70025634765625,-0.029296875,0.716064453125
1686445542225898000,6.98889794921875,-0.69891357421875,-0.0303802490234375,0.715484619140625
1686445542235915300,6.998915283203125,-0.6967010498046875,-0.029632568359375,0.716064453125
1686445542245931300,7.00893115234375,-0.695709228515625,-0.029815673828125,0.71661376953125
1686445542255948000,7.018947998046875,-0.6972808837890625,-0.0289459228515625,0.717254638671875
1686445542265965300,7.02896533203125,-0.6964874267578125,-0.028961181640625,0.7171783447265625
1686445542275982000,7.038982177734375,-0.696533203125,-0.030303955078125,0.716339111328125
1686445542285999000,7.0489990234375,-0.6948699951171875,-0.0293426513671875,0.7169036865234375
1686445542296015000,7.05901513671875,-0.694793701171875,-0.0290679931640625,0.71514892578125
1686445542306032000,7.0690322265625,-0.69482421875,-0.030426025390625,0.71588134765625
1686445542316049200,7.079049072265625,-0.6962890625,-0.029449462890625,0.7156982421875
1686445542326066200,7.089066162109375,-0.6990814208984375,-0.0302734375,0.7132568359375
1686445542336083200,7.099083251953125,-0.6992645263671875,-0.0311431884765625,0.71258544921875
1686445542346099200,7.10909912109375,-0.6998138427734375,-0.0313873291015625,0.7129669189453125
1686445542356116000,7.119115966796875,-0.6993408203125,-0.0318603515625,0.7137908935546875
1686445542366133200,7.12913330078125,-0.699676513671875,-0.031890869140625,0.7149810791015625
1686445542376150000,7.13914990234375,-0.6998443603515625,-0.030914306640625,0.7144775390625
1686445542386167000,7.1491669921875,-0.699462890625,-0.028106689453125,0.71649169921875
1686445542396184300,7.159184326171875,-0.697235107421875,-0.0269927978515625,0.7161407470703125
1686445542406200000,7.169199951171875,-0.6949310302734375,-0.026458740234375,0.71563720703125
1686445542416217000,7.179217041015625,-0.69329833984375,-0.0266571044921875,0.717132568359375
1686445542426234400,7.189234375,-0.693267822265625,-0.0277252197265625,0.71783447265625
1686445542436251100,7.199251220703125,-0.696868896484375,-0.0271453857421875,0.7192535400390625
1686445542446268200,7.20926806640625,-0.6999664306640625,-0.0265960693359375,0.7168731689453125
1686445542456284200,7.2192841796875,-0.703948974609375,-0.0277099609375,0.715484619140625
1686445542466301200,7.22930126953125,-0.7032623291015625,-0.0307159423828125,0.712615966796875
1686445542476318200,7.239318115234375,-0.702728271484375,-0.032470703125,0.7114410400390625
1686445542486335000,7.2493349609375,-0.70159912109375,-0.0322113037109375,0.7132110595703125
1686445542496352300,7.259352294921875,-0.7006378173828125,-0.032989501953125,0.7127227783203125
1686445542506368300,7.2693681640625,-0.69781494140625,-0.0323944091796875,0.71337890625
1686445542516385000,7.279385009765625,-0.69744873046875,-0.0319061279296875,0.715240478515625
1686445542526402300,7.28940234375,-0.6959075927734375,-0.0317230224609375,0.71661376953125
1686445542536419000,7.299419189453125,-0.6946258544921875,-0.0302734375,0.71820068359375
1686445542546436000,7.30943603515625,-0.6925201416015625,-0.0299835205078125,0.7188873291015625
1686445542556452000,7.3194521484375,-0.69085693359375,-0.0304107666015625,0.7174224853515625
1686445542566469000,7.32946923828125,-0.691131591796875,-0.02838134765625,0.7161102294921875
1686445542576486100,7.339486083984375,-0.69488525390625,-0.0266265869140625,0.714813232421875
1686445542586503000,7.3495029296875,-0.6977081298828125,-0.026702880859375,0.712493896484375
1686445542596520200,7.359520263671875,-0.7018585205078125,-0.0274810791015625,0.7114105224609375
1686445542606536200,7.3695361328125,-0.7037811279296875,-0.0275115966796875,0.7119293212890625
1686445542616553000,7.379552978515625,-0.703094482421875,-0.028106689453125,0.7114715576171875
1686445542626570200,7.3895703125,-0.69915771484375,-0.0283355712890625,0.71282958984375
1686445542636587300,7.399587158203125,-0.6974029541015625,-0.028564453125,0.7154541015625
1686445542646604000,7.40960400390625,-0.6970672607421875,-0.0289306640625,0.716796875
1686445542656621300,7.419621337890625,-0.69561767578125,-0.0292816162109375,0.71661376953125
1686445542666637000,7.429636962890625,-0.6934661865234375,-0.030364990234375,0.716339111328125
1686445542676654000,7.439654052734375,-0.6931915283203125,-0.0310516357421875,0.7171173095703125
1686445542686671400,7.44967138671875,-0.692413330078125,-0.029815673828125,0.71759033203125
1686445542696688000,7.459688232421875,-0.69354248046875,-0.028961181640625,0.71588134765625
1686445542706705200,7.469705078125,-0.6958770751953125,-0.0305328369140625,0.71490478515625
1686445542716721200,7.47972119140625,-0.6992950439453125,-0.031890869140625,0.714599609375
1686445542726738200,7.48973828125,-0.701995849609375,-0.0310821533203125,0.71240234375
1686445542736755700,7.499755615234375,-0.7030181884765625,-0.03143310546875,0.71319580078125
1686445542746772700,7.509772705078125,-0.7031707763671875,-0.03143310546875,0.7140960693359375
1686445542756789800,7.519789794921875,-0.70098876953125,-0.0305023193359375,0.71466064453125
1686445542766805800,7.5298056640625,-0.6975250244140625,-0.0306854248046875,0.716217041015625
1686445542776822800,7.53982275390625,-0.695892333984375,-0.0297393798828125,0.717315673828125
1686445542786839800,7.54983984375,-0.6952667236328125,-0.028564453125,0.7187652587890625
1686445542796856600,7.559856689453125,-0.695465087890625,-0.0280914306640625,0.7180328369140625
1686445542806873900,7.569873779296875,-0.696014404296875,-0.0291900634765625,0.717193603515625
1686445542816889900,7.579889892578125,-0.69696044921875,-0.0300140380859375,0.716827392578125
1686445542826906600,7.58990673828125,-0.697235107421875,-0.029693603515625,0.7158050537109375
1686445542836924000,7.599923828125,-0.69610595703125,-0.03082275390625,0.71392822265625
1686445542846940700,7.609940673828125,-0.6957550048828125,-0.0316619873046875,0.7127227783203125
1686445542856957700,7.619957763671875,-0.6970062255859375,-0.030670166015625,0.71282958984375
1686445542866974700,7.629974609375,-0.6968536376953125,-0.0299072265625,0.7132568359375
1686445542876990700,7.63999072265625,-0.69854736328125,-0.0296630859375,0.7140655517578125
1686445542887007700,7.6500078125,-0.6978759765625,-0.029510498046875,0.7147674560546875
1686445542897024500,7.6600244140625,-0.6961517333984375,-0.0284271240234375,0.715728759765625
1686445542907041800,7.670041748046875,-0.6955718994140625,-0.02886962890625,0.7159423828125
1686445542917058800,7.680058837890625,-0.6962890625,-0.0283203125,0.7156524658203125
1686445542927074600,7.690074462890625,-0.6957855224609375,-0.0279693603515625,0.716278076171875
1686445542937091800,7.700091796875,-0.6979827880859375,-0.0281524658203125,0.7156524658203125
1686445542947108900,7.71010888671875,-0.6986236572265625,-0.0285491943359375,0.716705322265625
1686445542957125600,7.720125732421875,-0.697998046875,-0.0303497314453125,0.717376708984375
1686445542967143000,7.730142822265625,-0.699188232421875,-0.0316009521484375,0.7160491943359375
1686445542977159000,7.740158935546875,-0.6984405517578125,-0.0325164794921875,0.7147979736328125
1686445542987175700,7.75017578125,-0.69818115234375,-0.0324249267578125,0.71429443359375
1686445542997192700,7.760192626953125,-0.6988677978515625,-0.03173828125,0.7145843505859375
1686445543007209700,7.770209716796875,-0.69989013671875,-0.0308990478515625,0.7141265869140625
1686445543017226800,7.780226806640625,-0.6999359130859375,-0.030059814453125,0.7144927978515625
1686445543027242800,7.79024267578125,-0.699462890625,-0.0311737060546875,0.71441650390625
1686445543037259800,7.800259765625,-0.6992645263671875,-0.029693603515625,0.7154388427734375
1686445543047276800,7.81027685546875,-0.6970672607421875,-0.0287017822265625,0.716552734375
1686445543057293600,7.82029345703125,-0.6952972412109375,-0.0293426513671875,0.7177886962890625
1686445543067310800,7.830310791015625,-0.696380615234375,-0.0294036865234375,0.7177886962890625
1686445543077326800,7.840326904296875,-0.69720458984375,-0.0298004150390625,0.714691162109375
1686445543087343600,7.850343505859375,-0.6985015869140625,-0.0301666259765625,0.7122955322265625
1686445543097360600,7.860360595703125,-0.6975555419921875,-0.0292816162109375,0.711761474609375
1686445543107377700,7.870377685546875,-0.697357177734375,-0.0284576416015625,0.7116851806640625
1686445543117394700,7.880394775390625,-0.6978302001953125,-0.0293426513671875,0.713226318359375
1686445543127411700,7.89041162109375,-0.69586181640625,-0.0309295654296875,0.71270751953125
1686445543137427700,7.900427734375,-0.692901611328125,-0.032806396484375,0.7118377685546875
1686445543147444700,7.91044482421875,-0.693145751953125,-0.03228759765625,0.712646484375
1686445543157461800,7.920461669921875,-0.694915771484375,-0.02935791015625,0.7147369384765625
1686445543167478800,7.930478759765625,-0.6964874267578125,-0.0298919677734375,0.7158203125
1686445543177495800,7.940495849609375,-0.6972808837890625,-0.0318756103515625,0.7159576416015625
1686445543187511800,7.95051171875,-0.69671630859375,-0.03277587890625,0.715057373046875
1686445543197528800,7.96052880859375,-0.6975250244140625,-0.03265380859375,0.714691162109375
1686445543207545900,7.9705458984375,-0.69970703125,-0.0304718017578125,0.715087890625
1686445543217562600,7.980562744140625,-0.7009124755859375,-0.029296875,0.7150115966796875
1686445543227580000,7.990579833984375,-0.7024383544921875,-0.027496337890625,0.7169647216796875
1686445543237596000,8.000595947265625,-0.70330810546875,-0.02691650390625,0.7196807861328125
1686445543247612700,8.01061279296875,-0.702301025390625,-0.0279083251953125,0.7189178466796875
1686445543257629700,8.020629638671876,-0.69940185546875,-0.02978515625,0.7191619873046875
1686445543267646700,8.030646728515626,-0.69635009765625,-0.028656005859375,0.721221923828125
1686445543277663700,8.040663818359375,-0.6944427490234375,-0.0280303955078125,0.7212066650390625
1686445543287679700,8.0506796875,-0.694000244140625,-0.02972412109375,0.7205047607421875
1686445543297696800,8.06069677734375,-0.6946258544921875,-0.031494140625,0.7188873291015625
1686445543307713800,8.0707138671875,-0.69580078125,-0.031158447265625,0.716156005859375
1686445543317730600,8.08073046875,-0.6976470947265625,-0.0299530029296875,0.713623046875
1686445543327747800,8.090747802734375,-0.700042724609375,-0.0276031494140625,0.711883544921875
1686445543337764900,8.100764892578125,-0.70074462890625,-0.0252227783203125,0.7127227783203125
1686445543347780600,8.110780517578124,-0.702239990234375,-0.0248870849609375,0.7132415771484375
1686445543357797600,8.120797607421874,-0.7017059326171875,-0.025115966796875,0.7136688232421875
1686445543367814700,8.130814697265626,-0.6992645263671875,-0.027069091796875,0.71380615234375
1686445543377831700,8.140831787109375,-0.6978912353515625,-0.0273590087890625,0.7140655517578125
1686445543387848700,8.1508486328125,-0.6953887939453125,-0.0269927978515625,0.715576171875
1686445543397864700,8.16086474609375,-0.6920166015625,-0.0277252197265625,0.716796875
1686445543407881700,8.1708818359375,-0.6912841796875,-0.0302886962890625,0.716033935546875
1686445543417898800,8.180898681640626,-0.6918182373046875,-0.03265380859375,0.715179443359375
1686445543427915800,8.190915771484375,-0.6924896240234375,-0.0344085693359375,0.7143402099609375
1686445543437932800,8.200932861328125,-0.69415283203125,-0.0350341796875,0.7142181396484375
1686445543447948800,8.21094873046875,-0.695709228515625,-0.035430908203125,0.711700439453125
1686445543457965600,8.220965576171874,-0.697967529296875,-0.034942626953125,0.7110748291015625
1686445543467982800,8.23098291015625,-0.6997833251953125,-0.0322113037109375,0.7091827392578125
1686445543477999600,8.24099951171875,-0.702667236328125,-0.0295562744140625,0.7099456787109375
1686445543488016600,8.2510166015625,-0.7046051025390625,-0.0271759033203125,0.710052490234375
1686445543498033000,8.261032958984375,-0.7018280029296875,-0.0283050537109375,0.713043212890625
1686445543508049700,8.271049560546874,-0.6972503662109375,-0.0295562744140625,0.7163848876953125
1686445543518066700,8.281066650390626,-0.694366455078125,-0.0288543701171875,0.7197113037109375
1686445543528083700,8.291083740234376,-0.69207763671875,-0.029937744140625,0.720733642578125
1686445543538100700,8.301100830078125,-0.690582275390625,-0.0311126708984375,0.7197113037109375
1686445543548117800,8.31111767578125,-0.6931915283203125,-0.0288543701171875,0.7173309326171875
1686445543558133500,8.321133544921874,-0.697265625,-0.027069091796875,0.7180633544921875
1686445543568150800,8.33115087890625,-0.7017059326171875,-0.0264129638671875,0.71661376953125
1686445543578167600,8.34116748046875,-0.70611572265625,-0.0258026123046875,0.716552734375
1686445543588184800,8.351184814453125,-0.70806884765625,-0.0253143310546875,0.7169036865234375
1686445543598201900,8.361201904296875,-0.7086639404296875,-0.02520751953125,0.718902587890625
1686445543608217600,8.371217529296874,-0.7076873779296875,-0.0242767333984375,0.7180633544921875
1686445543618234600,8.381234619140624,-0.705291748046875,-0.0252532958984375,0.71905517578125
1686445543628252000,8.391251953125,-0.7017059326171875,-0.0259246826171875,0.718658447265625
1686445543638268700,8.4012685546875,-0.69476318359375,-0.027496337890625,0.7191314697265625
1686445543648285700,8.41128564453125,-0.6901397705078125,-0.0297698974609375,0.7188873291015625
1686445543658302000,8.421302001953125,-0.6896209716796875,-0.032196044921875,0.7188568115234375
1686445543668318700,8.431318603515624,-0.6892852783203125,-0.032928466796875,0.717864990234375
1686445543678335700,8.441335693359376,-0.6904754638671875,-0.0340423583984375,0.71673583984375
1686445543688352800,8.451352783203125,-0.691619873046875,-0.0347137451171875,0.715423583984375
1686445543698369800,8.461369873046875,-0.692413330078125,-0.034820556640625,0.7135162353515625
1686445543708385800,8.4713857421875,-0.69146728515625,-0.0359344482421875,0.7119293212890625
1686445543718402600,8.481402587890624,-0.6915435791015625,-0.0353546142578125,0.7108612060546875
1686445543728418800,8.491418701171876,-0.693450927734375,-0.0340728759765625,0.711456298828125
1686445543738435800,8.501435791015625,-0.6953887939453125,-0.03155517578125,0.712005615234375
1686445543748452600,8.51145263671875,-0.6945037841796875,-0.0302886962890625,0.712249755859375
1686445543758470000,8.521469970703125,-0.6956939697265625,-0.027984619140625,0.71173095703125
1686445543768486000,8.53148583984375,-0.6968994140625,-0.026458740234375,0.711669921875
1686445543778502700,8.541502685546876,-0.6993255615234375,-0.0264739990234375,0.712127685546875
1686445543788519700,8.551519775390625,-0.69915771484375,-0.026702880859375,0.7110595703125
1686445543798536700,8.56153662109375,-0.699920654296875,-0.0261077880859375,0.71337890625
1686445543808553700,8.5715537109375,-0.70013427734375,-0.0242767333984375,0.7159881591796875
1686445543818569700,8.58156982421875,-0.6994781494140625,-0.02398681640625,0.717559814453125
1686445543828586800,8.591586669921876,-0.7006378173828125,-0.0254364013671875,0.718902587890625
1686445543838603800,8.601603759765625,-0.7015838623046875,-0.02764892578125,0.7173004150390625
1686445543848620500,8.61162060546875,-0.70111083984375,-0.0294647216796875,0.715423583984375
1686445543858637800,8.621637939453125,-0.7005615234375,-0.0298309326171875,0.7147216796875
1686445543868653800,8.63165380859375,-0.7002716064453125,-0.03155517578125,0.714691162109375
1686445543878670600,8.641670654296876,-0.6997222900390625,-0.031280517578125,0.7150421142578125
1686445543888687600,8.6516875,-0.6976318359375,-0.031097412109375,0.714752197265625
1686445543898704600,8.66170458984375,-0.69647216796875,-0.03057861328125,0.71636962890625
1686445543908721700,8.6717216796875,-0.695404052734375,-0.02972412109375,0.717803955078125
1686445543918738700,8.68173876953125,-0.6930389404296875,-0.02984619140625,0.7191009521484375
1686445543928754700,8.691754638671876,-0.6917877197265625,-0.030792236328125,0.7188568115234375
1686445543938771700,8.701771728515626,-0.6933746337890625,-0.0299835205078125,0.719940185546875
1686445543948788700,8.711788818359375,-0.6951904296875,-0.0293121337890625,0.720489501953125
1686445543958805800,8.7218056640625,-0.6965789794921875,-0.0290374755859375,0.7191314697265625
1686445543968822800,8.73182275390625,-0.699066162109375,-0.029022216796875,0.7175445556640625
1686445543978838800,8.7418388671875,-0.699737548828125,-0.028594970703125,0.7154541015625
1686445543988855800,8.751855712890626,-0.6989593505859375,-0.029022216796875,0.715301513671875
1686445543998872800,8.761872802734375,-0.6984100341796875,-0.02899169921875,0.715789794921875
1686445544008889600,8.7718896484375,-0.6983184814453125,-0.0298004150390625,0.71636962890625
1686445544018907000,8.781906982421875,-0.699554443359375,-0.0291290283203125,0.716278076171875
1686445544028923000,8.7919228515625,-0.6995391845703125,-0.0295257568359375,0.7157745361328125
1686445544038939600,8.801939697265626,-0.696624755859375,-0.0291290283203125,0.715301513671875
1686445544048956700,8.811956787109375,-0.6923065185546875,-0.027801513671875,0.7156829833984375
1686445544058973700,8.8219736328125,-0.6890411376953125,-0.02789306640625,0.714996337890625
1686445544068990700,8.83199072265625,-0.6890716552734375,-0.0284881591796875,0.716400146484375
1686445544079006700,8.8420068359375,-0.688385009765625,-0.0277557373046875,0.7149658203125
1686445544089023700,8.852023681640626,-0.6919403076171875,-0.02935791015625,0.7148284912109375
1686445544099040800,8.862040771484375,-0.695831298828125,-0.03045654296875,0.7133941650390625
1686445544109057800,8.872057861328125,-0.699066162109375,-0.031524658203125,0.7122802734375
1686445544119074800,8.88207470703125,-0.70245361328125,-0.0323638916015625,0.71136474609375
1686445544129091800,8.892091796875,-0.703765869140625,-0.033050537109375,0.710357666015625
1686445544139107600,8.902107666015626,-0.7039337158203125,-0.0336151123046875,0.710968017578125
1686445544149124600,8.91212451171875,-0.70025634765625,-0.0339202880859375,0.712890625
1686445544159142000,8.922141845703125,-0.698699951171875,-0.0315704345703125,0.716461181640625
1686445544169158700,8.93215869140625,-0.6969146728515625,-0.028533935546875,0.7191162109375
1686445544179175700,8.94217578125,-0.695648193359375,-0.027374267578125,0.7206878662109375
1686445544189192000,8.95219189453125,-0.69500732421875,-0.0278778076171875,0.7210540771484375
1686445544199208700,8.962208740234376,-0.6951904296875,-0.028045654296875,0.721466064453125
1686445544209225700,8.972225830078125,-0.6956787109375,-0.0277862548828125,0.7194671630859375
1686445544219242800,8.98224267578125,-0.6967926025390625,-0.0298614501953125,0.7166748046875
1686445544229259800,8.992259765625,-0.6964874267578125,-0.0296478271484375,0.7171173095703125
1686445544239275800,9.00227587890625,-0.69879150390625,-0.030242919921875,0.7158050537109375
1686445544249292500,9.01229248046875,-0.7012939453125,-0.029876708984375,0.7151641845703125
1686445544259309800,9.022309814453125,-0.6992950439453125,-0.02825927734375,0.7160797119140625
1686445544269326600,9.03232666015625,-0.69720458984375,-0.0276031494140625,0.7166595458984375
1686445544279343600,9.042343505859375,-0.6942291259765625,-0.0250244140625,0.718414306640625
1686445544289360600,9.052360595703124,-0.689849853515625,-0.0240631103515625,0.7217254638671875
1686445544299376600,9.062376708984376,-0.689300537109375,-0.0243988037109375,0.7236328125
1686445544309393700,9.0723935546875,-0.6919097900390625,-0.0247802734375,0.7237396240234375
1686445544319410700,9.08241064453125,-0.6933135986328125,-0.0262298583984375,0.7215728759765625
1686445544329427700,9.092427734375,-0.6949920654296875,-0.027618408203125,0.7188262939453125
1686445544339444700,9.10244482421875,-0.6969451904296875,-0.0299072265625,0.717620849609375
1686445544349460700,9.112460693359376,-0.6983489990234375,-0.0306396484375,0.7157135009765625
1686445544359477800,9.122477783203125,-0.6992950439453125,-0.031005859375,0.7171630859375
1686445544369494800,9.132494873046875,-0.69732666015625,-0.0333099365234375,0.71856689453125
1686445544379511800,9.14251171875,-0.696533203125,-0.034210205078125,0.71807861328125
1686445544389528800,9.15252880859375,-0.697479248046875,-0.03369140625,0.717498779296875
1686445544399544800,9.162544921875,-0.6981964111328125,-0.0307769775390625,0.7147369384765625
1686445544409561600,9.1725615234375,-0.69964599609375,-0.0278167724609375,0.712432861328125
1686445544419579000,9.182578857421875,-0.700042724609375,-0.0261383056640625,0.7109222412109375
1686445544429595600,9.192595703125,-0.7012176513671875,-0.025115966796875,0.7104339599609375
1686445544439612700,9.20261279296875,-0.70166015625,-0.0245513916015625,0.7104034423828125
1686445544449629000,9.21262890625,-0.7001495361328125,-0.0254364013671875,0.7113494873046875
1686445544459645700,9.222645751953126,-0.699615478515625,-0.0269012451171875,0.7126007080078125
1686445544469662700,9.232662841796875,-0.6973724365234375,-0.029144287109375,0.712982177734375
1686445544479679700,9.2426796875,-0.694580078125,-0.03289794921875,0.712310791015625
1686445544489696800,9.25269677734375,-0.6927337646484375,-0.0348968505859375,0.7144775390625
1686445544499713500,9.262713623046874,-0.690948486328125,-0.0381317138671875,0.71478271484375
1686445544509729500,9.2727294921875,-0.6896209716796875,-0.040069580078125,0.715087890625
1686445544519746800,9.282746826171875,-0.6890411376953125,-0.0408477783203125,0.7142791748046875
1686445544529763600,9.292763671875,-0.692138671875,-0.0372161865234375,0.71484375
1686445544539780600,9.302780517578125,-0.6944427490234375,-0.0334930419921875,0.715667724609375
1686445544549798000,9.3127978515625,-0.6970672607421875,-0.029449462890625,0.7143096923828125
1686445544559813600,9.322813720703126,-0.6985626220703125,-0.02813720703125,0.7149658203125
1686445544569830700,9.33283056640625,-0.6999053955078125,-0.027984619140625,0.7155914306640625
1686445544579848000,9.342847900390625,-0.699371337890625,-0.028594970703125,0.7148284912109375
1686445544589864700,9.35286474609375,-0.6990203857421875,-0.0292510986328125,0.714996337890625
1686445544599881700,9.3628818359375,-0.69744873046875,-0.0293426513671875,0.7159271240234375
1686445544609898800,9.372898681640624,-0.6963348388671875,-0.029296875,0.7169952392578125
1686445544619914800,9.382914794921875,-0.6954345703125,-0.0283203125,0.7181854248046875
1686445544629931800,9.392931884765625,-0.6956634521484375,-0.0269775390625,0.719390869140625
1686445544639948500,9.402948486328125,-0.6951141357421875,-0.0254058837890625,0.7178192138671875
1686445544649965800,9.4129658203125,-0.6976776123046875,-0.020904541015625,0.7169036865234375
1686445544659982600,9.422982666015624,-0.7009429931640625,-0.0169219970703125,0.71612548828125
1686445544669998600,9.43299853515625,-0.7021026611328125,-0.0140838623046875,0.7170257568359375
1686445544680016000,9.443015869140625,-0.701416015625,-0.0145263671875,0.7188720703125
1686445544690032600,9.45303271484375,-0.7005157470703125,-0.01715087890625,0.71905517578125
1686445544700049700,9.463049560546875,-0.699554443359375,-0.0170135498046875,0.718597412109375
1686445544710066700,9.473066650390624,-0.6964111328125,-0.01885986328125,0.72320556640625
1686445544720082700,9.483082763671876,-0.691009521484375,-0.031982421875,0.7261199951171875
1686445544730100200,9.493100341796875,-0.6847076416015625,-0.0411224365234375,0.72216796875
1686445544740117000,9.503116943359375,-0.6836700439453125,-0.039154052734375,0.7259368896484375
1686445544750134000,9.513134033203125,-0.6909637451171875,-0.0294647216796875,0.725860595703125
1686445544760151000,9.523151123046874,-0.6976165771484375,-0.0242919921875,0.72454833984375
1686445544770167000,9.5331669921875,-0.6960296630859375,-0.0272674560546875,0.721893310546875
1686445544780184000,9.54318408203125,-0.6933746337890625,-0.032623291015625,0.717987060546875
1686445544790201000,9.553201171875,-0.6965789794921875,-0.0326080322265625,0.7154541015625
1686445544800218000,9.563218017578125,-0.703887939453125,-0.029937744140625,0.7155609130859375
1686445544810235100,9.573235107421874,-0.705810546875,-0.0307464599609375,0.7140045166015625
1686445544820252200,9.583252197265624,-0.7029876708984375,-0.03326416015625,0.71148681640625
1686445544830268200,9.59326806640625,-0.7003326416015625,-0.035186767578125,0.713287353515625
1686445544840285200,9.60328515625,-0.700775146484375,-0.033050537109375,0.71484375
1686445544850302000,9.613302001953125,-0.7020721435546875,-0.0291900634765625,0.7145843505859375
1686445544860319200,9.6233193359375,-0.702728271484375,-0.0265045166015625,0.7135772705078125
1686445544870336000,9.6333359375,-0.7018585205078125,-0.0259552001953125,0.712127685546875
1686445544880352000,9.64335205078125,-0.703216552734375,-0.0260467529296875,0.7104949951171875
1686445544890369300,9.653369384765625,-0.702545166015625,-0.02764892578125,0.7096405029296875
1686445544900386000,9.663385986328125,-0.701141357421875,-0.0281524658203125,0.7090301513671875
1686445544910403000,9.673403076171875,-0.6992950439453125,-0.027252197265625,0.708953857421875
1686445544920420000,9.683420166015624,-0.696685791015625,-0.0283203125,0.7108001708984375
1686445544930436000,9.69343603515625,-0.6926727294921875,-0.0288238525390625,0.71258544921875
1686445544940453000,9.703453125,-0.6889801025390625,-0.02777099609375,0.7149810791015625
1686445544950470100,9.71347021484375,-0.6866912841796875,-0.0281524658203125,0.7173004150390625
1686445544960487200,9.723487060546875,-0.6869049072265625,-0.0283355712890625,0.7169952392578125
1686445544970504000,9.73350390625,-0.6882781982421875,-0.0301361083984375,0.714996337890625
1686445544980521200,9.743521240234376,-0.69189453125,-0.0308685302734375,0.712921142578125
1686445544990537200,9.753537109375,-0.693389892578125,-0.0315093994140625,0.7122039794921875
1686445545000554000,9.763553955078125,-0.6954193115234375,-0.03094482421875,0.711822509765625
1686445545010571000,9.773571044921875,-0.6953887939453125,-0.029144287109375,0.7138824462890625
1686445545020588000,9.783588134765624,-0.695281982421875,-0.0272216796875,0.716339111328125
1686445545030605000,9.79360498046875,-0.69683837890625,-0.0255584716796875,0.7189178466796875
1686445545040621000,9.80362109375,-0.6976165771484375,-0.0243377685546875,0.7213287353515625
1686445545050638000,9.81363818359375,-0.695770263671875,-0.023529052734375,0.7219085693359375
1686445545060655000,9.823655029296875,-0.6953277587890625,-0.0239105224609375,0.7201385498046875
1686445545070672100,9.833672119140624,-0.6948699951171875,-0.025482177734375,0.7194366455078125
1686445545080689200,9.843689208984374,-0.6958770751953125,-0.0262298583984375,0.717987060546875
1686445545090705200,9.853705078125,-0.6973876953125,-0.0279541015625,0.716552734375
1686445545100722200,9.86372216796875,-0.6994781494140625,-0.029083251953125,0.714874267578125
1686445545110739000,9.873739013671875,-0.701416015625,-0.0289764404296875,0.71490478515625
1686445545120756200,9.883756103515625,-0.699951171875,-0.0284271240234375,0.7157745361328125
1686445545130773000,9.89377294921875,-0.698883056640625,-0.027618408203125,0.716583251953125
1686445545140790000,9.9037900390625,-0.6973876953125,-0.026611328125,0.7186431884765625
1686445545150806300,9.91380615234375,-0.6970062255859375,-0.0266571044921875,0.72149658203125
1686445545160823000,9.923822998046875,-0.6977386474609375,-0.0281219482421875,0.7208251953125
1686445545170840000,9.933840087890625,-0.6971435546875,-0.028106689453125,0.71942138671875
1686445545180857000,9.943857177734374,-0.6976318359375,-0.0279388427734375,0.717376708984375
1686445545190874000,9.9538740234375,-0.6995086669921875,-0.0286712646484375,0.7155303955078125
1686445545200890000,9.96389013671875,-0.6994476318359375,-0.0294952392578125,0.7142181396484375
1686445545210907000,9.973906982421875,-0.70159912109375,-0.029815673828125,0.7139739990234375
1686445545220924200,9.983924072265625,-0.70111083984375,-0.0291900634765625,0.7142791748046875
1686445545230941200,9.993941162109374,-0.7004241943359375,-0.029144287109375,0.7158050537109375
1686445545240958200,10.003958251953126,-0.6978912353515625,-0.0293731689453125,0.7169036865234375
1686445545250975200,10.013975341796876,-0.6947784423828125,-0.029754638671875,0.7174530029296875
1686445545260991000,10.023990966796875,-0.6916656494140625,-0.0307464599609375,0.71771240234375
1686445545271008000,10.034008056640625,-0.689300537109375,-0.03192138671875,0.7167510986328125
1686445545281025300,10.044025390625,-0.6912078857421875,-0.031219482421875,0.71435546875
1686445545291042000,10.0540419921875,-0.69500732421875,-0.0306243896484375,0.7137908935546875
1686445545301059000,10.06405908203125,-0.697357177734375,-0.02978515625,0.712066650390625
1686445545311075300,10.074075439453125,-0.6983489990234375,-0.0304107666015625,0.710693359375
1686445545321092000,10.084092041015625,-0.6959228515625,-0.030487060546875,0.7119903564453125
1686445545331109000,10.094109130859374,-0.69580078125,-0.029510498046875,0.7134552001953125
1686445545341126100,10.104126220703124,-0.6939239501953125,-0.027313232421875,0.7149810791015625
1686445545351143200,10.11414306640625,-0.694671630859375,-0.027252197265625,0.7151641845703125
1686445545361159200,10.1241591796875,-0.6947479248046875,-0.0266876220703125,0.7144775390625
1686445545371176000,10.134176025390625,-0.6948699951171875,-0.0257720947265625,0.7146759033203125
1686445545381193200,10.144193115234375,-0.69659423828125,-0.02423095703125,0.7151947021484375
1686445545391210000,10.1542099609375,-0.6954498291015625,-0.023529052734375,0.71612548828125
1686445545401227000,10.16422705078125,-0.695587158203125,-0.0236663818359375,0.7168121337890625
1686445545411244000,10.174244140625,-0.696563720703125,-0.02410888671875,0.7186431884765625
1686445545421260000,10.184260009765625,-0.696533203125,-0.0253143310546875,0.7186431884765625
1686445545431277000,10.194277099609375,-0.698211669921875,-0.02703857421875,0.7192535400390625
1686445545441294000,10.204294189453124,-0.701751708984375,-0.0277099609375,0.7191925048828125
1686445545451311000,10.21431103515625,-0.7019195556640625,-0.0286102294921875,0.71856689453125
1686445545461328100,10.224328125,-0.700347900390625,-0.0298614501953125,0.7198333740234375
1686445545471343900,10.23434375,-0.698333740234375,-0.0298919677734375,0.720062255859375
1686445545481361200,10.244361083984375,-0.697296142578125,-0.02972412109375,0.7216339111328125
1686445545491378200,10.254378173828124,-0.69683837890625,-0.0287322998046875,0.72296142578125
1686445545501395000,10.26439501953125,-0.6960296630859375,-0.0285491943359375,0.7222900390625
1686445545511412200,10.274412109375,-0.6951904296875,-0.02899169921875,0.720794677734375
1686445545521428200,10.28442822265625,-0.69512939453125,-0.028533935546875,0.71954345703125
1686445545531445000,10.294445068359375,-0.69464111328125,-0.0276031494140625,0.7180023193359375
1686445545541462300,10.304462158203124,-0.696197509765625,-0.027496337890625,0.7163543701171875
1686445545551479000,10.31447900390625,-0.6972808837890625,-0.027862548828125,0.7151336669921875
1686445545561496000,10.32449609375,-0.699462890625,-0.0284423828125,0.714111328125
1686445545571513000,10.33451318359375,-0.7014007568359375,-0.0278167724609375,0.71307373046875
1686445545581529000,10.344529052734375,-0.7003631591796875,-0.0271148681640625,0.7129669189453125
1686445545591546000,10.354546142578124,-0.696746826171875,-0.02777099609375,0.7122802734375
1686445545601563100,10.364563232421874,-0.6933746337890625,-0.0277252197265625,0.7142486572265625
1686445545611580200,10.374580078125,-0.6904296875,-0.0276031494140625,0.7144622802734375
1686445545621597000,10.384596923828125,-0.6875152587890625,-0.02789306640625,0.7142181396484375
1686445545631613000,10.394613037109375,-0.6894989013671875,-0.0281219482421875,0.71319580078125
1686445545641630200,10.404630126953125,-0.6918792724609375,-0.026611328125,0.713165283203125
1686445545651647000,10.41464697265625,-0.695648193359375,-0.026275634765625,0.714111328125
1686445545661664000,10.4246640625,-0.69683837890625,-0.026580810546875,0.714202880859375
1686445545671681300,10.434681396484375,-0.6989288330078125,-0.027740478515625,0.7146759033203125
1686445545681698000,10.444697998046875,-0.69964599609375,-0.0281219482421875,0.7145538330078125
1686445545691714000,10.454714111328125,-0.7004547119140625,-0.0290069580078125,0.71502685546875
1686445545701731300,10.4647314453125,-0.7003936767578125,-0.0287628173828125,0.716339111328125
1686445545711748000,10.474748046875,-0.7003631591796875,-0.0276031494140625,0.716400146484375
1686445545721765000,10.48476513671875,-0.7003326416015625,-0.028228759765625,0.71551513671875
1686445545731782400,10.494782470703125,-0.698883056640625,-0.0294189453125,0.715972900390625
1686445545741798400,10.50479833984375,-0.6976470947265625,-0.0279998779296875,0.7153778076171875
1686445545751815700,10.514815673828124,-0.6975860595703125,-0.028106689453125,0.71551513671875
1686445545761832400,10.52483251953125,-0.696868896484375,-0.0284423828125,0.7145843505859375
1686445545771849500,10.534849365234376,-0.694732666015625,-0.0292510986328125,0.7142333984375
1686445545781866500,10.544866455078125,-0.6956329345703125,-0.0301055908203125,0.714630126953125
1686445545791882500,10.554882568359375,-0.6975860595703125,-0.032196044921875,0.7139739990234375
1686445545801899500,10.5648994140625,-0.700225830078125,-0.0324554443359375,0.713958740234375
1686445545811916500,10.57491650390625,-0.700103759765625,-0.030853271484375,0.713897705078125
1686445545821933600,10.58493359375,-0.7024383544921875,-0.0310821533203125,0.714019775390625
1686445545831950300,10.594950439453125,-0.702117919921875,-0.0291595458984375,0.71502685546875
1686445545841967600,10.604967529296875,-0.702056884765625,-0.0284271240234375,0.7173309326171875
1686445545851983600,10.614983642578125,-0.702789306640625,-0.02349853515625,0.7209320068359375
1686445545862000400,10.62500048828125,-0.6986236572265625,-0.020111083984375,0.7197113037109375
1686445545872017700,10.635017578125,-0.6962738037109375,-0.0244293212890625,0.7147369384765625
1686445545882034400,10.645034423828125,-0.697967529296875,-0.0321197509765625,0.707916259765625
1686445545892051500,10.655051513671875,-0.698211669921875,-0.032379150390625,0.706207275390625
1686445545902067500,10.6650673828125,-0.7006378173828125,-0.02557373046875,0.70794677734375
1686445545912084500,10.67508447265625,-0.702392578125,-0.02325439453125,0.711456298828125
1686445545922101500,10.6851015625,-0.6963653564453125,-0.0258026123046875,0.7155914306640625
1686445545932118500,10.695118408203125,-0.6919097900390625,-0.0278472900390625,0.72003173828125
1686445545942135600,10.705135498046875,-0.694000244140625,-0.0278472900390625,0.72149658203125
1686445545952152600,10.715152587890625,-0.69915771484375,-0.0271759033203125,0.7207489013671875
1686445545962168600,10.72516845703125,-0.699615478515625,-0.0261077880859375,0.7185211181640625
1686445545972185600,10.735185546875,-0.6986083984375,-0.026519775390625,0.716094970703125
1686445545982202600,10.74520263671875,-0.698974609375,-0.027252197265625,0.7144012451171875
1686445545992219400,10.755219482421875,-0.6968994140625,-0.02783203125,0.714996337890625
1686445546002236700,10.765236572265625,-0.6937713623046875,-0.0275421142578125,0.7145843505859375
1686445546012252700,10.775252685546874,-0.69036865234375,-0.02734375,0.7152252197265625
1686445546022269400,10.78526953125,-0.6888580322265625,-0.0263671875,0.7158660888671875
1686445546032286500,10.795286376953126,-0.6902008056640625,-0.027069091796875,0.7161102294921875
1686445546042303500,10.805303466796875,-0.695709228515625,-0.02850341796875,0.7158660888671875
1686445546052320500,10.815320556640625,-0.7011260986328125,-0.02886962890625,0.7162017822265625
1686445546062337300,10.825337158203125,-0.706085205078125,-0.0282135009765625,0.714569091796875
1686445546072353500,10.835353515625,-0.70831298828125,-0.0277862548828125,0.7130279541015625
1686445546082370600,10.84537060546875,-0.706268310546875,-0.0292205810546875,0.7123870849609375
1686445546092387300,10.85538720703125,-0.70281982421875,-0.0313873291015625,0.7118988037109375
1686445546102404600,10.865404541015625,-0.701385498046875,-0.031341552734375,0.712432861328125
1686445546112421600,10.875421630859375,-0.700836181640625,-0.030059814453125,0.713775634765625
1686445546122437400,10.885437255859374,-0.7000732421875,-0.028900146484375,0.7137603759765625
1686445546132454400,10.895454345703126,-0.698089599609375,-0.0302581787109375,0.713775634765625
1686445546142471400,10.905471435546875,-0.6976776123046875,-0.03106689453125,0.7119293212890625
1686445546152488400,10.915488525390625,-0.699188232421875,-0.030426025390625,0.7108001708984375
1686445546162505700,10.925505615234375,-0.69915771484375,-0.0297698974609375,0.710205078125
1686445546172521500,10.935521484375,-0.7006072998046875,-0.0307464599609375,0.7078399658203125
1686445546182538500,10.94553857421875,-0.7021331787109375,-0.02996826171875,0.7083892822265625
1686445546192555500,10.955555419921875,-0.70208740234375,-0.02947998046875,0.70904541015625
1686445546202572500,10.965572509765625,-0.7008056640625,-0.0294952392578125,0.710205078125
1686445546212589600,10.975589599609375,-0.697601318359375,-0.0292510986328125,0.710662841796875
1686445546222606300,10.9856064453125,-0.6958770751953125,-0.026885986328125,0.713409423828125
1686445546232622600,10.99562255859375,-0.6934356689453125,-0.0247344970703125,0.7162628173828125
1686445546242639600,11.0056396484375,-0.6932830810546875,-0.023956298828125,0.7191619873046875
1686445546252656400,11.015656494140625,-0.6927642822265625,-0.0241546630859375,0.720916748046875
1686445546262673700,11.025673583984375,-0.690826416015625,-0.0246734619140625,0.722930908203125
1686445546272690400,11.0356904296875,-0.69158935546875,-0.025299072265625,0.7245635986328125
1686445546282706400,11.04570654296875,-0.690338134765625,-0.027923583984375,0.722869873046875
1686445546292723500,11.055723388671876,-0.6918487548828125,-0.0283050537109375,0.7211456298828125
1686445546302740500,11.065740478515625,-0.6958770751953125,-0.029510498046875,0.7179412841796875
1686445546312757500,11.075757568359375,-0.6991729736328125,-0.0286407470703125,0.715423583984375
1686445546322774500,11.0857744140625,-0.70025634765625,-0.026611328125,0.7146759033203125
1686445546332791600,11.09579150390625,-0.6996917724609375,-0.0260772705078125,0.716033935546875
1686445546342807600,11.1058076171875,-0.6988067626953125,-0.0256805419921875,0.7176666259765625
1686445546352824600,11.115824462890625,-0.696929931640625,-0.02606201171875,0.7198333740234375
1686445546362841600,11.125841552734375,-0.6959991455078125,-0.026611328125,0.7210235595703125
1686445546372858600,11.135858642578125,-0.69378662109375,-0.027069091796875,0.72003173828125
1686445546382875400,11.14587548828125,-0.6918487548828125,-0.0279083251953125,0.7195281982421875
1686445546392891400,11.155891357421876,-0.6937408447265625,-0.0279388427734375,0.7182464599609375
1686445546402908700,11.16590869140625,-0.696563720703125,-0.02899169921875,0.7162628173828125
1686445546412925400,11.175925537109375,-0.6998138427734375,-0.0321044921875,0.71343994140625
1686445546422942500,11.1859423828125,-0.701873779296875,-0.0346221923828125,0.709716796875
1686445546432959500,11.19595947265625,-0.70416259765625,-0.0345001220703125,0.707794189453125
1686445546442975500,11.2059755859375,-0.7064971923828125,-0.0319976806640625,0.7082977294921875
1686445546452992500,11.215992431640625,-0.70684814453125,-0.0301971435546875,0.7080535888671875
1686445546463009500,11.226009521484375,-0.7052764892578125,-0.0294189453125,0.7093505859375
1686445546473026600,11.236026611328125,-0.7021026611328125,-0.0285491943359375,0.711151123046875
1686445546483043300,11.246043212890624,-0.6983489990234375,-0.028411865234375,0.713592529296875
1686445546493060600,11.256060546875,-0.6952667236328125,-0.0278778076171875,0.71575927734375
1686445546503076600,11.26607666015625,-0.69305419921875,-0.02764892578125,0.71722412109375
1686445546513093400,11.27609326171875,-0.69268798828125,-0.029815673828125,0.7165069580078125
1686445546523110700,11.286110595703125,-0.6943511962890625,-0.03021240234375,0.71533203125
1686445546533127400,11.29612744140625,-0.6965789794921875,-0.030303955078125,0.7143402099609375
1686445546543144400,11.30614453125,-0.699188232421875,-0.030059814453125,0.7142333984375
1686445546553161700,11.31616162109375,-0.6984405517578125,-0.0310211181640625,0.7148284912109375
1686445546563177500,11.326177490234375,-0.6967620849609375,-0.0308685302734375,0.715087890625
1686445546573194500,11.336194580078125,-0.69677734375,-0.029754638671875,0.7150726318359375
1686445546583211500,11.34621142578125,-0.6939697265625,-0.0291290283203125,0.7149200439453125
1686445546593228500,11.356228515625,-0.6934967041015625,-0.0286407470703125,0.7164459228515625
1686445546603245600,11.36624560546875,-0.6917266845703125,-0.027374267578125,0.716766357421875
1686445546613261600,11.376261474609375,-0.69085693359375,-0.028564453125,0.715545654296875
1686445546623278600,11.386278564453125,-0.6917572021484375,-0.0276031494140625,0.7176971435546875
1686445546633295600,11.396295654296875,-0.695098876953125,-0.0270538330078125,0.7184906005859375
1686445546643312400,11.4063125,-0.6981658935546875,-0.02630615234375,0.7194671630859375
1686445546653329700,11.41632958984375,-0.6988525390625,-0.0287017822265625,0.718841552734375
1686445546663345700,11.426345703125,-0.6992034912109375,-0.0297088623046875,0.7162017822265625
1686445546673362400,11.436362548828125,-0.6996307373046875,-0.0293121337890625,0.7156219482421875
1686445546683379500,11.44637939453125,-0.7001190185546875,-0.028900146484375,0.7153472900390625
1686445546693396500,11.456396484375,-0.699981689453125,-0.0294952392578125,0.7150726318359375
1686445546703413500,11.46641357421875,-0.7003936767578125,-0.0291900634765625,0.7168426513671875
1686445546713430500,11.476430419921876,-0.69915771484375,-0.029296875,0.71746826171875
1686445546723446500,11.486446533203125,-0.6970977783203125,-0.029510498046875,0.7186737060546875
1686445546733463000,11.496463134765625,-0.696319580078125,-0.0301971435546875,0.7185821533203125
1686445546743480000,11.50647998046875,-0.6962432861328125,-0.030487060546875,0.717620849609375
1686445546753497000,11.5164970703125,-0.695587158203125,-0.03021240234375,0.7158966064453125
1686445546763514000,11.52651416015625,-0.696807861328125,-0.02996826171875,0.7154693603515625
1686445546773530000,11.536530029296875,-0.699310302734375,-0.0312042236328125,0.7145538330078125
1686445546783547000,11.546546875,-0.7011566162109375,-0.0312347412109375,0.7122039794921875
1686445546793564200,11.556564208984375,-0.7027130126953125,-0.0304412841796875,0.7118072509765625
1686445546803581000,11.566580810546874,-0.7014923095703125,-0.02984619140625,0.7122039794921875
1686445546813598000,11.576597900390626,-0.699859619140625,-0.028045654296875,0.7117919921875
1686445546823615000,11.586614990234375,-0.69708251953125,-0.0292510986328125,0.71234130859375
1686445546833631000,11.596630859375,-0.694732666015625,-0.0305023193359375,0.7127532958984375
1686445546843648000,11.60664794921875,-0.693695068359375,-0.031280517578125,0.712860107421875
1686445546853665000,11.6166650390625,-0.6925811767578125,-0.0319976806640625,0.714508056640625
1686445546863682000,11.62668212890625,-0.692962646484375,-0.031158447265625,0.7160797119140625
1686445546873699000,11.636698974609375,-0.693878173828125,-0.0302276611328125,0.7173309326171875
1686445546883714800,11.64671484375,-0.694000244140625,-0.0297393798828125,0.7179412841796875
1686445546893732000,11.656732177734375,-0.6954193115234375,-0.02911376953125,0.716217041015625
1686445546903748900,11.666748779296874,-0.69683837890625,-0.0290679931640625,0.71435546875
1686445546913766000,11.676765869140626,-0.698822021484375,-0.028594970703125,0.714385986328125
1686445546923783200,11.686783203125,-0.70159912109375,-0.0278472900390625,0.7162017822265625
1686445546933800000,11.696800048828125,-0.7026824951171875,-0.0271759033203125,0.7179107666015625
1686445546943816000,11.70681591796875,-0.702392578125,-0.02685546875,0.7192230224609375
1686445546953833200,11.716833251953124,-0.7003326416015625,-0.0269927978515625,0.7191925048828125
1686445546963850000,11.72685009765625,-0.6980438232421875,-0.027557373046875,0.7198486328125
1686445546973867000,11.736866943359376,-0.6941070556640625,-0.028533935546875,0.7199859619140625
1686445546983884000,11.746884033203125,-0.6926116943359375,-0.0300445556640625,0.718353271484375
1686445546993900000,11.756900146484375,-0.6927337646484375,-0.0296630859375,0.7173309326171875
1686445547003917000,11.7669169921875,-0.6952667236328125,-0.0316162109375,0.7178955078125
1686445547013933800,11.776933837890626,-0.6972808837890625,-0.0318145751953125,0.7171630859375
1686445547023951000,11.786951171875,-0.6983642578125,-0.032012939453125,0.716552734375
1686445547033967900,11.7969677734375,-0.7014312744140625,-0.0317840576171875,0.71466064453125
1686445547043985200,11.806985107421875,-0.7019500732421875,-0.0304718017578125,0.71270751953125
1686445547054001200,11.817001220703125,-0.7011871337890625,-0.0294647216796875,0.71331787109375
1686445547064018000,11.827017822265624,-0.6988067626953125,-0.0307159423828125,0.712921142578125
1686445547074035000,11.837034912109376,-0.6956329345703125,-0.0302886962890625,0.712371826171875
1686445547084052000,11.847052001953125,-0.694488525390625,-0.0291290283203125,0.713409423828125
1686445547094069000,11.857069091796875,-0.69317626953125,-0.02984619140625,0.71221923828125
1686445547104085000,11.8670849609375,-0.6933746337890625,-0.0299072265625,0.7120513916015625
1686445547114102000,11.87710205078125,-0.6965484619140625,-0.029205322265625,0.71295166015625
1686445547124119000,11.887119140625,-0.698150634765625,-0.0289306640625,0.712860107421875
1686445547134136000,11.897135986328125,-0.6986541748046875,-0.030548095703125,0.7115631103515625
1686445547144153000,11.907153076171875,-0.697906494140625,-0.0301361083984375,0.7098236083984375
1686445547154170000,11.917170166015625,-0.6996917724609375,-0.0293121337890625,0.7083892822265625
1686445547164186000,11.92718603515625,-0.6998291015625,-0.0279541015625,0.7099609375
1686445547174203000,11.937202880859376,-0.699554443359375,-0.029571533203125,0.70867919921875
1686445547184220200,11.94722021484375,-0.6982574462890625,-0.031097412109375,0.7112274169921875
1686445547194237000,11.95723681640625,-0.6983489990234375,-0.031097412109375,0.717559814453125
1686445547204254000,11.96725390625,-0.6966094970703125,-0.02923583984375,0.723297119140625
1686445547214270200,11.977270263671874,-0.693389892578125,-0.028533935546875,0.724822998046875
1686445547224287000,11.987286865234376,-0.6910552978515625,-0.02862548828125,0.724761962890625
1686445547234304000,11.997303955078126,-0.69158935546875,-0.0280609130859375,0.7244415283203125
1686445547244321000,12.007321044921875,-0.6949462890625,-0.02947998046875,0.721527099609375
1686445547254338000,12.017338134765625,-0.697052001953125,-0.028564453125,0.7185211181640625
1686445547264354000,12.02735400390625,-0.6986541748046875,-0.0274658203125,0.7160797119140625
1686445547274370800,12.037370849609376,-0.6959075927734375,-0.0272979736328125,0.7143402099609375
1686445547284388000,12.04738818359375,-0.6928253173828125,-0.02691650390625,0.7162017822265625
1686445547294404900,12.05740478515625,-0.691650390625,-0.0267333984375,0.7182159423828125
1686445547304422000,12.067421875,-0.6917572021484375,-0.0262451171875,0.718994140625
1686445547314439200,12.077439208984375,-0.69354248046875,-0.0266265869140625,0.718841552734375
1686445547324455000,12.087454833984374,-0.695892333984375,-0.0288848876953125,0.7176361083984375
1686445547334472000,12.097471923828126,-0.6981048583984375,-0.028717041015625,0.7152862548828125
1686445547344489200,12.1074892578125,-0.7006072998046875,-0.0286407470703125,0.716033935546875
1686445547354506000,12.117506103515625,-0.7018890380859375,-0.027862548828125,0.7161407470703125
1686445547364523000,12.12752294921875,-0.698577880859375,-0.029052734375,0.7164764404296875
1686445547374539000,12.1375390625,-0.6953887939453125,-0.0291290283203125,0.7164154052734375
1686445547384556000,12.14755615234375,-0.6961669921875,-0.029083251953125,0.71661376953125
1686445547394573000,12.157572998046875,-0.6979827880859375,-0.027679443359375,0.71588134765625
1686445547404590000,12.167590087890625,-0.697235107421875,-0.0276031494140625,0.715301513671875
1686445547414607000,12.177607177734375,-0.6951446533203125,-0.0279693603515625,0.71453857421875
1686445547424623900,12.187623779296874,-0.6934967041015625,-0.0279693603515625,0.7135467529296875
1686445547434640000,12.197639892578126,-0.691558837890625,-0.0303802490234375,0.714630126953125
1686445547444657200,12.2076572265625,-0.6922454833984375,-0.03155517578125,0.7136993408203125
1686445547454674000,12.217673828125,-0.6928863525390625,-0.029998779296875,0.7141571044921875
1686445547464691000,12.22769091796875,-0.6949005126953125,-0.03070068359375,0.7150421142578125
1686445547474708000,12.2377080078125,-0.698272705078125,-0.03033447265625,0.71612548828125
1686445547484724000,12.247723876953126,-0.698150634765625,-0.030242919921875,0.715911865234375
1686445547494741000,12.257740966796876,-0.6977386474609375,-0.02935791015625,0.7174530029296875
1686445547504758000,12.267758056640625,-0.697967529296875,-0.029541015625,0.7178192138671875
1686445547514775000,12.277775146484375,-0.69805908203125,-0.0280303955078125,0.7187347412109375
1686445547524792000,12.2877919921875,-0.6957550048828125,-0.0281219482421875,0.7192535400390625
1686445547534809000,12.29780908203125,-0.69580078125,-0.02886962890625,0.7167510986328125
1686445547544825000,12.3078251953125,-0.6943359375,-0.0293426513671875,0.7148284912109375
1686445547554842000,12.317842041015625,-0.6941680908203125,-0.028106689453125,0.715484619140625
1686445547564859000,12.32785888671875,-0.6956329345703125,-0.027069091796875,0.71484375
1686445547574876200,12.337876220703125,-0.69677734375,-0.026824951171875,0.7168731689453125
1686445547584893000,12.347892822265624,-0.6972503662109375,-0.0278778076171875,0.7184906005859375
1686445547594910000,12.357909912109376,-0.701019287109375,-0.027862548828125,0.719146728515625
1686445547604926200,12.36792626953125,-0.7015380859375,-0.0277099609375,0.7207183837890625
1686445547614943000,12.37794287109375,-0.6991424560546875,-0.029205322265625,0.7189788818359375
1686445547624960000,12.3879599609375,-0.69830322265625,-0.02984619140625,0.718902587890625
1686445547634977000,12.39797705078125,-0.6959228515625,-0.029937744140625,0.7182769775390625
1686445547644994000,12.407994140625,-0.695587158203125,-0.0301361083984375,0.717010498046875
1686445547655010000,12.418010009765625,-0.6944732666015625,-0.031005859375,0.7161712646484375
1686445547665026800,12.42802685546875,-0.6931915283203125,-0.0311126708984375,0.7149505615234375
1686445547675044000,12.438044189453125,-0.69189453125,-0.0301513671875,0.714630126953125
1686445547685060900,12.448060791015624,-0.6917724609375,-0.0299072265625,0.7134857177734375
1686445547695078000,12.458077880859374,-0.693023681640625,-0.028045654296875,0.714691162109375
1686445547705095200,12.46809521484375,-0.69384765625,-0.027008056640625,0.7148895263671875
1686445547715111000,12.47811083984375,-0.6964569091796875,-0.0278778076171875,0.7174072265625
1686445547725128000,12.4881279296875,-0.69744873046875,-0.02862548828125,0.7188568115234375
1686445547735145200,12.498145263671875,-0.6996307373046875,-0.029022216796875,0.717132568359375
1686445547745162500,12.50816259765625,-0.7015838623046875,-0.0277557373046875,0.7166290283203125
1686445547755179500,12.518179443359376,-0.7008514404296875,-0.027496337890625,0.716156005859375
1686445547765195300,12.5281953125,-0.6985931396484375,-0.027923583984375,0.71484375
1686445547775212300,12.53821240234375,-0.6972198486328125,-0.0283203125,0.7158966064453125
1686445547785229600,12.5482294921875,-0.6943817138671875,-0.0279541015625,0.715301513671875
1686445547795246300,12.558246337890624,-0.6931915283203125,-0.0274810791015625,0.7159881591796875
1686445547805263400,12.568263427734376,-0.6918182373046875,-0.0271759033203125,0.717132568359375
1686445547815280400,12.5782802734375,-0.693206787109375,-0.02838134765625,0.7183074951171875
1686445547825296400,12.58829638671875,-0.6943206787109375,-0.0302886962890625,0.7180938720703125
1686445547835313400,12.5983134765625,-0.695068359375,-0.0312957763671875,0.7170257568359375
1686445547845330400,12.608330322265624,-0.696746826171875,-0.031402587890625,0.716217041015625
1686445547855347500,12.618347412109374,-0.6983489990234375,-0.029693603515625,0.716339111328125
1686445547865364200,12.6283642578125,-0.6981658935546875,-0.0299072265625,0.7158355712890625
1686445547875380200,12.638380126953125,-0.698333740234375,-0.02880859375,0.7166595458984375
1686445547885397500,12.6483974609375,-0.696685791015625,-0.028228759765625,0.7175750732421875
1686445547895414300,12.658414306640625,-0.692962646484375,-0.0272979736328125,0.7197113037109375
1686445547905431300,12.668431396484374,-0.6914215087890625,-0.0276947021484375,0.720672607421875
1686445547915448300,12.6784482421875,-0.6926116943359375,-0.0293426513671875,0.7213287353515625
1686445547925465300,12.68846533203125,-0.695404052734375,-0.0284576416015625,0.7183380126953125
1686445547935481300,12.6984814453125,-0.699310302734375,-0.028778076171875,0.715240478515625
1686445547945498400,12.708498291015625,-0.7027130126953125,-0.028045654296875,0.7137298583984375
1686445547955515400,12.718515380859374,-0.703125,-0.027099609375,0.7130584716796875
1686445547965532400,12.728532470703126,-0.7025299072265625,-0.02801513671875,0.7135162353515625
1686445547975549400,12.738549560546875,-0.702606201171875,-0.026031494140625,0.71368408203125
1686445547985565400,12.7485654296875,-0.69720458984375,-0.026031494140625,0.7155303955078125
1686445547995582500,12.75858251953125,-0.693572998046875,-0.027557373046875,0.7162628173828125
1686445548005599500,12.768599609375,-0.690338134765625,-0.030029296875,0.7170867919921875
1686445548015616500,12.778616455078126,-0.68817138671875,-0.03265380859375,0.7169647216796875
1686445548025633300,12.78863330078125,-0.6880645751953125,-0.03204345703125,0.7165679931640625
1686445548035650600,12.798650634765625,-0.6905670166015625,-0.031524658203125,0.7169952392578125
1686445548045666600,12.80866650390625,-0.6943817138671875,-0.0300445556640625,0.714752197265625
1686445548055683300,12.818683349609374,-0.6959075927734375,-0.02886962890625,0.71319580078125
1686445548065700400,12.828700439453126,-0.6980133056640625,-0.02813720703125,0.7147369384765625
1686445548075717400,12.83871728515625,-0.6995086669921875,-0.028228759765625,0.718170166015625
1686445548085734400,12.848734375,-0.7001495361328125,-0.0273590087890625,0.720458984375
1686445548095750400,12.85875048828125,-0.7027740478515625,-0.0279541015625,0.718658447265625
1686445548105767400,12.868767333984374,-0.7018585205078125,-0.02825927734375,0.71673583984375
1686445548115784400,12.878784423828124,-0.6999969482421875,-0.0281982421875,0.7144775390625
1686445548125801200,12.88880126953125,-0.6994476318359375,-0.028594970703125,0.714508056640625
1686445548135818500,12.898818603515625,-0.69842529296875,-0.02880859375,0.71539306640625
1686445548145834500,12.90883447265625,-0.6978912353515625,-0.0292510986328125,0.7165374755859375
1686445548155851300,12.918851318359375,-0.6963653564453125,-0.02838134765625,0.7178802490234375
1686445548165868300,12.928868408203124,-0.6966094970703125,-0.0284576416015625,0.718048095703125
1686445548175885300,12.93888525390625,-0.6956787109375,-0.029083251953125,0.718536376953125
1686445548185902300,12.94890234375,-0.6960906982421875,-0.0295562744140625,0.7176361083984375
1686445548195919400,12.95891943359375,-0.697021484375,-0.029296875,0.71624755859375
1686445548205935400,12.968935302734375,-0.69573974609375,-0.02923583984375,0.7146759033203125
1686445548215952400,12.978952392578124,-0.693511962890625,-0.0289459228515625,0.7139129638671875
1686445548225969400,12.988969482421876,-0.69354248046875,-0.0289459228515625,0.7138519287109375
1686445548235986400,12.998986328125,-0.6958465576171875,-0.0268707275390625,0.7147064208984375
