time,seconds_elapsed,z,y,x
1686343465040379100,0.106379150390625,-0.0347442626953125,-0.99310302734375,-0.03765869140625
1686343465050399000,0.11639892578125,-0.04119873046875,-0.994110107421875,-0.0381622314453125
1686343465060417800,0.126417724609375,-0.0505828857421875,-0.9940338134765625,-0.0361175537109375
1686343465070436900,0.136436767578125,-0.060577392578125,-0.996795654296875,-0.0395965576171875
1686343465080456000,0.1464560546875,-0.0677337646484375,-1.000457763671875,-0.046905517578125
1686343465090476000,0.15647607421875,-0.07049560546875,-1.001983642578125,-0.0439910888671875
1686343465100495000,0.1664951171875,-0.0764923095703125,-1.001312255859375,-0.045074462890625
1686343465110514000,0.176513916015625,-0.082916259765625,-1.002044677734375,-0.0474700927734375
1686343465120533000,0.186532958984375,-0.0916595458984375,-1.0013580322265625,-0.042755126953125
1686343465130552000,0.196552001953125,-0.1002044677734375,-1.0006866455078125,-0.047943115234375
1686343465140572200,0.206572265625,-0.1019134521484375,-1.0020599365234375,-0.0514373779296875
1686343465150591000,0.216591064453125,-0.098419189453125,-1.0030059814453125,-0.0472412109375
1686343465160610000,0.226610107421875,-0.0961456298828125,-1.0026092529296875,-0.0447845458984375
1686343465170629000,0.236629150390625,-0.0933990478515625,-1.0030670166015625,-0.044921875
1686343465180648200,0.246648193359375,-0.0848541259765625,-1.002471923828125,-0.042816162109375
1686343465190668000,0.25666796875,-0.07763671875,-1.0005340576171875,-0.038116455078125
1686343465200686800,0.266686767578125,-0.07415771484375,-0.9964141845703125,-0.0364532470703125
1686343465210706000,0.276705810546875,-0.0723419189453125,-0.9950714111328125,-0.0398712158203125
1686343465220725000,0.28672509765625,-0.063262939453125,-0.9927978515625,-0.03948974609375
1686343465230745000,0.2967451171875,-0.05352783203125,-0.9925384521484375,-0.038818359375
1686343465240764000,0.306763916015625,-0.045928955078125,-0.993865966796875,-0.0394134521484375
1686343465250783000,0.316782958984375,-0.043914794921875,-0.9959716796875,-0.042633056640625
1686343465260802000,0.326802001953125,-0.05126953125,-0.9959716796875,-0.0444183349609375
1686343465270821000,0.336821044921875,-0.0584716796875,-0.9963226318359375,-0.0460662841796875
1686343465280841200,0.34684130859375,-0.0645294189453125,-0.99615478515625,-0.0457000732421875
1686343465290860000,0.356860107421875,-0.0726318359375,-0.99713134765625,-0.0439453125
1686343465300879000,0.366879150390625,-0.0774383544921875,-0.9980926513671875,-0.0464935302734375
1686343465310898200,0.376898193359375,-0.0846710205078125,-0.9983673095703125,-0.0421905517578125
1686343465320917000,0.3869169921875,-0.08935546875,-0.9969329833984375,-0.0406646728515625
1686343465330936800,0.396936767578125,-0.089630126953125,-0.9959564208984375,-0.041351318359375
1686343465340956000,0.406955810546875,-0.094390869140625,-0.9961395263671875,-0.0443878173828125
1686343465350975000,0.41697509765625,-0.096221923828125,-1.0004425048828125,-0.0458526611328125
1686343465360994000,0.426994140625,-0.0902557373046875,-1.0032958984375,-0.04449462890625
1686343465371014100,0.43701416015625,-0.08526611328125,-1.00360107421875,-0.0442352294921875
1686343465381033000,0.447032958984375,-0.07977294921875,-1.0028533935546875,-0.04119873046875
1686343465391052000,0.457052001953125,-0.0699920654296875,-1.0028839111328125,-0.038726806640625
1686343465401071000,0.467071044921875,-0.0648193359375,-1.0012664794921875,-0.0399169921875
1686343465411090000,0.47708984375,-0.06365966796875,-0.998260498046875,-0.04254150390625
1686343465421110000,0.487110107421875,-0.0650634765625,-0.996673583984375,-0.0464324951171875
1686343465431129000,0.497129150390625,-0.063385009765625,-0.99615478515625,-0.0479736328125
1686343465441148200,0.507148193359375,-0.0615081787109375,-0.995819091796875,-0.0464630126953125
1686343465451167200,0.517167236328125,-0.0621337890625,-0.9968109130859375,-0.04443359375
1686343465461186000,0.52718603515625,-0.0618896484375,-0.9969635009765625,-0.040008544921875
1686343465471206000,0.537205810546875,-0.0642852783203125,-0.9966888427734375,-0.038421630859375
1686343465481225000,0.547224853515625,-0.0658111572265625,-0.995330810546875,-0.0406341552734375
1686343465491244300,0.557244384765625,-0.070220947265625,-0.9957733154296875,-0.03741455078125
1686343465501263000,0.56726318359375,-0.073974609375,-0.9946441650390625,-0.04022216796875
1686343465511283200,0.577283203125,-0.07611083984375,-0.996826171875,-0.0475616455078125
1686343465521302300,0.58730224609375,-0.0743408203125,-0.9979400634765625,-0.04840087890625
1686343465531321300,0.5973212890625,-0.073760986328125,-0.999176025390625,-0.04638671875
1686343465541340200,0.607340087890625,-0.0760650634765625,-1.0001983642578125,-0.045501708984375
1686343465551359200,0.617359130859375,-0.077911376953125,-1.00042724609375,-0.046356201171875
1686343465561379000,0.627379150390625,-0.07421875,-1.00128173828125,-0.0466461181640625
1686343465571398100,0.637398193359375,-0.0780487060546875,-1.002044677734375,-0.0469207763671875
1686343465581417200,0.647417236328125,-0.07635498046875,-1.00067138671875,-0.047027587890625
1686343465591436000,0.65743603515625,-0.0726165771484375,-0.9984893798828125,-0.046417236328125
1686343465601456000,0.6674560546875,-0.0722808837890625,-0.9983673095703125,-0.043609619140625
1686343465611475200,0.67747509765625,-0.0664215087890625,-0.9991607666015625,-0.0434722900390625
1686343465621494300,0.687494384765625,-0.06195068359375,-0.999725341796875,-0.0436248779296875
1686343465631513000,0.69751318359375,-0.059112548828125,-1.000396728515625,-0.0425872802734375
1686343465641532200,0.7075322265625,-0.05560302734375,-1.001068115234375,-0.0427093505859375
1686343465651552300,0.71755224609375,-0.052764892578125,-1.0018157958984375,-0.0409088134765625
1686343465661571300,0.7275712890625,-0.0511016845703125,-1.0008392333984375,-0.0384368896484375
1686343465671590100,0.737590087890625,-0.0570526123046875,-0.99859619140625,-0.037109375
1686343465681609200,0.747609130859375,-0.064544677734375,-0.9956817626953125,-0.042236328125
1686343465691629000,0.757629150390625,-0.0599212646484375,-0.9942474365234375,-0.04486083984375
1686343465701648100,0.767648193359375,-0.055267333984375,-0.993896484375,-0.0395050048828125
1686343465711667200,0.777667236328125,-0.0498199462890625,-0.9947662353515625,-0.0435333251953125
1686343465721686000,0.78768603515625,-0.0439300537109375,-0.9975128173828125,-0.0417938232421875
1686343465731705000,0.797705078125,-0.0524139404296875,-0.99627685546875,-0.03662109375
1686343465741725200,0.80772509765625,-0.05731201171875,-1.0003509521484375,-0.04412841796875
1686343465751744300,0.817744140625,-0.0585479736328125,-0.9997711181640625,-0.0465240478515625
1686343465761763000,0.82776318359375,-0.0601654052734375,-1.001220703125,-0.046142578125
1686343465771782100,0.8377822265625,-0.0620880126953125,-0.9995574951171875,-0.0404052734375
1686343465781802200,0.84780224609375,-0.0625457763671875,-0.997528076171875,-0.041351318359375
1686343465791821300,0.8578212890625,-0.0565643310546875,-1.001373291015625,-0.049163818359375
1686343465801840400,0.86784033203125,-0.0695037841796875,-0.9963226318359375,-0.0479888916015625
1686343465811859200,0.877859130859375,-0.080718994140625,-1.000244140625,-0.0377044677734375
1686343465821878300,0.887878173828125,-0.06317138671875,-0.99945068359375,-0.046142578125
1686343465831898000,0.897898193359375,-0.0704193115234375,-0.9980926513671875,-0.0458221435546875
1686343465841917200,0.907917236328125,-0.0863189697265625,-0.9998931884765625,-0.044189453125
1686343465851936000,0.91793603515625,-0.07354736328125,-0.999053955078125,-0.0388641357421875
1686343465861955000,0.927955078125,-0.0440216064453125,-1.0033721923828125,-0.0475311279296875
1686343465871975200,0.93797509765625,0.0030975341796875,-0.997100830078125,-0.042449951171875
1686343465881994200,0.947994140625,0.0293426513671875,-0.9925079345703125,-0.025177001953125
1686343465892013300,0.958013427734375,0.0194244384765625,-1.0025177001953125,-0.0286712646484375
1686343465902032100,0.9680322265625,0.01043701171875,-1.001953125,-0.0322418212890625
1686343465912051200,0.97805126953125,0.01898193359375,-1.0025634765625,-0.015777587890625
1686343465922071300,0.9880712890625,0.025054931640625,-1.0043792724609375,-0.01458740234375
1686343465932090400,0.99809033203125,0.0155487060546875,-1.0052032470703125,-0.040802001953125
1686343465942109200,1.008109130859375,-0.0199737548828125,-0.9989471435546875,-0.049713134765625
1686343465952128300,1.018128173828125,-0.096343994140625,-0.984649658203125,-0.0543365478515625
1686343465962148000,1.028148193359375,-0.1550750732421875,-0.98748779296875,-0.0605621337890625
1686343465972167200,1.038167236328125,-0.1658782958984375,-0.9882049560546875,-0.0598907470703125
1686343465982186200,1.048186279296875,-0.1454010009765625,-0.98858642578125,-0.06854248046875
1686343465992205000,1.058205078125,-0.1158905029296875,-0.99798583984375,-0.0627288818359375
1686343466002224000,1.06822412109375,-0.0709686279296875,-1.0047607421875,-0.04364013671875
1686343466012244200,1.078244140625,-0.0394744873046875,-1.0137481689453125,-0.03765869140625
1686343466022263300,1.08826318359375,-0.0439910888671875,-1.0214996337890625,-0.0411376953125
1686343466032282000,1.0982822265625,-0.063140869140625,-1.020538330078125,-0.0505218505859375
1686343466042301200,1.10830126953125,-0.0743865966796875,-1.01837158203125,-0.0531158447265625
1686343466052321300,1.1183212890625,-0.0813446044921875,-1.0139923095703125,-0.0525665283203125
1686343466062340400,1.12834033203125,-0.0802459716796875,-1.008636474609375,-0.0503997802734375
1686343466072359400,1.138359375,-0.0731353759765625,-1.0031890869140625,-0.0443572998046875
1686343466082378200,1.148378173828125,-0.061676025390625,-0.9987945556640625,-0.040191650390625
1686343466092398000,1.158398193359375,-0.048797607421875,-0.9929656982421875,-0.0387420654296875
1686343466102417200,1.168417236328125,-0.0411529541015625,-0.9892730712890625,-0.037200927734375
1686343466112436200,1.178436279296875,-0.034698486328125,-0.9896392822265625,-0.03961181640625
1686343466122455000,1.188455078125,-0.0260467529296875,-0.9906158447265625,-0.0443878173828125
1686343466132474000,1.19847412109375,-0.0265655517578125,-0.9906463623046875,-0.0390625
1686343466142494200,1.208494140625,-0.026641845703125,-0.99169921875,-0.0413360595703125
1686343466152513300,1.21851318359375,-0.0177001953125,-0.9965057373046875,-0.0444488525390625
1686343466162532000,1.228531982421875,-0.00946044921875,-0.996612548828125,-0.038330078125
1686343466172551200,1.23855126953125,-0.0096588134765625,-0.99676513671875,-0.0365142822265625
1686343466182571300,1.2485712890625,-0.01361083984375,-0.9982757568359375,-0.0378265380859375
1686343466192590300,1.25859033203125,-0.0244293212890625,-0.9988250732421875,-0.0401763916015625
1686343466202609400,1.268609375,-0.040740966796875,-0.9970550537109375,-0.040130615234375
1686343466212628200,1.278628173828125,-0.0545654296875,-0.99737548828125,-0.0412750244140625
1686343466222647300,1.288647216796875,-0.0568695068359375,-0.9980010986328125,-0.04241943359375
1686343466232667100,1.298667236328125,-0.052825927734375,-0.998565673828125,-0.03741455078125
1686343466242686200,1.308686279296875,-0.0537872314453125,-0.99981689453125,-0.036407470703125
1686343466252705000,1.318705078125,-0.056640625,-0.9993133544921875,-0.03875732421875
1686343466262724000,1.32872412109375,-0.0610809326171875,-1.0006866455078125,-0.043792724609375
1686343466272744200,1.338744140625,-0.0622100830078125,-1.00421142578125,-0.0490264892578125
1686343466282763300,1.34876318359375,-0.0616912841796875,-1.002655029296875,-0.0476531982421875
1686343466292782300,1.3587822265625,-0.0587158203125,-1.0052947998046875,-0.0476531982421875
1686343466302801200,1.36880126953125,-0.058258056640625,-1.0045318603515625,-0.045318603515625
1686343466312821200,1.3788212890625,-0.057342529296875,-1.0012969970703125,-0.041595458984375
1686343466322840300,1.38884033203125,-0.05682373046875,-1.0019073486328125,-0.044464111328125
1686343466332859400,1.398859375,-0.060211181640625,-0.9978790283203125,-0.0490875244140625
1686343466342878200,1.408878173828125,-0.0575408935546875,-0.9979095458984375,-0.0471649169921875
1686343466352897300,1.418897216796875,-0.040496826171875,-0.99945068359375,-0.0411834716796875
1686343466362917000,1.428917236328125,-0.024322509765625,-1.00164794921875,-0.032257080078125
1686343466372936200,1.438936279296875,-0.0147552490234375,-1.0010833740234375,-0.0256500244140625
1686343466382955300,1.448955322265625,-0.02020263671875,-1.00079345703125,-0.02691650390625
1686343466392974000,1.45897412109375,-0.031524658203125,-1.0002593994140625,-0.031768798828125
1686343466402994200,1.468994140625,-0.028900146484375,-1.001129150390625,-0.03594970703125
1686343466413013200,1.47901318359375,-0.0200042724609375,-1.0016326904296875,-0.0354156494140625
1686343466423032300,1.4890322265625,-0.0167236328125,-1.0022125244140625,-0.0310821533203125
1686343466433051100,1.499051025390625,-0.0215606689453125,-1.001678466796875,-0.0274810791015625
1686343466443071200,1.5090712890625,-0.02313232421875,-1.001708984375,-0.028289794921875
1686343466453090300,1.51909033203125,-0.0303802490234375,-1.002593994140625,-0.0299224853515625
1686343466463109400,1.529109375,-0.0424957275390625,-1.001617431640625,-0.0337371826171875
1686343466473128200,1.539128173828125,-0.0511627197265625,-1.0033416748046875,-0.038970947265625
1686343466483147300,1.549147216796875,-0.054779052734375,-1.001800537109375,-0.0406036376953125
1686343466493167900,1.55916796875,-0.05194091796875,-1.0023345947265625,-0.0421295166015625
1686343466503187000,1.56918701171875,-0.046234130859375,-1.0029449462890625,-0.0382537841796875
1686343466513205800,1.579205810546875,-0.0353240966796875,-1.0010833740234375,-0.0362701416015625
1686343466523224800,1.589224853515625,-0.030059814453125,-1.0022430419921875,-0.0388336181640625
1686343466533245000,1.599244873046875,-0.0317535400390625,-0.99969482421875,-0.0359344482421875
1686343466543264000,1.609263916015625,-0.031005859375,-0.9996490478515625,-0.0352935791015625
1686343466553282800,1.61928271484375,-0.032928466796875,-0.9989776611328125,-0.0354461669921875
1686343466563302000,1.629302001953125,-0.0334320068359375,-0.9977264404296875,-0.0361785888671875
1686343466573321700,1.63932177734375,-0.0336151123046875,-0.9987640380859375,-0.03448486328125
1686343466583340800,1.6493408203125,-0.0306396484375,-0.9983367919921875,-0.03411865234375
1686343466593360000,1.65935986328125,-0.0264129638671875,-0.9990386962890625,-0.0363922119140625
1686343466603378700,1.669378662109375,-0.027130126953125,-1.000885009765625,-0.0349273681640625
1686343466613397800,1.679397705078125,-0.030548095703125,-1.0001220703125,-0.034515380859375
1686343466623417900,1.68941796875,-0.03338623046875,-0.998870849609375,-0.0329437255859375
1686343466633437000,1.69943701171875,-0.03314208984375,-0.996429443359375,-0.03424072265625
1686343466643455700,1.709455810546875,-0.0333404541015625,-0.9966583251953125,-0.033447265625
1686343466653474800,1.719474853515625,-0.031280517578125,-0.998260498046875,-0.03302001953125
1686343466663495000,1.729494873046875,-0.029296875,-0.99896240234375,-0.031890869140625
1686343466673514000,1.739513916015625,-0.0278778076171875,-1.0006256103515625,-0.0307769775390625
1686343466683532800,1.74953271484375,-0.022735595703125,-1.0013580322265625,-0.028472900390625
1686343466693551900,1.7595517578125,-0.024566650390625,-1.002288818359375,-0.0276641845703125
1686343466703571700,1.76957177734375,-0.0276641845703125,-1.0025482177734375,-0.0283203125
1686343466713590800,1.7795908203125,-0.0325927734375,-1.0043182373046875,-0.025604248046875
1686343466723609900,1.78960986328125,-0.0382080078125,-1.0066070556640625,-0.03094482421875
1686343466733628700,1.799628662109375,-0.043243408203125,-1.00689697265625,-0.033538818359375
1686343466743648800,1.809648681640625,-0.0418853759765625,-1.004302978515625,-0.0308990478515625
1686343466753667800,1.819667724609375,-0.0361175537109375,-1.002838134765625,-0.028961181640625
1686343466763687000,1.82968701171875,-0.0345001220703125,-1.0032958984375,-0.031494140625
1686343466773705700,1.839705810546875,-0.03619384765625,-1.001861572265625,-0.033843994140625
1686343466783725800,1.849725830078125,-0.0368194580078125,-0.9992218017578125,-0.034088134765625
1686343466793745000,1.859744873046875,-0.032806396484375,-0.9998321533203125,-0.03411865234375
1686343466803764000,1.869763916015625,-0.02532958984375,-1.000701904296875,-0.0322265625
1686343466813783000,1.879782958984375,-0.0246429443359375,-1.0002899169921875,-0.031402587890625
1686343466823801900,1.8898017578125,-0.028778076171875,-0.9995880126953125,-0.0327911376953125
1686343466833821700,1.89982177734375,-0.028472900390625,-0.99951171875,-0.032379150390625
1686343466843840800,1.9098408203125,-0.02734375,-0.9991455078125,-0.032012939453125
1686343466853859800,1.91985986328125,-0.0272216796875,-1.00018310546875,-0.0323944091796875
1686343466863878700,1.929878662109375,-0.031158447265625,-1.0000152587890625,-0.030029296875
1686343466873898800,1.939898681640625,-0.031982421875,-1.000701904296875,-0.0317535400390625
1686343466883917800,1.949917724609375,-0.0316162109375,-0.999542236328125,-0.0334930419921875
1686343466893937000,1.95993701171875,-0.0320281982421875,-0.9958648681640625,-0.0331573486328125
1686343466903956000,1.9699560546875,-0.0355377197265625,-0.9960784912109375,-0.03302001953125
1686343466913975800,1.979975830078125,-0.0341339111328125,-0.9957275390625,-0.0344085693359375
1686343466923995000,1.989994873046875,-0.027679443359375,-0.9971466064453125,-0.03466796875
1686343466934014000,2.000013916015625,-0.02349853515625,-0.9978790283203125,-0.0306854248046875
1686343466944033000,2.010032958984375,-0.01788330078125,-0.998748779296875,-0.028167724609375
1686343466954051800,2.0200517578125,-0.0179595947265625,-1.0011749267578125,-0.0285797119140625
1686343466964071700,2.03007177734375,-0.02252197265625,-1.00372314453125,-0.027252197265625
1686343466974090800,2.0400908203125,-0.0279998779296875,-1.003814697265625,-0.025909423828125
1686343466984109800,2.05010986328125,-0.0320587158203125,-1.0034027099609375,-0.0280303955078125
1686343466994129000,2.06012890625,-0.0441131591796875,-1.0013580322265625,-0.02960205078125
1686343467004148700,2.070148681640625,-0.054351806640625,-0.998931884765625,-0.0356597900390625
1686343467014167800,2.080167724609375,-0.047332763671875,-0.9987030029296875,-0.0400543212890625
1686343467024187000,2.090186767578125,-0.0390472412109375,-0.9973297119140625,-0.036895751953125
1686343467034206000,2.1002060546875,-0.0315704345703125,-0.9958038330078125,-0.03448486328125
1686343467044226000,2.11022607421875,-0.0282745361328125,-0.9957275390625,-0.0326385498046875
1686343467054244900,2.120244873046875,-0.032440185546875,-0.998565673828125,-0.03106689453125
1686343467064264000,2.130263916015625,-0.03729248046875,-1.001708984375,-0.031494140625
1686343467074283000,2.140282958984375,-0.0377044677734375,-1.005279541015625,-0.0318450927734375
1686343467084302800,2.150302734375,-0.0328521728515625,-1.0083160400390625,-0.034332275390625
1686343467094321700,2.16032177734375,-0.03460693359375,-1.008758544921875,-0.0348968505859375
1686343467104340700,2.1703408203125,-0.0377960205078125,-1.008819580078125,-0.0343475341796875
1686343467114359800,2.18035986328125,-0.0323944091796875,-1.00933837890625,-0.0364227294921875
1686343467124380000,2.1903798828125,-0.02716064453125,-1.0082244873046875,-0.0322418212890625
1686343467134399000,2.20039892578125,-0.0260772705078125,-1.005401611328125,-0.030242919921875
1686343467144417800,2.210417724609375,-0.0335693359375,-1.003204345703125,-0.0317535400390625
1686343467154436900,2.220436767578125,-0.045745849609375,-1.00042724609375,-0.033233642578125
1686343467164457000,2.23045703125,-0.0596160888671875,-0.997467041015625,-0.0360260009765625
1686343467174476000,2.24047607421875,-0.0652313232421875,-0.99615478515625,-0.0329132080078125
1686343467184494800,2.250494873046875,-0.048126220703125,-0.9986114501953125,-0.031982421875
1686343467194514000,2.260513916015625,-0.0254669189453125,-0.9988555908203125,-0.0279693603515625
1686343467204533800,2.27053369140625,-0.00665283203125,-0.99847412109375,-0.0260772705078125
1686343467214552800,2.280552734375,0.0019989013671875,-0.99945068359375,-0.0269317626953125
1686343467224572000,2.290572021484375,-0.00238037109375,-0.998687744140625,-0.02728271484375
1686343467234590700,2.3005908203125,-0.0142364501953125,-0.99798583984375,-0.02813720703125
1686343467244609800,2.31060986328125,-0.021697998046875,-0.9987945556640625,-0.03167724609375
1686343467254630000,2.3206298828125,-0.0324859619140625,-1.000946044921875,-0.0280914306640625
1686343467264649000,2.33064892578125,-0.03887939453125,-1.0031280517578125,-0.029449462890625
1686343467274667800,2.340667724609375,-0.039642333984375,-1.0030517578125,-0.0300445556640625
1686343467284686800,2.350686767578125,-0.04107666015625,-1.0029296875,-0.0292816162109375
1686343467294707000,2.36070703125,-0.0421295166015625,-1.0015106201171875,-0.028900146484375
1686343467304725800,2.370725830078125,-0.0413970947265625,-0.998199462890625,-0.024627685546875
1686343467314744800,2.380744873046875,-0.03875732421875,-0.99871826171875,-0.02587890625
1686343467324763600,2.390763671875,-0.04583740234375,-0.9990386962890625,-0.0328521728515625
1686343467334783700,2.40078369140625,-0.0458831787109375,-0.9976806640625,-0.0347747802734375
1686343467344802800,2.410802734375,-0.031341552734375,-1.0025482177734375,-0.0355377197265625
1686343467354822000,2.42082177734375,-0.0218353271484375,-1.005157470703125,-0.0313262939453125
1686343467364840700,2.4308408203125,-0.0140838623046875,-1.00799560546875,-0.0319366455078125
1686343467374860800,2.44086083984375,-0.0163421630859375,-1.0075531005859375,-0.0297088623046875
1686343467384879900,2.4508798828125,-0.0272369384765625,-1.0052337646484375,-0.0281829833984375
1686343467394899000,2.46089892578125,-0.0450897216796875,-1.001251220703125,-0.033599853515625
1686343467404917800,2.470917724609375,-0.0560760498046875,-0.9992218017578125,-0.0373077392578125
1686343467414937900,2.480937744140625,-0.0539093017578125,-0.99871826171875,-0.034515380859375
1686343467424956700,2.490956787109375,-0.0458831787109375,-0.997650146484375,-0.036041259765625
1686343467434975700,2.500975830078125,-0.0406036376953125,-0.9971466064453125,-0.03778076171875
1686343467444994800,2.510994873046875,-0.0348052978515625,-0.99786376953125,-0.0366668701171875
1686343467455015000,2.521014892578125,-0.029327392578125,-0.997894287109375,-0.0360565185546875
1686343467465033700,2.53103369140625,-0.02703857421875,-1.0009918212890625,-0.0333709716796875
1686343467475052800,2.541052734375,-0.0234832763671875,-1.0045318603515625,-0.028839111328125
1686343467485072000,2.55107177734375,-0.0199432373046875,-1.0057373046875,-0.0266265869140625
1686343467495091200,2.56109130859375,-0.0213623046875,-1.0066680908203125,-0.0298004150390625
1686343467505110300,2.5711103515625,-0.033905029296875,-1.0047760009765625,-0.0295867919921875
1686343467515129300,2.58112939453125,-0.045074462890625,-0.999481201171875,-0.0321044921875
1686343467525148200,2.591148193359375,-0.05084228515625,-0.9976806640625,-0.031890869140625
1686343467535168300,2.601168212890625,-0.0499725341796875,-0.9952239990234375,-0.034759521484375
1686343467545187300,2.611187255859375,-0.0379791259765625,-0.9959869384765625,-0.03741455078125
1686343467555206400,2.621206298828125,-0.028656005859375,-0.998870849609375,-0.032989501953125
1686343467565225500,2.6312255859375,-0.021728515625,-0.99945068359375,-0.0290374755859375
1686343467575244300,2.641244384765625,-0.02301025390625,-1.003204345703125,-0.0315704345703125
1686343467585264000,2.65126416015625,-0.037200927734375,-1.0043182373046875,-0.0330657958984375
1686343467595283200,2.661283203125,-0.04052734375,-1.002716064453125,-0.03228759765625
1686343467605302300,2.67130224609375,-0.0373382568359375,-1.003570556640625,-0.0312347412109375
1686343467615321000,2.681321044921875,-0.0302734375,-1.0016021728515625,-0.03070068359375
1686343467625341200,2.691341064453125,-0.0222320556640625,-0.9990081787109375,-0.02838134765625
1686343467635360300,2.7013603515625,-0.02545166015625,-0.9957275390625,-0.0301055908203125
1686343467645379300,2.71137939453125,-0.0382232666015625,-0.99566650390625,-0.0368804931640625
1686343467655398400,2.7213984375,-0.052886962890625,-0.9944915771484375,-0.0338592529296875
1686343467665418200,2.731418212890625,-0.0518341064453125,-0.9978790283203125,-0.0318603515625
1686343467675437300,2.741437255859375,-0.0381011962890625,-1.002471923828125,-0.0323638916015625
1686343467685456400,2.751456298828125,-0.026336669921875,-1.0064239501953125,-0.0277862548828125
1686343467695475500,2.761475341796875,-0.027130126953125,-1.0086517333984375,-0.030670166015625
1686343467705495300,2.771495361328125,-0.03619384765625,-1.0092010498046875,-0.03631591796875
1686343467715514000,2.78151416015625,-0.0494537353515625,-1.0059356689453125,-0.03839111328125
1686343467725533200,2.791533203125,-0.05596923828125,-1.0024261474609375,-0.0398712158203125
1686343467735552300,2.80155224609375,-0.050079345703125,-0.998748779296875,-0.0411529541015625
1686343467745572400,2.811572265625,-0.0383148193359375,-0.996612548828125,-0.0340423583984375
1686343467755591200,2.821591064453125,-0.025970458984375,-0.9959716796875,-0.02789306640625
1686343467765610200,2.8316103515625,-0.02276611328125,-0.99908447265625,-0.0267181396484375
1686343467775629300,2.84162939453125,-0.025970458984375,-1.0034637451171875,-0.0265655517578125
1686343467785649400,2.8516494140625,-0.0336151123046875,-1.0075225830078125,-0.02801513671875
1686343467795668500,2.86166845703125,-0.039276123046875,-1.01025390625,-0.0284271240234375
1686343467805687300,2.871687255859375,-0.0408935546875,-1.0136871337890625,-0.0290069580078125
1686343467815706400,2.881706298828125,-0.040283203125,-1.012603759765625,-0.0302276611328125
1686343467825726200,2.891726318359375,-0.040863037109375,-1.008270263671875,-0.028778076171875
1686343467835745300,2.901745361328125,-0.0385894775390625,-1.0005340576171875,-0.028411865234375
1686343467845764000,2.91176416015625,-0.0358428955078125,-0.99371337890625,-0.035980224609375
1686343467855783200,2.921783203125,-0.0347137451171875,-0.9838714599609375,-0.036865234375
1686343467865803300,2.93180322265625,-0.02630615234375,-0.978759765625,-0.041717529296875
1686343467875822300,2.941822265625,-0.0165557861328125,-0.9755859375,-0.045379638671875
1686343467885841200,2.951841064453125,-0.005767822265625,-0.973968505859375,-0.0485992431640625
1686343467895860200,2.961860107421875,0.00872802734375,-0.9764404296875,-0.0501861572265625
1686343467905880300,2.97188037109375,0.0181427001953125,-0.98101806640625,-0.0448150634765625
1686343467915899400,2.9818994140625,0.0219573974609375,-0.9843597412109375,-0.036834716796875
1686343467925918500,2.99191845703125,0.0155029296875,-0.9906768798828125,-0.0337982177734375
1686343467935937300,3.001937255859375,-0.0003509521484375,-0.9969635009765625,-0.031585693359375
1686343467945957000,3.01195703125,-0.01861572265625,-1.0030517578125,-0.02996826171875
1686343467955976200,3.02197607421875,-0.0437164306640625,-1.00628662109375,-0.0263519287109375
1686343467965995300,3.031995361328125,-0.062103271484375,-1.0111541748046875,-0.025604248046875
1686343467976014000,3.04201416015625,-0.076080322265625,-1.0142669677734375,-0.0234222412109375
1686343467986034200,3.0520341796875,-0.08514404296875,-1.01953125,-0.02154541015625
1686343467996053200,3.06205322265625,-0.088653564453125,-1.0244598388671875,-0.0222930908203125
1686343468006072300,3.072072265625,-0.0934906005859375,-1.0288543701171875,-0.0242156982421875
1686343468016091400,3.08209130859375,-0.094024658203125,-1.0329132080078125,-0.0335845947265625
1686343468026111500,3.092111572265625,-0.0948333740234375,-1.033905029296875,-0.0386505126953125
1686343468036130300,3.10213037109375,-0.0915985107421875,-1.0316162109375,-0.0445404052734375
1686343468046149400,3.1121494140625,-0.0849151611328125,-1.028106689453125,-0.046478271484375
1686343468056168200,3.122168212890625,-0.079010009765625,-1.0219268798828125,-0.0455474853515625
1686343468066188300,3.132188232421875,-0.0715179443359375,-1.014312744140625,-0.0421142578125
1686343468076207000,3.14220703125,-0.0590362548828125,-1.002960205078125,-0.036407470703125
1686343468086226200,3.15222607421875,-0.04888916015625,-0.99493408203125,-0.032989501953125
1686343468096245200,3.162245361328125,-0.038421630859375,-0.989501953125,-0.03765869140625
1686343468106265300,3.172265380859375,-0.0272369384765625,-0.9849853515625,-0.03961181640625
1686343468116284200,3.1822841796875,-0.0164031982421875,-0.983612060546875,-0.0409088134765625
1686343468126303200,3.19230322265625,-0.001983642578125,-0.9811859130859375,-0.0420989990234375
1686343468136322300,3.202322265625,0.01220703125,-0.9809112548828125,-0.0436248779296875
1686343468146342400,3.21234228515625,0.02215576171875,-0.9803009033203125,-0.0414886474609375
1686343468156361200,3.222361328125,0.0297393798828125,-0.9791717529296875,-0.0383453369140625
1686343468166380300,3.23238037109375,0.0348968505859375,-0.9763641357421875,-0.031707763671875
1686343468176399000,3.242399169921875,0.0271148681640625,-0.977203369140625,-0.0294952392578125
1686343468186419200,3.252419189453125,0.023162841796875,-0.986602783203125,-0.02880859375
1686343468196438300,3.262438232421875,0.0099945068359375,-0.968475341796875,-0.002899169921875
1686343468206457000,3.27245703125,0.006256103515625,-0.9881439208984375,-0.014801025390625
1686343468216476200,3.28247607421875,0.000152587890625,-0.9890289306640625,-0.00628662109375
1686343468226496300,3.292496337890625,0.0069732666015625,-0.99237060546875,0.0020904541015625
1686343468236515300,3.302515380859375,0.015655517578125,-0.998077392578125,0.0088958740234375
1686343468246534400,3.312534423828125,0.0265655517578125,-1.0017852783203125,0.012420654296875
1686343468256553200,3.32255322265625,0.0253143310546875,-1.0072784423828125,0.0038299560546875
1686343468266573300,3.3325732421875,0.0124359130859375,-1.005584716796875,0.003021240234375
1686343468276592000,3.342592041015625,0.001190185546875,-1.0027618408203125,-0.0095977783203125
1686343468286611200,3.352611083984375,0.00225830078125,-1.005645751953125,-0.033447265625
1686343468296630300,3.36263037109375,-0.01605224609375,-0.99981689453125,-0.0320587158203125
1686343468306650000,3.372650146484375,-0.036285400390625,-1.003448486328125,-0.0334625244140625
1686343468316669200,3.382669189453125,-0.04840087890625,-0.999420166015625,-0.04010009765625
1686343468326688300,3.392688232421875,-0.0606536865234375,-0.998992919921875,-0.0611419677734375
1686343468336707300,3.402707275390625,-0.0670928955078125,-1.01409912109375,-0.1068572998046875
1686343468346727200,3.41272705078125,-0.0780181884765625,-1.0126190185546875,-0.144378662109375
1686343468356746200,3.422746337890625,-0.0905914306640625,-1.009796142578125,-0.1599578857421875
1686343468366765300,3.432765380859375,-0.0668182373046875,-1.0124359130859375,-0.15869140625
1686343468376784400,3.442784423828125,-0.0261993408203125,-1.008270263671875,-0.144256591796875
1686343468386804200,3.45280419921875,-0.0131988525390625,-0.991668701171875,-0.1099853515625
1686343468396823000,3.462822998046875,-0.038330078125,-0.971923828125,-0.057525634765625
1686343468406842000,3.472842041015625,-0.0914459228515625,-0.9585418701171875,-0.01715087890625
1686343468416861200,3.482861083984375,-0.1432037353515625,-0.96405029296875,-0.029815673828125
1686343468426881300,3.49288134765625,-0.19927978515625,-0.969329833984375,-0.066986083984375
1686343468436900000,3.502900146484375,-0.2484283447265625,-0.9708251953125,-0.103271484375
1686343468446919200,3.512919189453125,-0.24053955078125,-0.9736175537109375,-0.1138458251953125
1686343468456938200,3.522938232421875,-0.1241912841796875,-0.9807586669921875,-0.0930633544921875
1686343468466958300,3.532958251953125,-0.069854736328125,-1.0003662109375,-0.1331329345703125
1686343468476977400,3.542977294921875,-0.0469818115234375,-0.9970245361328125,-0.17974853515625
1686343468486996200,3.552996337890625,-0.025909423828125,-0.9892578125,-0.1796722412109375
1686343468497015600,3.563015625,-0.0080718994140625,-0.988067626953125,-0.1584625244140625
1686343468507035400,3.573035400390625,0.0153045654296875,-0.9839019775390625,-0.1269073486328125
1686343468517054500,3.583054443359375,0.045806884765625,-0.9791259765625,-0.0938873291015625
1686343468527073300,3.5930732421875,0.0756683349609375,-0.9759979248046875,-0.0755615234375
1686343468537092400,3.60309228515625,0.08978271484375,-0.9778594970703125,-0.068634033203125
1686343468547112400,3.613112548828125,0.0892486572265625,-0.9804840087890625,-0.074615478515625
1686343468557131500,3.623131591796875,0.071868896484375,-0.982574462890625,-0.0888671875
1686343468567150600,3.633150634765625,0.029937744140625,-0.975341796875,-0.09478759765625
1686343468577169400,3.64316943359375,-0.015472412109375,-0.9735870361328125,-0.0952301025390625
1686343468587189500,3.653189453125,-0.03167724609375,-0.9864654541015625,-0.1085357666015625
1686343468597208600,3.66320849609375,-0.0146484375,-1.0032501220703125,-0.1394805908203125
1686343468607227600,3.6732275390625,0.0113067626953125,-1.018524169921875,-0.1717071533203125
1686343468617247500,3.68324755859375,0.0313568115234375,-1.0291748046875,-0.1963653564453125
1686343468627266300,3.693266357421875,0.034210205078125,-1.0245513916015625,-0.2036895751953125
1686343468637285400,3.703285400390625,0.03350830078125,-1.0253448486328125,-0.1997222900390625
1686343468647304400,3.713304443359375,0.0226287841796875,-1.0208282470703125,-0.20135498046875
1686343468657324500,3.723324462890625,-0.003662109375,-1.00885009765625,-0.2059478759765625
1686343468667343600,3.733343505859375,-0.0257110595703125,-1.0010528564453125,-0.203948974609375
1686343468677362400,3.743362548828125,-0.0312042236328125,-0.9888916015625,-0.18902587890625
1686343468687381500,3.753381591796875,-0.016510009765625,-0.9790496826171875,-0.1677093505859375
1686343468697401600,3.763401611328125,0.018280029296875,-0.9799041748046875,-0.1537322998046875
1686343468707420700,3.773420654296875,0.506103515625,-1.0131683349609375,-0.20220947265625
1686343468717439500,3.783439453125,0.264984130859375,-1.05682373046875,-0.172027587890625
1686343468727458600,3.79345849609375,0.0252227783203125,-1.006103515625,-0.1475982666015625
1686343468737478400,3.803478515625,0.0018310546875,-0.975128173828125,-0.209625244140625
1686343468747497500,3.81349755859375,-0.1176605224609375,-0.9945068359375,-0.1967315673828125
1686343468757516300,3.823516357421875,-0.143341064453125,-1.0037689208984375,-0.188201904296875
1686343468767535400,3.833535400390625,-0.13482666015625,-0.990966796875,-0.1895294189453125
1686343468777555500,3.843555419921875,-0.115020751953125,-0.9912109375,-0.1607208251953125
1686343468787574500,3.853574462890625,-0.0963897705078125,-0.9962158203125,-0.1556549072265625
1686343468797593600,3.863593505859375,-0.0760498046875,-0.99676513671875,-0.1705474853515625
1686343468807612400,3.8736123046875,-0.053131103515625,-0.9990081787109375,-0.1840972900390625
1686343468817632500,3.883632568359375,-0.031982421875,-0.997711181640625,-0.18353271484375
1686343468827651600,3.893651611328125,-0.0008392333984375,-0.994964599609375,-0.1759490966796875
1686343468837670700,3.903670654296875,0.02398681640625,-0.9890594482421875,-0.161407470703125
1686343468847689500,3.913689453125,0.0352935791015625,-0.9859619140625,-0.1424713134765625
1686343468857709300,3.923709228515625,0.0465087890625,-0.9839324951171875,-0.12469482421875
1686343468867728400,3.933728271484375,0.0569305419921875,-0.9825439453125,-0.1151885986328125
1686343468877747500,3.94374755859375,0.0603485107421875,-0.9837493896484375,-0.1136474609375
1686343468887767600,3.953767578125,0.0611572265625,-0.9888763427734375,-0.1192474365234375
1686343468897786600,3.96378662109375,0.063262939453125,-0.991241455078125,-0.1299896240234375
1686343468907805400,3.973805419921875,0.059722900390625,-0.992584228515625,-0.137939453125
1686343468917824500,3.983824462890625,0.0533599853515625,-0.99310302734375,-0.1431884765625
1686343468927844600,3.9938447265625,0.0507354736328125,-0.9896240234375,-0.1440277099609375
1686343468937863700,4.00386376953125,0.05084228515625,-0.9857940673828125,-0.1406402587890625
1686343468947882500,4.013882568359375,0.053619384765625,-0.9803314208984375,-0.133636474609375
1686343468957901600,4.023901611328125,0.054779052734375,-0.9784698486328125,-0.1268463134765625
1686343468967921400,4.03392138671875,0.0572052001953125,-0.977203369140625,-0.1224365234375
1686343468977940500,4.0439404296875,0.06341552734375,-0.97894287109375,-0.1186981201171875
1686343468987959300,4.053959228515625,0.06732177734375,-0.98248291015625,-0.123199462890625
1686343468997978400,4.063978271484375,0.070068359375,-0.9888153076171875,-0.1340179443359375
1686343469007998500,4.07399853515625,0.0732269287109375,-0.995513916015625,-0.1426239013671875
1686343469018017500,4.084017578125,0.0706329345703125,-0.9957122802734375,-0.152679443359375
1686343469028036600,4.09403662109375,0.061126708984375,-0.9939117431640625,-0.1549530029296875
1686343469038055400,4.104055419921875,0.047882080078125,-0.994873046875,-0.1538238525390625
1686343469048075500,4.114075439453125,0.0364837646484375,-0.9940185546875,-0.153564453125
1686343469058094600,4.124094482421875,0.03082275390625,-0.9927825927734375,-0.15142822265625
1686343469068113700,4.13411376953125,0.0286865234375,-0.9939422607421875,-0.146514892578125
1686343469078133500,4.144133544921875,0.0325775146484375,-0.9961395263671875,-0.1479949951171875
1686343469088152300,4.15415234375,0.03741455078125,-0.997283935546875,-0.14642333984375
1686343469098171400,4.16417138671875,0.0391387939453125,-0.9992828369140625,-0.1397552490234375
1686343469108190500,4.1741904296875,0.034423828125,-1.0014801025390625,-0.1396484375
1686343469118210600,4.18421044921875,0.0330047607421875,-1.004119873046875,-0.1483154296875
1686343469128229600,4.194229736328125,0.0351409912109375,-1.0068359375,-0.1593170166015625
1686343469138248400,4.20424853515625,0.039215087890625,-1.0088348388671875,-0.1673736572265625
1686343469148267500,4.214267578125,0.041717529296875,-1.0069427490234375,-0.169921875
1686343469158287600,4.22428759765625,0.0399017333984375,-1.0064849853515625,-0.1685943603515625
1686343469168306700,4.234306640625,0.03680419921875,-1.007720947265625,-0.16461181640625
1686343469178325500,4.244325439453125,0.033538818359375,-1.0053253173828125,-0.1613922119140625
1686343469188344600,4.254344482421875,0.033843994140625,-1.000457763671875,-0.1520843505859375
1686343469198364400,4.264364501953125,0.03643798828125,-1.0019989013671875,-0.140838623046875
1686343469208383500,4.274383544921875,0.0413055419921875,-1.00958251953125,-0.13720703125
1686343469218402300,4.28440234375,0.0515289306640625,-1.0086517333984375,-0.1389312744140625
1686343469228421400,4.29442138671875,0.053375244140625,-1.0048828125,-0.1389007568359375
1686343469238441500,4.30444140625,0.047119140625,-1.0078887939453125,-0.1398162841796875
1686343469248460500,4.31446044921875,0.0466766357421875,-1.0058441162109375,-0.14208984375
1686343469258479600,4.324479736328125,0.0465545654296875,-1.000091552734375,-0.136871337890625
1686343469268499700,4.334499755859375,0.0877838134765625,-0.9871368408203125,-0.1442718505859375
1686343469278518500,4.3445185546875,0.143035888671875,-0.999237060546875,-0.13275146484375
1686343469288537600,4.35453759765625,0.05963134765625,-1.02313232421875,-0.09967041015625
1686343469298556700,4.364556640625,0.0545806884765625,-0.9923858642578125,-0.12261962890625
1686343469308576500,4.374576416015625,0.0537109375,-0.9825592041015625,-0.0864105224609375
1686343469318595300,4.38459521484375,0.027801513671875,-0.9772796630859375,-0.0399169921875
1686343469328614400,4.394614501953125,0.0069732666015625,-0.9792022705078125,-0.0126495361328125
1686343469338633500,4.404633544921875,0.0041961669921875,-0.9929046630859375,-0.0283355712890625
1686343469348653600,4.414653564453125,-0.003082275390625,-0.9985809326171875,-0.0518646240234375
1686343469358672600,4.424672607421875,-0.01959228515625,-1.0002899169921875,-0.067596435546875
1686343469368691500,4.43469140625,-0.0613250732421875,-0.996490478515625,-0.0730438232421875
1686343469378711600,4.444711669921875,-0.1103668212890625,-0.98565673828125,-0.0851287841796875
1686343469388730600,4.454730712890625,-0.141876220703125,-1.016204833984375,-0.0742645263671875
1686343469398749700,4.464749755859375,-0.164459228515625,-0.99176025390625,-0.095916748046875
1686343469408768500,4.4747685546875,-0.1894378662109375,-0.9852142333984375,-0.1003570556640625
1686343469418788400,4.484788330078125,-0.19610595703125,-0.9996185302734375,-0.0805206298828125
1686343469428807400,4.494807373046875,-0.183319091796875,-0.9965057373046875,-0.0702362060546875
1686343469438826500,4.504826416015625,-0.1611175537109375,-0.9900665283203125,-0.0556488037109375
1686343469448845300,4.51484521484375,-0.1336822509765625,-0.98797607421875,-0.036529541015625
1686343469458865400,4.524865478515625,-0.098785400390625,-0.9858551025390625,-0.031646728515625
1686343469468884500,4.534884521484375,-0.0704345703125,-0.98175048828125,-0.024200439453125
1686343469478903600,4.544903564453125,-0.045135498046875,-0.977325439453125,-0.00567626953125
1686343469488923600,4.554923583984375,-0.02484130859375,-0.9808502197265625,0.0017242431640625
1686343469498942000,4.56494189453125,-0.030242919921875,-0.9832305908203125,-0.002197265625
1686343469508960800,4.574960693359375,-0.0388946533203125,-0.977081298828125,-0.0111541748046875
1686343469518979800,4.584979736328125,-0.049468994140625,-0.98223876953125,0.002044677734375
1686343469528999700,4.594999755859375,-0.0711212158203125,-0.9783782958984375,0.0094451904296875
1686343469539018800,4.605018798828125,-0.1019439697265625,-0.9726104736328125,0.000823974609375
1686343469549037800,4.615037841796875,-0.121856689453125,-0.97943115234375,-0.0040435791015625
1686343469559056600,4.625056640625,-0.1209716796875,-0.9784393310546875,-0.0092620849609375
1686343469569076700,4.63507666015625,-0.1057586669921875,-0.9881591796875,-0.0081939697265625
1686343469579095800,4.645095703125,-0.0755462646484375,-0.990631103515625,-0.0082244873046875
1686343469589115000,4.655114990234375,-0.0476226806640625,-0.9894866943359375,0.00018310546875
1686343469599133700,4.6651337890625,-0.0342864990234375,-0.99066162109375,0.0020751953125
1686343469609153800,4.67515380859375,-0.0378875732421875,-0.9937744140625,-0.0159759521484375
1686343469619172900,4.6851728515625,-0.0556793212890625,-0.9943389892578125,-0.03131103515625
1686343469629192000,4.69519189453125,-0.0686798095703125,-0.9918060302734375,-0.03350830078125
1686343469639211800,4.705211669921875,-0.084442138671875,-0.9916229248046875,-0.0291748046875
1686343469649230600,4.715230712890625,-0.108123779296875,-0.9871368408203125,-0.01934814453125
1686343469659249700,4.725249755859375,-0.1221771240234375,-0.987701416015625,-0.0172119140625
1686343469669268700,4.735268798828125,-0.1177520751953125,-0.985809326171875,-0.021942138671875
1686343469679288800,4.745288818359375,-0.113861083984375,-0.9893035888671875,-0.0192413330078125
1686343469689308000,4.755307861328125,-0.114776611328125,-0.991302490234375,-0.003509521484375
1686343469699326700,4.76532666015625,-0.087921142578125,-0.9949951171875,0.01123046875
1686343469709346800,4.775346923828125,-0.077178955078125,-0.9896087646484375,0.0026092529296875
1686343469719366000,4.785365966796875,-0.0850677490234375,-1.0004425048828125,-0.042327880859375
1686343469729385000,4.795385009765625,-0.101806640625,-0.990936279296875,-0.0314178466796875
1686343469739403800,4.80540380859375,-0.1285247802734375,-0.9818267822265625,0.0112152099609375
1686343469749423600,4.815423583984375,-0.134490966796875,-0.9893798828125,-0.0030517578125
1686343469759442700,4.825442626953125,-0.1498260498046875,-0.9996185302734375,-0.01324462890625
1686343469769461800,4.835461669921875,-0.1488800048828125,-1.0022125244140625,-0.020172119140625
1686343469779480800,4.845480712890625,-0.136383056640625,-0.99945068359375,-0.0256500244140625
1686343469789501000,4.8555009765625,-0.1323089599609375,-1.0063323974609375,-0.0278167724609375
1686343469799519700,4.865519775390625,-0.105560302734375,-1.0075531005859375,-0.025421142578125
1686343469809538800,4.875538818359375,-0.0712890625,-1.002105712890625,-0.0186920166015625
1686343469819559000,4.885558837890625,-0.0647735595703125,-1.009735107421875,-0.014129638671875
1686343469829578000,4.895577880859375,-0.06207275390625,-1.015045166015625,-0.0129241943359375
1686343469839596800,4.9055966796875,-0.0630035400390625,-1.00665283203125,-0.028533935546875
1686343469849616000,4.915615966796875,-0.1073455810546875,-0.99786376953125,-0.03509521484375
1686343469859635700,4.9256357421875,-0.1587371826171875,-0.9904022216796875,-0.0127410888671875
1686343469869654800,4.93565478515625,-0.1595306396484375,-0.9833526611328125,-0.0249481201171875
1686343469879673600,4.945673583984375,-0.1342010498046875,-0.988861083984375,-0.03863525390625
1686343469889692700,4.955692626953125,-0.09808349609375,-0.9985198974609375,-0.0338134765625
1686343469899712800,4.965712646484375,-0.06341552734375,-1.0018310546875,-0.033111572265625
1686343469909731800,4.97573193359375,-0.0525665283203125,-1.0027618408203125,-0.023681640625
1686343469919751000,4.9857509765625,-0.0475006103515625,-1.0091400146484375,-0.0150604248046875
1686343469929771000,4.99577099609375,-0.0352020263671875,-1.015106201171875,-0.0331268310546875
1686343469939789800,5.005789794921875,-0.058441162109375,-0.99591064453125,-0.0297698974609375
1686343469949809000,5.015808837890625,-0.1038665771484375,-0.9922943115234375,-0.0214385986328125
1686343469959828000,5.025827880859375,-0.1239776611328125,-0.99462890625,-0.0361175537109375
1686343469969847800,5.035847900390625,-0.121612548828125,-0.9936370849609375,-0.039703369140625
1686343469979866600,5.04586669921875,-0.1136627197265625,-0.991546630859375,-0.036956787109375
1686343469989885700,5.0558857421875,-0.109039306640625,-0.99407958984375,-0.0308837890625
1686343469999904800,5.06590478515625,-0.087799072265625,-1,-0.03106689453125
1686343470009924900,5.0759248046875,-0.076690673828125,-0.9958953857421875,-0.0312652587890625
1686343470019943700,5.085943603515625,-0.0771331787109375,-1.0003509521484375,-0.0227813720703125
1686343470029962800,5.095962646484375,-0.0806427001953125,-0.99957275390625,-0.0275726318359375
1686343470039982800,5.10598291015625,-0.1016387939453125,-0.9940185546875,-0.0395355224609375
1686343470050002000,5.116001953125,-0.1359710693359375,-0.9840240478515625,-0.0432586669921875
1686343470060021000,5.12602099609375,-0.1612701416015625,-0.9989166259765625,-0.02886962890625
1686343470070039800,5.136039794921875,-0.1543121337890625,-1.0016326904296875,-0.0426025390625
1686343470080059600,5.1460595703125,-0.1378936767578125,-1.0023956298828125,-0.0511474609375
1686343470090078700,5.15607861328125,-0.1296539306640625,-1.004180908203125,-0.0373687744140625
1686343470100097800,5.166097900390625,-0.12237548828125,-0.99835205078125,-0.0343780517578125
1686343470110118000,5.176117919921875,-0.1178436279296875,-0.99432373046875,-0.0311737060546875
1686343470120136700,5.18613671875,-0.119964599609375,-0.990386962890625,-0.0243072509765625
1686343470130155800,5.19615576171875,-0.1194305419921875,-0.987060546875,-0.0188446044921875
1686343470140174800,5.2061748046875,-0.1059417724609375,-0.98724365234375,-0.0167236328125
1686343470150195000,5.21619482421875,-0.085540771484375,-0.9889984130859375,-0.012054443359375
1686343470160214000,5.226214111328125,-0.0672607421875,-0.9908447265625,-0.01202392578125
1686343470170232800,5.23623291015625,-0.0625762939453125,-0.995697021484375,-0.01788330078125
1686343470180252700,5.246252685546875,-0.0684051513671875,-0.9977874755859375,-0.0306549072265625
1686343470190271700,5.256271728515625,-0.0839385986328125,-0.995452880859375,-0.0344390869140625
1686343470200290800,5.266290771484375,-0.0995941162109375,-0.9965667724609375,-0.0375823974609375
1686343470210309600,5.2763095703125,-0.1152801513671875,-0.994384765625,-0.0368804931640625
1686343470220329700,5.286329833984375,-0.1290435791015625,-0.9923248291015625,-0.0367431640625
1686343470230348800,5.296348876953125,-0.1350860595703125,-0.994659423828125,-0.0368194580078125
1686343470240367900,5.306367919921875,-0.1383514404296875,-0.9950714111328125,-0.034881591796875
1686343470250386700,5.31638671875,-0.1370849609375,-0.9957733154296875,-0.03314208984375
1686343470260406800,5.32640673828125,-0.1385040283203125,-0.9957427978515625,-0.0242462158203125
1686343470270425900,5.33642578125,-0.146240234375,-0.99603271484375,-0.0220489501953125
1686343470280445000,5.34644482421875,-0.152618408203125,-0.9919281005859375,-0.0287628173828125
1686343470290464800,5.35646484375,-0.1546783447265625,-0.987640380859375,-0.03125
1686343470300483800,5.36648388671875,-0.1485443115234375,-0.9923553466796875,-0.0297088623046875
1686343470310502700,5.376502685546875,-0.130767822265625,-0.993377685546875,-0.03363037109375
1686343470320522800,5.386522705078125,-0.1137237548828125,-0.9942474365234375,-0.0282745361328125
1686343470330541800,5.396541748046875,-0.1011505126953125,-0.9938507080078125,-0.0246124267578125
1686343470340561000,5.406560791015625,-0.0870513916015625,-0.994537353515625,-0.0223236083984375
1686343470350579700,5.416579833984375,-0.07952880859375,-0.99609375,-0.0233001708984375
1686343470360599800,5.426599853515625,-0.085693359375,-0.9957122802734375,-0.030975341796875
1686343470370619000,5.436618896484375,-0.1068115234375,-0.99652099609375,-0.0442047119140625
1686343470380638000,5.446637939453125,-0.123779296875,-0.9980316162109375,-0.0450286865234375
1686343470390657000,5.456656982421875,-0.1312103271484375,-0.99542236328125,-0.0407257080078125
1686343470400676600,5.466676513671875,-0.12359619140625,-0.994903564453125,-0.0401763916015625
1686343470410695700,5.47669580078125,-0.113555908203125,-0.9961395263671875,-0.0400390625
1686343470420714800,5.48671484375,-0.1009063720703125,-0.9974517822265625,-0.036102294921875
1686343470430734800,5.49673486328125,-0.0731964111328125,-0.999176025390625,-0.0287628173828125
1686343470440754000,5.50675390625,-0.050201416015625,-0.995269775390625,-0.02239990234375
1686343470450772700,5.516772705078125,-0.030303955078125,-0.9963531494140625,-0.021148681640625
1686343470460791800,5.526791748046875,-0.014678955078125,-0.9976806640625,-0.02691650390625
1686343470470812000,5.53681201171875,-0.014007568359375,-0.997314453125,-0.035858154296875
1686343470480831000,5.5468310546875,-0.0283966064453125,-0.997222900390625,-0.04791259765625
1686343470490849800,5.556849853515625,-0.0526275634765625,-0.9984130859375,-0.0572509765625
1686343470500871000,5.566870849609375,-0.07171630859375,-1.0006561279296875,-0.0567474365234375
1686343470510889700,5.5768896484375,-0.08404541015625,-0.998382568359375,-0.055572509765625
1686343470520908800,5.58690869140625,-0.087188720703125,-0.9947662353515625,-0.0579833984375
1686343470530927900,5.596927978515625,-0.0931243896484375,-0.9951019287109375,-0.0499420166015625
1686343470540948000,5.606947998046875,-0.08660888671875,-0.9924468994140625,-0.053680419921875
1686343470550966800,5.616966796875,-0.073822021484375,-0.990509033203125,-0.055450439453125
1686343470560985900,5.62698583984375,-0.0648193359375,-0.988189697265625,-0.0537261962890625
1686343470571005700,5.637005615234375,-0.0653076171875,-0.992584228515625,-0.046844482421875
1686343470581024800,5.647024658203125,-0.0889892578125,-0.99835205078125,-0.0533447265625
1686343470591043800,5.6570439453125,-0.0757904052734375,-0.9954376220703125,-0.011474609375
1686343470601063700,5.667063720703125,-0.062774658203125,-0.9976806640625,-0.055328369140625
1686343470611082800,5.677082763671875,-0.06072998046875,-1.0040130615234375,-0.02392578125
1686343470621101800,5.687101806640625,-0.0537567138671875,-1.0047454833984375,-0.0278167724609375
1686343470631121000,5.697120849609375,-0.0522308349609375,-1.009307861328125,-0.0240936279296875
1686343470641141000,5.70714111328125,-0.0561676025390625,-1.0096282958984375,-0.022186279296875
1686343470651159800,5.717159912109375,-0.0615692138671875,-1.007293701171875,-0.030059814453125
1686343470661179000,5.727178955078125,-0.0628204345703125,-1.00286865234375,-0.03851318359375
1686343470671198700,5.73719873046875,-0.0646514892578125,-0.998931884765625,-0.0364532470703125
1686343470681217800,5.7472177734375,-0.07318115234375,-0.9974822998046875,-0.041107177734375
1686343470691236600,5.757236572265625,-0.076019287109375,-0.996063232421875,-0.0418853759765625
1686343470701255700,5.767255615234375,-0.0755615234375,-0.9981842041015625,-0.043701171875
1686343470711275800,5.77727587890625,-0.07958984375,-0.9975738525390625,-0.0514068603515625
1686343470721294800,5.787294921875,-0.0773773193359375,-1.000030517578125,-0.049346923828125
1686343470731314000,5.79731396484375,-0.06793212890625,-1.001312255859375,-0.03369140625
1686343470741333800,5.807333740234375,-0.0568695068359375,-1.00347900390625,-0.0077056884765625
1686343470751352800,5.817352783203125,-0.0519561767578125,-1.0011138916015625,-0.0285186767578125
1686343470761372000,5.827371826171875,-0.058563232421875,-0.997528076171875,-0.050872802734375
1686343470771391000,5.837390869140625,-0.067047119140625,-0.9995574951171875,-0.0536346435546875
1686343470781410800,5.847410888671875,-0.0629425048828125,-1.001068115234375,-0.0528717041015625
1686343470791429600,5.8574296875,-0.0452728271484375,-1.002899169921875,-0.03680419921875
1686343470801448700,5.86744873046875,-0.0261077880859375,-1.0002593994140625,-0.029083251953125
1686343470811468800,5.87746875,-0.0253448486328125,-1.00274658203125,-0.03497314453125
1686343470821487900,5.88748779296875,-0.03106689453125,-1.001922607421875,-0.0446624755859375
1686343470831506700,5.897506591796875,-0.02655029296875,-0.9978790283203125,-0.0453643798828125
1686343470841525800,5.90752587890625,-0.028167724609375,-0.9999847412109375,-0.0389862060546875
1686343470851545900,5.9175458984375,-0.0269622802734375,-1.0001678466796875,-0.0343780517578125
1686343470861565000,5.92756494140625,-0.0249176025390625,-1.0019989013671875,-0.0293426513671875
1686343470871584000,5.937583984375,-0.029266357421875,-1.0030059814453125,-0.030242919921875
1686343470881603800,5.947603759765625,-0.035430908203125,-1.001617431640625,-0.0308685302734375
1686343470891622700,5.95762255859375,-0.0469970703125,-1.006561279296875,-0.0339813232421875
1686343470901641700,5.967641845703125,-0.0515899658203125,-1.003143310546875,-0.0361175537109375
1686343470911661800,5.977661865234375,-0.0544586181640625,-1.0039215087890625,-0.045074462890625
1686343470921681000,5.987680908203125,-0.0634918212890625,-1.00689697265625,-0.051177978515625
1686343470931699700,5.99769970703125,-0.0684967041015625,-1.0068359375,-0.056976318359375
1686343470941718800,6.00771875,-0.055419921875,-1.015045166015625,-0.0572052001953125
1686343470951739000,6.01773876953125,-0.0350494384765625,-1.0140838623046875,-0.0524139404296875
1686343470961758000,6.027758056640625,-0.02532958984375,-1.0122528076171875,-0.043426513671875
1686343470971776800,6.03777685546875,-0.037384033203125,-1.0181884765625,-0.0289459228515625
1686343470981796900,6.047796875,-0.0543670654296875,-1.0045623779296875,-0.0184783935546875
1686343470991815700,6.057815673828125,-0.0578155517578125,-0.99957275390625,-0.011993408203125
1686343471001834800,6.067834716796875,-0.0468597412109375,-0.9997711181640625,-0.0090179443359375
1686343471011853800,6.077853759765625,-0.0361175537109375,-0.99822998046875,-0.018035888671875
1686343471021874000,6.0878740234375,-0.025299072265625,-0.999114990234375,-0.0296783447265625
1686343471031892700,6.097892822265625,-0.0191192626953125,-0.999298095703125,-0.0301666259765625
1686343471041911800,6.107911865234375,-0.007293701171875,-0.99932861328125,-0.0292816162109375
1686343471051932000,6.117931884765625,0.0016937255859375,-0.9993133544921875,-0.0225677490234375
1686343471061951000,6.127950927734375,0.00537109375,-0.999359130859375,-0.01617431640625
1686343471071969800,6.1379697265625,0.0040435791015625,-1.0019989013671875,-0.01708984375
1686343471081990000,6.147989990234375,-0.0000762939453125,-0.998748779296875,-0.0235748291015625
1686343471092008700,6.1580087890625,-0.01300048828125,-0.998748779296875,-0.026031494140625
1686343471102027800,6.16802783203125,-0.0255584716796875,-0.9954071044921875,-0.0343170166015625
1686343471112046600,6.178046630859375,-0.02349853515625,-0.993072509765625,-0.0443572998046875
1686343471122066700,6.188066650390625,-0.0121002197265625,-0.9928131103515625,-0.051910400390625
1686343471132085800,6.198085693359375,0.003204345703125,-1.0026092529296875,-0.0441436767578125
1686343471142104800,6.208104736328125,0.019622802734375,-0.997711181640625,-0.0230712890625
1686343471152125000,6.218125,0.020416259765625,-1.00177001953125,-0.0118255615234375
1686343471162144000,6.22814404296875,0.0083465576171875,-1.0096588134765625,-0.0172882080078125
1686343471172162800,6.238162841796875,-0.0103607177734375,-1.0148468017578125,-0.02227783203125
1686343471182183000,6.248182861328125,-0.0195465087890625,-1.0088653564453125,-0.0230560302734375
1686343471192201700,6.25820166015625,-0.0254364013671875,-0.99896240234375,-0.0222320556640625
1686343471202220800,6.268220703125,-0.0303497314453125,-0.9975433349609375,-0.0320892333984375
1686343471212239600,6.278239501953125,-0.02227783203125,-0.9971466064453125,-0.0477294921875
1686343471222259700,6.288259765625,-0.0052947998046875,-0.9926300048828125,-0.0399169921875
1686343471232278800,6.29827880859375,0.0034637451171875,-0.9866790771484375,-0.023101806640625
1686343471242297900,6.3082978515625,0.001190185546875,-0.9869384765625,-0.0236968994140625
1686343471252318000,6.31831787109375,-0.003509521484375,-0.99237060546875,-0.033294677734375
1686343471262336800,6.328336669921875,0.001708984375,-0.9988555908203125,-0.0401763916015625
1686343471272355800,6.33835595703125,0.0107269287109375,-1.0035858154296875,-0.043304443359375
1686343471282375000,6.348375,0.0099334716796875,-1.004791259765625,-0.04547119140625
1686343471292394800,6.358394775390625,-0.0032806396484375,-1.00701904296875,-0.0433349609375
1686343471302413800,6.368413818359375,-0.0199127197265625,-1.0054168701171875,-0.03887939453125
1686343471312432600,6.3784326171875,-0.0241546630859375,-1.00042724609375,-0.041229248046875
1686343471322452700,6.38845263671875,-0.02880859375,-0.9990997314453125,-0.0506744384765625
1686343471332471800,6.398471923828125,-0.03662109375,-1.0000457763671875,-0.0443115234375
1686343471342491000,6.408490966796875,-0.03759765625,-1.001068115234375,-0.045928955078125
1686343471352511000,6.418510986328125,-0.0373077392578125,-1.0039825439453125,-0.0442047119140625
1686343471362529800,6.42852978515625,-0.0401611328125,-1.002838134765625,-0.04071044921875
1686343471372548900,6.438548828125,-0.0373382568359375,-1.0001373291015625,-0.0438079833984375
1686343471382568000,6.44856787109375,-0.030487060546875,-0.9994964599609375,-0.03839111328125
1686343471392587800,6.458587890625,-0.0245208740234375,-0.9972686767578125,-0.0340728759765625
1686343471402606800,6.46860693359375,-0.0249786376953125,-0.9908447265625,-0.0388641357421875
1686343471412625700,6.478625732421875,-0.0182342529296875,-1.0003509521484375,-0.031036376953125
1686343471422645800,6.488645751953125,-0.016326904296875,-1.0052337646484375,-0.0209197998046875
1686343471432664800,6.498664794921875,-0.0118560791015625,-0.9937286376953125,-0.05224609375
1686343471442684000,6.508683837890625,-0.0012054443359375,-0.99237060546875,-0.0627288818359375
1686343471452703700,6.518703857421875,0.0159454345703125,-0.9999847412109375,-0.06182861328125
1686343471462722800,6.528722900390625,0.021087646484375,-1.0020294189453125,-0.0421295166015625
1686343471472742000,6.538741943359375,0.02349853515625,-1.0008087158203125,-0.0317840576171875
1686343471482761000,6.548760986328125,0.028717041015625,-0.9994659423828125,-0.041778564453125
1686343471492780800,6.55878076171875,0.03240966796875,-1.001922607421875,-0.04290771484375
1686343471502799000,6.568799072265625,0.0273895263671875,-1.000152587890625,-0.0450439453125
1686343471512818000,6.57881787109375,0.014129638671875,-1.0047454833984375,-0.033050537109375
1686343471522837800,6.588837646484375,0.0014495849609375,-1.0002593994140625,-0.03887939453125
1686343471532856800,6.59885693359375,-0.001434326171875,-1.0009613037109375,-0.0416259765625
1686343471542876000,6.6088759765625,-0.004058837890625,-0.9995269775390625,-0.036590576171875
1686343471552896000,6.61889599609375,0.0012969970703125,-0.99920654296875,-0.0369110107421875
1686343471562914800,6.628914794921875,0.0039825439453125,-1.0014801025390625,-0.0368804931640625
1686343471572934000,6.638933837890625,0.00518798828125,-1.001068115234375,-0.0368194580078125
1686343471582953000,6.648952880859375,0.0049285888671875,-1.003265380859375,-0.03863525390625
1686343471592973000,6.65897314453125,0.002838134765625,-1.001312255859375,-0.0380706787109375
1686343471602992000,6.6689921875,0.0026397705078125,-1.0026702880859375,-0.0439453125
1686343471613011000,6.679010986328125,0.00750732421875,-1.0047760009765625,-0.0415191650390625
1686343471623030800,6.68903076171875,0.0185394287109375,-1.0021820068359375,-0.0385894775390625
1686343471633049900,6.6990498046875,0.0270843505859375,-1.0039825439453125,-0.036956787109375
1686343471643069000,6.70906884765625,0.0256500244140625,-1.0023040771484375,-0.03656005859375
1686343471653089000,6.719089111328125,0.0238800048828125,-1.0009918212890625,-0.0367431640625
1686343471663107800,6.72910791015625,0.012451171875,-0.998382568359375,-0.039825439453125
1686343471673127000,6.739126953125,-0.0014495849609375,-0.9960784912109375,-0.042327880859375
1686343471683146000,6.74914599609375,-0.0103607177734375,-0.994415283203125,-0.0422515869140625
1686343471693166000,6.759166015625,-0.016357421875,-0.9936676025390625,-0.0409393310546875
1686343471703185000,6.769184814453125,-0.0189666748046875,-0.99505615234375,-0.0456085205078125
1686343471713204000,6.779203857421875,-0.016998291015625,-0.9967803955078125,-0.049774169921875
1686343471723223800,6.789223876953125,-0.01177978515625,-1.0023345947265625,-0.0474853515625
1686343471733243000,6.799242919921875,-0.0133056640625,-1.00213623046875,-0.041748046875
1686343471743262000,6.809261962890625,-0.007843017578125,-1.000823974609375,-0.0328521728515625
1686343471753282000,6.819281982421875,0.008453369140625,-1.011016845703125,-0.0265960693359375
1686343471763300900,6.82930078125,0.010833740234375,-1.0117340087890625,-0.0228118896484375
1686343471773320000,6.83931982421875,-0.0098876953125,-1.0102691650390625,-0.0272369384765625
1686343471783339000,6.849339111328125,-0.0225067138671875,-1.00811767578125,-0.03936767578125
1686343471793359000,6.859359130859375,-0.0158843994140625,-1.006805419921875,-0.0381011962890625
1686343471803378000,6.8693779296875,-0.0028839111328125,-1.0025177001953125,-0.0378875732421875
1686343471813397000,6.87939697265625,-0.000152587890625,-0.9983978271484375,-0.0431365966796875
1686343471823416800,6.889416748046875,0.0078277587890625,-0.998870849609375,-0.0499725341796875
1686343471833436000,6.899435791015625,0.0176239013671875,-0.9967041015625,-0.0475921630859375
1686343471843455000,6.909455078125,0.0193634033203125,-0.9968414306640625,-0.041290283203125
1686343471853474800,6.919474853515625,0.022216796875,-0.9969482421875,-0.035491943359375
1686343471863494000,6.929493896484375,0.0271148681640625,-0.997894287109375,-0.0293121337890625
1686343471873513000,6.939512939453125,0.0230255126953125,-0.9985504150390625,-0.0383453369140625
1686343471883532000,6.949531982421875,0.0075225830078125,-0.9986419677734375,-0.0482940673828125
1686343471893552000,6.95955224609375,-0.010009765625,-0.9979705810546875,-0.0532073974609375
1686343471903571000,6.969571044921875,-0.01629638671875,-0.994873046875,-0.048187255859375
1686343471913590000,6.979590087890625,-0.019989013671875,-0.99609375,-0.041015625
1686343471923609900,6.98960986328125,-0.01751708984375,-0.9993438720703125,-0.0382080078125
1686343471933629000,6.99962890625,-0.012237548828125,-0.999725341796875,-0.039398193359375
1686343471943647700,7.009647705078125,-0.006561279296875,-1.0016326904296875,-0.0415191650390625
1686343471953667800,7.019667724609375,-0.0066986083984375,-1.0030059814453125,-0.0432891845703125
1686343471963687000,7.02968701171875,-0.0138397216796875,-1.0038299560546875,-0.045806884765625
1686343471973706000,7.0397060546875,-0.0216064453125,-1.004058837890625,-0.04962158203125
1686343471983725000,7.04972509765625,-0.0252227783203125,-1.0070037841796875,-0.046630859375
1686343471993745000,7.059744873046875,-0.0253753662109375,-1.0076141357421875,-0.047943115234375
1686343472003764000,7.069763916015625,-0.0314788818359375,-1.00494384765625,-0.046478271484375
1686343472013783000,7.079782958984375,-0.0366363525390625,-1.002349853515625,-0.0395355224609375
1686343472023803000,7.089802978515625,-0.0276947021484375,-1.0042572021484375,-0.0465545654296875
1686343472033822000,7.099822021484375,-0.0241241455078125,-1.0026092529296875,-0.03955078125
1686343472043840800,7.1098408203125,-0.02423095703125,-1.00128173828125,-0.0352630615234375
1686343472053859800,7.11985986328125,-0.015228271484375,-1.0001678466796875,-0.0437774658203125
1686343472063880000,7.1298798828125,-0.005126953125,-1.001190185546875,-0.0395660400390625
1686343472073899000,7.13989892578125,0.001190185546875,-1.001007080078125,-0.044830322265625
1686343472083917800,7.149917724609375,0.0023956298828125,-0.9998779296875,-0.0467071533203125
1686343472093938000,7.15993798828125,-0.0012054443359375,-0.998291015625,-0.04534912109375
1686343472103957000,7.16995703125,-0.0092010498046875,-0.9949188232421875,-0.0475006103515625
1686343472113976000,7.17997607421875,-0.0106201171875,-0.995452880859375,-0.0464324951171875
1686343472123996000,7.189995849609375,-0.0061187744140625,-0.9958343505859375,-0.0404205322265625
1686343472134014700,7.2000146484375,-0.00244140625,-0.9953155517578125,-0.0359649658203125
1686343472144033800,7.21003369140625,-0.001434326171875,-0.996734619140625,-0.0362396240234375
1686343472154052900,7.220052978515625,0.0031585693359375,-1.0025177001953125,-0.0380706787109375
1686343472164073000,7.230072998046875,0.0056915283203125,-1.003753662109375,-0.0385284423828125
1686343472174092000,7.240092041015625,-0.0029296875,-1.00421142578125,-0.0460052490234375
1686343472184110800,7.25011083984375,-0.0115814208984375,-1.0051727294921875,-0.045654296875
1686343472194131000,7.260130859375,-0.01727294921875,-1.0035247802734375,-0.042266845703125
1686343472204150000,7.27014990234375,-0.0147247314453125,-1.00640869140625,-0.0474090576171875
1686343472214169000,7.280169189453125,-0.0135650634765625,-1.0074310302734375,-0.0434112548828125
1686343472224188000,7.29018798828125,-0.021575927734375,-1.00238037109375,-0.0401153564453125
1686343472234207700,7.300207763671875,-0.0287628173828125,-1.0008392333984375,-0.04205322265625
1686343472244226800,7.310226806640625,-0.029510498046875,-1.000885009765625,-0.0438995361328125
1686343472254246000,7.320245849609375,-0.0294647216796875,-0.9985198974609375,-0.0441131591796875
1686343472264266000,7.330265869140625,-0.02655029296875,-0.9994659423828125,-0.0436553955078125
1686343472274284800,7.340284912109375,-0.025421142578125,-1.0006866455078125,-0.0413360595703125
1686343472284304000,7.350303955078125,-0.0243072509765625,-1,-0.035888671875
1686343472294323000,7.360322998046875,-0.0253753662109375,-0.9996185302734375,-0.0366058349609375
1686343472304343000,7.370343017578125,-0.02252197265625,-0.998565673828125,-0.0395965576171875
1686343472314362000,7.380362060546875,-0.020843505859375,-0.997772216796875,-0.0403289794921875
1686343472324381000,7.390380859375,-0.0172271728515625,-0.998687744140625,-0.0436553955078125
1686343472334400800,7.40040087890625,-0.0130157470703125,-0.998138427734375,-0.0421142578125
1686343472344419800,7.410419921875,-0.0091400146484375,-0.997589111328125,-0.041290283203125
1686343472354439000,7.42043896484375,-0.008544921875,-1.000152587890625,-0.04266357421875
1686343472364457700,7.430457763671875,-0.0103759765625,-1.000244140625,-0.040313720703125
1686343472374477800,7.440477783203125,-0.012786865234375,-0.9991607666015625,-0.0379638671875
1686343472384497000,7.450496826171875,-0.017333984375,-1,-0.042510986328125
1686343472394516000,7.460515869140625,-0.01873779296875,-1.001739501953125,-0.03802490234375
1686343472404536000,7.4705361328125,-0.02679443359375,-1.000030517578125,-0.0323944091796875
1686343472414555100,7.48055517578125,-0.0345611572265625,-1.000762939453125,-0.0383148193359375
1686343472424574000,7.490573974609375,-0.0386199951171875,-1.0007171630859375,-0.0448455810546875
1686343472434593000,7.500593017578125,-0.0352020263671875,-1.0034332275390625,-0.0479888916015625
1686343472444612900,7.51061279296875,-0.03369140625,-1.00457763671875,-0.0458526611328125
1686343472454632000,7.5206318359375,-0.0383453369140625,-1.0037384033203125,-0.0408782958984375
1686343472464650800,7.530650634765625,-0.0384674072265625,-1.00531005859375,-0.036529541015625
1686343472474670800,7.5406708984375,-0.032989501953125,-1.0056610107421875,-0.038299560546875
1686343472484690000,7.55068994140625,-0.0316925048828125,-1.0048370361328125,-0.0448455810546875
1686343472494709000,7.560708984375,-0.033050537109375,-1.0033721923828125,-0.04193115234375
1686343472504728000,7.57072802734375,-0.0320587158203125,-1.0005950927734375,-0.0399017333984375
1686343472514748200,7.580748046875,-0.02496337890625,-0.999298095703125,-0.0400238037109375
1686343472524767200,7.590767333984375,-0.0250701904296875,-0.99847412109375,-0.038818359375
1686343472534786300,7.600786376953125,-0.029571533203125,-0.9973297119140625,-0.040252685546875
1686343472544806100,7.61080615234375,-0.0362396240234375,-0.9954833984375,-0.045623779296875
1686343472554825000,7.620824951171875,-0.043792724609375,-0.996063232421875,-0.052001953125
1686343472564844000,7.630843994140625,-0.051788330078125,-0.9967498779296875,-0.0520172119140625
1686343472574863000,7.640863037109375,-0.0489044189453125,-0.99615478515625,-0.0502166748046875
1686343472584883200,7.65088330078125,-0.0426025390625,-0.9971466064453125,-0.0456085205078125
1686343472594902000,7.660902099609375,-0.0353240966796875,-0.997711181640625,-0.0495147705078125
1686343472604921000,7.670921142578125,-0.0330047607421875,-0.9991607666015625,-0.04150390625
1686343472614941200,7.680941162109375,-0.0357208251953125,-0.9998779296875,-0.0461578369140625
1686343472624960300,7.690960205078125,-0.0426177978515625,-0.9971923828125,-0.0583343505859375
1686343472634979000,7.70097900390625,-0.053863525390625,-0.9953460693359375,-0.0579681396484375
1686343472644998100,7.710998046875,-0.060760498046875,-0.994110107421875,-0.056610107421875
1686343472655018000,7.72101806640625,-0.0671844482421875,-0.9988555908203125,-0.054656982421875
1686343472665037000,7.731037109375,-0.0726165771484375,-1.0035400390625,-0.0481414794921875
1686343472675056000,7.74105615234375,-0.06011962890625,-1.0119171142578125,-0.0486297607421875
1686343472685075000,7.751074951171875,-0.0431976318359375,-1.0138092041015625,-0.0555572509765625
1686343472695095000,7.761094970703125,-0.0307464599609375,-1.01220703125,-0.0503387451171875
1686343472705114000,7.771114013671875,-0.0281982421875,-1.0125274658203125,-0.0357513427734375
1686343472715133200,7.78113330078125,-0.032806396484375,-1.00836181640625,-0.0284271240234375
1686343472725152000,7.791152099609375,-0.0372772216796875,-1.00286865234375,-0.0326995849609375
1686343472735172000,7.801172119140625,-0.03436279296875,-0.9996490478515625,-0.0342254638671875
1686343472745191200,7.811191162109375,-0.0171661376953125,-0.9986114501953125,-0.0283355712890625
1686343472755210200,7.821210205078125,0.000457763671875,-0.9922332763671875,-0.0256500244140625
1686343472765230000,7.83122998046875,0.0010833740234375,-0.9909515380859375,-0.0284881591796875
1686343472775249200,7.841249267578125,0.0004730224609375,-0.994842529296875,-0.0431365966796875
1686343472785268000,7.85126806640625,-0.0009613037109375,-0.9993743896484375,-0.053863525390625
1686343472795287000,7.861287109375,-0.0063934326171875,-1.0003814697265625,-0.05413818359375
1686343472805307100,7.87130712890625,-0.0105438232421875,-0.994110107421875,-0.05535888671875
1686343472815326200,7.881326171875,-0.021392822265625,-0.994415283203125,-0.0533294677734375
1686343472825345000,7.891344970703125,-0.018524169921875,-0.9941558837890625,-0.0384979248046875
1686343472835364000,7.901364013671875,-0.010833740234375,-1.00201416015625,-0.00567626953125
1686343472845384200,7.91138427734375,0.0122833251953125,-1.0011444091796875,-0.0365753173828125
1686343472855403300,7.9214033203125,0.0258026123046875,-1.0039520263671875,-0.0261688232421875
1686343472865422000,7.931422119140625,0.02435302734375,-1.001953125,-0.0140380859375
1686343472875441200,7.941441162109375,0.0109100341796875,-1.0007171630859375,-0.012847900390625
1686343472885461000,7.9514609375,0.0010986328125,-1.0013275146484375,-0.0231170654296875
1686343472895480000,7.96147998046875,0.01116943359375,-1.003265380859375,-0.034088134765625
1686343472905499100,7.9714990234375,0.005645751953125,-1.0013427734375,-0.0205841064453125
1686343472915519200,7.981519287109375,-0.0513153076171875,-1.000091552734375,-0.0382232666015625
1686343472925538000,7.9915380859375,-0.08953857421875,-0.992156982421875,-0.0993499755859375
1686343472935557000,8.00155712890625,-0.0783538818359375,-0.9903411865234375,-0.0918731689453125
1686343472945576200,8.011576171875,-0.06744384765625,-0.999908447265625,-0.02587890625
1686343472955596300,8.02159619140625,-0.0592498779296875,-1.00213623046875,-0.01171875
1686343472965615000,8.031614990234376,-0.0480499267578125,-1.0117034912109375,-0.0300445556640625
1686343472975634200,8.04163427734375,-0.0206298828125,-1.0198516845703125,-0.04095458984375
1686343472985653200,8.0516533203125,-0.00115966796875,-1.0182647705078125,-0.0292816162109375
1686343472995673000,8.061673095703124,-0.02197265625,-1.0126800537109375,-0.0172576904296875
1686343473005692200,8.071692138671875,-0.0537872314453125,-1.0052490234375,-0.0398101806640625
1686343473015711000,8.0817109375,-0.046966552734375,-0.9993133544921875,-0.058837890625
1686343473025730000,8.09172998046875,-0.019744873046875,-0.9988861083984375,-0.040771484375
1686343473035750100,8.101750244140625,-0.006103515625,-0.99627685546875,-0.024200439453125
1686343473045769200,8.111769287109375,0.0026397705078125,-0.99114990234375,-0.028564453125
1686343473055788000,8.1217880859375,0.0104827880859375,-0.992584228515625,-0.0256195068359375
1686343473065807000,8.13180712890625,0.035858154296875,-0.98876953125,-0.020599365234375
1686343473075827200,8.1418271484375,0.04498291015625,-1.0084381103515625,-0.0032196044921875
1686343473085846300,8.15184619140625,0.0375213623046875,-1.0059967041015625,-0.0320892333984375
1686343473095865000,8.161864990234376,0.01263427734375,-0.999603271484375,-0.0524749755859375
1686343473105884200,8.17188427734375,-0.0097198486328125,-0.9983978271484375,-0.05059814453125
1686343473115904000,8.181904052734374,-0.0159759521484375,-0.99847412109375,-0.0480499267578125
1686343473125923000,8.191923095703125,-0.02032470703125,-0.9949951171875,-0.0396270751953125
1686343473135942100,8.201942138671875,-0.01885986328125,-0.9938201904296875,-0.0387725830078125
1686343473145961000,8.2119609375,-0.0181427001953125,-0.9952545166015625,-0.0361785888671875
1686343473155981000,8.22198095703125,-0.016510009765625,-0.9959869384765625,-0.0339813232421875
1686343473166000000,8.232000244140625,-0.0165252685546875,-0.997589111328125,-0.035675048828125
1686343473176019200,8.242019287109375,-0.022918701171875,-0.999908447265625,-0.03485107421875
1686343473186038000,8.2520380859375,-0.031005859375,-1.003082275390625,-0.03558349609375
1686343473196058000,8.26205810546875,-0.034393310546875,-1.0060272216796875,-0.0384063720703125
1686343473206077200,8.2720771484375,-0.0342254638671875,-1.0090179443359375,-0.0384063720703125
1686343473216096300,8.28209619140625,-0.0287933349609375,-1.007843017578125,-0.0364532470703125
1686343473226115300,8.292115234375,-0.022247314453125,-1.00701904296875,-0.03564453125
1686343473236135000,8.302135009765625,-0.0211029052734375,-1.0073699951171875,-0.0402374267578125
1686343473246154000,8.312154052734375,-0.025421142578125,-1.0062408447265625,-0.04705810546875
1686343473256173000,8.322173095703125,-0.0350494384765625,-1.000823974609375,-0.0503082275390625
1686343473266192100,8.332192138671875,-0.0454559326171875,-0.9962310791015625,-0.0526123046875
1686343473276212200,8.342212158203125,-0.0525054931640625,-0.991943359375,-0.0490264892578125
1686343473286231000,8.35223095703125,-0.050201416015625,-0.99212646484375,-0.040740966796875
1686343473296250000,8.36225,-0.040618896484375,-0.996368408203125,-0.0402679443359375
1686343473306269200,8.372269287109376,-0.027496337890625,-1.0027923583984375,-0.042755126953125
1686343473316289300,8.382289306640626,-0.0175933837890625,-1.004974365234375,-0.0358734130859375
1686343473326308000,8.39230810546875,-0.0170440673828125,-1.0079345703125,-0.026947021484375
1686343473336327200,8.4023271484375,-0.0182037353515625,-1.008270263671875,-0.0302886962890625
1686343473346346200,8.41234619140625,-0.01507568359375,-1.0081787109375,-0.03057861328125
1686343473356366000,8.422365966796875,-0.017669677734375,-1.0087127685546875,-0.03179931640625
1686343473366385200,8.43238525390625,-0.0274658203125,-1.004364013671875,-0.0397186279296875
1686343473376404000,8.442404052734375,-0.030487060546875,-0.999298095703125,-0.0498504638671875
1686343473386423000,8.452423095703125,-0.022674560546875,-0.9987030029296875,-0.044921875
1686343473396443100,8.462443115234375,-0.0087890625,-0.99664306640625,-0.0329437255859375
1686343473406462200,8.472462158203125,-0.0055694580078125,-0.9945220947265625,-0.0324859619140625
1686343473416481000,8.48248095703125,-0.0098876953125,-0.9965057373046875,-0.0381317138671875
1686343473426500000,8.4925,-0.0108642578125,-0.9961700439453125,-0.0371856689453125
1686343473436520200,8.502520263671874,-0.0102081298828125,-0.9972076416015625,-0.0340576171875
1686343473446539300,8.512539306640624,-0.0115814208984375,-0.9972991943359375,-0.0328369140625
1686343473456558300,8.522558349609374,-0.0178680419921875,-1.00018310546875,-0.035400390625
1686343473466577200,8.5325771484375,-0.021453857421875,-1.00128173828125,-0.0411376953125
1686343473476597000,8.542596923828125,-0.0199432373046875,-1.001007080078125,-0.0435028076171875
1686343473486616000,8.552615966796875,-0.0172271728515625,-1.0013275146484375,-0.04205322265625
1686343473496635100,8.56263525390625,-0.015594482421875,-1.0010986328125,-0.0368499755859375
1686343473506654200,8.572654296875,-0.0214080810546875,-1.002410888671875,-0.0332183837890625
1686343473516674300,8.58267431640625,-0.0269622802734375,-1.0005645751953125,-0.038116455078125
1686343473526693000,8.592693115234376,-0.0318756103515625,-1.002197265625,-0.038818359375
1686343473536712200,8.602712158203126,-0.0359954833984375,-1.0039520263671875,-0.0381622314453125
1686343473546731300,8.612731201171876,-0.0358734130859375,-1.004302978515625,-0.0407867431640625
1686343473556751400,8.62275146484375,-0.036773681640625,-1.005401611328125,-0.0433349609375
1686343473566770400,8.6327705078125,-0.0358734130859375,-1.0048980712890625,-0.043853759765625
1686343473576789200,8.642789306640625,-0.0381317138671875,-1.0033416748046875,-0.0428924560546875
1686343473586808300,8.652808349609375,-0.03680419921875,-1.002197265625,-0.0438079833984375
1686343473596828200,8.662828125,-0.029693603515625,-1.0019989013671875,-0.0461578369140625
1686343473606847200,8.67284716796875,-0.02288818359375,-1.000946044921875,-0.0426177978515625
1686343473616866000,8.682865966796875,-0.0169219970703125,-1.0011749267578125,-0.0379486083984375
1686343473626885000,8.692885009765625,-0.0136871337890625,-0.9995880126953125,-0.0395660400390625
1686343473636905200,8.7029052734375,-0.012481689453125,-0.99981689453125,-0.041412353515625
1686343473646924300,8.71292431640625,-0.017425537109375,-0.997650146484375,-0.040374755859375
1686343473656943400,8.722943359375,-0.01715087890625,-0.99725341796875,-0.047271728515625
1686343473666962200,8.732962158203126,-0.01513671875,-0.99615478515625,-0.046173095703125
1686343473676982300,8.742982177734374,-0.006134033203125,-1.010162353515625,-0.0128936767578125
1686343473687001300,8.75300146484375,-0.0078887939453125,-0.9969482421875,-0.0224609375
1686343473697020400,8.7630205078125,0.004486083984375,-0.997528076171875,-0.05029296875
1686343473707039200,8.773039306640625,0.0236968994140625,-1.0011749267578125,-0.045623779296875
1686343473717059000,8.78305908203125,0.0291595458984375,-1.003662109375,-0.0253753662109375
1686343473727078100,8.793078125,0.0213775634765625,-1.001983642578125,-0.0198516845703125
1686343473737097200,8.80309716796875,-0.0014190673828125,-1.0003204345703125,-0.0272064208984375
1686343473747116300,8.8131162109375,-0.0293731689453125,-0.9995880126953125,-0.046661376953125
1686343473757136100,8.82313623046875,-0.03375244140625,-0.9961700439453125,-0.055084228515625
1686343473767155200,8.8331552734375,-0.0326080322265625,-0.996978759765625,-0.0464630126953125
1686343473777174300,8.84317431640625,-0.0298004150390625,-0.9947662353515625,-0.048583984375
1686343473787193300,8.853193359375,-0.02978515625,-0.995849609375,-0.045989990234375
1686343473797213400,8.86321337890625,-0.0320587158203125,-0.9981231689453125,-0.04107666015625
1686343473807232300,8.873232177734375,-0.0338592529296875,-1.000335693359375,-0.0347442626953125
1686343473817251300,8.883251220703125,-0.043914794921875,-1.00518798828125,-0.030731201171875
1686343473827270100,8.893270263671875,-0.0532684326171875,-1.006072998046875,-0.033294677734375
1686343473837290200,8.903290283203125,-0.0452880859375,-1.0087432861328125,-0.03631591796875
1686343473847309000,8.91330908203125,-0.0350799560546875,-1.0089263916015625,-0.0314788818359375
1686343473857328000,8.923328125,-0.0254364013671875,-1.00396728515625,-0.0370025634765625
1686343473867347200,8.93334716796875,-0.0210418701171875,-1.0039520263671875,-0.037200927734375
1686343473877367300,8.9433671875,-0.023468017578125,-1.00042724609375,-0.0366058349609375
1686343473887386400,8.953386474609376,-0.028106689453125,-0.9980010986328125,-0.0396270751953125
1686343473897405200,8.9634052734375,-0.032989501953125,-0.9979248046875,-0.041351318359375
1686343473907424300,8.97342431640625,-0.0359344482421875,-0.9989166259765625,-0.03680419921875
1686343473917444400,8.9834443359375,-0.038055419921875,-0.9985504150390625,-0.0327301025390625
1686343473927463200,8.993463134765625,-0.0361480712890625,-1.0015106201171875,-0.037353515625
1686343473937482200,9.003482177734375,-0.031951904296875,-1.0003662109375,-0.0467376708984375
1686343473947501000,9.0135009765625,-0.0239715576171875,-1.0007781982421875,-0.046844482421875
1686343473957521200,9.023521240234375,-0.0110321044921875,-0.999786376953125,-0.0411224365234375
1686343473967540200,9.033540283203125,0.00201416015625,-1.00634765625,-0.0316009521484375
1686343473977559000,9.04355908203125,0.0001220703125,-1.0019683837890625,-0.029296875
1686343473987578000,9.053578125,-0.0130462646484375,-1.00213623046875,-0.0329742431640625
1686343473997597200,9.06359716796875,-0.02532958984375,-1.0036773681640625,-0.03338623046875
1686343474007617300,9.0736171875,-0.0326995849609375,-1.00164794921875,-0.03466796875
1686343474017636400,9.08363623046875,-0.0384521484375,-0.99896240234375,-0.0344085693359375
1686343474027655200,9.0936552734375,-0.04327392578125,-1.000091552734375,-0.0367889404296875
1686343474037675300,9.10367529296875,-0.0341949462890625,-1.002197265625,-0.0437164306640625
1686343474047694000,9.113694091796875,-0.01470947265625,-1.0023651123046875,-0.04449462890625
1686343474057713200,9.123713134765625,0.0006256103515625,-1.000885009765625,-0.03936767578125
1686343474067732000,9.13373193359375,0.00341796875,-1.000579833984375,-0.0329437255859375
1686343474077752000,9.143751953125,-0.0080718994140625,-0.9980621337890625,-0.03704833984375
1686343474087771100,9.153771240234375,-0.0143585205078125,-0.9991912841796875,-0.0412445068359375
1686343474097790200,9.163790283203125,-0.0128936767578125,-0.99798583984375,-0.0398101806640625
1686343474107809300,9.173809326171876,-0.010650634765625,-0.9962158203125,-0.037017822265625
1686343474117829400,9.183829345703124,-0.0100860595703125,-0.997589111328125,-0.033538818359375
1686343474127848200,9.19384814453125,-0.01727294921875,-0.997314453125,-0.030914306640625
1686343474137867300,9.2038671875,-0.028961181640625,-0.9976806640625,-0.0399932861328125
1686343474147886300,9.21388623046875,-0.034820556640625,-1.00006103515625,-0.0495758056640625
1686343474157906200,9.22390625,-0.028289794921875,-1.0010833740234375,-0.048919677734375
1686343474167925000,9.233925048828125,-0.024566650390625,-1.0013427734375,-0.0396575927734375
1686343474177944000,9.243944091796875,-0.0256500244140625,-1.000396728515625,-0.0359039306640625
1686343474187963100,9.253963134765625,-0.0261077880859375,-1.0004730224609375,-0.039886474609375
1686343474197983200,9.263983154296875,-0.0199737548828125,-1.00115966796875,-0.03961181640625
1686343474208002000,9.274001953125,-0.015716552734375,-0.9990081787109375,-0.036712646484375
1686343474218021000,9.284021240234376,-0.016693115234375,-1.0007476806640625,-0.03448486328125
1686343474228040200,9.294040283203126,-0.0204315185546875,-1.0052032470703125,-0.03497314453125
1686343474238060300,9.304060302734374,-0.0175323486328125,-1.0080413818359375,-0.0356597900390625
1686343474248079400,9.314079345703124,-0.022735595703125,-1.0092926025390625,-0.0430908203125
1686343474258098200,9.32409814453125,-0.0315399169921875,-1.0072784423828125,-0.04278564453125
1686343474268117200,9.3341171875,-0.0374298095703125,-1.006195068359375,-0.040618896484375
1686343474278137000,9.34413720703125,-0.042266845703125,-1.0040740966796875,-0.045318603515625
1686343474288156200,9.35415625,-0.0443115234375,-1.0012359619140625,-0.046661376953125
1686343474298175000,9.364175048828125,-0.0420379638671875,-0.9990692138671875,-0.043060302734375
1686343474308194000,9.374194091796875,-0.034149169921875,-0.9986724853515625,-0.038330078125
1686343474318214100,9.384214111328125,-0.024017333984375,-1.0003204345703125,-0.039764404296875
1686343474328233200,9.394233154296876,-0.0164337158203125,-0.9987640380859375,-0.03900146484375
1686343474338252300,9.404252197265626,-0.016815185546875,-0.99755859375,-0.04193115234375
1686343474348271000,9.41427099609375,-0.0197296142578125,-0.99896240234375,-0.048583984375
1686343474358291200,9.424291259765624,-0.0212860107421875,-0.9976959228515625,-0.046142578125
1686343474368310300,9.434310302734374,-0.021728515625,-0.9971160888671875,-0.0414276123046875
1686343474378329300,9.444329345703125,-0.0203094482421875,-0.998748779296875,-0.04241943359375
1686343474388348200,9.45434814453125,-0.02545166015625,-0.994964599609375,-0.037994384765625
1686343474398368000,9.464367919921875,-0.021148681640625,-0.99627685546875,-0.040069580078125
1686343474408387000,9.474386962890625,-0.0132598876953125,-0.9977569580078125,-0.036712646484375
1686343474418406100,9.48440625,-0.0113525390625,-0.9965972900390625,-0.0345001220703125
1686343474428425200,9.49442529296875,-0.0118408203125,-0.9973602294921875,-0.036529541015625
1686343474438445000,9.504445068359376,-0.0139617919921875,-1.001373291015625,-0.040496826171875
1686343474448464100,9.514464111328126,-0.016754150390625,-1.001922607421875,-0.046661376953125
1686343474458483200,9.524483154296876,-0.0239105224609375,-1.001068115234375,-0.0421905517578125
1686343474468502300,9.534502197265626,-0.03326416015625,-0.9997406005859375,-0.0389862060546875
1686343474478522400,9.5445224609375,-0.040557861328125,-1.0006103515625,-0.0450897216796875
1686343474488541200,9.554541259765625,-0.04852294921875,-1.000091552734375,-0.043060302734375
1686343474498560000,9.56456005859375,-0.0521087646484375,-0.999908447265625,-0.0463104248046875
1686343474508578800,9.574578857421875,-0.0437469482421875,-1.0034332275390625,-0.0490264892578125
1686343474518599000,9.584598876953125,-0.033782958984375,-1.005462646484375,-0.043121337890625
1686343474528618000,9.594617919921875,-0.0272216796875,-1.0075531005859375,-0.038055419921875
1686343474538636800,9.60463671875,-0.02459716796875,-1.0080413818359375,-0.0378570556640625
1686343474548655900,9.61465576171875,-0.027008056640625,-1.0074310302734375,-0.0400543212890625
1686343474558675700,9.62467578125,-0.032806396484375,-1.005218505859375,-0.041900634765625
1686343474568694800,9.63469482421875,-0.039520263671875,-1.002838134765625,-0.0435638427734375
1686343474578713900,9.6447138671875,-0.0370941162109375,-1.000640869140625,-0.04351806640625
1686343474588733000,9.65473291015625,-0.0272064208984375,-0.999237060546875,-0.044769287109375
1686343474598753000,9.6647529296875,-0.0154266357421875,-0.9977874755859375,-0.0400390625
1686343474608771800,9.674771728515625,-0.005340576171875,-0.99932861328125,-0.0405426025390625
1686343474618791000,9.684791015625,0.0019683837890625,-1.000335693359375,-0.04205322265625
1686343474628810000,9.69481005859375,0.000732421875,-0.999267578125,-0.043365478515625
1686343474638829800,9.704829833984375,-0.00494384765625,-0.9971923828125,-0.048065185546875
1686343474648849000,9.714848876953125,-0.014617919921875,-0.9947662353515625,-0.051239013671875
1686343474658867700,9.72486767578125,-0.0177001953125,-0.995086669921875,-0.0509490966796875
1686343474668886800,9.73488671875,-0.018585205078125,-0.994171142578125,-0.0484161376953125
1686343474678907000,9.744906982421876,-0.02227783203125,-0.993072509765625,-0.0457611083984375
1686343474688926000,9.754926025390626,-0.0268096923828125,-0.996246337890625,-0.0433197021484375
1686343474698944800,9.76494482421875,-0.02947998046875,-0.9994354248046875,-0.033416748046875
1686343474708963800,9.7749638671875,-0.029327392578125,-1.000762939453125,-0.03179931640625
1686343474718984000,9.78498388671875,-0.0222930908203125,-1.003875732421875,-0.0370330810546875
1686343474729003000,9.7950029296875,-0.0200653076171875,-1.0061798095703125,-0.037628173828125
1686343474739021800,9.805021728515625,-0.0210723876953125,-1.0046539306640625,-0.0318756103515625
1686343474749041000,9.815041015625,-0.021026611328125,-1.0040740966796875,-0.0332794189453125
1686343474759060700,9.825060791015625,-0.0231781005859375,-1.003509521484375,-0.0393218994140625
1686343474769079800,9.835079833984375,-0.02288818359375,-1.001617431640625,-0.036590576171875
1686343474779099000,9.845098876953125,-0.0226287841796875,-0.99920654296875,-0.033233642578125
1686343474789118700,9.85511865234375,-0.0199432373046875,-0.9974212646484375,-0.0370635986328125
1686343474799137800,9.8651376953125,-0.015899658203125,-0.9958648681640625,-0.0396728515625
1686343474809156900,9.875156982421874,-0.015045166015625,-0.9977874755859375,-0.034088134765625
1686343474819176000,9.885176025390624,-0.0165557861328125,-0.998687744140625,-0.0361328125
1686343474829196000,9.895196044921875,-0.02728271484375,-0.9967041015625,-0.051300048828125
1686343474839214800,9.90521484375,-0.034637451171875,-0.99505615234375,-0.060638427734375
1686343474849234000,9.91523388671875,-0.04779052734375,-0.998565673828125,-0.053131103515625
1686343474859253000,9.9252529296875,-0.0563201904296875,-1.000335693359375,-0.0428009033203125
1686343474869272800,9.93527294921875,-0.04925537109375,-1.00811767578125,-0.031890869140625
1686343474879291600,9.945291748046875,-0.0337982177734375,-1.0082550048828125,-0.0335693359375
1686343474889310700,9.955310791015625,-0.0165252685546875,-1.006683349609375,-0.0361328125
1686343474899329800,9.965329833984375,-0.0010223388671875,-1.00933837890625,-0.034210205078125
1686343474909350000,9.975349853515626,-0.0018768310546875,-1.00543212890625,-0.0326385498046875
1686343474919369000,9.985368896484376,-0.016082763671875,-0.99908447265625,-0.029327392578125
1686343474929387800,9.9953876953125,-0.0240936279296875,-0.99749755859375,-0.036163330078125
1686343474939406800,10.00540673828125,-0.0223541259765625,-0.9968414306640625,-0.0377960205078125
1686343474949427000,10.015427001953125,-0.01873779296875,-0.9954833984375,-0.0342559814453125
1686343474959446000,10.025446044921875,-0.022674560546875,-0.9957275390625,-0.03778076171875
1686343474969464800,10.03546484375,-0.0206451416015625,-0.9996185302734375,-0.044525146484375
1686343474979484000,10.04548388671875,-0.018341064453125,-1.0037078857421875,-0.04083251953125
1686343474989503700,10.055503662109375,-0.0259552001953125,-1.0030670166015625,-0.0366363525390625
1686343474999522800,10.065522705078125,-0.0381927490234375,-0.999542236328125,-0.04254150390625
1686343475009542000,10.0755419921875,-0.0442352294921875,-0.9994964599609375,-0.04638671875
1686343475019560700,10.085560791015626,-0.0305938720703125,-0.9972076416015625,-0.043426513671875
1686343475029580800,10.095580810546876,-0.0111236572265625,-0.9944610595703125,-0.03509521484375
1686343475039599900,10.105599853515624,0.00787353515625,-0.99920654296875,-0.0298919677734375
1686343475049619000,10.115618896484374,0.014678955078125,-1.0038604736328125,-0.0248870849609375
1686343475059637800,10.1256376953125,0.004547119140625,-1.001068115234375,-0.056243896484375
1686343475069657900,10.135657958984375,-0.0179901123046875,-0.9998931884765625,-0.0532684326171875
1686343475079677000,10.145677001953125,-0.0346832275390625,-0.999481201171875,-0.040252685546875
1686343475089696000,10.155696044921875,-0.0379638671875,-0.997406005859375,-0.040771484375
1686343475099714800,10.16571484375,-0.0390167236328125,-0.99530029296875,-0.0435638427734375
1686343475109734700,10.175734619140625,-0.0424346923828125,-0.9940032958984375,-0.0490264892578125
1686343475119753700,10.185753662109375,-0.0455169677734375,-0.997589111328125,-0.0497894287109375
1686343475129772800,10.195772705078125,-0.0379180908203125,-1.0016326904296875,-0.0421142578125
1686343475139792000,10.2057919921875,-0.0354461669921875,-1.0057525634765625,-0.0308837890625
1686343475149812000,10.21581201171875,-0.0444488525390625,-1.0098876953125,-0.0324554443359375
1686343475159830800,10.225830810546874,-0.0541229248046875,-1.011627197265625,-0.0391387939453125
1686343475169849900,10.235849853515624,-0.0569610595703125,-1.009521484375,-0.0460357666015625
1686343475179870000,10.245869873046875,-0.0481719970703125,-1.0100860595703125,-0.0455474853515625
1686343475189889000,10.255888916015625,-0.0388336181640625,-1.0093841552734375,-0.040008544921875
1686343475199907800,10.265907958984375,-0.0387115478515625,-1.006317138671875,-0.042999267578125
1686343475209927000,10.275927001953125,-0.036529541015625,-1.0036163330078125,-0.0435638427734375
1686343475219946800,10.28594677734375,-0.03253173828125,-1.0035247802734375,-0.0360565185546875
1686343475229965800,10.2959658203125,-0.0326690673828125,-1.0005340576171875,-0.032257080078125
1686343475239985000,10.30598486328125,-0.0329132080078125,-0.996978759765625,-0.0351104736328125
1686343475250003700,10.316003662109376,-0.02508544921875,-0.9959564208984375,-0.0394287109375
1686343475260023800,10.32602392578125,-0.0178985595703125,-0.9947509765625,-0.0381622314453125
1686343475270043000,10.33604296875,-0.0188446044921875,-0.99285888671875,-0.0380401611328125
1686343475280062000,10.34606201171875,-0.020416259765625,-0.9927520751953125,-0.0381011962890625
1686343475290080800,10.356080810546874,-0.0169677734375,-0.99285888671875,-0.0381927490234375
1686343475300100900,10.366100830078125,-0.01324462890625,-0.9952545166015625,-0.043365478515625
1686343475310120000,10.376119873046875,-0.0142669677734375,-0.9969635009765625,-0.049407958984375
1686343475320139000,10.386138916015625,-0.02484130859375,-0.995635986328125,-0.058502197265625
1686343475330157800,10.39615771484375,-0.0316009521484375,-0.994903564453125,-0.0544891357421875
1686343475340177700,10.406177734375,-0.024810791015625,-0.995819091796875,-0.0436553955078125
1686343475350196700,10.41619677734375,-0.010894775390625,-1.0000457763671875,-0.0323486328125
1686343475360215800,10.4262158203125,-0.0113067626953125,-1.001251220703125,-0.016632080078125
1686343475370235000,10.43623486328125,-0.024749755859375,-1.0045013427734375,-0.01751708984375
1686343475380255000,10.4462548828125,-0.04034423828125,-1.007171630859375,-0.0299072265625
1686343475390273800,10.456273681640624,-0.0560760498046875,-1.0073394775390625,-0.0403900146484375
1686343475400292900,10.46629296875,-0.07501220703125,-1.002838134765625,-0.04864501953125
1686343475410312000,10.47631201171875,-0.0906829833984375,-1,-0.0550537109375
1686343475420332000,10.48633203125,-0.0673828125,-1.0091552734375,-0.067626953125
1686343475430350800,10.496350830078125,-0.052001953125,-1.0070953369140625,-0.0428314208984375
1686343475440370000,10.506369873046875,-0.044342041015625,-1.0023651123046875,-0.0348358154296875
1686343475450389800,10.5163896484375,-0.03765869140625,-1.00543212890625,-0.04425048828125
1686343475460408800,10.526408935546876,-0.0307769775390625,-1.0059661865234375,-0.0422210693359375
1686343475470428000,10.536427978515626,-0.02484130859375,-1.0034332275390625,-0.03814697265625
1686343475480446700,10.54644677734375,-0.0269012451171875,-0.9986419677734375,-0.0363616943359375
1686343475490466800,10.556466796875,-0.0380859375,-0.99786376953125,-0.037445068359375
1686343475500486400,10.566486328125,-0.0404510498046875,-0.99920654296875,-0.0406494140625
1686343475510505500,10.57650537109375,-0.0342254638671875,-0.9985504150390625,-0.0453033447265625
1686343475520524300,10.586524169921875,-0.0307464599609375,-0.999114990234375,-0.045745849609375
1686343475530544400,10.59654443359375,-0.03424072265625,-0.999786376953125,-0.05084228515625
1686343475540563500,10.6065634765625,-0.03448486328125,-0.9997711181640625,-0.0492706298828125
1686343475550582500,10.61658251953125,-0.0311431884765625,-0.998077392578125,-0.044036865234375
1686343475560601300,10.626601318359375,-0.0275421142578125,-0.998870849609375,-0.0426483154296875
1686343475570621200,10.63662109375,-0.028076171875,-0.9977264404296875,-0.041107177734375
1686343475580640300,10.64664013671875,-0.0311279296875,-0.9973907470703125,-0.0424652099609375
1686343475590659300,10.656659423828126,-0.03399658203125,-0.9978485107421875,-0.0404815673828125
1686343475600679400,10.666679443359374,-0.035400390625,-0.99822998046875,-0.0395050048828125
1686343475610698200,10.6766982421875,-0.0363616943359375,-1.000579833984375,-0.03948974609375
1686343475620717300,10.68671728515625,-0.0401153564453125,-0.9995574951171875,-0.0388946533203125
1686343475630736400,10.696736328125,-0.04107666015625,-0.9997711181640625,-0.045806884765625
1686343475640756500,10.706756591796875,-0.040740966796875,-1.000213623046875,-0.0496673583984375
1686343475650775600,10.716775634765625,-0.04541015625,-1.000335693359375,-0.052154541015625
1686343475660794400,10.72679443359375,-0.04376220703125,-1.0009765625,-0.0478973388671875
1686343475670813400,10.7368134765625,-0.0430908203125,-1.000457763671875,-0.04510498046875
1686343475680833300,10.746833251953126,-0.04302978515625,-1.0022430419921875,-0.0424652099609375
1686343475690852400,10.756852294921876,-0.04266357421875,-1.002471923828125,-0.0404510498046875
1686343475700871200,10.76687109375,-0.045196533203125,-1.0009613037109375,-0.0411529541015625
1686343475710890200,10.77689013671875,-0.0477142333984375,-0.9996185302734375,-0.040496826171875
1686343475720910300,10.786910400390624,-0.045654296875,-1.0019378662109375,-0.0372161865234375
1686343475730929400,10.796929443359375,-0.0420989990234375,-1.001861572265625,-0.033935546875
1686343475740948500,10.806948486328125,-0.037628173828125,-0.9989013671875,-0.0371551513671875
1686343475750967300,10.81696728515625,-0.035491943359375,-0.9986114501953125,-0.0403289794921875
1686343475760987400,10.8269873046875,-0.03460693359375,-1.0022125244140625,-0.0397796630859375
1686343475771006500,10.83700634765625,-0.0315093994140625,-1.00146484375,-0.0447540283203125
1686343475781025500,10.847025634765625,-0.031585693359375,-1.0008087158203125,-0.043701171875
1686343475791045400,10.85704541015625,-0.037139892578125,-1.0009765625,-0.045318603515625
1686343475801064200,10.867064208984376,-0.04156494140625,-1.0004425048828125,-0.0484619140625
1686343475811083300,10.877083251953126,-0.046844482421875,-1.0007476806640625,-0.051727294921875
1686343475821102300,10.887102294921876,-0.0496063232421875,-1.0008544921875,-0.04559326171875
1686343475831122400,10.897122314453124,-0.0474395751953125,-0.99969482421875,-0.037109375
1686343475841141200,10.907141357421875,-0.0442352294921875,-1.0005645751953125,-0.04119873046875
1686343475851160300,10.917160400390625,-0.0428619384765625,-1.002227783203125,-0.0366058349609375
1686343475861179400,10.927179443359375,-0.0400238037109375,-1.004425048828125,-0.03173828125
1686343475871199500,10.937199462890625,-0.0361480712890625,-1.0020599365234375,-0.03851318359375
1686343475881218600,10.947218505859375,-0.034149169921875,-0.99859619140625,-0.0457611083984375
1686343475891237400,10.9572373046875,-0.0405426025390625,-0.99749755859375,-0.0416717529296875
1686343475901256400,10.96725634765625,-0.042816162109375,-0.9980621337890625,-0.049560546875
1686343475911276300,10.9772763671875,-0.0395660400390625,-0.998809814453125,-0.0497283935546875
1686343475921295400,10.98729541015625,-0.039215087890625,-0.99859619140625,-0.04925537109375
1686343475931314200,10.997314208984376,-0.0392608642578125,-1.000701904296875,-0.046478271484375
1686343475941334300,11.007334228515624,-0.0408782958984375,-1.0029144287109375,-0.042022705078125
1686343475951353300,11.017353271484374,-0.04180908203125,-1.0006561279296875,-0.042938232421875
1686343475961372400,11.027372314453125,-0.045623779296875,-1.00006103515625,-0.0453643798828125
1686343475971391500,11.0373916015625,-0.05279541015625,-0.9981842041015625,-0.0459136962890625
1686343475981411300,11.047411376953125,-0.052276611328125,-0.998260498046875,-0.043365478515625
1686343475991430400,11.057430419921875,-0.0464935302734375,-0.998382568359375,-0.03900146484375
1686343476001449500,11.067449462890625,-0.0398406982421875,-0.998748779296875,-0.0378570556640625
1686343476011468300,11.07746826171875,-0.0360870361328125,-1.0004119873046875,-0.039093017578125
1686343476021488400,11.08748828125,-0.0329742431640625,-1.0018463134765625,-0.0383453369140625
1686343476031507200,11.097507080078126,-0.031097412109375,-1.002532958984375,-0.0372772216796875
1686343476041526300,11.1075263671875,-0.0336761474609375,-1.00201416015625,-0.0391387939453125
1686343476051545300,11.11754541015625,-0.03704833984375,-1.0010986328125,-0.0475311279296875
1686343476061565400,11.1275654296875,-0.0447540283203125,-0.999847412109375,-0.0535888671875
1686343476071584300,11.137584228515625,-0.050994873046875,-0.997100830078125,-0.0503997802734375
1686343476081603300,11.147603271484375,-0.0502166748046875,-0.995635986328125,-0.04388427734375
1686343476091623400,11.15762353515625,-0.047271728515625,-0.995086669921875,-0.03839111328125
1686343476101642500,11.167642578125,-0.0431671142578125,-0.996978759765625,-0.035675048828125
1686343476111661300,11.177661376953125,-0.041473388671875,-0.9999237060546875,-0.0336761474609375
1686343476121680400,11.187680419921875,-0.0410003662109375,-1.0038909912109375,-0.035858154296875
1686343476131700200,11.1977001953125,-0.04132080078125,-1.0065765380859375,-0.03839111328125
1686343476141719300,11.20771923828125,-0.040679931640625,-1.0064849853515625,-0.042938232421875
1686343476151738400,11.21773828125,-0.04144287109375,-1.006011962890625,-0.044586181640625
1686343476161758500,11.227758544921874,-0.0417938232421875,-1.004913330078125,-0.0468292236328125
1686343476171777300,11.23777734375,-0.04425048828125,-1.0026092529296875,-0.049774169921875
1686343476181796400,11.24779638671875,-0.049163818359375,-1.000640869140625,-0.0503387451171875
1686343476191815400,11.2578154296875,-0.05450439453125,-0.999725341796875,-0.048675537109375
1686343476201835500,11.26783544921875,-0.062042236328125,-0.9969329833984375,-0.046875
1686343476211854300,11.277854248046875,-0.0635528564453125,-0.9976654052734375,-0.0459442138671875
1686343476221873400,11.287873291015625,-0.0526580810546875,-0.9995574951171875,-0.040496826171875
1686343476231892200,11.297892333984375,-0.0440826416015625,-0.9983367919921875,-0.038116455078125
1686343476241912300,11.307912353515626,-0.0422515869140625,-1.001739501953125,-0.0406646728515625
1686343476251931400,11.317931396484376,-0.04046630859375,-1.0001983642578125,-0.045806884765625
1686343476261950200,11.3279501953125,-0.0353240966796875,-1.0006256103515625,-0.042938232421875
1686343476271970300,11.33797021484375,-0.0255889892578125,-0.9974822998046875,-0.0374755859375
1686343476281989400,11.3479892578125,-0.022125244140625,-0.998046875,-0.0398406982421875
1686343476292008400,11.358008544921875,-0.0240936279296875,-0.9973602294921875,-0.044525146484375
1686343476302027300,11.36802734375,-0.0244293212890625,-0.9951019287109375,-0.0481414794921875
1686343476312047400,11.37804736328125,-0.0275115966796875,-0.9980010986328125,-0.04754638671875
1686343476322066400,11.38806640625,-0.0347137451171875,-0.9970855712890625,-0.04193115234375
1686343476332085200,11.398085205078125,-0.042999267578125,-0.998931884765625,-0.0403594970703125
1686343476342104300,11.408104248046875,-0.049591064453125,-1.0005645751953125,-0.043853759765625
1686343476352124200,11.418124267578126,-0.05621337890625,-1.0006256103515625,-0.0428466796875
1686343476362143200,11.428143310546876,-0.0602874755859375,-1.0006103515625,-0.0418853759765625
1686343476372162300,11.438162353515626,-0.05908203125,-1.0005950927734375,-0.042510986328125
1686343476382182400,11.448182373046874,-0.0570831298828125,-0.9995269775390625,-0.0426483154296875
1686343476392201500,11.458201416015624,-0.05535888671875,-1.00164794921875,-0.048736572265625
1686343476402220300,11.46822021484375,-0.05242919921875,-1.0023193359375,-0.048583984375
1686343476412239400,11.4782392578125,-0.047027587890625,-1.00396728515625,-0.0438232421875
1686343476422259500,11.488259521484375,-0.0422821044921875,-1.0038604736328125,-0.041229248046875
1686343476432278300,11.4982783203125,-0.044464111328125,-1.0032958984375,-0.040008544921875
1686343476442297300,11.50829736328125,-0.0458526611328125,-1.0030059814453125,-0.0406036376953125
1686343476452316200,11.518316162109375,-0.048858642578125,-1.00128173828125,-0.0419464111328125
1686343476462336300,11.528336181640626,-0.0489501953125,-1.0008697509765625,-0.0413055419921875
1686343476472355300,11.538355224609376,-0.0464324951171875,-0.998992919921875,-0.0415496826171875
1686343476482374400,11.54837451171875,-0.043853759765625,-0.9989166259765625,-0.0444488525390625
1686343476492394500,11.55839453125,-0.041748046875,-0.9999237060546875,-0.04510498046875
1686343476502413000,11.5684130859375,-0.038055419921875,-0.997711181640625,-0.043914794921875
1686343476512431900,11.578431884765624,-0.03521728515625,-0.997406005859375,-0.042022705078125
1686343476522451000,11.588450927734375,-0.03497314453125,-0.9984588623046875,-0.04229736328125
1686343476532471000,11.598470947265625,-0.0387115478515625,-0.9974822998046875,-0.04248046875
1686343476542490000,11.608489990234375,-0.0466156005859375,-0.998443603515625,-0.0393218994140625
1686343476552509200,11.61850927734375,-0.059356689453125,-0.9995574951171875,-0.0405731201171875
1686343476562528800,11.62852880859375,-0.074615478515625,-0.9989166259765625,-0.0487518310546875
1686343476572547800,11.6385478515625,-0.0829925537109375,-0.998199462890625,-0.05926513671875
1686343476582567000,11.64856689453125,-0.0814971923828125,-1.00238037109375,-0.0675201416015625
1686343476592586000,11.6585859375,-0.0629425048828125,-1.000213623046875,-0.0597991943359375
1686343476602606000,11.668606201171874,-0.0359344482421875,-1.0042877197265625,-0.05340576171875
1686343476612625000,11.678625,-0.014007568359375,-1.008270263671875,-0.0489959716796875
1686343476622644000,11.68864404296875,0.0182647705078125,-1.0129241943359375,-0.0594024658203125
1686343476632663000,11.6986630859375,0.0087432861328125,-0.9945526123046875,-0.0547027587890625
1686343476642683100,11.70868310546875,0.00372314453125,-0.9894866943359375,-0.035858154296875
1686343476652702000,11.718701904296875,0.0362701416015625,-0.9993743896484375,-0.0370330810546875
1686343476662721000,11.728720947265625,0.03741455078125,-1.0093536376953125,-0.0257720947265625
1686343476672740900,11.738740966796875,-0.005828857421875,-0.99267578125,-0.0149383544921875
1686343476682760000,11.748760009765626,-0.066009521484375,-0.9832763671875,-0.0162506103515625
1686343476692779000,11.758779052734376,-0.115234375,-0.980743408203125,-0.0229949951171875
1686343476702797800,11.7687978515625,-0.13104248046875,-0.973480224609375,-0.0189971923828125
1686343476712818000,11.77881787109375,-0.1232452392578125,-0.9691619873046875,-0.0115966796875
1686343476722837000,11.7888369140625,-0.103179931640625,-0.96881103515625,-0.0105133056640625
1686343476732856000,11.79885595703125,-0.0712738037109375,-0.9664306640625,-0.0035858154296875
1686343476742876200,11.808876220703125,-0.033843994140625,-0.971527099609375,-0.0093536376953125
1686343476752895000,11.81889501953125,-0.0044097900390625,-0.989044189453125,-0.028045654296875
1686343476762914000,11.8289140625,0.0120391845703125,-0.9998626708984375,-0.05364990234375
1686343476772933000,11.83893310546875,0.0153045654296875,-1.01031494140625,-0.079254150390625
1686343476782953000,11.848952880859375,0.006195068359375,-1.0190277099609375,-0.095855712890625
1686343476792971800,11.8589716796875,-0.0063934326171875,-1.023895263671875,-0.1013336181640625
1686343476802990800,11.868990966796876,-0.011810302734375,-1.02166748046875,-0.0975341796875
1686343476813011000,11.879010986328124,-0.0245819091796875,-1.0215911865234375,-0.093902587890625
1686343476823030000,11.889030029296874,-0.0295867919921875,-1.018096923828125,-0.0844268798828125
1686343476833049000,11.899049072265624,-0.02490234375,-1.010986328125,-0.08673095703125
1686343476843068000,11.90906787109375,-0.0150146484375,-1.0161285400390625,-0.0933380126953125
1686343476853088000,11.919087890625,0.004364013671875,-1.0161590576171875,-0.09722900390625
1686343476863107000,11.929107177734375,0.0256195068359375,-1.0136871337890625,-0.0919342041015625
1686343476873126100,11.939126220703125,0.0358428955078125,-1.0087432861328125,-0.080230712890625
1686343476883146000,11.94914599609375,0.0389251708984375,-0.9997406005859375,-0.0663909912109375
1686343476893164800,11.959164794921875,0.06268310546875,-0.9939117431640625,-0.0476531982421875
1686343476903184000,11.969183837890625,-0.0355682373046875,-0.98260498046875,-0.04083251953125
1686343476913203000,11.979202880859376,-0.064849853515625,-0.9801177978515625,-0.0537261962890625
1686343476923223000,11.98922314453125,-0.0981597900390625,-0.986053466796875,-0.0784454345703125
1686343476933241900,11.999241943359374,-0.131622314453125,-0.9881591796875,-0.0785675048828125
1686343476943261000,12.009260986328124,-0.1342926025390625,-0.9964447021484375,-0.075897216796875
1686343476953280000,12.019280029296874,-0.1143341064453125,-1.00152587890625,-0.0708160400390625
1686343476963300000,12.029300048828125,-0.088836669921875,-1.0003509521484375,-0.062164306640625
1686343476973319200,12.039319091796875,-0.0736236572265625,-1.003814697265625,-0.0692596435546875
1686343476983338000,12.049337890625,-0.0503082275390625,-1.0145263671875,-0.093475341796875
1686343476993357800,12.05935791015625,-0.019195556640625,-1.0223388671875,-0.112762451171875
1686343477003377000,12.069376953125,-0.002105712890625,-1.0186614990234375,-0.109039306640625
1686343477013396000,12.07939599609375,-0.0012664794921875,-1.009490966796875,-0.08795166015625
1686343477023414800,12.089414794921876,-0.0053253173828125,-1.0064697265625,-0.07733154296875
1686343477033435000,12.099434814453126,-0.0093841552734375,-1.0064849853515625,-0.07855224609375
1686343477043454000,12.109453857421874,-0.0150909423828125,-1.011810302734375,-0.0897674560546875
1686343477053473000,12.11947314453125,-0.0274810791015625,-1.008819580078125,-0.090789794921875
1686343477063493000,12.1294931640625,-0.0399627685546875,-0.99700927734375,-0.0749664306640625
1686343477073512200,12.13951220703125,-0.0379638671875,-0.9976654052734375,-0.0659942626953125
1686343477083531000,12.149531005859375,-0.02783203125,-1.000823974609375,-0.0646514892578125
1686343477093550000,12.159550048828125,-0.027984619140625,-0.9949188232421875,-0.062957763671875
1686343477103570000,12.16956982421875,-0.0234527587890625,-0.9981536865234375,-0.0753936767578125
1686343477113589000,12.179589111328125,-0.0233154296875,-0.997772216796875,-0.084716796875
1686343477123607800,12.18960791015625,-0.0224609375,-0.9959869384765625,-0.0767364501953125
1686343477133628000,12.1996279296875,-0.0196990966796875,-0.9922637939453125,-0.0625762939453125
1686343477143647000,12.20964697265625,-0.0255889892578125,-0.98321533203125,-0.0497589111328125
1686343477153666000,12.219666015625,-0.0386199951171875,-0.9788970947265625,-0.041961669921875
1686343477163686100,12.22968603515625,-0.05059814453125,-0.9828033447265625,-0.04620361328125
1686343477173705000,12.239705078125,-0.05908203125,-0.987945556640625,-0.053192138671875
1686343477183724000,12.24972412109375,-0.0629730224609375,-0.9947662353515625,-0.06805419921875
1686343477193743000,12.2597431640625,-0.064239501953125,-1.0048828125,-0.0842742919921875
1686343477203763000,12.269762939453125,-0.0569305419921875,-1.0106201171875,-0.0840606689453125
1686343477213782000,12.279781982421875,-0.0407562255859375,-1.0152740478515625,-0.07830810546875
1686343477223800800,12.28980078125,-0.0269622802734375,-1.01568603515625,-0.0757293701171875
1686343477233821000,12.299821044921876,-0.028472900390625,-1.007232666015625,-0.07012939453125
1686343477243840000,12.309840087890626,-0.0348358154296875,-1.0018157958984375,-0.0696258544921875
1686343477253859000,12.319859130859374,-0.0317840576171875,-1.0055694580078125,-0.0765838623046875
1686343477263878000,12.3298779296875,-0.0276336669921875,-1.0033111572265625,-0.0801239013671875
1686343477273898000,12.33989794921875,-0.03521728515625,-0.996826171875,-0.0771636962890625
1686343477283917000,12.3499169921875,-0.0419921875,-0.994964599609375,-0.0685882568359375
1686343477293936000,12.35993603515625,-0.0370941162109375,-0.9912261962890625,-0.0591888427734375
1686343477303956000,12.3699560546875,-0.0353851318359375,-0.989898681640625,-0.0496063232421875
1686343477313974800,12.379974853515625,-0.03582763671875,-0.9950408935546875,-0.0499114990234375
1686343477323993900,12.389993896484375,-0.0399169921875,-0.9948272705078125,-0.05255126953125
1686343477334013000,12.400012939453125,-0.040374755859375,-0.9964599609375,-0.0600433349609375
1686343477344033000,12.410032958984376,-0.0376739501953125,-1.002716064453125,-0.0713958740234375
1686343477354052000,12.420052001953126,-0.039764404296875,-0.997833251953125,-0.067657470703125
1686343477364071000,12.43007080078125,-0.0440826416015625,-0.99371337890625,-0.06646728515625
1686343477374091000,12.440091064453124,-0.0460205078125,-0.9951629638671875,-0.0654754638671875
1686343477384110000,12.450110107421875,-0.0491180419921875,-0.9937896728515625,-0.06298828125
1686343477394129200,12.460129150390625,-0.0525054931640625,-0.9935455322265625,-0.05926513671875
1686343477404148000,12.47014794921875,-0.0533599853515625,-0.997222900390625,-0.0593414306640625
1686343477414167800,12.480167724609375,-0.059906005859375,-1.0018768310546875,-0.0628509521484375
1686343477424187000,12.490186767578125,-0.0721282958984375,-1.000030517578125,-0.063873291015625
1686343477434206000,12.5002060546875,-0.0832672119140625,-1.0042266845703125,-0.06488037109375
1686343477444226000,12.51022607421875,-0.0901641845703125,-1.007659912109375,-0.0659942626953125
1686343477454244900,12.520244873046876,-0.100311279296875,-1.00408935546875,-0.063751220703125
1686343477464264000,12.530263916015626,-0.1096649169921875,-0.9995880126953125,-0.0584869384765625
1686343477474284000,12.540283935546874,-0.1083984375,-0.997711181640625,-0.05682373046875
1686343477484303000,12.55030322265625,-0.1007232666015625,-1.003387451171875,-0.064971923828125
1686343477494322200,12.560322265625,-0.0871429443359375,-1.0062255859375,-0.0755615234375
1686343477504341500,12.570341552734375,-0.074005126953125,-1.0046539306640625,-0.0648956298828125
1686343477514361300,12.580361328125,-0.065032958984375,-1.001800537109375,-0.0474395751953125
1686343477524380400,12.59038037109375,-0.0650787353515625,-0.997314453125,-0.0431671142578125
1686343477534399500,12.6003994140625,-0.0687255859375,-0.9989471435546875,-0.048248291015625
1686343477544419600,12.610419677734376,-0.07427978515625,-0.99859619140625,-0.05291748046875
1686343477554438700,12.620438720703126,-0.077423095703125,-0.997222900390625,-0.053466796875
1686343477564457500,12.63045751953125,-0.0806884765625,-0.995758056640625,-0.0556488037109375
1686343477574477300,12.640477294921874,-0.083587646484375,-0.9976348876953125,-0.05560302734375
1686343477584496400,12.650496337890624,-0.078643798828125,-0.9951019287109375,-0.0464630126953125
1686343477594515500,12.660515380859374,-0.073883056640625,-0.9927978515625,-0.038726806640625
1686343477604534300,12.6705341796875,-0.0714111328125,-0.9906158447265625,-0.040252685546875
1686343477614554400,12.680554443359375,-0.06768798828125,-0.9950408935546875,-0.0460205078125
1686343477624573400,12.690573486328125,-0.0660552978515625,-0.9927520751953125,-0.0478515625
1686343477634592500,12.700592529296875,-0.0699005126953125,-0.98858642578125,-0.0406494140625
1686343477644612600,12.710612548828125,-0.0736541748046875,-0.99072265625,-0.0394439697265625
1686343477654631700,12.720631591796876,-0.0754547119140625,-0.99053955078125,-0.0444488525390625
1686343477664650500,12.730650390625,-0.083831787109375,-0.994232177734375,-0.0452880859375
1686343477674670300,12.74067041015625,-0.0944366455078125,-0.9921112060546875,-0.0510711669921875
1686343477684689400,12.750689453125,-0.101470947265625,-0.9936370849609375,-0.0567779541015625
1686343477694708500,12.76070849609375,-0.1073455810546875,-0.9976806640625,-0.0615692138671875
1686343477704727300,12.770727294921874,-0.1065216064453125,-0.9966278076171875,-0.058197021484375
1686343477714747400,12.780747314453125,-0.0973663330078125,-0.9972076416015625,-0.04901123046875
1686343477724766500,12.790766357421875,-0.0942230224609375,-0.9994659423828125,-0.03778076171875
1686343477734785500,12.80078564453125,-0.09405517578125,-0.9993743896484375,-0.0361328125
1686343477744805600,12.8108056640625,-0.094696044921875,-1.0019073486328125,-0.0398101806640625
1686343477754824400,12.820824462890625,-0.08978271484375,-1.0003509521484375,-0.0458831787109375
1686343477764843500,12.830843505859375,-0.0845489501953125,-0.9969482421875,-0.0400390625
1686343477774863400,12.84086328125,-0.0830841064453125,-0.9959869384765625,-0.039459228515625
1686343477784882400,12.85088232421875,-0.081268310546875,-0.9954071044921875,-0.045257568359375
1686343477794901500,12.860901611328124,-0.0791473388671875,-0.996246337890625,-0.0450439453125
1686343477804921300,12.87092138671875,-0.0778961181640625,-0.9962005615234375,-0.0465545654296875
